#time,accel_x,accel_y,accel_z
3345.259431,74.020594,-9696.697840,-383.047749
3345.259759,444.123565,-10214.842000,-153.219100
3345.260087,296.082377,-10140.821405,-689.485948
3345.260414,592.164754,-10214.842000,-459.657299
3345.260742,1036.288319,-10362.883188,-153.219100
3345.261070,296.082377,-10436.903782,0.000000
3345.261398,518.144159,-10214.842000,-459.657299
3345.261725,370.102971,-9770.718434,-459.657299
3345.262053,74.020594,-9770.718434,-612.876398
3345.262381,0.000000,-9844.739029,-995.924147
3345.262709,-444.123565,-9770.718434,-536.266849
3345.263036,222.061783,-9844.739029,-1149.143247
3345.263364,222.061783,-10362.883188,-919.314598
3345.263692,296.082377,-10436.903782,-842.705048
3345.264020,518.144159,-10510.924376,0.000000
3345.264347,666.185348,-10362.883188,0.000000
3345.264675,444.123565,-9844.739029,-459.657299
3345.265003,444.123565,-9474.636058,306.438199
3345.265330,592.164754,-9474.636058,0.000000
3345.265658,-222.061783,-8956.491898,0.000000
3345.265986,0.000000,-8956.491898,-229.828649
3345.266314,0.000000,-9178.553681,0.000000
3345.266641,-222.061783,-9474.636058,0.000000
3345.266969,0.000000,-9400.615463,0.000000
3345.267297,444.123565,-9400.615463,306.438199
3345.267625,740.205942,-9548.656652,229.828649
3345.267952,962.267725,-9474.636058,0.000000
3345.268280,740.205942,-9400.615463,229.828649
3345.268608,666.185348,-9252.574275,459.657299
3345.268936,666.185348,-9104.533087,306.438199
3345.269263,444.123565,-9474.636058,229.828649
3345.269591,222.061783,-8808.450710,0.000000
3345.269919,148.041188,-9030.512492,0.000000
3345.270247,148.041188,-9474.636058,-536.266849
3345.270574,0.000000,-9844.739029,-689.485948
3345.270902,444.123565,-10214.842000,-536.266849
3345.271230,444.123565,-10436.903782,-689.485948
3345.271558,740.205942,-10214.842000,-306.438199
3345.271885,740.205942,-10436.903782,0.000000
3345.272213,1036.288319,-10510.924376,-229.828649
3345.272541,222.061783,-9696.697840,0.000000
3345.272868,444.123565,-9992.780217,-306.438199
3345.273196,0.000000,-9770.718434,-689.485948
3345.273524,0.000000,-9844.739029,-919.314598
3345.273852,0.000000,-9918.759623,-995.924147
3345.274179,74.020594,-10288.862594,-1072.533697
3345.274507,74.020594,-9770.718434,0.000000
3345.274835,74.020594,-9474.636058,-766.095498
3345.275163,444.123565,-10066.800811,0.000000
3345.275490,666.185348,-10066.800811,76.609550
3345.275818,518.144159,-9770.718434,229.828649
3345.276146,444.123565,-9474.636058,229.828649
3345.276474,0.000000,-9104.533087,229.828649
3345.276801,74.020594,-8290.306550,612.876398
3345.277129,0.000000,-8364.327145,76.609550
3345.277457,0.000000,-9104.533087,0.000000
3345.277785,74.020594,-8586.388927,0.000000
3345.278112,740.205942,-9030.512492,0.000000
3345.278440,2146.597232,-9326.594869,229.828649
3345.278768,3627.009116,-8660.409521,383.047749
3345.279096,4367.215058,-8290.306550,612.876398
3345.279423,5255.462188,-8734.430116,612.876398
3345.279751,6217.729913,-9548.656652,459.657299
3345.280079,6587.832884,-9326.594869,229.828649
3345.280407,6735.874072,-9030.512492,0.000000
3345.280734,7179.997637,-9178.553681,0.000000
3345.281062,7920.203579,-10066.800811,-229.828649
3345.281390,7402.059420,-10584.944971,76.609550
3345.281717,8142.265362,-10658.965565,-306.438199
3345.282045,8882.471304,-9770.718434,-842.705048
3345.282373,9474.636058,-9252.574275,-1225.752797
3345.282701,9918.759623,-9252.574275,-229.828649
3345.283028,11029.068536,-9326.594869,229.828649
3345.283356,11769.274478,-10066.800811,153.219100
3345.283684,11917.315666,-10436.903782,0.000000
3345.284012,11695.253884,-9918.759623,0.000000
3345.284339,10436.903782,-9844.739029,-306.438199
3345.284667,10658.965565,-9770.718434,-306.438199
3345.284995,11473.192101,-10362.883188,-1072.533697
3345.285323,12879.583391,-11251.130318,-1455.581446
3345.285650,14063.912898,-10881.027347,-306.438199
3345.285978,14804.118840,-9622.677246,383.047749
3345.286306,14656.077652,-8660.409521,612.876398
3345.286634,13841.851115,-9104.533087,1532.190996
3345.286961,13619.789333,-8808.450710,1225.752797
3345.287289,13249.686362,-9104.533087,766.095498
3345.287617,12509.480420,-9474.636058,919.314598
3345.287945,12879.583391,-9326.594869,842.705048
3345.288272,12361.439231,-8586.388927,1455.581446
3345.288600,11917.315666,-9104.533087,1685.410096
3345.288928,11177.109724,-9178.553681,766.095498
3345.289256,10584.944971,-9622.677246,0.000000
3345.289583,10288.862594,-10288.862594,0.000000
3345.289911,9992.780217,-10436.903782,-229.828649
3345.290239,8660.409521,-8364.327145,383.047749
3345.290566,8438.347739,-7772.162391,1685.410096
3345.290894,9104.533087,-7994.224174,1378.971896
3345.291222,10288.862594,-9030.512492,536.266849
3345.291550,10362.883188,-10658.965565,766.095498
3345.291877,9474.636058,-11325.150913,689.485948
3345.292205,8438.347739,-9844.739029,0.000000
3345.292533,7550.100608,-7624.121203,-689.485948
3345.292861,7994.224174,-7772.162391,153.219100
3345.293188,8734.430116,-9474.636058,76.609550
3345.293516,9178.553681,-11621.233289,229.828649
3345.293844,8882.471304,-11621.233289,0.000000
3345.294172,8808.450710,-9326.594869,-919.314598
3345.294499,7772.162391,-8956.491898,-1225.752797
3345.294827,6365.771101,-10436.903782,-689.485948
3345.295155,6513.812290,-10510.924376,76.609550
3345.295483,8364.327145,-9770.718434,-2298.286494
3345.295810,10288.862594,-9992.780217,-1991.848295
3345.296138,9992.780217,-10140.821405,-153.219100
3345.296466,7772.162391,-8660.409521,1762.019645
3345.296794,6513.812290,-7772.162391,1838.629195
3345.297121,9030.512492,-9770.718434,-306.438199
3345.297449,12139.377449,-11843.295072,-2451.505594
3345.297777,12065.356855,-10288.862594,-919.314598
3345.298105,10510.924376,-8956.491898,1149.143247
3345.298432,10732.986159,-10214.842000,1532.190996
3345.298760,10140.821405,-10584.944971,612.876398
3345.299088,8142.265362,-8216.285956,383.047749
3345.299415,7476.080014,-6957.935855,-536.266849
3345.299743,8734.430116,-8142.265362,-612.876398
3345.300071,10214.842000,-9622.677246,-612.876398
3345.300399,9326.594869,-8956.491898,459.657299
3345.300726,9178.553681,-8512.368333,995.924147
3345.301054,10362.883188,-7254.018232,229.828649
3345.301382,10955.047942,-8068.244768,0.000000
3345.301710,12731.542202,-10658.965565,153.219100
3345.302037,15470.304188,-9622.677246,-459.657299
3345.302365,15618.345376,-9992.780217,995.924147
3345.302693,12657.521608,-11621.233289,2068.457845
3345.303021,10881.027347,-11621.233289,2145.067394
3345.303348,11917.315666,-9918.759623,-689.485948
3345.303676,9770.718434,-9474.636058,-1455.581446
3345.304004,7846.182985,-11103.089130,-995.924147
3345.304332,6513.812290,-11843.295072,-1532.190996
3345.304659,5773.606348,-10658.965565,-153.219100
3345.304987,5773.606348,-7550.100608,0.000000
3345.305315,5181.441594,-7402.059420,-1455.581446
3345.305643,2812.782580,-11103.089130,1532.190996
3345.305970,3849.070898,-11325.150913,1685.410096
3345.306298,4663.297435,-8660.409521,-2298.286494
3345.306626,2886.803174,-8882.471304,-1608.800546
3345.306953,4663.297435,-11325.150913,-766.095498
3345.307281,4663.297435,-10658.965565,-153.219100
3345.307609,3923.091493,-10066.800811,229.828649
3345.307937,4959.379811,-11473.192101,-995.924147
3345.308264,5033.400406,-12657.521608,-919.314598
3345.308592,5107.421000,-10436.903782,766.095498
3345.308920,5995.668130,-9474.636058,1302.362347
3345.309248,3034.844362,-8660.409521,2451.505594
3345.309575,370.102971,-8364.327145,3217.601092
3345.309903,-1924.535449,-8364.327145,1838.629195
3345.310231,-2590.720797,-6439.791695,76.609550
3345.310559,-2072.576638,-6513.812290,0.000000
3345.310886,-2664.741391,-7105.977043,842.705048
3345.311214,-3997.112087,-9326.594869,919.314598
3345.311542,-4367.215058,-9474.636058,76.609550
3345.311870,-2960.823768,-9918.759623,-1915.238745
3345.312197,-4145.153275,-10732.986159,-1302.362347
3345.312525,-3701.029710,-10436.903782,-1378.971896
3345.312853,-3701.029710,-10436.903782,-842.705048
3345.313181,-1480.411884,-9844.739029,-842.705048
3345.313508,-518.144159,-9844.739029,-1302.362347
3345.313836,-1184.329507,-10510.924376,1991.848295
3345.314164,-1480.411884,-8882.471304,1072.533697
3345.314492,-1480.411884,-9474.636058,0.000000
3345.314819,-2442.679609,-8808.450710,-1838.629195
3345.315147,-3849.070898,-9474.636058,-2681.334243
3345.315475,-2220.617826,-9992.780217,-2681.334243
3345.315802,148.041188,-9252.574275,-1762.019645
3345.316130,1332.370696,-10807.006753,-536.266849
3345.316458,2812.782580,-11473.192101,536.266849
3345.316786,3034.844362,-11399.171507,0.000000
3345.317113,3034.844362,-10140.821405,-1762.019645
3345.317441,2368.659014,-10732.986159,-2451.505594
3345.317769,2738.761985,-10436.903782,-2145.067394
3345.318097,2664.741391,-11177.109724,229.828649
3345.318424,2294.638420,-11843.295072,1302.362347
3345.318752,2146.597232,-10066.800811,0.000000
3345.319080,1776.494261,-8808.450710,153.219100
3345.319408,1554.432478,-9770.718434,-536.266849
3345.319735,-444.123565,-10732.986159,76.609550
3345.320063,-1406.391290,-7846.182985,76.609550
3345.320391,-592.164754,-6735.874072,-2757.943793
3345.320719,-1110.308913,-7772.162391,-1302.362347
3345.321046,1480.411884,-10510.924376,612.876398
3345.321374,3108.864956,-9400.615463,1225.752797
3345.321702,4589.276840,-8882.471304,383.047749
3345.322030,5255.462188,-12805.562797,383.047749
3345.322357,5477.523971,-11991.336260,0.000000
3345.322685,3849.070898,-9400.615463,842.705048
3345.323013,2368.659014,-10436.903782,919.314598
3345.323341,2368.659014,-11103.089130,766.095498
3345.323668,2442.679609,-9622.677246,153.219100
3345.323996,1406.391290,-7994.224174,612.876398
3345.324324,-222.061783,-7772.162391,2221.676944
3345.324651,1184.329507,-8882.471304,1915.238745
3345.324979,296.082377,-9178.553681,1608.800546
3345.325307,-1850.514855,-8216.285956,689.485948
3345.325635,-2738.761985,-7624.121203,-2145.067394
3345.325962,-3256.906145,-10807.006753,-2451.505594
3345.326290,-1702.473667,-10066.800811,-2528.115143
3345.326618,518.144159,-9918.759623,-2987.772442
3345.326946,814.226536,-11251.130318,-1532.190996
3345.327273,296.082377,-13915.871710,1225.752797
3345.327601,888.247130,-12583.501014,1532.190996
3345.327929,444.123565,-10288.862594,-1149.143247
3345.328256,-888.247130,-9696.697840,-1302.362347
3345.328584,-1480.411884,-7994.224174,-1225.752797
3345.328912,-2960.823768,-8512.368333,153.219100
3345.329239,-2368.659014,-7328.038826,1072.533697
3345.329567,-1184.329507,-7328.038826,153.219100
3345.329895,-1480.411884,-7698.141797,1072.533697
3345.330222,-370.102971,-9178.553681,1072.533697
3345.330550,0.000000,-10436.903782,-612.876398
3345.330878,-1776.494261,-10214.842000,-1378.971896
3345.331205,-1702.473667,-11029.068536,-1302.362347
3345.331533,0.000000,-9178.553681,-1302.362347
3345.331861,888.247130,-9030.512492,536.266849
3345.332188,-962.267725,-10214.842000,1455.581446
3345.332516,-2146.597232,-10510.924376,842.705048
3345.332843,-1554.432478,-10436.903782,-1838.629195
3345.333171,-666.185348,-10436.903782,-2757.943793
3345.333499,-1554.432478,-10658.965565,-1225.752797
3345.333826,-1776.494261,-8586.388927,0.000000
3345.334154,-592.164754,-7624.121203,536.266849
3345.334482,1702.473667,-7328.038826,0.000000
3345.334809,2590.720797,-8290.306550,-536.266849
3345.335137,1258.350101,-9622.677246,1685.410096
3345.335465,1554.432478,-8216.285956,2145.067394
3345.335792,2368.659014,-9400.615463,0.000000
3345.336120,1776.494261,-12139.377449,-1455.581446
3345.336448,592.164754,-13323.706956,-1149.143247
3345.336775,1776.494261,-11991.336260,-2451.505594
3345.337103,3256.906145,-12213.398043,-2911.162892
3345.337431,2368.659014,-13101.645173,-1532.190996
3345.337758,1924.535449,-10807.006753,229.828649
3345.338086,148.041188,-8882.471304,1608.800546
3345.338414,-1110.308913,-7105.977043,689.485948
3345.338741,444.123565,-8142.265362,-1532.190996
3345.339069,370.102971,-7476.080014,-766.095498
3345.339397,-148.041188,-7031.956449,612.876398
3345.339724,222.061783,-7920.203579,0.000000
3345.340052,1924.535449,-10140.821405,0.000000
3345.340380,3108.864956,-11843.295072,536.266849
3345.340707,4441.235652,-10510.924376,0.000000
3345.341035,3108.864956,-12435.459826,612.876398
3345.341362,1776.494261,-11991.336260,0.000000
3345.341690,2146.597232,-11177.109724,-1838.629195
3345.342018,666.185348,-10881.027347,-766.095498
3345.342345,0.000000,-9770.718434,306.438199
3345.342673,-296.082377,-7994.224174,0.000000
3345.343001,0.000000,-7179.997637,229.828649
3345.343328,296.082377,-8660.409521,919.314598
3345.343656,1850.514855,-7846.182985,1072.533697
3345.343984,3034.844362,-9178.553681,612.876398
3345.344311,-370.102971,-7179.997637,1072.533697
3345.344639,-2886.803174,-8142.265362,919.314598
3345.344967,-3404.947333,-11695.253884,-383.047749
3345.345294,-2220.617826,-10436.903782,-2451.505594
3345.345622,-1184.329507,-11251.130318,-3753.867940
3345.345950,-1110.308913,-9696.697840,-3294.210641
3345.346277,-296.082377,-12879.583391,-229.828649
3345.346605,148.041188,-12509.480420,2298.286494
3345.346933,962.267725,-8956.491898,0.000000
3345.347260,-888.247130,-9104.533087,-306.438199
3345.347588,-1554.432478,-7328.038826,0.000000
3345.347916,-2812.782580,-5551.544565,-229.828649
3345.348243,-3330.926739,-6513.812290,689.485948
3345.348571,-2812.782580,-8586.388927,1608.800546
3345.348898,-1480.411884,-9844.739029,612.876398
3345.349226,1110.308913,-10436.903782,0.000000
3345.349554,1924.535449,-11177.109724,-689.485948
3345.349881,1258.350101,-11769.274478,-1915.238745
3345.350209,-444.123565,-11399.171507,-612.876398
3345.350537,-1258.350101,-9474.636058,-1302.362347
3345.350864,-888.247130,-9104.533087,-689.485948
3345.351192,0.000000,-8068.244768,-306.438199
3345.351520,-518.144159,-10214.842000,1608.800546
3345.351847,-962.267725,-10436.903782,1072.533697
3345.352175,370.102971,-9622.677246,-1225.752797
3345.352503,444.123565,-10436.903782,-2221.676944
3345.352830,740.205942,-8586.388927,-1149.143247
3345.353158,222.061783,-9030.512492,1072.533697
3345.353486,592.164754,-8660.409521,1608.800546
3345.353813,1776.494261,-8586.388927,306.438199
3345.354141,1924.535449,-9548.656652,0.000000
3345.354469,592.164754,-9918.759623,459.657299
3345.354796,296.082377,-9622.677246,383.047749
3345.355124,814.226536,-10066.800811,-229.828649
3345.355452,814.226536,-11769.274478,-459.657299
3345.355779,2072.576638,-10658.965565,-1225.752797
3345.356107,3478.967927,-10140.821405,-1302.362347
3345.356435,2886.803174,-9548.656652,76.609550
3345.356762,1628.453072,-9474.636058,1532.190996
3345.357090,148.041188,-8956.491898,2068.457845
3345.357417,666.185348,-7994.224174,306.438199
3345.357745,-888.247130,-8142.265362,-306.438199
3345.358073,-370.102971,-8956.491898,-1455.581446
3345.358400,-1480.411884,-9400.615463,-306.438199
3345.358728,592.164754,-9400.615463,-1072.533697
3345.359056,2368.659014,-10214.842000,-1149.143247
3345.359383,2590.720797,-11621.233289,0.000000
3345.359711,2072.576638,-10362.883188,766.095498
3345.360039,2590.720797,-11547.212695,536.266849
3345.360366,1702.473667,-10807.006753,0.000000
3345.360694,1184.329507,-10955.047942,-612.876398
3345.361022,-296.082377,-9400.615463,536.266849
3345.361349,-518.144159,-8364.327145,536.266849
3345.361677,666.185348,-8734.430116,-536.266849
3345.362005,222.061783,-8586.388927,-229.828649
3345.362332,-592.164754,-9770.718434,919.314598
3345.362660,962.267725,-9770.718434,229.828649
3345.362988,1036.288319,-9696.697840,-1149.143247
3345.363315,-2368.659014,-8882.471304,-459.657299
3345.363643,-5255.462188,-10140.821405,229.828649
3345.363971,-5551.544565,-11843.295072,-1455.581446
3345.364298,-2516.700203,-9474.636058,-2451.505594
3345.364626,740.205942,-8808.450710,-4060.306139
3345.364953,592.164754,-9844.739029,-1302.362347
3345.365281,148.041188,-12583.501014,2681.334243
3345.365609,888.247130,-10140.821405,2834.553343
3345.365936,1110.308913,-7624.121203,-459.657299
3345.366264,-666.185348,-7846.182985,-995.924147
3345.366592,-962.267725,-8734.430116,0.000000
3345.366919,-666.185348,-8142.265362,-536.266849
3345.367247,-1924.535449,-8068.244768,919.314598
3345.367575,-1332.370696,-8734.430116,536.266849
3345.367902,814.226536,-9770.718434,383.047749
3345.368230,1480.411884,-11029.068536,689.485948
3345.368558,444.123565,-10214.842000,-383.047749
3345.368885,-666.185348,-9178.553681,-995.924147
3345.369213,0.000000,-9474.636058,-1302.362347
3345.369541,0.000000,-8956.491898,-612.876398
3345.369868,1184.329507,-8808.450710,612.876398
3345.370196,962.267725,-8512.368333,2298.286494
3345.370524,740.205942,-10955.047942,1915.238745
3345.370851,962.267725,-10807.006753,-2221.676944
3345.371179,1480.411884,-11473.192101,-3217.601092
3345.371507,1036.288319,-10807.006753,-919.314598
3345.371834,1406.391290,-9844.739029,0.000000
3345.372162,1258.350101,-9918.759623,1378.971896
3345.372490,2368.659014,-9326.594869,689.485948
3345.372817,2738.761985,-9030.512492,-842.705048
3345.373145,888.247130,-9622.677246,842.705048
3345.373472,-444.123565,-9770.718434,766.095498
3345.373800,888.247130,-8660.409521,-2145.067394
3345.374128,1554.432478,-9622.677246,-2221.676944
3345.374455,666.185348,-11399.171507,0.000000
3345.374783,1850.514855,-10510.924376,612.876398
3345.375111,3701.029710,-10140.821405,-153.219100
3345.375438,3330.926739,-10510.924376,0.000000
3345.375766,1110.308913,-11547.212695,612.876398
3345.376094,-1480.411884,-7920.203579,919.314598
3345.376421,-1406.391290,-7624.121203,229.828649
3345.376749,-814.226536,-8216.285956,-1532.190996
3345.377077,-1110.308913,-8734.430116,-1608.800546
3345.377404,-1554.432478,-8660.409521,459.657299
3345.377732,148.041188,-8068.244768,536.266849
3345.378060,1036.288319,-9622.677246,0.000000
3345.378387,1110.308913,-10214.842000,383.047749
3345.378715,1998.556043,-10510.924376,153.219100
3345.379043,2146.597232,-11621.233289,0.000000
3345.379370,814.226536,-11769.274478,153.219100
3345.379698,518.144159,-10658.965565,-229.828649
3345.380026,222.061783,-9030.512492,0.000000
3345.380353,-1110.308913,-9696.697840,0.000000
3345.380681,-1850.514855,-9326.594869,612.876398
3345.381009,-1554.432478,-8956.491898,-306.438199
3345.381336,0.000000,-9400.615463,-995.924147
3345.381664,0.000000,-10807.006753,-1378.971896
3345.381991,-888.247130,-11473.192101,-766.095498
3345.382319,-1406.391290,-9178.553681,0.000000
3345.382647,-2368.659014,-8956.491898,-153.219100
3345.382974,-2294.638420,-10066.800811,-1532.190996
3345.383302,-2294.638420,-10658.965565,-1991.848295
3345.383630,-518.144159,-8808.450710,-1225.752797
3345.383957,592.164754,-9622.677246,-689.485948
3345.384285,0.000000,-10881.027347,1149.143247
3345.384613,370.102971,-9474.636058,1685.410096
3345.384940,962.267725,-9992.780217,-383.047749
3345.385268,444.123565,-9326.594869,-1225.752797
3345.385596,-222.061783,-9252.574275,-766.095498
3345.385923,444.123565,-7994.224174,-459.657299
3345.386251,74.020594,-8290.306550,1072.533697
3345.386579,814.226536,-8734.430116,1991.848295
3345.386906,1702.473667,-8438.347739,2451.505594
3345.387234,666.185348,-9474.636058,1838.629195
3345.387562,888.247130,-9326.594869,153.219100
3345.387889,74.020594,-8364.327145,-1915.238745
3345.388217,222.061783,-9104.533087,-1991.848295
3345.388545,1036.288319,-9474.636058,-536.266849
3345.388872,3552.988522,-9992.780217,612.876398
3345.389200,3627.009116,-8808.450710,1608.800546
3345.389527,1924.535449,-11843.295072,1149.143247
3345.389855,888.247130,-11695.253884,-995.924147
3345.390183,1036.288319,-10362.883188,-2451.505594
3345.390510,1924.535449,-9844.739029,-2221.676944
3345.390838,2664.741391,-11325.150913,0.000000
3345.391166,2368.659014,-11473.192101,1378.971896
3345.391493,2516.700203,-9696.697840,766.095498
3345.391821,2812.782580,-9918.759623,-919.314598
3345.392149,444.123565,-8438.347739,-1302.362347
3345.392476,-2368.659014,-8364.327145,-306.438199
3345.392804,-1554.432478,-8586.388927,-1225.752797
3345.393132,-592.164754,-10140.821405,-1149.143247
3345.393459,0.000000,-11695.253884,-536.266849
3345.393787,1776.494261,-10881.027347,-229.828649
3345.394115,2442.679609,-11547.212695,153.219100
3345.394442,2146.597232,-10288.862594,-306.438199
3345.394770,1184.329507,-11843.295072,0.000000
3345.395098,0.000000,-9770.718434,383.047749
3345.395425,0.000000,-7550.100608,-306.438199
3345.395753,-962.267725,-7550.100608,536.266849
3345.396081,-2664.741391,-7550.100608,2068.457845
3345.396408,-3627.009116,-7476.080014,2298.286494
3345.396736,-2738.761985,-9178.553681,-306.438199
3345.397064,-2516.700203,-10214.842000,-3217.601092
3345.397391,-1702.473667,-9696.697840,-3600.648841
3345.397719,-296.082377,-9474.636058,-1149.143247
3345.398046,1480.411884,-9252.574275,536.266849
3345.398374,2590.720797,-9400.615463,1532.190996
3345.398702,1702.473667,-9992.780217,2987.772442
3345.399029,444.123565,-9844.739029,1991.848295
3345.399357,-592.164754,-9622.677246,1225.752797
3345.399685,-1036.288319,-9030.512492,-1149.143247
3345.400012,-1480.411884,-10658.965565,-1455.581446
3345.400340,-1850.514855,-10510.924376,-1991.848295
3345.400668,-1184.329507,-9844.739029,-2451.505594
3345.400995,-1850.514855,-9326.594869,-383.047749
3345.401323,-1406.391290,-8586.388927,0.000000
3345.401651,-1184.329507,-11103.089130,-842.705048
3345.401978,-148.041188,-13027.624579,-1455.581446
3345.402306,444.123565,-10362.883188,-2145.067394
3345.402634,1406.391290,-9252.574275,-1838.629195
3345.402961,-222.061783,-10658.965565,-536.266849
3345.403289,-888.247130,-12583.501014,1838.629195
3345.403617,-296.082377,-9104.533087,0.000000
3345.403944,444.123565,-9622.677246,-2987.772442
3345.404272,-296.082377,-9400.615463,-2834.553343
3345.404600,0.000000,-10214.842000,-1072.533697
3345.404927,-296.082377,-8438.347739,1072.533697
3345.405255,1036.288319,-7698.141797,2221.676944
3345.405582,2960.823768,-9030.512492,2145.067394
3345.405910,3775.050304,-8512.368333,1838.629195
3345.406238,2886.803174,-9696.697840,1838.629195
3345.406565,2664.741391,-8734.430116,1302.362347
3345.406893,2442.679609,-8290.306550,76.609550
3345.407221,1924.535449,-9474.636058,0.000000
3345.407548,2368.659014,-7772.162391,-306.438199
3345.407876,1406.391290,-7254.018232,1072.533697
3345.408204,-444.123565,-10214.842000,2068.457845
3345.408531,814.226536,-11029.068536,0.000000
3345.408859,2072.576638,-10214.842000,-1838.629195
3345.409187,1406.391290,-11251.130318,-383.047749
3345.409514,1110.308913,-10066.800811,689.485948
3345.409842,1406.391290,-9400.615463,0.000000
3345.410170,2146.597232,-9104.533087,-306.438199
3345.410497,2886.803174,-9400.615463,-1149.143247
3345.410825,1776.494261,-9992.780217,0.000000
3345.411153,-888.247130,-7846.182985,1149.143247
3345.411480,-962.267725,-9400.615463,0.000000
3345.411808,0.000000,-11103.089130,-2068.457845
3345.412136,-888.247130,-13175.665768,-1838.629195
3345.412463,-888.247130,-11695.253884,-1991.848295
3345.412791,296.082377,-10288.862594,-2987.772442
3345.413119,444.123565,-11917.315666,-2221.676944
3345.413446,296.082377,-10955.047942,0.000000
3345.413774,222.061783,-9474.636058,842.705048
3345.414101,-666.185348,-8586.388927,1455.581446
3345.414429,0.000000,-8882.471304,536.266849
3345.414757,-1480.411884,-7698.141797,-229.828649
3345.415084,-2886.803174,-8808.450710,229.828649
3345.415412,-3627.009116,-9548.656652,-383.047749
3345.415740,-2664.741391,-9918.759623,-1532.190996
3345.416067,-2516.700203,-9770.718434,-1762.019645
3345.416395,-962.267725,-9104.533087,-1378.971896
3345.416723,370.102971,-9548.656652,-306.438199
3345.417050,-370.102971,-9474.636058,1378.971896
3345.417378,-222.061783,-8660.409521,1455.581446
3345.417706,0.000000,-8068.244768,919.314598
3345.418033,-518.144159,-8512.368333,383.047749
3345.418361,-888.247130,-10881.027347,459.657299
3345.418689,-444.123565,-9400.615463,0.000000
3345.419016,-222.061783,-8364.327145,-842.705048
3345.419344,1110.308913,-9548.656652,-919.314598
3345.419672,1406.391290,-9474.636058,0.000000
3345.419999,-518.144159,-8808.450710,1455.581446
3345.420327,-1554.432478,-9474.636058,689.485948
3345.420655,-444.123565,-11103.089130,-1838.629195
3345.420982,666.185348,-10584.944971,-2604.724693
3345.421310,2220.617826,-11399.171507,-2757.943793
3345.421637,1480.411884,-10807.006753,-536.266849
3345.421965,518.144159,-11769.274478,1608.800546
3345.422293,1554.432478,-11251.130318,76.609550
3345.422620,1480.411884,-9696.697840,-1838.629195
3345.422948,370.102971,-9252.574275,-1991.848295
3345.423276,0.000000,-9104.533087,-1838.629195
3345.423603,-814.226536,-9104.533087,-383.047749
3345.423931,666.185348,-8142.265362,-153.219100
3345.424259,1628.453072,-9844.739029,919.314598
3345.424586,2294.638420,-10436.903782,2221.676944
3345.424914,3256.906145,-8956.491898,536.266849
3345.425242,3775.050304,-10584.944971,0.000000
3345.425569,2590.720797,-10807.006753,153.219100
3345.425896,2072.576638,-9770.718434,229.828649
3345.426223,1332.370696,-7031.956449,383.047749
3345.426551,1554.432478,-7179.997637,995.924147
3345.426878,444.123565,-8142.265362,612.876398
3345.427206,-518.144159,-9918.759623,76.609550
3345.427533,-518.144159,-11621.233289,0.000000
3345.427861,1332.370696,-11325.150913,-1532.190996
3345.428188,1554.432478,-10140.821405,-383.047749
3345.428516,592.164754,-9844.739029,919.314598
3345.428843,888.247130,-9548.656652,842.705048
3345.429171,1258.350101,-8290.306550,76.609550
3345.429499,0.000000,-8290.306550,766.095498
3345.429826,-888.247130,-9030.512492,612.876398
3345.430154,-518.144159,-8216.285956,76.609550
3345.430481,-666.185348,-9622.677246,229.828649
3345.430809,-1110.308913,-11473.192101,229.828649
3345.431136,-1110.308913,-11843.295072,-919.314598
3345.431464,-296.082377,-9844.739029,-1991.848295
3345.431791,1036.288319,-10436.903782,-2604.724693
3345.432119,74.020594,-11917.315666,-919.314598
3345.432446,-1480.411884,-10362.883188,689.485948
3345.432774,-1554.432478,-7105.977043,0.000000
3345.433102,-888.247130,-7550.100608,-1608.800546
3345.433429,-1110.308913,-10955.047942,-383.047749
3345.433757,-1554.432478,-10510.924376,306.438199
3345.434084,-592.164754,-9030.512492,-919.314598
3345.434412,-444.123565,-9770.718434,-1762.019645
3345.434739,-1036.288319,-10510.924376,-1149.143247
3345.435067,-444.123565,-9844.739029,76.609550
3345.435394,0.000000,-8956.491898,383.047749
3345.435722,-518.144159,-8216.285956,0.000000
3345.436049,-518.144159,-9178.553681,-536.266849
3345.436377,-370.102971,-9918.759623,0.000000
3345.436705,-1406.391290,-9104.533087,536.266849
3345.437032,-666.185348,-9252.574275,153.219100
3345.437360,-148.041188,-9622.677246,-919.314598
3345.437687,1036.288319,-10658.965565,-842.705048
3345.438015,222.061783,-10584.944971,229.828649
3345.438342,1924.535449,-8734.430116,0.000000
3345.438670,962.267725,-8068.244768,306.438199
3345.438997,74.020594,-9326.594869,1225.752797
3345.439325,-962.267725,-10288.862594,383.047749
3345.439652,-296.082377,-10140.821405,-842.705048
3345.439980,1406.391290,-8660.409521,-2451.505594
3345.440308,2368.659014,-11547.212695,-1149.143247
3345.440635,2886.803174,-11251.130318,612.876398
3345.440963,3034.844362,-10510.924376,1915.238745
3345.441290,2368.659014,-9474.636058,919.314598
3345.441618,1332.370696,-10140.821405,-766.095498
3345.441945,444.123565,-9474.636058,-1685.410096
3345.442273,1480.411884,-8438.347739,-1915.238745
3345.442600,592.164754,-9474.636058,0.000000
3345.442928,0.000000,-9770.718434,1378.971896
3345.443255,1406.391290,-8734.430116,76.609550
3345.443583,3182.885551,-9474.636058,-306.438199
3345.443911,3182.885551,-11695.253884,153.219100
3345.444238,2220.617826,-10510.924376,229.828649
3345.444566,1184.329507,-9474.636058,536.266849
3345.444893,1406.391290,-8438.347739,76.609550
3345.445221,2220.617826,-8068.244768,-306.438199
3345.445548,1850.514855,-8808.450710,1991.848295
3345.445876,296.082377,-9548.656652,2451.505594
3345.446203,0.000000,-10955.047942,-153.219100
3345.446531,518.144159,-10881.027347,-2221.676944
3345.446858,222.061783,-11103.089130,-1915.238745
3345.447186,0.000000,-10955.047942,-612.876398
3345.447514,-518.144159,-8216.285956,995.924147
3345.447841,-296.082377,-8586.388927,459.657299
3345.448169,222.061783,-8364.327145,-306.438199
3345.448496,-444.123565,-9696.697840,-306.438199
3345.448824,-1554.432478,-8808.450710,995.924147
3345.449151,-1332.370696,-8734.430116,153.219100
3345.449479,-962.267725,-8438.347739,-1225.752797
3345.449806,-962.267725,-10436.903782,-1072.533697
3345.450134,-444.123565,-11843.295072,0.000000
3345.450461,296.082377,-9030.512492,-306.438199
3345.450789,0.000000,-9992.780217,-536.266849
3345.451117,-592.164754,-10584.944971,-1149.143247
3345.451444,-1332.370696,-9844.739029,-383.047749
3345.451772,-2294.638420,-9326.594869,229.828649
3345.452099,-1480.411884,-8438.347739,-459.657299
3345.452427,-592.164754,-10066.800811,-1149.143247
3345.452754,-444.123565,-9622.677246,-153.219100
3345.453082,0.000000,-9474.636058,612.876398
3345.453409,-592.164754,-9030.512492,459.657299
3345.453737,-1480.411884,-9326.594869,-306.438199
3345.454064,-962.267725,-9622.677246,-1302.362347
3345.454392,0.000000,-9326.594869,-1378.971896
3345.454719,-592.164754,-10288.862594,-306.438199
3345.455047,-740.205942,-9548.656652,383.047749
3345.455375,444.123565,-10214.842000,-306.438199
3345.455702,1332.370696,-10510.924376,-919.314598
3345.456030,1406.391290,-11769.274478,-1532.190996
3345.456357,740.205942,-10214.842000,0.000000
3345.456685,296.082377,-9474.636058,0.000000
3345.457012,666.185348,-9696.697840,-536.266849
3345.457340,1924.535449,-8808.450710,-229.828649
3345.457667,1036.288319,-8660.409521,1685.410096
3345.457995,-222.061783,-9030.512492,2528.115143
3345.458322,444.123565,-10140.821405,0.000000
3345.458650,888.247130,-9548.656652,-2221.676944
3345.458978,2220.617826,-10066.800811,-2145.067394
3345.459305,2886.803174,-11473.192101,-842.705048
3345.459633,2294.638420,-9696.697840,1762.019645
3345.459960,1702.473667,-10214.842000,2221.676944
3345.460288,2220.617826,-9844.739029,153.219100
3345.460615,1258.350101,-10140.821405,-766.095498
3345.460943,222.061783,-9474.636058,-1455.581446
3345.461270,444.123565,-7179.997637,-1455.581446
3345.461598,148.041188,-8216.285956,-383.047749
3345.461925,0.000000,-8956.491898,689.485948
3345.462253,740.205942,-9252.574275,1072.533697
3345.462581,2072.576638,-8068.244768,689.485948
3345.462908,1776.494261,-9918.759623,1072.533697
3345.463236,1332.370696,-10881.027347,-76.609550
3345.463563,518.144159,-9178.553681,-995.924147
3345.463891,814.226536,-9622.677246,76.609550
3345.464218,1702.473667,-9178.553681,459.657299
3345.464546,962.267725,-9474.636058,536.266849
3345.464873,0.000000,-10214.842000,0.000000
3345.465201,-1110.308913,-10214.842000,-689.485948
3345.465528,-370.102971,-10140.821405,-995.924147
3345.465856,-592.164754,-10214.842000,-1455.581446
3345.466184,-962.267725,-10288.862594,0.000000
3345.466511,-296.082377,-9474.636058,0.000000
3345.466839,-814.226536,-10807.006753,-612.876398
3345.467166,-518.144159,-9400.615463,-1455.581446
3345.467494,-1998.556043,-9474.636058,-306.438199
3345.467821,-1628.453072,-9104.533087,-1378.971896
3345.468149,-444.123565,-9622.677246,-383.047749
3345.468476,0.000000,-10955.047942,76.609550
3345.468804,-518.144159,-10140.821405,612.876398
3345.469131,-370.102971,-10214.842000,0.000000
3345.469459,0.000000,-9252.574275,-1072.533697
3345.469787,-1110.308913,-11547.212695,-689.485948
3345.470114,-1702.473667,-10732.986159,-689.485948
3345.470442,-962.267725,-7994.224174,-536.266849
3345.470769,-666.185348,-8068.244768,-536.266849
3345.471097,518.144159,-8956.491898,153.219100
3345.471424,74.020594,-9548.656652,1685.410096
3345.471752,0.000000,-8142.265362,1915.238745
3345.472079,148.041188,-8956.491898,-383.047749
3345.472407,666.185348,-8660.409521,-1378.971896
3345.472734,0.000000,-9252.574275,0.000000
3345.473062,444.123565,-10362.883188,1072.533697
3345.473390,962.267725,-9326.594869,536.266849
3345.473717,444.123565,-10214.842000,-842.705048
3345.474045,1110.308913,-9992.780217,-1302.362347
3345.474372,666.185348,-10658.965565,-842.705048
3345.474700,-222.061783,-8660.409521,536.266849
3345.475027,814.226536,-9030.512492,-229.828649
3345.475355,1258.350101,-9696.697840,-536.266849
3345.475682,1850.514855,-9992.780217,-229.828649
3345.476010,1998.556043,-10807.006753,919.314598
3345.476337,2590.720797,-9548.656652,689.485948
3345.476665,1332.370696,-9770.718434,76.609550
3345.476993,592.164754,-9474.636058,-459.657299
3345.477320,74.020594,-11029.068536,-1455.581446
3345.477648,-370.102971,-10214.842000,-1915.238745
3345.477975,666.185348,-9474.636058,-2221.676944
3345.478303,2368.659014,-9992.780217,-1455.581446
3345.478630,3034.844362,-12213.398043,689.485948
3345.478958,2886.803174,-12213.398043,1915.238745
3345.479285,2368.659014,-8956.491898,689.485948
3345.479613,740.205942,-9326.594869,-689.485948
3345.479940,74.020594,-10140.821405,-1762.019645
3345.480268,-296.082377,-9030.512492,-995.924147
3345.480596,-296.082377,-7698.141797,229.828649
3345.480923,-1480.411884,-7328.038826,1532.190996
3345.481251,-296.082377,-8364.327145,2221.676944
3345.481578,1554.432478,-8364.327145,306.438199
3345.481906,222.061783,-11473.192101,0.000000
3345.482233,-444.123565,-9918.759623,229.828649
3345.482561,-296.082377,-7994.224174,-1378.971896
3345.482888,962.267725,-9252.574275,-919.314598
3345.483216,2368.659014,-8068.244768,995.924147
3345.483543,1110.308913,-8956.491898,2451.505594
3345.483871,-2368.659014,-9326.594869,3447.429741
3345.484198,-2146.597232,-10362.883188,153.219100
3345.484526,-444.123565,-9400.615463,-3753.867940
3345.484854,-1480.411884,-9622.677246,-2681.334243
3345.485181,-2516.700203,-10288.862594,153.219100
3345.485509,-814.226536,-9770.718434,-383.047749
3345.485836,222.061783,-10288.862594,-1302.362347
3345.486164,444.123565,-9696.697840,-1302.362347
3345.486491,-740.205942,-10436.903782,-766.095498
3345.486819,-1702.473667,-8438.347739,383.047749
3345.487146,0.000000,-9400.615463,0.000000
3345.487474,814.226536,-11547.212695,-689.485948
3345.487801,518.144159,-13027.624579,0.000000
3345.488129,444.123565,-10732.986159,306.438199
3345.488457,1036.288319,-9622.677246,-1532.190996
3345.488784,-296.082377,-11325.150913,-1762.019645
3345.489112,-518.144159,-11029.068536,-1532.190996
3345.489439,-1110.308913,-9104.533087,-1149.143247
3345.489767,-296.082377,-8142.265362,-306.438199
3345.490094,962.267725,-9400.615463,0.000000
3345.490422,222.061783,-9548.656652,1149.143247
3345.490749,888.247130,-9844.739029,1685.410096
3345.491077,888.247130,-10140.821405,0.000000
3345.491404,1702.473667,-9844.739029,-1532.190996
3345.491732,1406.391290,-8660.409521,-1838.629195
3345.492060,1406.391290,-9252.574275,153.219100
3345.492387,1332.370696,-9474.636058,1762.019645
3345.492715,1406.391290,-8882.471304,919.314598
3345.493042,740.205942,-9918.759623,459.657299
3345.493370,-592.164754,-8216.285956,-995.924147
3345.493697,-592.164754,-8216.285956,-1225.752797
3345.494025,0.000000,-9770.718434,-229.828649
3345.494352,1406.391290,-8660.409521,383.047749
3345.494680,2072.576638,-8808.450710,0.000000
3345.495007,3775.050304,-10510.924376,0.000000
3345.495335,3404.947333,-10066.800811,1302.362347
3345.495663,1184.329507,-9326.594869,2451.505594
3345.495990,-592.164754,-8956.491898,842.705048
3345.496318,-1554.432478,-10584.944971,-1915.238745
3345.496645,-888.247130,-10140.821405,-3217.601092
3345.496973,888.247130,-10288.862594,-2757.943793
3345.497300,1702.473667,-11695.253884,0.000000
3345.497628,2368.659014,-13101.645173,1302.362347
3345.497955,2738.761985,-11547.212695,842.705048
3345.498283,3404.947333,-10584.944971,-1225.752797
3345.498610,518.144159,-10436.903782,-1838.629195
3345.498938,-2368.659014,-9474.636058,-536.266849
3345.499266,-2590.720797,-7328.038826,-383.047749
3345.499593,-1776.494261,-6291.750507,-536.266849
3345.499921,-1924.535449,-8882.471304,153.219100
3345.500248,-962.267725,-10214.842000,1455.581446
3345.500576,888.247130,-10732.986159,0.000000
3345.500903,1554.432478,-11251.130318,-1762.019645
3345.501231,1036.288319,-9992.780217,-1762.019645
3345.501558,296.082377,-9326.594869,0.000000
3345.501886,888.247130,-8364.327145,1532.190996
3345.502213,1554.432478,-7105.977043,1762.019645
3345.502541,814.226536,-7772.162391,2068.457845
3345.502869,-1702.473667,-9918.759623,2451.505594
3345.503196,-1850.514855,-10658.965565,995.924147
3345.503524,-222.061783,-9474.636058,-2221.676944
3345.503851,-962.267725,-8882.471304,-2911.162892
3345.504179,-2146.597232,-8660.409521,-612.876398
3345.504506,-1110.308913,-8438.347739,-229.828649
3345.504834,-296.082377,-8586.388927,383.047749
3345.505161,148.041188,-8882.471304,306.438199
3345.505489,-814.226536,-8956.491898,383.047749
3345.505816,-666.185348,-9474.636058,689.485948
3345.506144,370.102971,-10807.006753,383.047749
3345.506472,740.205942,-10807.006753,-1225.752797
3345.506799,666.185348,-11621.233289,-995.924147
3345.507127,888.247130,-10436.903782,-1532.190996
3345.507454,888.247130,-10214.842000,-1762.019645
3345.507782,1036.288319,-11621.233289,-766.095498
3345.508109,222.061783,-10436.903782,-383.047749
3345.508437,-370.102971,-10066.800811,-536.266849
3345.508764,740.205942,-8586.388927,-842.705048
3345.509092,444.123565,-9104.533087,-306.438199
3345.509419,-296.082377,-9474.636058,919.314598
3345.509747,666.185348,-9696.697840,0.000000
3345.510075,1554.432478,-10436.903782,-1532.190996
3345.510402,2812.782580,-9770.718434,-1225.752797
3345.510730,1776.494261,-8586.388927,-612.876398
3345.511057,1628.453072,-9400.615463,1378.971896
3345.511385,518.144159,-10066.800811,2604.724693
3345.511712,962.267725,-8882.471304,76.609550
3345.512040,-1036.288319,-8956.491898,-1225.752797
3345.512367,-1554.432478,-9178.553681,-1378.971896
3345.512695,-1036.288319,-8290.306550,-1532.190996
3345.513022,0.000000,-10510.924376,-229.828649
3345.513350,1924.535449,-8882.471304,536.266849
3345.513677,3034.844362,-8882.471304,229.828649
3345.514005,2590.720797,-9770.718434,1762.019645
3345.514333,296.082377,-9104.533087,1915.238745
3345.514660,-1406.391290,-8364.327145,689.485948
3345.514988,-1480.411884,-10066.800811,-1915.238745
3345.515315,-2368.659014,-10881.027347,-2145.067394
3345.515643,-222.061783,-9252.574275,-2911.162892
3345.515970,1332.370696,-9844.739029,-1685.410096
3345.516298,2812.782580,-12213.398043,536.266849
3345.516625,3849.070898,-12731.542202,1838.629195
3345.516953,3627.009116,-11695.253884,612.876398
3345.517280,814.226536,-9178.553681,-306.438199
3345.517608,-1554.432478,-7846.182985,-1072.533697
3345.517936,-1924.535449,-7402.059420,-1072.533697
3345.518263,-2220.617826,-8660.409521,-383.047749
3345.518591,-1998.556043,-8660.409521,1225.752797
3345.518918,-888.247130,-9474.636058,229.828649
3345.519246,666.185348,-10288.862594,-689.485948
3345.519573,1628.453072,-11843.295072,-1608.800546
3345.519901,740.205942,-11991.336260,-459.657299
3345.520228,-296.082377,-9474.636058,0.000000
3345.520556,148.041188,-8290.306550,459.657299
3345.520883,2442.679609,-7179.997637,-459.657299
3345.521211,1110.308913,-7105.977043,2451.505594
3345.521539,-1480.411884,-10066.800811,3907.087040
3345.521866,-3034.844362,-11399.171507,1455.581446
3345.522194,-888.247130,-10732.986159,-3447.429741
3345.522521,74.020594,-9326.594869,-4826.401637
3345.522849,-296.082377,-9474.636058,-1302.362347
3345.523176,-1258.350101,-8068.244768,2681.334243
3345.523504,0.000000,-7846.182985,1838.629195
3345.523831,1480.411884,-8586.388927,-459.657299
3345.524159,814.226536,-11177.109724,0.000000
3345.524486,-1110.308913,-10214.842000,919.314598
3345.524814,-444.123565,-7772.162391,1149.143247
3345.525142,518.144159,-9474.636058,-612.876398
3345.525469,2220.617826,-11917.315666,-1762.019645
3345.525797,1110.308913,-12065.356855,-689.485948
3345.526124,1480.411884,-8956.491898,0.000000
3345.526452,1850.514855,-9696.697840,-766.095498
3345.526779,1554.432478,-11251.130318,-1608.800546
3345.527107,0.000000,-10658.965565,-612.876398
3345.527434,-296.082377,-8956.491898,0.000000
3345.527762,296.082377,-7328.038826,-306.438199
3345.528089,666.185348,-9992.780217,-229.828649
3345.528417,1258.350101,-10288.862594,0.000000
3345.528744,1702.473667,-10510.924376,0.000000
3345.529072,1332.370696,-11029.068536,-153.219100
3345.529400,1628.453072,-9474.636058,-459.657299
3345.529727,666.185348,-8512.368333,-459.657299
3345.530055,814.226536,-9622.677246,383.047749
3345.530382,-296.082377,-10658.965565,1072.533697
3345.530710,222.061783,-9844.739029,76.609550
3345.531037,-296.082377,-10066.800811,-1225.752797
3345.531365,-296.082377,-8956.491898,-1532.190996
3345.531692,370.102971,-8956.491898,-612.876398
3345.532020,666.185348,-10436.903782,1532.190996
3345.532347,1406.391290,-8660.409521,2145.067394
3345.532675,962.267725,-8142.265362,919.314598
3345.533002,2072.576638,-8290.306550,0.000000
3345.533330,-370.102971,-9104.533087,1762.019645
3345.533657,-2294.638420,-10140.821405,1378.971896
3345.533985,-1998.556043,-9548.656652,-1149.143247
3345.534313,-1036.288319,-10214.842000,-2757.943793
3345.534640,592.164754,-8956.491898,-3753.867940
3345.534968,518.144159,-10140.821405,-1225.752797
3345.535295,1332.370696,-10955.047942,2451.505594
3345.535623,2960.823768,-10732.986159,1991.848295
3345.535950,2590.720797,-10807.006753,0.000000
3345.536278,740.205942,-9548.656652,-383.047749
3345.536605,-1036.288319,-8586.388927,-766.095498
3345.536933,-1924.535449,-8882.471304,-1685.410096
3345.537260,-1554.432478,-9252.574275,-1608.800546
3345.537588,-740.205942,-8660.409521,-1149.143247
3345.537915,-296.082377,-10288.862594,306.438199
3345.538243,518.144159,-10658.965565,689.485948
3345.538571,2146.597232,-11029.068536,76.609550
3345.538898,1036.288319,-10658.965565,-689.485948
3345.539226,1480.411884,-9696.697840,-612.876398
3345.539553,1184.329507,-9770.718434,229.828649
3345.539881,2368.659014,-8142.265362,1225.752797
3345.540208,1332.370696,-7402.059420,1532.190996
3345.540536,-296.082377,-9548.656652,1608.800546
3345.540863,-2146.597232,-11103.089130,153.219100
3345.541191,-370.102971,-10288.862594,-1991.848295
3345.541518,592.164754,-9326.594869,-2528.115143
3345.541846,0.000000,-9622.677246,-919.314598
3345.542173,0.000000,-9770.718434,1302.362347
3345.542501,370.102971,-9770.718434,1838.629195
3345.542828,0.000000,-9178.553681,995.924147
3345.543156,0.000000,-9474.636058,536.266849
3345.543484,-222.061783,-8808.450710,-766.095498
3345.543811,0.000000,-8956.491898,-536.266849
3345.544139,444.123565,-9918.759623,76.609550
3345.544466,1036.288319,-10436.903782,459.657299
3345.544794,-370.102971,-9696.697840,1302.362347
3345.545121,1258.350101,-9770.718434,0.000000
3345.545449,518.144159,-10510.924376,-1608.800546
3345.545776,370.102971,-10955.047942,-1149.143247
3345.546104,0.000000,-10214.842000,-919.314598
3345.546431,296.082377,-8734.430116,-612.876398
3345.546759,1110.308913,-8438.347739,0.000000
3345.547086,592.164754,-10436.903782,1378.971896
3345.547414,0.000000,-9770.718434,1762.019645
3345.547741,-592.164754,-9770.718434,536.266849
3345.548069,814.226536,-9326.594869,-1532.190996
3345.548397,888.247130,-8660.409521,-1991.848295
3345.548724,0.000000,-9622.677246,-153.219100
3345.549052,0.000000,-10362.883188,1302.362347
3345.549379,1258.350101,-10510.924376,0.000000
3345.549707,2072.576638,-10140.821405,-1991.848295
3345.550034,370.102971,-10807.006753,-2068.457845
3345.550362,-962.267725,-9622.677246,-306.438199
3345.550689,-666.185348,-9474.636058,919.314598
3345.551017,0.000000,-9622.677246,689.485948
3345.551344,962.267725,-9400.615463,0.000000
3345.551672,296.082377,-9252.574275,-306.438199
3345.551999,1110.308913,-10066.800811,1072.533697
3345.552327,-888.247130,-9474.636058,842.705048
3345.552654,-962.267725,-8882.471304,0.000000
3345.552982,-1554.432478,-10140.821405,-612.876398
3345.553310,-2220.617826,-9696.697840,-919.314598
3345.553637,-296.082377,-8808.450710,-919.314598
3345.553965,1184.329507,-9252.574275,0.000000
3345.554292,2368.659014,-11177.109724,1302.362347
3345.554620,2442.679609,-12731.542202,995.924147
3345.554947,2590.720797,-10955.047942,229.828649
3345.555275,444.123565,-9178.553681,-766.095498
3345.555602,-296.082377,-8586.388927,-1608.800546
3345.555930,-444.123565,-8956.491898,-1915.238745
3345.556257,-1258.350101,-8512.368333,-229.828649
3345.556585,-888.247130,-8068.244768,1072.533697
3345.556912,0.000000,-8290.306550,1532.190996
3345.557240,1406.391290,-9252.574275,229.828649
3345.557567,1554.432478,-10584.944971,-383.047749
3345.557895,740.205942,-10658.965565,-459.657299
3345.558223,888.247130,-8808.450710,-536.266849
3345.558550,2368.659014,-8438.347739,-842.705048
3345.558878,2960.823768,-8364.327145,0.000000
3345.559205,1998.556043,-9474.636058,2528.115143
3345.559533,222.061783,-9030.512492,2451.505594
3345.559860,-1998.556043,-11029.068536,0.000000
3345.560188,-1406.391290,-11251.130318,-2451.505594
3345.560515,370.102971,-10658.965565,-4366.744339
3345.560843,74.020594,-11177.109724,-2298.286494
3345.561170,0.000000,-10436.903782,0.000000
3345.561498,888.247130,-9104.533087,995.924147
3345.561825,2590.720797,-9622.677246,612.876398
3345.562153,592.164754,-10732.986159,536.266849
3345.562480,-1702.473667,-8364.327145,1072.533697
3345.562808,-2442.679609,-6513.812290,-766.095498
3345.563136,-814.226536,-9104.533087,-1072.533697
3345.563463,518.144159,-11251.130318,-995.924147
3345.563791,-444.123565,-11251.130318,1608.800546
3345.564118,518.144159,-10584.944971,536.266849
3345.564446,1036.288319,-10732.986159,-1762.019645
3345.564773,1554.432478,-11769.274478,-2451.505594
3345.565101,-740.205942,-10658.965565,-689.485948
3345.565428,-1702.473667,-9030.512492,459.657299
3345.565756,-1036.288319,-7328.038826,459.657299
3345.566083,-1850.514855,-7698.141797,1455.581446
3345.566411,-1036.288319,-8956.491898,2374.896044
3345.566738,-814.226536,-9400.615463,842.705048
3345.567066,-296.082377,-9844.739029,-459.657299
3345.567393,-1406.391290,-9548.656652,-1915.238745
3345.567721,-296.082377,-8068.244768,-2451.505594
3345.568049,0.000000,-8364.327145,-689.485948
3345.568376,1036.288319,-10066.800811,1991.848295
3345.568704,1036.288319,-10584.944971,1532.190996
3345.569031,444.123565,-9474.636058,0.000000
3345.569359,592.164754,-9474.636058,-1838.629195
3345.569686,296.082377,-11251.130318,-995.924147
3345.570014,-370.102971,-9844.739029,612.876398
3345.570341,-592.164754,-8068.244768,306.438199
3345.570669,1924.535449,-9474.636058,-1608.800546
3345.570996,2738.761985,-11029.068536,-1225.752797
3345.571324,1258.350101,-10140.821405,612.876398
3345.571651,888.247130,-8364.327145,612.876398
3345.571979,-296.082377,-8438.347739,-229.828649
3345.572306,-222.061783,-10362.883188,-612.876398
3345.572634,592.164754,-10140.821405,-919.314598
3345.572962,1406.391290,-9770.718434,76.609550
3345.573289,3256.906145,-10955.047942,153.219100
3345.573617,3108.864956,-11029.068536,229.828649
3345.573944,2294.638420,-10658.965565,459.657299
3345.574272,-370.102971,-10436.903782,76.609550
3345.574599,-1480.411884,-9548.656652,-1762.019645
3345.574927,-1258.350101,-9474.636058,-3140.991542
3345.575254,-518.144159,-9326.594869,-2221.676944
3345.575582,666.185348,-9844.739029,689.485948
3345.575909,962.267725,-10288.862594,2911.162892
3345.576237,1628.453072,-9252.574275,1762.019645
3345.576564,1776.494261,-9770.718434,-766.095498
3345.576892,1258.350101,-8512.368333,-1685.410096
3345.577219,666.185348,-8660.409521,-459.657299
3345.577547,370.102971,-7550.100608,612.876398
3345.577875,-296.082377,-7254.018232,1532.190996
3345.578202,-370.102971,-9992.780217,1838.629195
3345.578530,888.247130,-10510.924376,1149.143247
3345.578857,1258.350101,-11547.212695,229.828649
3345.579185,370.102971,-10658.965565,-306.438199
3345.579512,296.082377,-9548.656652,-2221.676944
3345.579840,296.082377,-8660.409521,-1072.533697
3345.580167,148.041188,-6513.812290,229.828649
3345.580495,-1258.350101,-6661.853478,1685.410096
3345.580822,-1924.535449,-9474.636058,2681.334243
3345.581150,-1850.514855,-10510.924376,1302.362347
3345.581477,296.082377,-9770.718434,-1915.238745
3345.581805,518.144159,-11473.192101,-2987.772442
3345.582132,-518.144159,-11843.295072,-995.924147
3345.582460,518.144159,-10362.883188,-153.219100
3345.582788,518.144159,-8956.491898,-459.657299
3345.583115,222.061783,-9844.739029,-612.876398
3345.583443,0.000000,-11325.150913,0.000000
3345.583770,-370.102971,-9918.759623,0.000000
3345.584098,-1036.288319,-9548.656652,-229.828649
3345.584425,-592.164754,-9030.512492,-306.438199
3345.584753,-296.082377,-9844.739029,-459.657299
3345.585080,-518.144159,-10288.862594,306.438199
3345.585408,-888.247130,-9474.636058,-459.657299
3345.585735,0.000000,-10214.842000,-1608.800546
3345.586063,74.020594,-8216.285956,-2221.676944
3345.586390,370.102971,-9474.636058,-229.828649
3345.586718,962.267725,-9696.697840,689.485948
3345.587046,-296.082377,-9844.739029,1685.410096
3345.587373,-370.102971,-9696.697840,919.314598
3345.587701,0.000000,-9400.615463,-1991.848295
3345.588028,-1110.308913,-11029.068536,-1838.629195
3345.588356,-740.205942,-10362.883188,-229.828649
3345.588683,-222.061783,-7994.224174,0.000000
3345.589011,1036.288319,-7402.059420,536.266849
3345.589338,2664.741391,-9548.656652,995.924147
3345.589666,2590.720797,-10436.903782,919.314598
3345.589993,1480.411884,-8956.491898,1762.019645
3345.590321,444.123565,-8290.306550,153.219100
3345.590648,518.144159,-9548.656652,-842.705048
3345.590976,296.082377,-10881.027347,-612.876398
3345.591303,592.164754,-10214.842000,229.828649
3345.591631,1332.370696,-9474.636058,76.609550
3345.591959,2960.823768,-9770.718434,-1072.533697
3345.592286,3552.988522,-10807.006753,-1225.752797
3345.592614,1554.432478,-11029.068536,919.314598
3345.592941,-1406.391290,-9030.512492,612.876398
3345.593269,-1850.514855,-9548.656652,-2068.457845
3345.593596,-222.061783,-9252.574275,-3600.648841
3345.593924,1110.308913,-10214.842000,-1915.238745
3345.594251,592.164754,-10436.903782,1149.143247
3345.594579,1184.329507,-10584.944971,2681.334243
3345.594906,3034.844362,-9844.739029,383.047749
3345.595234,3478.967927,-10510.924376,-1532.190996
3345.595561,1332.370696,-10955.047942,-306.438199
3345.595889,-518.144159,-8808.450710,842.705048
3345.596216,0.000000,-6957.935855,76.609550
3345.596544,518.144159,-7846.182985,-1455.581446
3345.596872,-1110.308913,-10881.027347,842.705048
3345.597199,-1480.411884,-11103.089130,2374.896044
3345.597527,814.226536,-9770.718434,612.876398
3345.597854,1406.391290,-10066.800811,-1455.581446
3345.598182,666.185348,-10288.862594,-1532.190996
3345.598509,-814.226536,-8586.388927,536.266849
3345.598837,148.041188,-6365.771101,1072.533697
3345.599164,-888.247130,-6069.688724,689.485948
3345.599492,-1554.432478,-9474.636058,1455.581446
3345.599819,-666.185348,-10881.027347,995.924147
3345.600147,-592.164754,-11029.068536,459.657299
3345.600474,370.102971,-10658.965565,-536.266849
3345.600802,518.144159,-10510.924376,-1762.019645
3345.601129,74.020594,-9104.533087,-1225.752797
3345.601457,74.020594,-8882.471304,-383.047749
3345.601785,0.000000,-8808.450710,536.266849
3345.602112,-518.144159,-9030.512492,612.876398
3345.602440,-740.205942,-9844.739029,383.047749
3345.602767,-148.041188,-9992.780217,-229.828649
3345.603095,-814.226536,-11251.130318,536.266849
3345.603422,0.000000,-11399.171507,689.485948
3345.603750,222.061783,-10362.883188,-1685.410096
3345.604077,0.000000,-9474.636058,-2374.896044
3345.604405,222.061783,-9844.739029,-2681.334243
3345.604732,0.000000,-10436.903782,-612.876398
3345.605060,518.144159,-8808.450710,229.828649
3345.605387,74.020594,-9548.656652,612.876398
3345.605715,962.267725,-10732.986159,-689.485948
3345.606042,444.123565,-10881.027347,76.609550
3345.606370,-592.164754,-10658.965565,76.609550
3345.606698,0.000000,-9326.594869,-1608.800546
3345.607025,0.000000,-8882.471304,-2298.286494
3345.607353,370.102971,-8364.327145,-919.314598
3345.607680,888.247130,-8512.368333,153.219100
3345.608008,1776.494261,-10214.842000,1608.800546
3345.608335,2368.659014,-9770.718434,995.924147
3345.608663,1924.535449,-9918.759623,153.219100
3345.608990,1036.288319,-10436.903782,-229.828649
3345.609318,74.020594,-8956.491898,0.000000
3345.609645,370.102971,-8660.409521,0.000000
3345.609973,888.247130,-9104.533087,-1302.362347
3345.610300,888.247130,-9178.553681,-383.047749
3345.610628,740.205942,-9400.615463,1225.752797
3345.610955,2072.576638,-9326.594869,919.314598
3345.611283,1406.391290,-9696.697840,689.485948
3345.611611,0.000000,-10140.821405,0.000000
3345.611938,-1110.308913,-10288.862594,-1991.848295
3345.612266,-2146.597232,-10658.965565,-2604.724693
3345.612593,518.144159,-10288.862594,-2374.896044
3345.612921,1702.473667,-9400.615463,-2298.286494
3345.613248,1110.308913,-11399.171507,1455.581446
3345.613576,1998.556043,-11473.192101,1991.848295
3345.613903,3108.864956,-9622.677246,306.438199
3345.614231,1554.432478,-9474.636058,0.000000
3345.614558,74.020594,-9030.512492,-536.266849
3345.614886,-1036.288319,-7698.141797,-689.485948
3345.615213,-962.267725,-7179.997637,-612.876398
3345.615541,-518.144159,-9474.636058,-612.876398
3345.615868,0.000000,-10881.027347,0.000000
3345.616196,1480.411884,-11325.150913,383.047749
3345.616524,2294.638420,-11473.192101,76.609550
3345.616851,1554.432478,-10362.883188,0.000000
3345.617179,814.226536,-8216.285956,459.657299
3345.617506,296.082377,-7105.977043,76.609550
3345.617834,-962.267725,-6809.894666,383.047749
3345.618161,-3330.926739,-9770.718434,995.924147
3345.618489,-2072.576638,-11325.150913,919.314598
3345.618816,222.061783,-10362.883188,-766.095498
3345.619144,1036.288319,-9844.739029,-2451.505594
3345.619471,0.000000,-10436.903782,-536.266849
3345.619799,222.061783,-10436.903782,76.609550
3345.620126,666.185348,-8438.347739,306.438199
3345.620454,0.000000,-8586.388927,-536.266849
3345.620781,-888.247130,-8734.430116,229.828649
3345.621109,-1480.411884,-9622.677246,919.314598
3345.621437,-444.123565,-10807.006753,1149.143247
3345.621764,148.041188,-10436.903782,-459.657299
3345.622092,-296.082377,-11325.150913,-919.314598
3345.622419,-296.082377,-9918.759623,-766.095498
3345.622747,222.061783,-8956.491898,-1225.752797
3345.623074,0.000000,-8512.368333,-383.047749
3345.623402,0.000000,-10066.800811,-306.438199
3345.623729,-296.082377,-8882.471304,153.219100
3345.624057,0.000000,-8956.491898,76.609550
3345.624384,0.000000,-10214.842000,-383.047749
3345.624712,444.123565,-11547.212695,536.266849
3345.625039,148.041188,-10658.965565,-689.485948
3345.625367,518.144159,-9474.636058,-2604.724693
3345.625694,222.061783,-9918.759623,-1991.848295
3345.626022,666.185348,-9400.615463,306.438199
3345.626350,888.247130,-9030.512492,919.314598
3345.626677,592.164754,-7994.224174,919.314598
3345.627005,1110.308913,-9178.553681,-459.657299
3345.627332,1184.329507,-12139.377449,-383.047749
3345.627660,444.123565,-11695.253884,229.828649
3345.627987,370.102971,-9252.574275,-383.047749
3345.628315,592.164754,-7846.182985,-919.314598
3345.628642,1776.494261,-9400.615463,-612.876398
3345.628970,1036.288319,-9770.718434,229.828649
3345.629297,592.164754,-8438.347739,1455.581446
3345.629625,888.247130,-7920.203579,612.876398
3345.629953,3182.885551,-10140.821405,-1225.752797
3345.630280,74.020594,-10584.944971,842.705048
3345.630608,-1406.391290,-10140.821405,1608.800546
3345.630935,-1554.432478,-10140.821405,-995.924147
3345.631263,-296.082377,-9844.739029,-3677.258390
3345.631591,888.247130,-9030.512492,-3830.477490
3345.631918,1406.391290,-9770.718434,-383.047749
3345.632246,1406.391290,-10510.924376,3907.087040
3345.632573,2072.576638,-9918.759623,4290.134789
3345.632901,2664.741391,-8512.368333,0.000000
3345.633229,1036.288319,-9252.574275,-842.705048
3345.633556,-592.164754,-9474.636058,-689.485948
3345.633884,-666.185348,-8364.327145,-1072.533697
3345.634211,-1480.411884,-8660.409521,-1685.410096
3345.634539,0.000000,-9844.739029,-1991.848295
3345.634867,74.020594,-10881.027347,-306.438199
3345.635194,1036.288319,-10066.800811,2145.067394
3345.635522,2220.617826,-11621.233289,1225.752797
3345.635849,1110.308913,-11547.212695,689.485948
3345.636177,814.226536,-9622.677246,-1302.362347
3345.636505,-1184.329507,-8068.244768,-995.924147
3345.636832,-518.144159,-6809.894666,0.000000
3345.637160,-666.185348,-7846.182985,612.876398
3345.637487,-814.226536,-10362.883188,0.000000
3345.637815,-370.102971,-11325.150913,-1378.971896
3345.638143,0.000000,-11473.192101,-2221.676944
3345.638470,74.020594,-10807.006753,-919.314598
3345.638798,814.226536,-8586.388927,0.000000
3345.639125,1110.308913,-8142.265362,459.657299
3345.639453,370.102971,-11029.068536,1838.629195
3345.639781,-148.041188,-9770.718434,689.485948
3345.640108,-370.102971,-8068.244768,-919.314598
3345.640436,-1110.308913,-8660.409521,-766.095498
3345.640763,-592.164754,-10584.944971,-842.705048
3345.641091,-1184.329507,-9770.718434,0.000000
3345.641419,-666.185348,-9474.636058,842.705048
3345.641746,296.082377,-10066.800811,459.657299
3345.642074,1850.514855,-8882.471304,-766.095498
3345.642401,-296.082377,-10658.965565,383.047749
3345.642729,-518.144159,-9178.553681,383.047749
3345.643057,0.000000,-8956.491898,-1225.752797
3345.643384,1110.308913,-9622.677246,-1838.629195
3345.643712,1628.453072,-9918.759623,-689.485948
3345.644039,666.185348,-10955.047942,1915.238745
3345.644367,1554.432478,-8956.491898,2145.067394
3345.644695,592.164754,-9474.636058,1225.752797
3345.645022,0.000000,-9252.574275,-306.438199
3345.645350,-518.144159,-8956.491898,-1302.362347
3345.645677,-1776.494261,-8734.430116,-919.314598
3345.646005,0.000000,-8956.491898,-995.924147
3345.646333,518.144159,-10732.986159,-1685.410096
3345.646660,1998.556043,-10807.006753,-919.314598
3345.646988,1554.432478,-11769.274478,459.657299
3345.647315,1554.432478,-10214.842000,1149.143247
3345.647643,296.082377,-9474.636058,612.876398
3345.647971,222.061783,-8512.368333,153.219100
3345.648298,296.082377,-8438.347739,76.609550
3345.648626,74.020594,-9622.677246,536.266849
3345.648953,1184.329507,-9178.553681,-689.485948
3345.649281,444.123565,-9474.636058,-536.266849
3345.649609,74.020594,-10658.965565,-842.705048
3345.649936,-518.144159,-12583.501014,-1532.190996
3345.650264,-1110.308913,-10214.842000,-1608.800546
3345.650591,444.123565,-7994.224174,-1149.143247
3345.650919,518.144159,-9030.512492,306.438199
3345.651247,740.205942,-10584.944971,3064.381992
3345.651574,1480.411884,-10066.800811,1915.238745
3345.651902,1406.391290,-7846.182985,0.000000
3345.652229,0.000000,-9400.615463,-1532.190996
3345.652557,-592.164754,-8734.430116,-2374.896044
3345.652885,-1258.350101,-7476.080014,-1608.800546
3345.653212,-814.226536,-8290.306550,0.000000
3345.653540,222.061783,-9696.697840,536.266849
3345.653867,1332.370696,-11029.068536,1915.238745
3345.654195,2368.659014,-10362.883188,1608.800546
3345.654523,1998.556043,-11325.150913,229.828649
3345.654850,1332.370696,-10362.883188,76.609550
3345.655178,74.020594,-9104.533087,-459.657299
3345.655505,-518.144159,-6809.894666,-919.314598
3345.655833,0.000000,-4959.379811,-995.924147
3345.656161,-962.267725,-9400.615463,1532.190996
3345.656488,-592.164754,-13619.789333,1149.143247
3345.656816,-814.226536,-11399.171507,-536.266849
3345.657143,444.123565,-10510.924376,-2221.676944
3345.657471,2146.597232,-11769.274478,-1915.238745
3345.657799,1554.432478,-10732.986159,76.609550
3345.658126,1036.288319,-8882.471304,1378.971896
3345.658454,1184.329507,-7920.203579,383.047749
3345.658781,1406.391290,-9548.656652,0.000000
3345.659109,-592.164754,-10140.821405,-536.266849
3345.659437,-2294.638420,-9104.533087,0.000000
3345.659764,-1776.494261,-9252.574275,-153.219100
3345.660092,-222.061783,-9844.739029,-1302.362347
3345.660419,-444.123565,-11843.295072,229.828649
3345.660747,74.020594,-9770.718434,459.657299
3345.661075,1110.308913,-9030.512492,-1149.143247
3345.661402,0.000000,-9918.759623,-689.485948
3345.661730,592.164754,-8808.450710,-1532.190996
3345.662057,0.000000,-8956.491898,-919.314598
3345.662385,444.123565,-9696.697840,612.876398
3345.662713,1480.411884,-9918.759623,1072.533697
3345.663040,814.226536,-9992.780217,1455.581446
3345.663368,814.226536,-9992.780217,842.705048
3345.663695,-370.102971,-10955.047942,153.219100
3345.664023,-1332.370696,-9992.780217,-383.047749
3345.664351,-1628.453072,-7698.141797,-2374.896044
3345.664678,-148.041188,-7772.162391,-2834.553343
3345.665006,370.102971,-9770.718434,-766.095498
3345.665333,814.226536,-10510.924376,1455.581446
3345.665661,666.185348,-10214.842000,2068.457845
3345.665989,1184.329507,-10140.821405,766.095498
3345.666316,2294.638420,-10214.842000,-612.876398
3345.666644,814.226536,-10658.965565,306.438199
3345.666971,222.061783,-8956.491898,1149.143247
3345.667299,666.185348,-7328.038826,-919.314598
3345.667627,1776.494261,-7994.224174,-1072.533697
3345.667954,370.102971,-9474.636058,-459.657299
3345.668282,-1628.453072,-11251.130318,229.828649
3345.668609,-1480.411884,-11473.192101,-306.438199
3345.668937,-518.144159,-10510.924376,-2604.724693
3345.669265,1480.411884,-9770.718434,-2681.334243
3345.669592,518.144159,-10510.924376,1072.533697
3345.669920,518.144159,-9844.739029,2911.162892
3345.670247,1628.453072,-8364.327145,1302.362347
3345.670575,1776.494261,-8808.450710,-1302.362347
3345.670903,666.185348,-10214.842000,-2451.505594
3345.671230,-1110.308913,-10362.883188,-1302.362347
3345.671558,-888.247130,-8956.491898,76.609550
3345.671885,-1406.391290,-7772.162391,-1072.533697
3345.672213,0.000000,-10066.800811,-306.438199
3345.672541,740.205942,-11177.109724,1225.752797
3345.672868,1406.391290,-9770.718434,1378.971896
3345.673196,2368.659014,-9844.739029,0.000000
3345.673523,1480.411884,-10066.800811,-1455.581446
3345.673851,1110.308913,-8808.450710,-1072.533697
3345.674179,0.000000,-7105.977043,229.828649
3345.674506,-222.061783,-6069.688724,2528.115143
3345.674834,-1406.391290,-7994.224174,1915.238745
3345.675161,-740.205942,-10881.027347,0.000000
3345.675489,0.000000,-12583.501014,-2145.067394
3345.675817,592.164754,-12509.480420,-2221.676944
3345.676144,1850.514855,-10510.924376,-1915.238745
3345.676472,888.247130,-9622.677246,-459.657299
3345.676799,888.247130,-9400.615463,536.266849
3345.677127,1258.350101,-8438.347739,229.828649
3345.677455,1184.329507,-10066.800811,1072.533697
3345.677782,222.061783,-10658.965565,1225.752797
3345.678110,-592.164754,-9030.512492,-459.657299
3345.678437,-740.205942,-9252.574275,-306.438199
3345.678765,-814.226536,-11103.089130,0.000000
3345.679093,-370.102971,-11177.109724,153.219100
3345.679420,74.020594,-9548.656652,-1149.143247
3345.679748,962.267725,-9326.594869,-1685.410096
3345.680075,1184.329507,-11917.315666,-689.485948
3345.680403,962.267725,-11695.253884,229.828649
3345.680731,518.144159,-8956.491898,689.485948
3345.681058,222.061783,-7105.977043,0.000000
3345.681386,444.123565,-9474.636058,919.314598
3345.681713,148.041188,-10140.821405,1378.971896
3345.682041,888.247130,-9474.636058,459.657299
3345.682369,296.082377,-8438.347739,-459.657299
3345.682696,74.020594,-9992.780217,-229.828649
3345.683024,74.020594,-9326.594869,0.000000
3345.683351,-1184.329507,-8734.430116,459.657299
3345.683679,-1184.329507,-8364.327145,0.000000
3345.684007,-666.185348,-9104.533087,-536.266849
3345.684334,-814.226536,-9918.759623,-842.705048
3345.684662,0.000000,-10140.821405,-842.705048
3345.684989,740.205942,-9696.697840,612.876398
3345.685317,740.205942,-9548.656652,1149.143247
3345.685645,1110.308913,-9474.636058,383.047749
3345.685972,2368.659014,-10288.862594,-1225.752797
3345.686300,148.041188,-8364.327145,-1302.362347
3345.686627,-592.164754,-8956.491898,1072.533697
3345.686955,-1628.453072,-11029.068536,612.876398
3345.687283,-888.247130,-11769.274478,-2451.505594
3345.687610,222.061783,-10510.924376,-3677.258390
3345.687938,518.144159,-9474.636058,-1608.800546
3345.688265,1406.391290,-11103.089130,1149.143247
3345.688593,3108.864956,-11769.274478,2145.067394
3345.688921,2886.803174,-8956.491898,-229.828649
3345.689248,-814.226536,-8734.430116,-766.095498
3345.689576,-1406.391290,-9770.718434,-1149.143247
3345.689903,-888.247130,-8438.347739,-1762.019645
3345.690231,-296.082377,-7846.182985,-995.924147
3345.690559,-666.185348,-8660.409521,766.095498
3345.690886,0.000000,-11103.089130,1149.143247
3345.691214,2072.576638,-11177.109724,1225.752797
3345.691541,2664.741391,-9770.718434,-306.438199
3345.691869,1406.391290,-9844.739029,0.000000
3345.692197,518.144159,-9104.533087,76.609550
3345.692524,888.247130,-7476.080014,0.000000
3345.692852,888.247130,-7476.080014,459.657299
3345.693179,814.226536,-7179.997637,1072.533697
3345.693507,-666.185348,-9326.594869,3217.601092
3345.693835,-1998.556043,-11399.171507,1532.190996
3345.694162,-740.205942,-10807.006753,-2604.724693
3345.694490,0.000000,-11029.068536,-4060.306139
3345.694817,0.000000,-10288.862594,-2145.067394
3345.695145,1184.329507,-8882.471304,0.000000
3345.695473,2146.597232,-9770.718434,1685.410096
3345.695800,2886.803174,-10362.883188,1532.190996
3345.696128,148.041188,-10658.965565,1762.019645
3345.696455,-962.267725,-8734.430116,153.219100
3345.696783,-1110.308913,-7994.224174,-2451.505594
3345.697111,-370.102971,-9918.759623,-1532.190996
3345.697438,-222.061783,-10807.006753,-612.876398
3345.697766,-888.247130,-10436.903782,0.000000
3345.698093,962.267725,-9548.656652,-1302.362347
3345.698421,1480.411884,-10732.986159,-1762.019645
3345.698749,518.144159,-12287.418637,-459.657299
3345.699076,-592.164754,-10510.924376,459.657299
3345.699404,-370.102971,-7920.203579,-459.657299
3345.699731,0.000000,-7994.224174,-1072.533697
3345.700059,296.082377,-10807.006753,612.876398
3345.700387,666.185348,-9844.739029,612.876398
3345.700714,74.020594,-9548.656652,306.438199
3345.701042,666.185348,-9400.615463,-1302.362347
3345.701369,370.102971,-9844.739029,-1838.629195
3345.701697,518.144159,-10214.842000,0.000000
3345.702025,518.144159,-9104.533087,919.314598
3345.702352,-962.267725,-9030.512492,1455.581446
3345.702680,222.061783,-8290.306550,612.876398
3345.703007,444.123565,-8956.491898,-383.047749
3345.703335,-888.247130,-10140.821405,0.000000
3345.703663,-1554.432478,-9030.512492,0.000000
3345.703990,-592.164754,-7772.162391,-995.924147
3345.704318,1110.308913,-8956.491898,-842.705048
3345.704645,666.185348,-11103.089130,229.828649
3345.704973,296.082377,-9770.718434,2068.457845
3345.705301,-592.164754,-8216.285956,1838.629195
3345.705628,0.000000,-10214.842000,-842.705048
3345.705956,148.041188,-12583.501014,-3140.991542
3345.706283,-444.123565,-10955.047942,-2528.115143
3345.706611,-296.082377,-8512.368333,-766.095498
3345.706939,1480.411884,-9326.594869,-459.657299
3345.707266,2886.803174,-12583.501014,1302.362347
3345.707594,2664.741391,-11991.336260,919.314598
3345.707921,962.267725,-9252.574275,689.485948
3345.708249,-1332.370696,-7920.203579,-919.314598
3345.708577,-962.267725,-9252.574275,-2221.676944
3345.708904,-296.082377,-9474.636058,-2221.676944
3345.709232,-740.205942,-8956.491898,0.000000
3345.709559,-1110.308913,-8882.471304,1455.581446
3345.709887,888.247130,-10436.903782,689.485948
3345.710215,3627.009116,-10288.862594,-1378.971896
3345.710542,3478.967927,-11251.130318,-995.924147
3345.710870,1332.370696,-10658.965565,1685.410096
3345.711197,74.020594,-8290.306550,1685.410096
3345.711525,222.061783,-6439.791695,0.000000
3345.711853,1628.453072,-7920.203579,0.000000
3345.712180,-1406.391290,-9400.615463,1072.533697
3345.712508,-3034.844362,-11177.109724,2068.457845
3345.712835,-2368.659014,-10214.842000,-1608.800546
3345.713163,592.164754,-9474.636058,-5209.449386
3345.713491,1924.535449,-9770.718434,-2834.553343
3345.713818,1036.288319,-11843.295072,1302.362347
3345.714146,296.082377,-9992.780217,4366.744339
3345.714473,1628.453072,-7476.080014,1532.190996
3345.714801,2294.638420,-7698.141797,-842.705048
3345.715129,-222.061783,-9918.759623,-383.047749
3345.715456,-1406.391290,-9548.656652,383.047749
3345.715784,-296.082377,-10140.821405,-383.047749
3345.716111,814.226536,-9844.739029,-1685.410096
3345.716439,962.267725,-11177.109724,-1991.848295
3345.716767,74.020594,-11843.295072,536.266849
3345.717094,74.020594,-9770.718434,1378.971896
3345.717422,0.000000,-9474.636058,229.828649
3345.717749,518.144159,-9622.677246,-1608.800546
3345.718077,-296.082377,-10066.800811,-1378.971896
3345.718405,-1110.308913,-8364.327145,459.657299
3345.718732,-740.205942,-8586.388927,1378.971896
3345.719060,-518.144159,-10288.862594,153.219100
3345.719387,518.144159,-10362.883188,-2451.505594
3345.719715,0.000000,-10881.027347,-1915.238745
3345.720043,444.123565,-9548.656652,-536.266849
3345.720370,1110.308913,-9622.677246,306.438199
3345.720698,1924.535449,-8956.491898,1072.533697
3345.721025,1628.453072,-9548.656652,306.438199
3345.721353,-888.247130,-9622.677246,1302.362347
3345.721681,-1110.308913,-8364.327145,1225.752797
3345.722008,-666.185348,-9474.636058,0.000000
3345.722336,-222.061783,-9622.677246,-1915.238745
3345.722663,0.000000,-10140.821405,-2451.505594
3345.722991,-1258.350101,-9030.512492,-612.876398
3345.723319,-1998.556043,-9178.553681,842.705048
3345.723646,1184.329507,-9548.656652,-536.266849
3345.723974,1924.535449,-9622.677246,-612.876398
3345.724301,0.000000,-11695.253884,1225.752797
3345.724629,-592.164754,-11399.171507,536.266849
3345.724957,-222.061783,-9770.718434,-1915.238745
3345.725284,1776.494261,-8216.285956,-3830.477490
3345.725612,1480.411884,-9696.697840,-2145.067394
3345.725939,518.144159,-11399.171507,1991.848295
3345.726267,2072.576638,-10362.883188,2681.334243
3345.726595,1258.350101,-9622.677246,1225.752797
3345.726922,1110.308913,-8290.306550,-459.657299
3345.727250,-444.123565,-9474.636058,-1378.971896
3345.727577,-666.185348,-9548.656652,0.000000
3345.727905,-296.082377,-7994.224174,-995.924147
3345.728233,-962.267725,-8290.306550,-2145.067394
3345.728560,296.082377,-10807.006753,-1378.971896
3345.728888,1110.308913,-11769.274478,459.657299
3345.729215,2368.659014,-10436.903782,2374.896044
3345.729543,2368.659014,-8956.491898,1225.752797
3345.729871,1406.391290,-9548.656652,229.828649
3345.730198,592.164754,-9326.594869,-459.657299
3345.730526,962.267725,-7846.182985,229.828649
3345.730853,2220.617826,-7476.080014,1378.971896
3345.731181,444.123565,-8438.347739,842.705048
3345.731508,-1406.391290,-11769.274478,0.000000
3345.731836,-1850.514855,-11917.315666,-2145.067394
3345.732164,1628.453072,-11029.068536,-2451.505594
3345.732491,1554.432478,-10362.883188,-536.266849
3345.732819,518.144159,-9326.594869,1225.752797
3345.733146,740.205942,-7402.059420,1225.752797
3345.733474,888.247130,-8364.327145,459.657299
3345.733801,814.226536,-11029.068536,76.609550
3345.734129,-1628.453072,-9696.697840,-383.047749
3345.734456,-1258.350101,-7994.224174,-1149.143247
3345.734784,-518.144159,-10214.842000,-1991.848295
3345.735112,148.041188,-12509.480420,-1378.971896
3345.735439,-518.144159,-11621.233289,612.876398
3345.735767,370.102971,-9326.594869,306.438199
3345.736094,1998.556043,-8808.450710,-459.657299
3345.736422,592.164754,-10584.944971,-919.314598
3345.736749,-888.247130,-9548.656652,995.924147
3345.737077,-2738.761985,-7105.977043,0.000000
3345.737404,-1184.329507,-7328.038826,-1378.971896
3345.737732,-444.123565,-10436.903782,-2145.067394
3345.738060,-592.164754,-11917.315666,0.000000
3345.738387,-444.123565,-11251.130318,1072.533697
3345.738715,518.144159,-9770.718434,-536.266849
3345.739042,2368.659014,-10214.842000,-1455.581446
3345.739370,1480.411884,-9400.615463,-995.924147
3345.739697,0.000000,-9474.636058,1455.581446
3345.740025,74.020594,-8956.491898,1685.410096
3345.740353,1628.453072,-8290.306550,-689.485948
3345.740680,740.205942,-9622.677246,-536.266849
3345.741008,-1406.391290,-10658.965565,536.266849
3345.741335,-1406.391290,-9474.636058,919.314598
3345.741663,-1036.288319,-8586.388927,-536.266849
3345.741990,-444.123565,-7772.162391,-2221.676944
3345.742318,-962.267725,-8660.409521,-1915.238745
3345.742645,0.000000,-10288.862594,0.000000
3345.742973,1406.391290,-9992.780217,536.266849
3345.743301,1998.556043,-9696.697840,459.657299
3345.743628,1998.556043,-12509.480420,689.485948
3345.743956,296.082377,-12657.521608,-459.657299
3345.744283,148.041188,-9252.574275,-1608.800546
3345.744611,1110.308913,-7328.038826,-2068.457845
3345.744938,1110.308913,-9696.697840,-306.438199
3345.745266,2146.597232,-11695.253884,1838.629195
3345.745593,1628.453072,-10288.862594,1532.190996
3345.745921,74.020594,-8512.368333,536.266849
3345.746249,222.061783,-8956.491898,-1302.362347
3345.746576,962.267725,-10881.027347,-1838.629195
3345.746904,0.000000,-10214.842000,-919.314598
3345.747231,-666.185348,-8438.347739,-306.438199
3345.747559,-1332.370696,-9178.553681,689.485948
3345.747886,1110.308913,-10362.883188,383.047749
3345.748214,3552.988522,-10362.883188,0.000000
3345.748542,1480.411884,-9474.636058,1072.533697
3345.748869,-148.041188,-8660.409521,1455.581446
3345.749197,0.000000,-9696.697840,-459.657299
3345.749524,814.226536,-8364.327145,-1762.019645
3345.749852,1110.308913,-7772.162391,0.000000
3345.750179,592.164754,-8586.388927,2834.553343
3345.750507,-740.205942,-9622.677246,1915.238745
3345.750834,-1776.494261,-12435.459826,0.000000
3345.751162,222.061783,-11103.089130,-2451.505594
3345.751490,444.123565,-9622.677246,-1532.190996
3345.751817,666.185348,-8734.430116,689.485948
3345.752145,-444.123565,-8956.491898,2681.334243
3345.752472,-740.205942,-8734.430116,153.219100
3345.752800,592.164754,-10214.842000,-1225.752797
3345.753127,-1258.350101,-11177.109724,-1685.410096
3345.753455,-2368.659014,-9770.718434,-995.924147
3345.753782,-2368.659014,-10066.800811,-689.485948
3345.754110,-666.185348,-10510.924376,-383.047749
3345.754438,296.082377,-10362.883188,0.000000
3345.754765,888.247130,-10658.965565,1072.533697
3345.755093,1258.350101,-8808.450710,1072.533697
3345.755420,814.226536,-9030.512492,0.000000
3345.755748,1110.308913,-9252.574275,-612.876398
3345.756075,-1332.370696,-9178.553681,-1072.533697
3345.756403,-2368.659014,-8586.388927,-766.095498
3345.756730,-1998.556043,-9178.553681,-229.828649
3345.757058,74.020594,-9548.656652,-459.657299
3345.757386,666.185348,-10732.986159,-1378.971896
3345.757713,1110.308913,-11177.109724,-1302.362347
3345.758041,1184.329507,-9030.512492,-995.924147
3345.758368,1924.535449,-9104.533087,-919.314598
3345.758696,2886.803174,-8068.244768,-229.828649
3345.759023,2368.659014,-10362.883188,919.314598
3345.759351,296.082377,-10140.821405,2528.115143
3345.759679,740.205942,-9474.636058,766.095498
3345.760006,888.247130,-9474.636058,-842.705048
3345.760334,1258.350101,-9770.718434,-1608.800546
3345.760661,-518.144159,-10066.800811,-919.314598
3345.760989,0.000000,-8438.347739,-766.095498
3345.761316,814.226536,-8438.347739,-766.095498
3345.761644,2072.576638,-9548.656652,-1072.533697
3345.761971,2294.638420,-10881.027347,0.000000
3345.762299,1036.288319,-10658.965565,1685.410096
3345.762627,1554.432478,-11399.171507,1608.800546
3345.762954,1110.308913,-12213.398043,-689.485948
3345.763282,814.226536,-8882.471304,-2681.334243
3345.763609,0.000000,-8068.244768,-1838.629195
3345.763937,0.000000,-9104.533087,383.047749
3345.764264,1554.432478,-11251.130318,612.876398
3345.764592,1110.308913,-9696.697840,76.609550
3345.764919,1332.370696,-9918.759623,-689.485948
3345.765247,888.247130,-11473.192101,-459.657299
3345.765575,1554.432478,-11399.171507,0.000000
3345.765902,74.020594,-8586.388927,306.438199
3345.766230,-592.164754,-6661.853478,76.609550
3345.766557,-1406.391290,-8586.388927,0.000000
3345.766885,222.061783,-10436.903782,0.000000
3345.767212,518.144159,-9992.780217,1225.752797
3345.767540,518.144159,-9252.574275,995.924147
3345.767868,814.226536,-8068.244768,-612.876398
3345.768195,0.000000,-9178.553681,-766.095498
3345.768523,-814.226536,-7254.018232,766.095498
3345.768850,-518.144159,-8290.306550,919.314598
3345.769178,-1258.350101,-9030.512492,1455.581446
3345.769505,-962.267725,-10881.027347,76.609550
3345.769833,-962.267725,-11621.233289,-919.314598
3345.770160,1258.350101,-10658.965565,-842.705048
3345.770488,296.082377,-9844.739029,459.657299
3345.770816,740.205942,-9474.636058,1455.581446
3345.771143,370.102971,-7772.162391,-459.657299
3345.771471,-814.226536,-8364.327145,-229.828649
3345.771798,-1702.473667,-10658.965565,229.828649
3345.772126,-2220.617826,-9474.636058,-306.438199
3345.772453,-1702.473667,-9030.512492,-1762.019645
3345.772781,0.000000,-11843.295072,-1838.629195
3345.773108,592.164754,-11991.336260,-1149.143247
3345.773436,666.185348,-10066.800811,842.705048
3345.773764,1850.514855,-9030.512492,-689.485948
3345.774091,2146.597232,-10140.821405,-995.924147
3345.774419,-296.082377,-9474.636058,153.219100
3345.774746,-1628.453072,-8956.491898,995.924147
3345.775074,-2368.659014,-8586.388927,766.095498
3345.775401,592.164754,-8216.285956,-1915.238745
3345.775729,74.020594,-11029.068536,-1685.410096
3345.776057,74.020594,-11621.233289,-383.047749
3345.776384,370.102971,-10584.944971,0.000000
3345.776712,1258.350101,-9400.615463,-919.314598
3345.777039,3034.844362,-9178.553681,-1072.533697
3345.777367,2590.720797,-9474.636058,766.095498
3345.777694,2072.576638,-9104.533087,1991.848295
3345.778022,666.185348,-7772.162391,2528.115143
3345.778349,666.185348,-8364.327145,1455.581446
3345.778677,666.185348,-9918.759623,-459.657299
3345.779005,-1258.350101,-10658.965565,229.828649
3345.779332,-2368.659014,-8882.471304,-153.219100
3345.779660,-1554.432478,-8142.265362,-2757.943793
3345.779987,0.000000,-8956.491898,-3447.429741
3345.780315,666.185348,-9992.780217,-1378.971896
3345.780642,666.185348,-10066.800811,1072.533697
3345.780970,1702.473667,-9252.574275,2145.067394
3345.781297,2368.659014,-9474.636058,1225.752797
3345.781625,1554.432478,-12509.480420,0.000000
3345.781953,148.041188,-11843.295072,-1378.971896
3345.782280,-370.102971,-8216.285956,-1762.019645
3345.782608,0.000000,-7994.224174,-3064.381992
3345.782935,2072.576638,-10066.800811,-1302.362347
3345.783263,1998.556043,-12139.377449,-306.438199
3345.783590,1628.453072,-11621.233289,842.705048
3345.783918,1554.432478,-10140.821405,306.438199
3345.784246,2368.659014,-10214.842000,-229.828649
3345.784573,2590.720797,-11029.068536,-536.266849
3345.784901,0.000000,-9030.512492,-383.047749
3345.785228,-1776.494261,-6291.750507,76.609550
3345.785556,-2220.617826,-7846.182985,-536.266849
3345.785883,1110.308913,-10140.821405,-1685.410096
3345.786211,1628.453072,-11399.171507,-153.219100
3345.786538,296.082377,-9844.739029,1378.971896
3345.786866,370.102971,-8586.388927,1149.143247
3345.787194,222.061783,-8142.265362,-919.314598
3345.787521,1036.288319,-7698.141797,0.000000
3345.787849,-444.123565,-8882.471304,383.047749
3345.788176,-1110.308913,-10436.903782,2757.943793
3345.788504,-296.082377,-10066.800811,1302.362347
3345.788831,1258.350101,-10214.842000,-1378.971896
3345.789159,1480.411884,-9770.718434,-1838.629195
3345.789486,222.061783,-8956.491898,76.609550
3345.789814,-962.267725,-8512.368333,1685.410096
3345.790142,-888.247130,-7550.100608,459.657299
3345.790469,-740.205942,-8216.285956,-383.047749
3345.790797,-1554.432478,-10436.903782,-383.047749
3345.791124,-1924.535449,-10214.842000,0.000000
3345.791452,-2220.617826,-9474.636058,-306.438199
3345.791779,148.041188,-9622.677246,-2145.067394
3345.792107,1110.308913,-12139.377449,-1532.190996
3345.792434,814.226536,-11769.274478,-383.047749
3345.792762,1036.288319,-9326.594869,0.000000
3345.793090,444.123565,-9548.656652,76.609550
3345.793417,592.164754,-8956.491898,612.876398
3345.793745,-888.247130,-9918.759623,0.000000
3345.794072,-1924.535449,-10732.986159,153.219100
3345.794400,-370.102971,-10658.965565,-995.924147
3345.794727,-666.185348,-11251.130318,-2528.115143
3345.795055,814.226536,-10881.027347,-2911.162892
3345.795383,740.205942,-9992.780217,-2451.505594
3345.795710,1554.432478,-9770.718434,536.266849
3345.796038,2294.638420,-10658.965565,1149.143247
3345.796365,2294.638420,-9992.780217,2221.676944
3345.796693,2072.576638,-8586.388927,1838.629195
3345.797020,0.000000,-7920.203579,1608.800546
3345.797348,-444.123565,-8586.388927,919.314598
3345.797675,-1332.370696,-9252.574275,-306.438199
3345.798003,-962.267725,-9992.780217,-1072.533697
3345.798331,-1110.308913,-9178.553681,-2451.505594
3345.798658,-666.185348,-8512.368333,-2451.505594
3345.798986,74.020594,-8808.450710,-1455.581446
3345.799313,518.144159,-9326.594869,689.485948
3345.799641,1850.514855,-10362.883188,2528.115143
3345.799968,2664.741391,-9696.697840,1915.238745
3345.800296,3182.885551,-9178.553681,2068.457845
3345.800623,2072.576638,-9918.759623,1302.362347
3345.800951,1850.514855,-11029.068536,-383.047749
3345.801279,1184.329507,-8438.347739,-2221.676944
3345.801606,592.164754,-7105.977043,-2911.162892
3345.801934,-222.061783,-9252.574275,-1302.362347
3345.802261,-444.123565,-12509.480420,1149.143247
3345.802589,1998.556043,-11177.109724,1915.238745
3345.802916,3478.967927,-10510.924376,76.609550
3345.803244,2368.659014,-11029.068536,0.000000
3345.803572,1998.556043,-10658.965565,-229.828649
3345.803899,74.020594,-7476.080014,-919.314598
3345.804227,-888.247130,-6957.935855,-2451.505594
3345.804554,-2368.659014,-9474.636058,-2681.334243
3345.804882,-962.267725,-12583.501014,-1225.752797
3345.805209,74.020594,-11547.212695,766.095498
3345.805537,1628.453072,-10807.006753,1762.019645
3345.805864,1554.432478,-10214.842000,536.266849
3345.806192,814.226536,-9030.512492,459.657299
3345.806520,0.000000,-7550.100608,383.047749
3345.806847,-1110.308913,-7698.141797,-306.438199
3345.807175,-1258.350101,-8586.388927,-689.485948
3345.807502,-1184.329507,-10658.965565,-1685.410096
3345.807830,-740.205942,-10584.944971,-766.095498
3345.808157,1258.350101,-10510.924376,0.000000
3345.808485,296.082377,-10362.883188,1915.238745
3345.808812,-296.082377,-9474.636058,1685.410096
3345.809140,0.000000,-8216.285956,-306.438199
3345.809468,-592.164754,-8512.368333,-612.876398
3345.809795,-2738.761985,-8142.265362,-383.047749
3345.810123,-2664.741391,-8512.368333,-306.438199
3345.810450,-1036.288319,-9548.656652,-306.438199
3345.810778,518.144159,-10955.047942,-1378.971896
3345.811105,222.061783,-11843.295072,842.705048
3345.811433,296.082377,-10362.883188,689.485948
3345.811761,1480.411884,-9400.615463,0.000000
3345.812088,666.185348,-9474.636058,0.000000
3345.812416,0.000000,-7920.203579,459.657299
3345.812743,-2812.782580,-7846.182985,1072.533697
3345.813071,-1332.370696,-8216.285956,-612.876398
3345.813398,0.000000,-10066.800811,-2451.505594
3345.813726,0.000000,-12509.480420,-2604.724693
3345.814053,1406.391290,-11991.336260,-842.705048
3345.814381,0.000000,-10510.924376,-1455.581446
3345.814709,1554.432478,-8882.471304,153.219100
3345.815036,2220.617826,-10510.924376,766.095498
3345.815364,1776.494261,-10436.903782,1685.410096
3345.815691,1110.308913,-8364.327145,1762.019645
3345.816019,222.061783,-7402.059420,0.000000
3345.816346,444.123565,-8882.471304,-1762.019645
3345.816674,-1036.288319,-10288.862594,-995.924147
3345.817001,-2590.720797,-10881.027347,-536.266849
3345.817329,-3108.864956,-9548.656652,-1991.848295
3345.817657,-1110.308913,-6809.894666,-3447.429741
3345.817984,1924.535449,-9030.512492,-2221.676944
3345.818312,2590.720797,-12065.356855,1455.581446
3345.818639,2368.659014,-11769.274478,3753.867940
3345.818967,2220.617826,-9030.512492,2374.896044
3345.819294,3478.967927,-8512.368333,-1225.752797
3345.819622,2590.720797,-11103.089130,-1225.752797
3345.819950,1924.535449,-9770.718434,-459.657299
3345.820277,370.102971,-7179.997637,1302.362347
3345.820605,1480.411884,-9030.512492,1072.533697
3345.820932,2442.679609,-11547.212695,-306.438199
3345.821260,-296.082377,-12657.521608,536.266849
3345.821587,-740.205942,-7846.182985,0.000000
3345.821915,-222.061783,-7254.018232,-2145.067394
3345.822242,1184.329507,-11325.150913,-2145.067394
3345.822570,2220.617826,-12805.562797,-1302.362347
3345.822898,1110.308913,-9474.636058,0.000000
3345.823225,0.000000,-7031.956449,306.438199
3345.823553,0.000000,-10807.006753,229.828649
3345.823880,222.061783,-11029.068536,-1532.190996
3345.824208,-666.185348,-9326.594869,-842.705048
3345.824535,-1332.370696,-7179.997637,76.609550
3345.824863,-814.226536,-8882.471304,0.000000
3345.825190,296.082377,-9770.718434,229.828649
3345.825518,1554.432478,-10881.027347,306.438199
3345.825846,1184.329507,-10732.986159,76.609550
3345.826173,0.000000,-8734.430116,0.000000
3345.826501,-1628.453072,-8364.327145,-1149.143247
3345.826828,74.020594,-7994.224174,-1072.533697
3345.827156,222.061783,-9474.636058,153.219100
3345.827483,0.000000,-11029.068536,2604.724693
3345.827811,-1110.308913,-9770.718434,2987.772442
3345.828138,-888.247130,-8438.347739,-306.438199
3345.828466,814.226536,-9918.759623,-2757.943793
3345.828794,-444.123565,-10066.800811,-2298.286494
3345.829121,-1554.432478,-8364.327145,0.000000
3345.829449,-1480.411884,-10436.903782,306.438199
3345.829776,0.000000,-10658.965565,-536.266849
3345.830104,814.226536,-10066.800811,-612.876398
3345.830431,0.000000,-9548.656652,1302.362347
3345.830759,1036.288319,-8956.491898,76.609550
3345.831087,370.102971,-8438.347739,-612.876398
3345.831414,222.061783,-8882.471304,-1072.533697
3345.831742,-370.102971,-9696.697840,-1915.238745
3345.832069,-962.267725,-10288.862594,-1225.752797
3345.832397,-296.082377,-10658.965565,-153.219100
3345.832724,814.226536,-10807.006753,-1532.190996
3345.833052,1332.370696,-10881.027347,-689.485948
3345.833380,1258.350101,-10807.006753,0.000000
3345.833707,1850.514855,-10066.800811,689.485948
3345.834035,2442.679609,-10584.944971,1072.533697
3345.834362,2664.741391,-9548.656652,153.219100
3345.834690,1036.288319,-9326.594869,229.828649
3345.835017,-1332.370696,-8438.347739,536.266849
3345.835345,-1332.370696,-8216.285956,-995.924147
3345.835673,-2220.617826,-8586.388927,-153.219100
3345.836000,-1628.453072,-10214.842000,-689.485948
3345.836328,-1258.350101,-9992.780217,-766.095498
3345.836655,-296.082377,-9474.636058,-995.924147
3345.836983,0.000000,-8364.327145,-689.485948
3345.837310,1110.308913,-9030.512492,229.828649
3345.837638,2368.659014,-10362.883188,76.609550
3345.837966,1258.350101,-9918.759623,995.924147
3345.838293,2368.659014,-9696.697840,229.828649
3345.838621,2072.576638,-10214.842000,229.828649
3345.838948,2220.617826,-9844.739029,0.000000
3345.839276,814.226536,-9178.553681,76.609550
3345.839603,370.102971,-9400.615463,229.828649
3345.839931,518.144159,-9178.553681,0.000000
3345.840259,148.041188,-9474.636058,-459.657299
3345.840586,1628.453072,-9548.656652,-1378.971896
3345.840914,1480.411884,-10510.924376,-306.438199
3345.841241,1776.494261,-12139.377449,2145.067394
3345.841569,74.020594,-11843.295072,1378.971896
3345.841896,-1332.370696,-9696.697840,-1378.971896
3345.842224,-1702.473667,-7698.141797,-3830.477490
3345.842552,-1184.329507,-9548.656652,-3064.381992
3345.842879,-518.144159,-10658.965565,536.266849
3345.843207,148.041188,-10436.903782,1149.143247
3345.843534,1110.308913,-9104.533087,766.095498
3345.843862,518.144159,-10288.862594,-1072.533697
3345.844189,-592.164754,-10066.800811,0.000000
3345.844517,-888.247130,-8956.491898,459.657299
3345.844845,-518.144159,-7698.141797,689.485948
3345.845172,888.247130,-9252.574275,-229.828649
3345.845500,-1110.308913,-9622.677246,383.047749
3345.845827,444.123565,-9326.594869,919.314598
3345.846155,1258.350101,-9252.574275,459.657299
3345.846482,1258.350101,-9844.739029,0.000000
3345.846810,-444.123565,-9104.533087,-153.219100
3345.847138,296.082377,-9252.574275,-306.438199
3345.847465,740.205942,-8586.388927,0.000000
3345.847793,592.164754,-8956.491898,995.924147
3345.848120,296.082377,-9696.697840,1225.752797
3345.848448,1036.288319,-10288.862594,0.000000
3345.848775,1776.494261,-10955.047942,-919.314598
3345.849103,1702.473667,-10288.862594,-612.876398
3345.849431,592.164754,-8808.450710,0.000000
3345.849758,1406.391290,-8956.491898,229.828649
3345.850086,592.164754,-10066.800811,229.828649
3345.850413,-296.082377,-10658.965565,1072.533697
3345.850741,-1258.350101,-9178.553681,306.438199
3345.851068,-666.185348,-8290.306550,-1532.190996
3345.851396,0.000000,-10288.862594,-1608.800546
3345.851724,740.205942,-11251.130318,-1685.410096
3345.852051,148.041188,-10362.883188,76.609550
3345.852379,592.164754,-9400.615463,383.047749
3345.852706,1628.453072,-9844.739029,-1225.752797
3345.853034,148.041188,-11695.253884,-766.095498
3345.853361,148.041188,-10658.965565,306.438199
3345.853689,-814.226536,-7846.182985,689.485948
3345.854017,-814.226536,-8364.327145,689.485948
3345.854344,-592.164754,-9918.759623,76.609550
3345.854672,-1628.453072,-10584.944971,229.828649
3345.854999,-1850.514855,-9252.574275,-306.438199
3345.855327,-1332.370696,-7476.080014,-2374.896044
3345.855654,-814.226536,-7994.224174,-2068.457845
3345.855982,-740.205942,-9104.533087,0.000000
3345.856310,222.061783,-9770.718434,1072.533697
3345.856637,1924.535449,-9918.759623,1225.752797
3345.856965,2516.700203,-10584.944971,842.705048
3345.857292,2664.741391,-10807.006753,0.000000
3345.857620,1776.494261,-10066.800811,0.000000
3345.857947,666.185348,-8956.491898,229.828649
3345.858275,-962.267725,-8438.347739,-306.438199
3345.858603,370.102971,-9622.677246,-1455.581446
3345.858930,518.144159,-9622.677246,-1608.800546
3345.859258,74.020594,-11029.068536,459.657299
3345.859585,0.000000,-9548.656652,919.314598
3345.859913,1480.411884,-9844.739029,229.828649
3345.860241,1406.391290,-11917.315666,0.000000
3345.860568,296.082377,-10732.986159,-612.876398
3345.860896,-2516.700203,-7772.162391,-1225.752797
3345.861223,-2590.720797,-7994.224174,-2681.334243
3345.861551,-962.267725,-9844.739029,-2834.553343
3345.861878,-296.082377,-11843.295072,-689.485948
3345.862206,-296.082377,-11177.109724,1378.971896
3345.862534,0.000000,-9474.636058,612.876398
3345.862861,370.102971,-9696.697840,383.047749
3345.863189,592.164754,-8734.430116,0.000000
3345.863516,-592.164754,-8142.265362,-229.828649
3345.863844,-1110.308913,-7550.100608,229.828649
3345.864171,-888.247130,-7772.162391,0.000000
3345.864499,148.041188,-9770.718434,383.047749
3345.864827,2220.617826,-10807.006753,0.000000
3345.865154,1998.556043,-11103.089130,1072.533697
3345.865482,1776.494261,-9992.780217,2374.896044
3345.865809,518.144159,-9030.512492,229.828649
3345.866137,962.267725,-7994.224174,-766.095498
3345.866464,1554.432478,-7698.141797,-1072.533697
3345.866792,0.000000,-9326.594869,0.000000
3345.867120,0.000000,-10362.883188,689.485948
3345.867447,2072.576638,-11621.233289,0.000000
3345.867775,2294.638420,-10362.883188,-1302.362347
3345.868102,2664.741391,-11251.130318,-1378.971896
3345.868430,1480.411884,-11399.171507,76.609550
3345.868757,1332.370696,-9770.718434,0.000000
3345.869085,888.247130,-8290.306550,0.000000
3345.869413,592.164754,-8660.409521,-383.047749
3345.869740,-740.205942,-9474.636058,536.266849
3345.870068,-444.123565,-10140.821405,919.314598
3345.870395,666.185348,-10436.903782,153.219100
3345.870723,1702.473667,-10362.883188,-1685.410096
3345.871050,1332.370696,-10362.883188,-1685.410096
3345.871378,1110.308913,-10510.924376,-306.438199
3345.871706,518.144159,-11029.068536,1455.581446
3345.872033,1184.329507,-9770.718434,459.657299
3345.872361,1702.473667,-8808.450710,0.000000
3345.872688,-666.185348,-9622.677246,306.438199
3345.873016,-1924.535449,-9622.677246,1608.800546
3345.873343,-2146.597232,-8956.491898,612.876398
3345.873671,-1850.514855,-8142.265362,-1378.971896
3345.873999,-1776.494261,-10288.862594,-2221.676944
3345.874326,-1850.514855,-10066.800811,-2374.896044
3345.874654,-1776.494261,-7105.977043,-306.438199
3345.874981,-740.205942,-7920.203579,459.657299
3345.875309,74.020594,-9474.636058,1378.971896
3345.875636,888.247130,-10584.944971,1455.581446
3345.875964,518.144159,-9400.615463,1302.362347
3345.876292,666.185348,-8956.491898,153.219100
3345.876619,1628.453072,-9326.594869,-1378.971896
3345.876947,1480.411884,-9474.636058,-1915.238745
3345.877274,-222.061783,-9178.553681,689.485948
3345.877602,74.020594,-9622.677246,612.876398
3345.877929,-1406.391290,-9918.759623,229.828649
3345.878257,-444.123565,-11325.150913,-766.095498
3345.878585,0.000000,-10066.800811,-383.047749
3345.878912,1776.494261,-11103.089130,-459.657299
3345.879240,666.185348,-11029.068536,459.657299
3345.879567,-962.267725,-9400.615463,-766.095498
3345.879895,-1332.370696,-7772.162391,-3140.991542
3345.880222,-592.164754,-10362.883188,-4060.306139
3345.880550,-444.123565,-11251.130318,-1685.410096
3345.880878,-1184.329507,-10807.006753,1838.629195
3345.881205,666.185348,-10362.883188,1685.410096
3345.881533,2812.782580,-10658.965565,612.876398
3345.881860,814.226536,-10140.821405,-612.876398
3345.882188,148.041188,-9104.533087,0.000000
3345.882515,518.144159,-8734.430116,-383.047749
3345.882843,1110.308913,-7624.121203,-2068.457845
3345.883171,-296.082377,-9326.594869,-1608.800546
3345.883498,0.000000,-10658.965565,766.095498
3345.883826,2072.576638,-10214.842000,1608.800546
3345.884153,2442.679609,-10807.006753,1762.019645
3345.884481,1776.494261,-9474.636058,1685.410096
3345.884808,1258.350101,-7624.121203,-766.095498
3345.885136,74.020594,-7772.162391,-459.657299
3345.885464,0.000000,-8734.430116,-383.047749
3345.885791,-444.123565,-8068.244768,-536.266849
3345.886119,1924.535449,-9326.594869,-536.266849
3345.886446,2812.782580,-9770.718434,-1149.143247
3345.886774,1702.473667,-10214.842000,536.266849
3345.887102,740.205942,-10362.883188,1378.971896
3345.887429,1702.473667,-9696.697840,536.266849
3345.887757,1184.329507,-9104.533087,-612.876398
3345.888084,-222.061783,-8882.471304,-612.876398
3345.888412,-962.267725,-9696.697840,0.000000
3345.888739,592.164754,-9770.718434,-842.705048
3345.889067,1998.556043,-9474.636058,-2068.457845
3345.889395,1554.432478,-11843.295072,-1302.362347
3345.889722,1258.350101,-10881.027347,-766.095498
3345.890050,-296.082377,-10214.842000,0.000000
3345.890377,-592.164754,-10807.006753,612.876398
3345.890705,0.000000,-10288.862594,-612.876398
3345.891032,0.000000,-10066.800811,-536.266849
3345.891360,0.000000,-10436.903782,153.219100
3345.891688,-814.226536,-11177.109724,1302.362347
3345.892015,-148.041188,-8734.430116,-766.095498
3345.892343,-444.123565,-9252.574275,-2374.896044
3345.892670,-3034.844362,-9474.636058,-1072.533697
3345.892998,-2738.761985,-8956.491898,229.828649
3345.893325,-2220.617826,-8734.430116,-612.876398
3345.893653,-370.102971,-9252.574275,0.000000
3345.893981,-518.144159,-9696.697840,76.609550
3345.894308,888.247130,-10658.965565,1532.190996
3345.894636,888.247130,-9918.759623,2221.676944
3345.894963,2220.617826,-8586.388927,-689.485948
3345.895291,1628.453072,-8660.409521,-766.095498
3345.895618,888.247130,-9844.739029,-1302.362347
3345.895946,-370.102971,-9474.636058,612.876398
3345.896274,-444.123565,-8882.471304,2068.457845
3345.896601,592.164754,-8734.430116,1685.410096
3345.896929,74.020594,-10584.944971,1378.971896
3345.897256,148.041188,-10362.883188,306.438199
3345.897584,-222.061783,-10362.883188,76.609550
3345.897911,1776.494261,-9696.697840,-1378.971896
3345.898239,1036.288319,-9992.780217,-2528.115143
3345.898567,-1850.514855,-9030.512492,-2451.505594
3345.898894,-2368.659014,-8216.285956,-2681.334243
3345.899222,-962.267725,-9770.718434,-995.924147
3345.899549,2072.576638,-11399.171507,919.314598
3345.899877,2738.761985,-11029.068536,2145.067394
3345.900204,1332.370696,-10214.842000,2145.067394
3345.900532,592.164754,-9474.636058,0.000000
3345.900860,814.226536,-9104.533087,-2374.896044
3345.901187,1702.473667,-8956.491898,-3140.991542
3345.901515,740.205942,-8438.347739,-1838.629195
3345.901842,-222.061783,-9030.512492,229.828649
3345.902170,592.164754,-10807.006753,306.438199
3345.902497,2368.659014,-11769.274478,612.876398
3345.902825,3182.885551,-10066.800811,0.000000
3345.903153,444.123565,-10362.883188,1455.581446
3345.903480,0.000000,-9918.759623,1532.190996
3345.903808,888.247130,-7105.977043,-1149.143247
3345.904135,2220.617826,-7550.100608,-2911.162892
3345.904463,666.185348,-9474.636058,-1072.533697
3345.904790,518.144159,-10955.047942,1302.362347
3345.905118,444.123565,-9770.718434,1532.190996
3345.905446,1480.411884,-9770.718434,383.047749
3345.905773,666.185348,-9918.759623,-919.314598
3345.906101,-666.185348,-10362.883188,-536.266849
3345.906428,296.082377,-10288.862594,536.266849
3345.906756,0.000000,-8512.368333,536.266849
3345.907083,518.144159,-8512.368333,-842.705048
3345.907411,-222.061783,-9548.656652,76.609550
3345.907739,-444.123565,-9104.533087,-689.485948
3345.908066,-814.226536,-9400.615463,-766.095498
3345.908394,-740.205942,-10214.842000,229.828649
3345.908721,2072.576638,-9474.636058,-459.657299
3345.909049,-444.123565,-10362.883188,76.609550
3345.909376,-518.144159,-11769.274478,766.095498
3345.909704,-666.185348,-9474.636058,-612.876398
3345.910032,222.061783,-9178.553681,-1991.848295
3345.910359,148.041188,-10214.842000,-2451.505594
3345.910687,-592.164754,-9696.697840,-459.657299
3345.911014,-592.164754,-9030.512492,842.705048
3345.911342,-1406.391290,-10288.862594,2145.067394
3345.911669,-1258.350101,-10066.800811,612.876398
3345.911997,-1998.556043,-8068.244768,-1532.190996
3345.912325,-2072.576638,-8956.491898,-1685.410096
3345.912652,-1776.494261,-9474.636058,-995.924147
3345.912980,-740.205942,-9622.677246,-1149.143247
3345.913307,1110.308913,-10510.924376,-1149.143247
3345.913635,2220.617826,-11103.089130,-766.095498
3345.913962,2516.700203,-10584.944971,689.485948
3345.914290,814.226536,-9770.718434,766.095498
3345.914618,1628.453072,-9474.636058,459.657299
3345.914945,1184.329507,-8882.471304,-306.438199
3345.915273,444.123565,-10140.821405,612.876398
3345.915600,0.000000,-9178.553681,1608.800546
3345.915928,-518.144159,-8586.388927,306.438199
3345.916256,1184.329507,-8586.388927,-995.924147
3345.916583,962.267725,-9992.780217,-1838.629195
3345.916911,148.041188,-11399.171507,-1072.533697
3345.917238,0.000000,-11103.089130,-306.438199
3345.917566,1258.350101,-9696.697840,-536.266849
3345.917893,2368.659014,-8142.265362,-1225.752797
3345.918221,518.144159,-9918.759623,459.657299
3345.918549,148.041188,-10807.006753,2298.286494
3345.918876,814.226536,-9622.677246,612.876398
3345.919204,1776.494261,-9992.780217,-1532.190996
3345.919531,1184.329507,-10066.800811,-1991.848295
3345.919859,148.041188,-7624.121203,-766.095498
3345.920186,-296.082377,-8364.327145,842.705048
3345.920514,0.000000,-9844.739029,1532.190996
3345.920842,888.247130,-11251.130318,0.000000
3345.921169,518.144159,-10658.965565,-995.924147
3345.921497,1628.453072,-10881.027347,-995.924147
3345.921824,740.205942,-9770.718434,0.000000
3345.922152,1628.453072,-9548.656652,766.095498
3345.922479,1110.308913,-8364.327145,1455.581446
3345.922807,740.205942,-8290.306550,-76.609550
3345.923135,-1036.288319,-9622.677246,-689.485948
3345.923462,-1110.308913,-9400.615463,-153.219100
3345.923790,1184.329507,-9474.636058,-153.219100
3345.924117,814.226536,-10584.944971,-153.219100
3345.924445,370.102971,-12509.480420,0.000000
3345.924772,-1036.288319,-11251.130318,-459.657299
3345.925100,-296.082377,-9844.739029,-1915.238745
3345.925428,1998.556043,-9030.512492,-2374.896044
3345.925755,0.000000,-7846.182985,-612.876398
3345.926083,-1554.432478,-8438.347739,1915.238745
3345.926410,-1702.473667,-9770.718434,2451.505594
3345.926738,1628.453072,-10066.800811,0.000000
3345.927065,1110.308913,-9104.533087,-766.095498
3345.927393,-370.102971,-10214.842000,-536.266849
3345.927721,-1258.350101,-9696.697840,-689.485948
3345.928048,-1258.350101,-10584.944971,-1685.410096
3345.928376,740.205942,-10066.800811,-3447.429741
3345.928703,-148.041188,-9992.780217,-1915.238745
3345.929031,370.102971,-9844.739029,306.438199
3345.929358,0.000000,-10584.944971,2451.505594
3345.929686,0.000000,-9696.697840,1762.019645
3345.930014,666.185348,-8364.327145,-1532.190996
3345.930341,0.000000,-9696.697840,-1072.533697
3345.930669,0.000000,-10214.842000,-383.047749
3345.930996,-296.082377,-9770.718434,153.219100
3345.931324,518.144159,-8586.388927,153.219100
3345.931652,1258.350101,-10066.800811,-459.657299
3345.931979,-592.164754,-9770.718434,0.000000
3345.932307,-1258.350101,-8586.388927,76.609550
3345.932634,-2220.617826,-7476.080014,0.000000
3345.932962,0.000000,-8882.471304,-612.876398
3345.933290,296.082377,-10955.047942,-689.485948
3345.933617,1110.308913,-10881.027347,-459.657299
3345.933945,1480.411884,-10214.842000,383.047749
3345.934272,2516.700203,-10362.883188,689.485948
3345.934600,2590.720797,-10510.924376,153.219100
3345.934928,1998.556043,-8660.409521,153.219100
3345.935255,1110.308913,-7254.018232,0.000000
3345.935583,-592.164754,-9548.656652,1455.581446
3345.935910,0.000000,-10066.800811,919.314598
3345.936238,666.185348,-10214.842000,-1225.752797
3345.936566,74.020594,-9030.512492,-2757.943793
3345.936893,-296.082377,-9178.553681,-1149.143247
3345.937221,1110.308913,-11177.109724,-383.047749
3345.937548,4441.235652,-11917.315666,-689.485948
3345.937876,4219.173869,-11695.253884,-153.219100
3345.938204,1776.494261,-9622.677246,383.047749
3345.938531,-1184.329507,-9400.615463,1455.581446
3345.938859,-1332.370696,-7994.224174,306.438199
3345.939186,-148.041188,-8142.265362,-1302.362347
3345.939514,-2368.659014,-9326.594869,-383.047749
3345.939842,-1924.535449,-10584.944971,306.438199
3345.940169,814.226536,-11103.089130,-842.705048
3345.940497,3330.926739,-9844.739029,-2145.067394
3345.940825,1924.535449,-11473.192101,1072.533697
3345.941152,666.185348,-7772.162391,1455.581446
3345.941480,-222.061783,-5625.565159,1455.581446
3345.941807,0.000000,-8364.327145,1149.143247
3345.942135,666.185348,-9844.739029,766.095498
3345.942463,0.000000,-10140.821405,1685.410096
3345.942790,296.082377,-9992.780217,842.705048
3345.943118,-666.185348,-11103.089130,-1072.533697
3345.943445,-370.102971,-10658.965565,-2987.772442
3345.943773,-1924.535449,-10066.800811,-2911.162892
3345.944101,-1406.391290,-8882.471304,-2145.067394
3345.944428,370.102971,-8364.327145,0.000000
3345.944756,-962.267725,-9622.677246,3217.601092
3345.945083,0.000000,-9844.739029,3447.429741
3345.945411,0.000000,-8216.285956,1225.752797
3345.945739,-666.185348,-8364.327145,-536.266849
3345.946066,-444.123565,-9474.636058,-612.876398
3345.946394,296.082377,-10140.821405,-2221.676944
3345.946721,740.205942,-10807.006753,-1838.629195
3345.947049,-666.185348,-10732.986159,-1072.533697
3345.947377,0.000000,-10732.986159,-1378.971896
3345.947704,-370.102971,-10955.047942,536.266849
3345.948032,740.205942,-9918.759623,536.266849
3345.948359,888.247130,-10288.862594,-383.047749
3345.948687,-740.205942,-10436.903782,1149.143247
3345.949015,-518.144159,-9622.677246,-229.828649
3345.949342,444.123565,-7994.224174,-2451.505594
3345.949670,888.247130,-8734.430116,-1608.800546
3345.949997,222.061783,-10214.842000,76.609550
3345.950325,370.102971,-8956.491898,-689.485948
3345.950653,-962.267725,-9844.739029,1149.143247
3345.950980,592.164754,-9474.636058,153.219100
3345.951308,888.247130,-9474.636058,0.000000
3345.951635,-1776.494261,-10436.903782,1149.143247
3345.951963,-1480.411884,-9696.697840,-1225.752797
3345.952291,-296.082377,-9622.677246,-3140.991542
3345.952618,962.267725,-9400.615463,-3447.429741
3345.952946,888.247130,-9104.533087,-919.314598
3345.953273,2146.597232,-10288.862594,1149.143247
3345.953601,3330.926739,-10807.006753,2451.505594
3345.953929,3478.967927,-11103.089130,2451.505594
3345.954256,2738.761985,-8956.491898,1149.143247
3345.954584,-148.041188,-8660.409521,689.485948
3345.954911,-148.041188,-8512.368333,383.047749
3345.955239,1702.473667,-9252.574275,-2068.457845
3345.955567,2368.659014,-10140.821405,-2451.505594
3345.955894,1702.473667,-10807.006753,0.000000
3345.956222,2368.659014,-10288.862594,0.000000
3345.956549,2294.638420,-10510.924376,153.219100
3345.956877,1110.308913,-11843.295072,1149.143247
3345.957205,1184.329507,-9030.512492,0.000000
3345.957532,-296.082377,-8142.265362,383.047749
3345.957860,-666.185348,-8364.327145,-383.047749
3345.958188,-962.267725,-8956.491898,-842.705048
3345.958515,-962.267725,-10066.800811,0.000000
3345.958843,222.061783,-10658.965565,0.000000
3345.959170,666.185348,-9770.718434,-1225.752797
3345.959498,962.267725,-9252.574275,-536.266849
3345.959826,-518.144159,-9770.718434,2451.505594
3345.960153,1628.453072,-7698.141797,2451.505594
3345.960481,1628.453072,-7698.141797,1302.362347
3345.960808,-1258.350101,-10881.027347,2068.457845
3345.961136,-1998.556043,-10140.821405,612.876398
3345.961464,-518.144159,-8068.244768,-2681.334243
3345.961791,370.102971,-10214.842000,-2221.676944
3345.962119,296.082377,-11325.150913,-1685.410096
3345.962446,-1258.350101,-11029.068536,0.000000
3345.962774,-2664.741391,-8660.409521,919.314598
3345.963102,-962.267725,-7846.182985,-612.876398
3345.963429,74.020594,-10214.842000,-459.657299
3345.963757,-814.226536,-10066.800811,2221.676944
3345.964084,-814.226536,-8438.347739,1838.629195
3345.964412,296.082377,-10214.842000,-612.876398
3345.964740,814.226536,-11029.068536,-1685.410096
3345.965067,740.205942,-10066.800811,-1991.848295
3345.965395,-222.061783,-8808.450710,-1915.238745
3345.965722,-2072.576638,-10066.800811,-306.438199
3345.966050,-666.185348,-11177.109724,0.000000
3345.966378,1184.329507,-8956.491898,-1072.533697
3345.966705,0.000000,-10362.883188,689.485948
3345.967033,-518.144159,-10658.965565,2145.067394
3345.967360,-370.102971,-10362.883188,689.485948
3345.967688,0.000000,-9548.656652,-1608.800546
3345.968016,666.185348,-9252.574275,-3677.258390
3345.968343,222.061783,-9548.656652,-1991.848295
3345.968671,74.020594,-9474.636058,0.000000
3345.968998,962.267725,-9252.574275,2145.067394
3345.969326,3034.844362,-10362.883188,1608.800546
3345.969654,3034.844362,-10881.027347,1532.190996
3345.969981,1628.453072,-9030.512492,1838.629195
3345.970309,148.041188,-7550.100608,459.657299
3345.970636,0.000000,-8586.388927,-689.485948
3345.970964,-740.205942,-9770.718434,-1762.019645
3345.971292,-444.123565,-9474.636058,-3217.601092
3345.971619,-1480.411884,-8734.430116,-2451.505594
3345.971947,-1702.473667,-9622.677246,0.000000
3345.972274,518.144159,-8882.471304,0.000000
3345.972602,2072.576638,-10214.842000,-153.219100
3345.972930,2664.741391,-11547.212695,1455.581446
3345.973257,1036.288319,-10807.006753,1455.581446
3345.973585,1332.370696,-11769.274478,842.705048
3345.973913,2812.782580,-8438.347739,-2681.334243
3345.974240,3182.885551,-8364.327145,-3524.039291
3345.974568,1406.391290,-10140.821405,153.219100
3345.974895,-518.144159,-11029.068536,3524.039291
3345.975223,2738.761985,-10066.800811,1838.629195
3345.975551,2886.803174,-9622.677246,-1762.019645
3345.975878,1110.308913,-12065.356855,-536.266849
3345.976206,-222.061783,-12065.356855,383.047749
3345.976533,-370.102971,-10066.800811,-689.485948
3345.976861,814.226536,-8734.430116,-2681.334243
3345.977189,-1036.288319,-9326.594869,-2834.553343
3345.977516,-962.267725,-10807.006753,0.000000
3345.977844,222.061783,-8808.450710,995.924147
3345.978171,1702.473667,-9030.512492,1225.752797
3345.978499,888.247130,-10140.821405,1915.238745
3345.978827,-666.185348,-8364.327145,1915.238745
3345.979154,-962.267725,-5329.482782,306.438199
3345.979482,-962.267725,-7476.080014,0.000000
3345.979809,0.000000,-10658.965565,306.438199
3345.980137,740.205942,-10436.903782,-306.438199
3345.980465,1406.391290,-9844.739029,-1225.752797
3345.980792,0.000000,-9844.739029,-383.047749
3345.981120,-296.082377,-10362.883188,459.657299
3345.981447,0.000000,-10066.800811,842.705048
3345.981775,-222.061783,-7994.224174,995.924147
3345.982103,-888.247130,-8216.285956,919.314598
3345.982430,-2220.617826,-10362.883188,1685.410096
3345.982758,-962.267725,-9844.739029,536.266849
3345.983085,296.082377,-8808.450710,-2145.067394
3345.983413,-370.102971,-9770.718434,-2221.676944
3345.983741,-962.267725,-9622.677246,-1225.752797
3345.984068,-592.164754,-9770.718434,-459.657299
3345.984396,740.205942,-10807.006753,-995.924147
3345.984723,1258.350101,-10510.924376,-919.314598
3345.985051,296.082377,-10436.903782,0.000000
3345.985379,-1406.391290,-9918.759623,459.657299
3345.985706,-370.102971,-10658.965565,766.095498
3345.986034,1406.391290,-9548.656652,-1455.581446
3345.986361,666.185348,-10658.965565,-1915.238745
3345.986689,0.000000,-11547.212695,-1072.533697
3345.987017,222.061783,-10066.800811,-383.047749
3345.987344,370.102971,-9844.739029,-689.485948
3345.987672,888.247130,-9918.759623,-689.485948
3345.987999,666.185348,-9474.636058,0.000000
3345.988327,592.164754,-9400.615463,0.000000
3345.988655,2368.659014,-9770.718434,612.876398
3345.988982,2738.761985,-10214.842000,536.266849
3345.989310,666.185348,-9474.636058,1072.533697
3345.989638,-592.164754,-8660.409521,383.047749
3345.989965,-1480.411884,-7179.997637,-1149.143247
3345.990293,-1554.432478,-8438.347739,-2221.676944
3345.990620,-2072.576638,-9770.718434,-1302.362347
3345.990948,-1702.473667,-9548.656652,-306.438199
3345.991276,888.247130,-9474.636058,-766.095498
3345.991603,3775.050304,-11325.150913,-842.705048
3345.991931,4071.132681,-10362.883188,1378.971896
3345.992258,1776.494261,-10288.862594,1915.238745
3345.992586,222.061783,-9844.739029,1838.629195
3345.992914,1628.453072,-7846.182985,-766.095498
3345.993241,2368.659014,-6883.915261,-1608.800546
3345.993569,1998.556043,-8290.306550,689.485948
3345.993896,888.247130,-10584.944971,3447.429741
3345.994224,666.185348,-11473.192101,1608.800546
3345.994552,1628.453072,-11621.233289,-2068.457845
3345.994879,1924.535449,-11029.068536,-2757.943793
3345.995207,888.247130,-11325.150913,-1762.019645
3345.995534,-370.102971,-10436.903782,-229.828649
3345.995862,-592.164754,-9326.594869,0.000000
3345.996190,-1628.453072,-9178.553681,-1149.143247
3345.996517,0.000000,-8734.430116,-1149.143247
3345.996845,222.061783,-8882.471304,1225.752797
3345.997172,296.082377,-9474.636058,1149.143247
3345.997500,-962.267725,-10881.027347,919.314598
3345.997828,-1258.350101,-9622.677246,-229.828649
3345.998155,1036.288319,-7105.977043,-1915.238745
3345.998483,1258.350101,-9474.636058,-612.876398
3345.998810,1998.556043,-10807.006753,2221.676944
3345.999138,0.000000,-9696.697840,2068.457845
3345.999466,-370.102971,-9326.594869,76.609550
3345.999793,74.020594,-9622.677246,-1149.143247
3346.000121,-296.082377,-10436.903782,-306.438199
3346.000448,-740.205942,-9844.739029,1838.629195
3346.000776,-518.144159,-8068.244768,1378.971896
3346.001104,0.000000,-8660.409521,-1072.533697
3346.001431,-370.102971,-9992.780217,-1378.971896
3346.001759,-1110.308913,-9622.677246,0.000000
3346.002086,-2368.659014,-7550.100608,842.705048
3346.002414,-2072.576638,-7550.100608,-306.438199
3346.002742,0.000000,-9844.739029,-612.876398
3346.003069,222.061783,-10807.006753,-1378.971896
3346.003397,888.247130,-10214.842000,-1225.752797
3346.003724,1628.453072,-10732.986159,-306.438199
3346.004052,1776.494261,-9400.615463,-842.705048
3346.004380,222.061783,-10732.986159,0.000000
3346.004707,-518.144159,-9918.759623,0.000000
3346.005035,-444.123565,-8882.471304,-1225.752797
3346.005362,-1036.288319,-9844.739029,-459.657299
3346.005690,740.205942,-11399.171507,-306.438199
3346.006018,740.205942,-10658.965565,-612.876398
3346.006345,-370.102971,-9770.718434,-536.266849
3346.006673,-666.185348,-9992.780217,-1225.752797
3346.007001,814.226536,-10658.965565,-1608.800546
3346.007328,3182.885551,-9696.697840,-1915.238745
3346.007656,2442.679609,-9178.553681,0.000000
3346.007983,74.020594,-9104.533087,2911.162892
3346.008311,-666.185348,-9474.636058,2298.286494
3346.008639,148.041188,-9400.615463,536.266849
3346.008966,0.000000,-8882.471304,-1532.190996
3346.009294,-1036.288319,-8734.430116,-2528.115143
3346.009621,-2664.741391,-9400.615463,-1838.629195
3346.009949,-1332.370696,-10066.800811,-1455.581446
3346.010277,2294.638420,-9622.677246,-2604.724693
3346.010604,1924.535449,-9918.759623,-766.095498
3346.010932,1924.535449,-10658.965565,2528.115143
3346.011259,1998.556043,-9474.636058,2834.553343
3346.011587,2368.659014,-9030.512492,2834.553343
3346.011915,2146.597232,-8364.327145,1685.410096
3346.012242,-222.061783,-8216.285956,1072.533697
3346.012570,0.000000,-7846.182985,-153.219100
3346.012897,1110.308913,-8956.491898,-1991.848295
3346.013225,1628.453072,-9770.718434,-2221.676944
3346.013553,1184.329507,-12287.418637,-842.705048
3346.013880,962.267725,-13027.624579,536.266849
3346.014208,1554.432478,-12509.480420,0.000000
3346.014535,370.102971,-9770.718434,459.657299
3346.014863,-740.205942,-7179.997637,0.000000
3346.015191,-2072.576638,-7105.977043,153.219100
3346.015518,-2146.597232,-8438.347739,-766.095498
3346.015846,-1998.556043,-9252.574275,0.000000
3346.016173,148.041188,-8956.491898,-1072.533697
3346.016501,74.020594,-9622.677246,-1225.752797
3346.016829,-740.205942,-10436.903782,-153.219100
3346.017156,-666.185348,-9844.739029,153.219100
3346.017484,666.185348,-10658.965565,383.047749
3346.017811,3404.947333,-9918.759623,306.438199
3346.018139,2590.720797,-9326.594869,459.657299
3346.018467,1110.308913,-9474.636058,995.924147
3346.018794,0.000000,-9992.780217,1149.143247
3346.019122,814.226536,-10362.883188,-612.876398
3346.019449,1036.288319,-10140.821405,-1225.752797
3346.019777,-370.102971,-9252.574275,-1838.629195
3346.020105,-740.205942,-8882.471304,-536.266849
3346.020432,-740.205942,-10288.862594,536.266849
3346.020760,1036.288319,-10807.006753,1302.362347
3346.021087,518.144159,-8734.430116,766.095498
3346.021415,-740.205942,-7772.162391,306.438199
3346.021743,-1258.350101,-8512.368333,-1378.971896
3346.022070,0.000000,-9326.594869,-1838.629195
3346.022398,1554.432478,-9622.677246,-1991.848295
3346.022726,1480.411884,-10807.006753,0.000000
3346.023053,1628.453072,-9992.780217,842.705048
3346.023381,148.041188,-10140.821405,1915.238745
3346.023708,370.102971,-10140.821405,1685.410096
3346.024036,666.185348,-8956.491898,0.000000
3346.024364,-814.226536,-8438.347739,-1225.752797
3346.024691,-1776.494261,-9326.594869,-383.047749
3346.025019,-1110.308913,-9992.780217,-995.924147
3346.025346,962.267725,-9770.718434,-2068.457845
3346.025674,1184.329507,-11399.171507,-1455.581446
3346.026002,518.144159,-10288.862594,-766.095498
3346.026329,592.164754,-9030.512492,689.485948
3346.026657,666.185348,-7698.141797,2451.505594
3346.026984,1776.494261,-9400.615463,2451.505594
3346.027312,666.185348,-10066.800811,1225.752797
3346.027640,-740.205942,-10214.842000,383.047749
3346.027967,-2368.659014,-9770.718434,-1149.143247
3346.028295,-1258.350101,-7920.203579,-3983.696590
3346.028622,-1776.494261,-8142.265362,-3830.477490
3346.028950,-1406.391290,-9622.677246,-3064.381992
3346.029278,0.000000,-11621.233289,-766.095498
3346.029605,1184.329507,-12509.480420,2068.457845
3346.029933,3182.885551,-10658.965565,2681.334243
3346.030260,2886.803174,-8142.265362,2604.724693
3346.030588,1110.308913,-7476.080014,2604.724693
3346.030916,-740.205942,-9326.594869,1532.190996
3346.031243,-222.061783,-9400.615463,-1608.800546
3346.031571,370.102971,-8438.347739,-3907.087040
3346.031898,0.000000,-9474.636058,-2911.162892
3346.032226,-296.082377,-10658.965565,-1072.533697
3346.032554,-518.144159,-12509.480420,1685.410096
3346.032881,2516.700203,-11991.336260,1762.019645
3346.033209,3627.009116,-12213.398043,-459.657299
3346.033536,1406.391290,-10362.883188,-306.438199
3346.033864,-1110.308913,-6513.812290,229.828649
3346.034192,-962.267725,-6217.729913,76.609550
3346.034519,0.000000,-8882.471304,-1302.362347
3346.034847,-1480.411884,-9178.553681,-995.924147
3346.035174,-1110.308913,-8808.450710,-306.438199
3346.035502,-444.123565,-8808.450710,229.828649
3346.035830,1480.411884,-10214.842000,842.705048
3346.036157,1924.535449,-11103.089130,995.924147
3346.036485,740.205942,-11399.171507,1149.143247
3346.036812,888.247130,-9474.636058,-459.657299
3346.037140,1628.453072,-6883.915261,-2451.505594
3346.037468,518.144159,-7772.162391,-1149.143247
3346.037795,-962.267725,-11177.109724,1072.533697
3346.038123,-296.082377,-11251.130318,0.000000
3346.038450,-296.082377,-9178.553681,-766.095498
3346.038778,0.000000,-9474.636058,-229.828649
3346.039106,74.020594,-9992.780217,0.000000
3346.039433,-740.205942,-10214.842000,842.705048
3346.039761,-740.205942,-10288.862594,919.314598
3346.040089,-1776.494261,-8512.368333,-1455.581446
3346.040416,148.041188,-9030.512492,-2681.334243
3346.040744,518.144159,-8660.409521,-2221.676944
3346.041071,518.144159,-10436.903782,-459.657299
3346.041399,370.102971,-12065.356855,1302.362347
3346.041727,1924.535449,-11621.233289,1685.410096
3346.042054,2294.638420,-8734.430116,612.876398
3346.042382,1258.350101,-8956.491898,689.485948
3346.042709,-666.185348,-10066.800811,1915.238745
3346.043037,-1480.411884,-10140.821405,842.705048
3346.043365,-148.041188,-9474.636058,-1838.629195
3346.043692,0.000000,-9178.553681,-3140.991542
3346.044020,-666.185348,-9770.718434,-2221.676944
3346.044347,-370.102971,-9844.739029,-459.657299
3346.044675,0.000000,-10658.965565,995.924147
3346.045003,2072.576638,-9770.718434,0.000000
3346.045330,2294.638420,-8660.409521,842.705048
3346.045658,1184.329507,-8882.471304,2604.724693
3346.045985,0.000000,-9030.512492,2911.162892
3346.046313,0.000000,-8586.388927,306.438199
3346.046641,-740.205942,-9178.553681,-1762.019645
3346.046968,-1554.432478,-9178.553681,-4749.792088
3346.047296,-2220.617826,-9030.512492,-3370.820191
3346.047623,-2294.638420,-10362.883188,-1455.581446
3346.047951,74.020594,-10584.944971,0.000000
3346.048279,2664.741391,-11843.295072,919.314598
3346.048606,2294.638420,-11399.171507,2681.334243
3346.048934,2442.679609,-9770.718434,3370.820191
3346.049261,3108.864956,-8142.265362,919.314598
3346.049589,3552.988522,-7254.018232,-2145.067394
3346.049917,370.102971,-9622.677246,-306.438199
3346.050244,-888.247130,-9844.739029,-306.438199
3346.050572,-1554.432478,-9252.574275,-1685.410096
3346.050899,222.061783,-9918.759623,-2374.896044
3346.051227,1406.391290,-11621.233289,-1532.190996
3346.051555,1702.473667,-13767.830521,1072.533697
3346.051882,2886.803174,-13471.748144,1685.410096
3346.052210,2368.659014,-9844.739029,-536.266849
3346.052537,962.267725,-7994.224174,-1685.410096
3346.052865,-1184.329507,-7772.162391,-1072.533697
3346.053193,-1554.432478,-7550.100608,-229.828649
3346.053520,-1702.473667,-7105.977043,76.609550
3346.053848,-1776.494261,-9178.553681,153.219100
3346.054175,-370.102971,-9844.739029,1302.362347
3346.054503,888.247130,-10436.903782,459.657299
3346.054831,1850.514855,-9548.656652,76.609550
3346.055158,888.247130,-10881.027347,1378.971896
3346.055486,740.205942,-9474.636058,229.828649
3346.055814,740.205942,-6883.915261,-1838.629195
3346.056141,74.020594,-7031.956449,-1302.362347
3346.056469,-740.205942,-8512.368333,1455.581446
3346.056796,-1036.288319,-10807.006753,2834.553343
3346.057124,444.123565,-10584.944971,1149.143247
3346.057452,74.020594,-10140.821405,-689.485948
3346.057779,-592.164754,-10436.903782,-1608.800546
3346.058107,-1110.308913,-9844.739029,-1149.143247
3346.058434,-1036.288319,-8290.306550,-919.314598
3346.058762,-592.164754,-8142.265362,-1532.190996
3346.059090,-1776.494261,-10362.883188,-612.876398
3346.059417,-1332.370696,-9992.780217,-612.876398
3346.059745,0.000000,-9474.636058,-919.314598
3346.060072,1258.350101,-10066.800811,153.219100
3346.060400,1702.473667,-11547.212695,1532.190996
3346.060728,888.247130,-10510.924376,842.705048
3346.061055,-444.123565,-9696.697840,612.876398
3346.061383,-888.247130,-8956.491898,-1072.533697
3346.061710,0.000000,-8438.347739,-2911.162892
3346.062038,0.000000,-11547.212695,-1608.800546
3346.062366,-814.226536,-11029.068536,-229.828649
3346.062693,-296.082377,-10066.800811,-1072.533697
3346.063021,74.020594,-10288.862594,-689.485948
3346.063348,1406.391290,-9992.780217,-306.438199
3346.063676,1924.535449,-10807.006753,306.438199
3346.064004,1332.370696,-9474.636058,1225.752797
3346.064331,592.164754,-8068.244768,842.705048
3346.064659,2146.597232,-7402.059420,-919.314598
3346.064986,1850.514855,-9030.512492,-306.438199
3346.065314,-296.082377,-9992.780217,1838.629195
3346.065642,-1332.370696,-8882.471304,919.314598
3346.065969,-888.247130,-10288.862594,-1915.238745
