#time,accel_x,accel_y,accel_z
3131.130299,0.000000,-9622.677246,-306.438199
3131.130627,444.123565,-9548.656652,0.000000
3131.130954,592.164754,-9770.718434,306.438199
3131.131282,592.164754,-9474.636058,689.485948
3131.131610,666.185348,-9548.656652,766.095498
3131.131937,296.082377,-8882.471304,459.657299
3131.132265,296.082377,-9030.512492,0.000000
3131.132592,0.000000,-9252.574275,0.000000
3131.132920,0.000000,-9104.533087,0.000000
3131.133247,74.020594,-9252.574275,-689.485948
3131.133575,74.020594,-9326.594869,-536.266849
3131.133902,0.000000,-9474.636058,-612.876398
3131.134230,0.000000,-10214.842000,-995.924147
3131.134558,370.102971,-10140.821405,-689.485948
3131.134885,740.205942,-10436.903782,-536.266849
3131.135213,666.185348,-10140.821405,-459.657299
3131.135540,370.102971,-9622.677246,153.219100
3131.135868,0.000000,-9770.718434,-229.828649
3131.136195,370.102971,-9844.739029,-612.876398
3131.136523,0.000000,-9696.697840,-459.657299
3131.136850,0.000000,-9770.718434,-459.657299
3131.137178,0.000000,-9918.759623,-612.876398
3131.137506,74.020594,-10362.883188,-536.266849
3131.137833,814.226536,-10436.903782,-536.266849
3131.138161,666.185348,-10362.883188,-383.047749
3131.138488,666.185348,-10288.862594,-306.438199
3131.138816,814.226536,-9844.739029,0.000000
3131.139143,592.164754,-9474.636058,229.828649
3131.139471,592.164754,-9252.574275,229.828649
3131.139798,222.061783,-8956.491898,0.000000
3131.140126,222.061783,-8734.430116,383.047749
3131.140454,0.000000,-9252.574275,-153.219100
3131.140781,-222.061783,-8808.450710,0.000000
3131.141109,222.061783,-9252.574275,-459.657299
3131.141436,222.061783,-9474.636058,-383.047749
3131.141764,518.144159,-9696.697840,153.219100
3131.142091,666.185348,-9548.656652,0.000000
3131.142419,814.226536,-9918.759623,383.047749
3131.142746,740.205942,-9474.636058,0.000000
3131.143074,444.123565,-8956.491898,1149.143247
3131.143402,222.061783,-9252.574275,306.438199
3131.143729,-148.041188,-9104.533087,76.609550
3131.144057,-222.061783,-9400.615463,0.000000
3131.144384,0.000000,-9622.677246,-536.266849
3131.144712,0.000000,-9400.615463,-842.705048
3131.145039,0.000000,-9622.677246,-1072.533697
3131.145367,296.082377,-9474.636058,-383.047749
3131.145694,1036.288319,-9622.677246,-383.047749
3131.146022,1702.473667,-10214.842000,-229.828649
3131.146350,2516.700203,-9844.739029,0.000000
3131.146677,3034.844362,-9474.636058,0.000000
3131.147005,3478.967927,-9400.615463,-153.219100
3131.147332,3775.050304,-9178.553681,-612.876398
3131.147660,4959.379811,-9770.718434,-459.657299
3131.147987,5551.544565,-9548.656652,-536.266849
3131.148315,6439.791695,-9992.780217,-459.657299
3131.148642,7402.059420,-10362.883188,-612.876398
3131.148970,8142.265362,-10807.006753,-306.438199
3131.149298,8142.265362,-10436.903782,612.876398
3131.149625,9252.574275,-9844.739029,383.047749
3131.149953,9548.656652,-9178.553681,229.828649
3131.150280,9918.759623,-8956.491898,536.266849
3131.150608,10584.944971,-8734.430116,842.705048
3131.150935,11103.089130,-8290.306550,536.266849
3131.151263,11251.130318,-8660.409521,229.828649
3131.151590,11473.192101,-9030.512492,1149.143247
3131.151918,10955.047942,-9326.594869,0.000000
3131.152246,11547.212695,-9326.594869,0.000000
3131.152573,11843.295072,-9252.574275,-383.047749
3131.152901,13545.768739,-10658.965565,0.000000
3131.153228,14285.974681,-10214.842000,842.705048
3131.153556,15322.262999,-10066.800811,1225.752797
3131.153883,15544.324782,-8882.471304,1378.971896
3131.154211,14730.098246,-8512.368333,995.924147
3131.154538,14211.954086,-9400.615463,1072.533697
3131.154866,13249.686362,-8734.430116,0.000000
3131.155194,12657.521608,-9696.697840,0.000000
3131.155521,12657.521608,-10436.903782,-153.219100
3131.155849,12731.542202,-10066.800811,0.000000
3131.156176,12287.418637,-9326.594869,689.485948
3131.156504,12509.480420,-9696.697840,459.657299
3131.156831,12065.356855,-9474.636058,-766.095498
3131.157159,11473.192101,-10658.965565,229.828649
3131.157486,10584.944971,-10732.986159,0.000000
3131.157814,9918.759623,-10066.800811,153.219100
3131.158142,7994.224174,-8512.368333,229.828649
3131.158469,7846.182985,-7920.203579,766.095498
3131.158797,8142.265362,-8438.347739,0.000000
3131.159124,9104.533087,-10140.821405,-919.314598
3131.159452,9696.697840,-12213.398043,0.000000
3131.159779,9178.553681,-11473.192101,306.438199
3131.160107,8660.409521,-9844.739029,383.047749
3131.160434,8882.471304,-8956.491898,0.000000
3131.160762,8512.368333,-8068.244768,306.438199
3131.161090,9178.553681,-9844.739029,459.657299
3131.161417,8364.327145,-11177.109724,1685.410096
3131.161745,7994.224174,-9474.636058,612.876398
3131.162072,7179.997637,-7402.059420,-306.438199
3131.162400,5847.626942,-8882.471304,-306.438199
3131.162727,4441.235652,-9622.677246,0.000000
3131.163055,6291.750507,-9992.780217,-1685.410096
3131.163382,7328.038826,-8290.306550,-1149.143247
3131.163710,9474.636058,-8882.471304,-306.438199
3131.164038,8882.471304,-9326.594869,842.705048
3131.164365,5773.606348,-9252.574275,3140.991542
3131.164693,4071.132681,-8808.450710,2451.505594
3131.165020,6217.729913,-9992.780217,-1225.752797
3131.165348,6513.812290,-10362.883188,-2834.553343
3131.165675,5107.421000,-9992.780217,-1225.752797
3131.166003,3478.967927,-9622.677246,1685.410096
3131.166330,3034.844362,-9696.697840,842.705048
3131.166658,1628.453072,-9844.739029,0.000000
3131.166986,370.102971,-7994.224174,-1762.019645
3131.167313,444.123565,-7105.977043,-2145.067394
3131.167641,2664.741391,-8882.471304,-1378.971896
3131.167968,5403.503377,-9622.677246,-919.314598
3131.168296,5403.503377,-10436.903782,612.876398
3131.168623,6365.771101,-10140.821405,1225.752797
3131.168951,6809.894666,-9474.636058,229.828649
3131.169278,5625.565159,-9844.739029,-459.657299
3131.169606,5625.565159,-11917.315666,-842.705048
3131.169934,6957.935855,-11177.109724,-1302.362347
3131.170261,6365.771101,-9178.553681,-842.705048
3131.170589,3701.029710,-10881.027347,459.657299
3131.170916,2442.679609,-12805.562797,2068.457845
3131.171244,2812.782580,-10288.862594,995.924147
3131.171571,3330.926739,-8438.347739,-1685.410096
3131.171899,222.061783,-8882.471304,-1685.410096
3131.172226,518.144159,-9326.594869,0.000000
3131.172554,2590.720797,-7328.038826,1455.581446
3131.172882,1110.308913,-7105.977043,2068.457845
3131.173209,222.061783,-9030.512492,612.876398
3131.173537,0.000000,-9252.574275,0.000000
3131.173864,-592.164754,-9696.697840,-459.657299
3131.174192,0.000000,-10584.944971,-1685.410096
3131.174519,1480.411884,-11177.109724,-1838.629195
3131.174847,296.082377,-12435.459826,0.000000
3131.175174,0.000000,-13249.686362,1378.971896
3131.175502,1332.370696,-9992.780217,-612.876398
3131.175830,740.205942,-8364.327145,-1532.190996
3131.176157,296.082377,-10807.006753,383.047749
3131.176485,370.102971,-8956.491898,689.485948
3131.176812,740.205942,-6661.853478,229.828649
3131.177140,74.020594,-7402.059420,2298.286494
3131.177467,666.185348,-7920.203579,2374.896044
3131.177795,888.247130,-7994.224174,919.314598
3131.178122,-370.102971,-11399.171507,1072.533697
3131.178450,-296.082377,-11695.253884,0.000000
3131.178778,1036.288319,-10436.903782,-2757.943793
3131.179105,-2146.597232,-12213.398043,-1072.533697
3131.179433,-2886.803174,-11621.233289,1762.019645
3131.179760,-2516.700203,-8512.368333,-153.219100
3131.180088,-5033.400406,-9252.574275,-689.485948
3131.180415,-5773.606348,-10214.842000,-766.095498
3131.180743,-2294.638420,-6587.832884,-3140.991542
3131.181070,-2664.741391,-6217.729913,-689.485948
3131.181398,-4219.173869,-9178.553681,3370.820191
3131.181726,-1110.308913,-7846.182985,536.266849
3131.182053,296.082377,-8660.409521,-2451.505594
3131.182381,444.123565,-10288.862594,-842.705048
3131.182708,2220.617826,-11547.212695,-1532.190996
3131.183036,1480.411884,-13027.624579,0.000000
3131.183363,814.226536,-14878.139434,1915.238745
3131.183691,2516.700203,-11473.192101,-1378.971896
3131.184018,0.000000,-8364.327145,-3140.991542
3131.184346,-3108.864956,-10807.006753,-229.828649
3131.184674,-1110.308913,-8808.450710,-689.485948
3131.185001,222.061783,-6143.709319,-2604.724693
3131.185329,-1036.288319,-8438.347739,-995.924147
3131.185656,444.123565,-8364.327145,1225.752797
3131.185984,2738.761985,-6513.812290,383.047749
3131.186311,2738.761985,-9622.677246,1532.190996
3131.186639,3701.029710,-11843.295072,919.314598
3131.186966,4663.297435,-10732.986159,-1225.752797
3131.187294,2812.782580,-12139.377449,-995.924147
3131.187622,2368.659014,-13101.645173,-306.438199
3131.187949,2072.576638,-11177.109724,-995.924147
3131.188277,-296.082377,-10584.944971,536.266849
3131.188604,-1110.308913,-9474.636058,1302.362347
3131.188932,1258.350101,-8142.265362,-1838.629195
3131.189259,888.247130,-9104.533087,-1378.971896
3131.189587,518.144159,-9474.636058,919.314598
3131.189914,1480.411884,-5551.544565,995.924147
3131.190242,1258.350101,-6365.771101,919.314598
3131.190570,1406.391290,-9474.636058,2451.505594
3131.190897,3256.906145,-8512.368333,995.924147
3131.191225,3478.967927,-9326.594869,0.000000
3131.191552,3108.864956,-14211.954086,1378.971896
3131.191880,2664.741391,-13101.645173,842.705048
3131.192207,370.102971,-9992.780217,-995.924147
3131.192535,-3182.885551,-11473.192101,-459.657299
3131.192863,-2294.638420,-10807.006753,-2221.676944
3131.193190,-2146.597232,-7402.059420,-3753.867940
3131.193518,-2812.782580,-9178.553681,306.438199
3131.193846,0.000000,-8512.368333,1608.800546
3131.194174,814.226536,-5921.647536,919.314598
3131.194501,-222.061783,-8216.285956,2068.457845
3131.194829,222.061783,-9104.533087,1685.410096
3131.195157,1406.391290,-7179.997637,-612.876398
3131.195485,888.247130,-9696.697840,-1072.533697
3131.195812,0.000000,-11843.295072,-459.657299
3131.196140,1258.350101,-10510.924376,-1915.238745
3131.196468,-1480.411884,-11917.315666,0.000000
3131.196796,-1850.514855,-13989.892304,459.657299
3131.197123,-296.082377,-11251.130318,-2528.115143
3131.197451,-2220.617826,-10510.924376,-3217.601092
3131.197779,-2738.761985,-10658.965565,-1991.848295
3131.198107,-1480.411884,-7031.956449,-2068.457845
3131.198434,-2294.638420,-6661.853478,-229.828649
3131.198762,-2072.576638,-7846.182985,1838.629195
3131.199090,0.000000,-7179.997637,919.314598
3131.199418,1332.370696,-8438.347739,0.000000
3131.199745,962.267725,-11103.089130,1302.362347
3131.200073,1332.370696,-9696.697840,-383.047749
3131.200401,74.020594,-10510.924376,-1302.362347
3131.200729,-1628.453072,-13619.789333,0.000000
3131.201056,-518.144159,-12213.398043,-1532.190996
3131.201384,-444.123565,-10362.883188,-2298.286494
3131.201712,-666.185348,-11991.336260,0.000000
3131.202040,296.082377,-10140.821405,76.609550
3131.202367,1258.350101,-7328.038826,-1608.800546
3131.202695,-814.226536,-8808.450710,306.438199
3131.203023,296.082377,-7476.080014,1608.800546
3131.203351,2072.576638,-6365.771101,459.657299
3131.203678,1850.514855,-8882.471304,1762.019645
3131.204006,2516.700203,-9104.533087,1608.800546
3131.204334,2738.761985,-7476.080014,229.828649
3131.204662,740.205942,-9622.677246,1149.143247
3131.204989,-222.061783,-12435.459826,1378.971896
3131.205317,1036.288319,-10436.903782,-1378.971896
3131.205645,222.061783,-11029.068536,-2374.896044
3131.205973,-740.205942,-12213.398043,-306.438199
3131.206300,1184.329507,-8734.430116,-1532.190996
3131.206628,518.144159,-7105.977043,-536.266849
3131.206956,-444.123565,-9474.636058,2451.505594
3131.207284,1628.453072,-8512.368333,0.000000
3131.207611,2442.679609,-9104.533087,-1225.752797
3131.207939,2960.823768,-11399.171507,0.000000
3131.208267,3404.947333,-8956.491898,-995.924147
3131.208595,1480.411884,-9696.697840,0.000000
3131.208922,222.061783,-12583.501014,2221.676944
3131.209250,1776.494261,-11029.068536,306.438199
3131.209578,1776.494261,-7698.141797,-1762.019645
3131.209906,0.000000,-11473.192101,383.047749
3131.210233,370.102971,-11843.295072,-459.657299
3131.210561,0.000000,-8734.430116,-2298.286494
3131.210889,-3478.967927,-9474.636058,-689.485948
3131.211217,-2294.638420,-9474.636058,0.000000
3131.211544,444.123565,-7624.121203,-995.924147
3131.211872,2220.617826,-11399.171507,76.609550
3131.212200,2442.679609,-11695.253884,1072.533697
3131.212528,2590.720797,-8734.430116,-153.219100
3131.212855,370.102971,-9622.677246,766.095498
3131.213183,-888.247130,-10881.027347,1302.362347
3131.213511,-592.164754,-7698.141797,306.438199
3131.213839,-1776.494261,-8364.327145,919.314598
3131.214166,-2664.741391,-9400.615463,1455.581446
3131.214494,-962.267725,-7624.121203,-1608.800546
3131.214822,-2220.617826,-7624.121203,-1225.752797
3131.215150,-2960.823768,-9326.594869,766.095498
3131.215477,-592.164754,-9622.677246,-689.485948
3131.215805,-740.205942,-11399.171507,-1685.410096
3131.216133,-740.205942,-10807.006753,-919.314598
3131.216461,2442.679609,-7624.121203,-2145.067394
3131.216788,2368.659014,-9104.533087,-612.876398
3131.217116,1110.308913,-13027.624579,3524.039291
3131.217444,1998.556043,-9992.780217,2757.943793
3131.217772,1258.350101,-7698.141797,153.219100
3131.218099,-1776.494261,-10658.965565,383.047749
3131.218427,-2368.659014,-8660.409521,-1608.800546
3131.218755,-3478.967927,-5329.482782,-2298.286494
3131.219083,-3627.009116,-10140.821405,-383.047749
3131.219410,-1184.329507,-11547.212695,-306.438199
3131.219738,962.267725,-10436.903782,-1532.190996
3131.220066,1406.391290,-12657.521608,0.000000
3131.220394,2590.720797,-11843.295072,-383.047749
3131.220721,1998.556043,-8660.409521,-2145.067394
3131.221049,222.061783,-10436.903782,-536.266849
3131.221377,296.082377,-10436.903782,229.828649
3131.221705,2072.576638,-7179.997637,-1225.752797
3131.222032,1406.391290,-9474.636058,689.485948
3131.222360,0.000000,-12287.418637,3294.210641
3131.222688,518.144159,-9548.656652,459.657299
3131.223016,-1184.329507,-8956.491898,-1149.143247
3131.223343,-2220.617826,-10658.965565,-919.314598
3131.223671,0.000000,-9474.636058,-2221.676944
3131.223999,592.164754,-9104.533087,-1149.143247
3131.224327,1406.391290,-9992.780217,1532.190996
3131.224654,2960.823768,-7920.203579,0.000000
3131.224982,2294.638420,-8808.450710,153.219100
3131.225310,296.082377,-11251.130318,2374.896044
3131.225638,2146.597232,-8290.306550,766.095498
3131.225965,1924.535449,-7105.977043,-536.266849
3131.226293,-740.205942,-11029.068536,919.314598
3131.226621,296.082377,-9992.780217,0.000000
3131.226949,0.000000,-8586.388927,-1685.410096
3131.227276,-2072.576638,-11029.068536,536.266849
3131.227604,0.000000,-9918.759623,0.000000
3131.227932,1776.494261,-9104.533087,-919.314598
3131.228260,592.164754,-10807.006753,842.705048
3131.228587,1036.288319,-9030.512492,383.047749
3131.228915,1702.473667,-7179.997637,-1072.533697
3131.229243,222.061783,-10436.903782,612.876398
3131.229571,1258.350101,-9474.636058,689.485948
3131.229898,1702.473667,-6513.812290,-842.705048
3131.230226,0.000000,-11399.171507,689.485948
3131.230554,-666.185348,-11843.295072,1608.800546
3131.230882,-296.082377,-9770.718434,-1685.410096
3131.231209,-2738.761985,-10066.800811,-1762.019645
3131.231537,-2886.803174,-11843.295072,-689.485948
3131.231865,0.000000,-9548.656652,-2451.505594
3131.232193,296.082377,-9326.594869,-766.095498
3131.232520,0.000000,-11473.192101,995.924147
3131.232848,962.267725,-8808.450710,0.000000
3131.233176,888.247130,-8956.491898,-1685.410096
3131.233504,444.123565,-10955.047942,-689.485948
3131.233831,1702.473667,-8956.491898,-1378.971896
3131.234159,1110.308913,-9252.574275,-229.828649
3131.234487,740.205942,-12361.439231,2145.067394
3131.234815,1702.473667,-9992.780217,76.609550
3131.235142,0.000000,-8142.265362,0.000000
3131.235470,-1776.494261,-9696.697840,1225.752797
3131.235798,-296.082377,-10066.800811,153.219100
3131.236126,-296.082377,-8734.430116,-1532.190996
3131.236453,-1480.411884,-9992.780217,0.000000
3131.236781,-370.102971,-9400.615463,766.095498
3131.237109,1110.308913,-7920.203579,0.000000
3131.237437,74.020594,-9696.697840,76.609550
3131.237764,1850.514855,-10288.862594,383.047749
3131.238092,3182.885551,-8882.471304,-612.876398
3131.238420,1850.514855,-11547.212695,689.485948
3131.238748,1184.329507,-10288.862594,1378.971896
3131.239075,1110.308913,-7179.997637,229.828649
3131.239403,-1628.453072,-9030.512492,536.266849
3131.239731,-1406.391290,-11325.150913,1532.190996
3131.240059,296.082377,-8882.471304,-1302.362347
3131.240386,0.000000,-9252.574275,-1762.019645
3131.240714,-666.185348,-10288.862594,0.000000
3131.241042,0.000000,-7328.038826,-1225.752797
3131.241370,-666.185348,-9104.533087,-1685.410096
3131.241697,-148.041188,-12213.398043,76.609550
3131.242025,2886.803174,-9474.636058,-919.314598
3131.242353,3552.988522,-8882.471304,-1225.752797
3131.242681,2738.761985,-12361.439231,2145.067394
3131.243008,2590.720797,-11029.068536,2528.115143
3131.243336,1036.288319,-9104.533087,459.657299
3131.243664,-1924.535449,-11029.068536,306.438199
3131.243992,-2072.576638,-9474.636058,-1762.019645
3131.244319,-740.205942,-7846.182985,-3753.867940
3131.244647,-1702.473667,-10807.006753,-689.485948
3131.244975,-1332.370696,-10658.965565,536.266849
3131.245303,0.000000,-8068.244768,-1762.019645
3131.245630,-296.082377,-10732.986159,-612.876398
3131.245958,666.185348,-10362.883188,229.828649
3131.246286,3256.906145,-7994.224174,-1685.410096
3131.246614,1998.556043,-9844.739029,995.924147
3131.246941,1258.350101,-10807.006753,2145.067394
3131.247269,1628.453072,-7105.977043,76.609550
3131.247597,-888.247130,-9548.656652,919.314598
3131.247925,-2146.597232,-12287.418637,2298.286494
3131.248252,148.041188,-9474.636058,-1072.533697
3131.248580,-444.123565,-9770.718434,-2451.505594
3131.248908,-2590.720797,-11843.295072,-995.924147
3131.249236,-1628.453072,-8808.450710,-1762.019645
3131.249563,-740.205942,-7772.162391,-1225.752797
3131.249891,-444.123565,-9770.718434,1685.410096
3131.250219,2368.659014,-8068.244768,1072.533697
3131.250547,3552.988522,-7920.203579,766.095498
3131.250874,1924.535449,-10288.862594,2834.553343
3131.251202,1850.514855,-8068.244768,2221.676944
3131.251530,0.000000,-7772.162391,459.657299
3131.251858,-2368.659014,-10955.047942,1072.533697
3131.252185,-1036.288319,-10807.006753,-1378.971896
3131.252513,-296.082377,-10288.862594,-4213.525239
3131.252841,-1258.350101,-11991.336260,-1991.848295
3131.253169,-592.164754,-10955.047942,-689.485948
3131.253496,666.185348,-8438.347739,-1149.143247
3131.253824,0.000000,-9696.697840,536.266849
3131.254152,1850.514855,-9252.574275,1455.581446
3131.254480,3552.988522,-6883.915261,0.000000
3131.254807,2368.659014,-9548.656652,1378.971896
3131.255135,1850.514855,-9252.574275,2451.505594
3131.255463,1332.370696,-7254.018232,153.219100
3131.255791,-1036.288319,-10362.883188,766.095498
3131.256118,-1036.288319,-12879.583391,766.095498
3131.256446,518.144159,-10436.903782,-3753.867940
3131.256774,-1480.411884,-11695.253884,-3830.477490
3131.257102,-1480.411884,-12509.480420,-2221.676944
3131.257429,222.061783,-8512.368333,-2145.067394
3131.257757,0.000000,-8808.450710,-306.438199
3131.258085,-222.061783,-10288.862594,1685.410096
3131.258413,2442.679609,-8660.409521,0.000000
3131.258740,3701.029710,-8956.491898,-766.095498
3131.259068,3034.844362,-11029.068536,536.266849
3131.259396,1480.411884,-9252.574275,2068.457845
3131.259724,-148.041188,-8290.306550,1455.581446
3131.260051,-962.267725,-10881.027347,766.095498
3131.260379,518.144159,-10658.965565,-2451.505594
3131.260707,814.226536,-9474.636058,-3600.648841
3131.261035,-740.205942,-12139.377449,-459.657299
3131.261362,-518.144159,-10955.047942,536.266849
3131.261690,0.000000,-7402.059420,-1072.533697
3131.262018,-888.247130,-8882.471304,612.876398
3131.262346,-148.041188,-8734.430116,995.924147
3131.262673,2368.659014,-7031.956449,76.609550
3131.263001,3330.926739,-9918.759623,383.047749
3131.263329,2220.617826,-10140.821405,1685.410096
3131.263657,1702.473667,-8882.471304,459.657299
3131.263984,-666.185348,-10881.027347,1072.533697
3131.264312,-888.247130,-10658.965565,842.705048
3131.264640,518.144159,-8734.430116,-2681.334243
3131.264968,-814.226536,-11177.109724,-2451.505594
3131.265295,-2294.638420,-12287.418637,-229.828649
3131.265623,-1332.370696,-7698.141797,-1225.752797
3131.265951,-1110.308913,-7476.080014,-536.266849
3131.266279,-1480.411884,-9474.636058,1225.752797
3131.266606,296.082377,-7031.956449,-306.438199
3131.266934,148.041188,-8660.409521,-995.924147
3131.267262,-148.041188,-11917.315666,229.828649
3131.267590,2220.617826,-9104.533087,-1225.752797
3131.267917,1184.329507,-9326.594869,-306.438199
3131.268245,0.000000,-11991.336260,2528.115143
3131.268573,1332.370696,-12731.542202,1149.143247
3131.268901,1258.350101,-12213.398043,-1302.362347
3131.269228,-1036.288319,-11177.109724,-612.876398
3131.269556,-1702.473667,-8068.244768,-1532.190996
3131.269884,-2516.700203,-7476.080014,-1915.238745
3131.270212,-2368.659014,-9696.697840,766.095498
3131.270539,-592.164754,-8142.265362,306.438199
3131.270867,1480.411884,-8364.327145,-919.314598
3131.271195,1480.411884,-11251.130318,383.047749
3131.271523,1776.494261,-9770.718434,459.657299
3131.271850,1480.411884,-8512.368333,-842.705048
3131.272178,222.061783,-11325.150913,306.438199
3131.272506,1110.308913,-11029.068536,153.219100
3131.272834,2812.782580,-9178.553681,-995.924147
3131.273161,1480.411884,-12509.480420,689.485948
3131.273489,962.267725,-12583.501014,1532.190996
3131.273817,518.144159,-7846.182985,-229.828649
3131.274145,-1924.535449,-7920.203579,-1608.800546
3131.274472,-2072.576638,-10436.903782,-766.095498
3131.274800,-296.082377,-7105.977043,-1915.238745
3131.275128,444.123565,-7105.977043,-842.705048
3131.275456,1110.308913,-9918.759623,1532.190996
3131.275783,2960.823768,-7698.141797,919.314598
3131.276111,1702.473667,-7698.141797,1455.581446
3131.276439,1110.308913,-10955.047942,2374.896044
3131.276767,1332.370696,-9844.739029,-306.438199
3131.277094,1480.411884,-11103.089130,-2528.115143
3131.277422,444.123565,-13101.645173,-1072.533697
3131.277750,-370.102971,-10066.800811,-1225.752797
3131.278078,-592.164754,-9622.677246,-1915.238745
3131.278405,-1332.370696,-12287.418637,689.485948
3131.278733,592.164754,-9918.759623,-1532.190996
3131.279061,1480.411884,-7698.141797,-2068.457845
3131.279389,148.041188,-9548.656652,459.657299
3131.279716,666.185348,-7994.224174,689.485948
3131.280044,296.082377,-6217.729913,229.828649
3131.280372,-1110.308913,-9252.574275,1685.410096
3131.280700,888.247130,-9918.759623,153.219100
3131.281027,2516.700203,-10288.862594,-1455.581446
3131.281355,1776.494261,-12509.480420,0.000000
3131.281683,592.164754,-12139.377449,76.609550
3131.282011,-518.144159,-9918.759623,-995.924147
3131.282338,-2516.700203,-10807.006753,-766.095498
3131.282666,-2442.679609,-9992.780217,-766.095498
3131.282994,-1924.535449,-7920.203579,-1072.533697
3131.283322,-2146.597232,-9400.615463,-1072.533697
3131.283649,-1702.473667,-9030.512492,459.657299
3131.283977,74.020594,-6365.771101,-383.047749
3131.284305,1036.288319,-7994.224174,459.657299
3131.284633,1036.288319,-11251.130318,2451.505594
3131.284960,2812.782580,-10214.842000,1762.019645
3131.285288,1554.432478,-9548.656652,-689.485948
3131.285616,592.164754,-12139.377449,-1532.190996
3131.285944,0.000000,-10732.986159,-1608.800546
3131.286271,-1332.370696,-9104.533087,-1302.362347
3131.286599,-1628.453072,-10881.027347,76.609550
3131.286927,222.061783,-10214.842000,-919.314598
3131.287255,814.226536,-8882.471304,-1225.752797
3131.287582,-222.061783,-9548.656652,1072.533697
3131.287910,1110.308913,-7328.038826,1455.581446
3131.288238,592.164754,-6809.894666,76.609550
3131.288566,-962.267725,-9548.656652,1072.533697
3131.288893,0.000000,-9326.594869,153.219100
3131.289221,962.267725,-7624.121203,-1991.848295
3131.289549,814.226536,-10658.965565,-383.047749
3131.289877,1036.288319,-12213.398043,689.485948
3131.290204,2812.782580,-11621.233289,-306.438199
3131.290532,1480.411884,-13175.665768,-229.828649
3131.290860,888.247130,-12805.562797,0.000000
3131.291188,1480.411884,-8808.450710,-1302.362347
3131.291515,0.000000,-8364.327145,-383.047749
3131.291843,-2294.638420,-8142.265362,1149.143247
3131.292171,-2738.761985,-6069.688724,995.924147
3131.292499,-3330.926739,-7179.997637,306.438199
3131.292826,-1480.411884,-9030.512492,-153.219100
3131.293154,888.247130,-8216.285956,-1378.971896
3131.293482,1480.411884,-9992.780217,-612.876398
3131.293809,962.267725,-13323.706956,536.266849
3131.294137,2146.597232,-11547.212695,-1532.190996
3131.294464,2294.638420,-9326.594869,-2145.067394
3131.294792,74.020594,-10807.006753,0.000000
3131.295119,0.000000,-9992.780217,1072.533697
3131.295447,888.247130,-8438.347739,919.314598
3131.295774,296.082377,-10658.965565,1225.752797
3131.296102,0.000000,-10140.821405,0.000000
3131.296429,0.000000,-8364.327145,-1149.143247
3131.296757,-888.247130,-8586.388927,-842.705048
3131.297084,666.185348,-8438.347739,-1532.190996
3131.297412,740.205942,-8512.368333,-1762.019645
3131.297739,814.226536,-10955.047942,0.000000
3131.298067,1702.473667,-10066.800811,689.485948
3131.298394,2590.720797,-9030.512492,-689.485948
3131.298722,1184.329507,-12361.439231,842.705048
3131.299049,-74.020594,-12805.562797,1149.143247
3131.299377,0.000000,-9696.697840,0.000000
3131.299704,-888.247130,-9474.636058,-1455.581446
3131.300032,-1406.391290,-10584.944971,-766.095498
3131.300359,-1184.329507,-8216.285956,-689.485948
3131.300687,-1184.329507,-8438.347739,0.000000
3131.301014,-888.247130,-9770.718434,1072.533697
3131.301342,740.205942,-7846.182985,-229.828649
3131.301669,1332.370696,-8586.388927,0.000000
3131.301997,370.102971,-10436.903782,1685.410096
3131.302324,1850.514855,-8882.471304,689.485948
3131.302652,2220.617826,-8660.409521,-459.657299
3131.302979,222.061783,-10955.047942,995.924147
3131.303307,74.020594,-9474.636058,612.876398
3131.303634,444.123565,-9696.697840,-1608.800546
3131.303962,0.000000,-12583.501014,-766.095498
3131.304290,-370.102971,-10807.006753,-383.047749
3131.304617,-1184.329507,-8364.327145,-1378.971896
3131.304945,-1850.514855,-9844.739029,0.000000
3131.305272,-592.164754,-8882.471304,-153.219100
3131.305600,1184.329507,-7846.182985,-1455.581446
3131.305927,740.205942,-9474.636058,0.000000
3131.306255,1628.453072,-9548.656652,766.095498
3131.306582,2516.700203,-7476.080014,306.438199
3131.306910,1554.432478,-9844.739029,1532.190996
3131.307237,1258.350101,-11251.130318,1762.019645
3131.307565,2368.659014,-9696.697840,-689.485948
3131.307892,740.205942,-11695.253884,-306.438199
3131.308220,-1554.432478,-11843.295072,536.266849
3131.308547,-2368.659014,-9474.636058,-1608.800546
3131.308875,-4293.194464,-9696.697840,-2528.115143
3131.309202,-3034.844362,-11029.068536,-1991.848295
3131.309530,444.123565,-9252.574275,-2987.772442
3131.309857,1776.494261,-10881.027347,-1072.533697
3131.310185,2368.659014,-11621.233289,1685.410096
3131.310512,2664.741391,-6661.853478,1225.752797
3131.310840,2294.638420,-7698.141797,306.438199
3131.311167,1110.308913,-10732.986159,1532.190996
3131.311495,740.205942,-8290.306550,612.876398
3131.311822,814.226536,-8216.285956,-383.047749
3131.312150,0.000000,-11399.171507,766.095498
3131.312477,370.102971,-10140.821405,0.000000
3131.312805,-814.226536,-9030.512492,-383.047749
3131.313132,-888.247130,-11843.295072,766.095498
3131.313460,666.185348,-10362.883188,-153.219100
3131.313787,1628.453072,-9030.512492,-2681.334243
3131.314115,0.000000,-10510.924376,-689.485948
3131.314442,-740.205942,-7846.182985,383.047749
3131.314770,1036.288319,-4885.359217,-766.095498
3131.315097,1036.288319,-7846.182985,766.095498
3131.315425,814.226536,-10066.800811,2374.896044
3131.315752,3034.844362,-9696.697840,383.047749
3131.316080,1924.535449,-11843.295072,-383.047749
3131.316407,444.123565,-11695.253884,-919.314598
3131.316735,0.000000,-8142.265362,-2298.286494
3131.317062,-1998.556043,-8808.450710,-1302.362347
3131.317390,-3182.885551,-11695.253884,1608.800546
3131.317717,-444.123565,-9030.512492,-995.924147
3131.318045,1480.411884,-10362.883188,-2528.115143
3131.318372,0.000000,-10732.986159,0.000000
3131.318700,0.000000,-7105.977043,153.219100
3131.319027,592.164754,-8586.388927,-306.438199
3131.319355,1110.308913,-12287.418637,383.047749
3131.319682,1924.535449,-9622.677246,-612.876398
3131.320010,1702.473667,-8586.388927,-689.485948
3131.320337,-148.041188,-10955.047942,1762.019645
3131.320665,-666.185348,-9992.780217,1072.533697
3131.320992,-1184.329507,-10066.800811,-76.609550
3131.321320,-2738.761985,-11917.315666,383.047749
3131.321647,-962.267725,-10584.944971,-919.314598
3131.321975,740.205942,-8512.368333,-2681.334243
3131.322302,-592.164754,-9548.656652,-919.314598
3131.322630,-518.144159,-7772.162391,459.657299
3131.322957,148.041188,-6143.709319,-383.047749
3131.323285,0.000000,-8882.471304,459.657299
3131.323612,1628.453072,-9770.718434,1455.581446
3131.323940,3034.844362,-8660.409521,766.095498
3131.324267,1406.391290,-11251.130318,1762.019645
3131.324595,222.061783,-11769.274478,1685.410096
3131.324922,-962.267725,-8586.388927,-919.314598
3131.325250,-2220.617826,-9696.697840,-1072.533697
3131.325577,-1110.308913,-11843.295072,-612.876398
3131.325905,518.144159,-9474.636058,-2145.067394
3131.326232,296.082377,-9326.594869,-1991.848295
3131.326560,-370.102971,-9696.697840,766.095498
3131.326887,0.000000,-7031.956449,153.219100
3131.327215,-296.082377,-6957.935855,-383.047749
3131.327542,444.123565,-9770.718434,459.657299
3131.327870,2516.700203,-8586.388927,-306.438199
3131.328197,3627.009116,-9252.574275,-919.314598
3131.328525,1776.494261,-11843.295072,1378.971896
3131.328853,592.164754,-10362.883188,1685.410096
3131.329180,222.061783,-10066.800811,536.266849
3131.329508,-370.102971,-13693.809927,-612.876398
3131.329835,-296.082377,-11991.336260,-2374.896044
3131.330163,148.041188,-9992.780217,-3447.429741
3131.330490,-1406.391290,-10807.006753,-1302.362347
3131.330818,-1332.370696,-9252.574275,153.219100
3131.331145,518.144159,-6661.853478,-842.705048
3131.331473,666.185348,-9104.533087,536.266849
3131.331800,1924.535449,-8512.368333,1762.019645
3131.332128,3627.009116,-6661.853478,689.485948
3131.332455,2590.720797,-9474.636058,2068.457845
3131.332783,1332.370696,-10658.965565,3064.381992
3131.333110,592.164754,-8142.265362,1302.362347
3131.333438,-888.247130,-10584.944971,536.266849
3131.333765,-3034.844362,-11769.274478,-383.047749
3131.334093,-1406.391290,-10732.986159,-3217.601092
3131.334420,-962.267725,-10955.047942,-4443.353888
3131.334748,-1924.535449,-11029.068536,-1685.410096
3131.335075,-444.123565,-8068.244768,-1225.752797
3131.335403,888.247130,-8290.306550,0.000000
3131.335730,1702.473667,-9770.718434,2298.286494
3131.336058,2960.823768,-6661.853478,995.924147
3131.336385,2368.659014,-6587.832884,153.219100
3131.336713,518.144159,-9622.677246,2757.943793
3131.337040,518.144159,-9474.636058,1838.629195
3131.337368,0.000000,-9104.533087,-459.657299
3131.337695,-962.267725,-11917.315666,0.000000
3131.338023,444.123565,-12287.418637,-1149.143247
3131.338350,444.123565,-11399.171507,-3753.867940
3131.338678,-888.247130,-13027.624579,-2298.286494
3131.339005,-814.226536,-10436.903782,-1225.752797
3131.339333,444.123565,-7920.203579,-2604.724693
3131.339660,74.020594,-9474.636058,-459.657299
3131.339988,740.205942,-8216.285956,1072.533697
3131.340315,2442.679609,-5921.647536,1225.752797
3131.340643,2294.638420,-9252.574275,1532.190996
3131.340970,1406.391290,-10807.006753,2451.505594
3131.341298,1036.288319,-9178.553681,612.876398
3131.341625,444.123565,-11029.068536,153.219100
3131.341953,370.102971,-11769.274478,0.000000
3131.342280,1332.370696,-10066.800811,-2221.676944
3131.342608,-518.144159,-10881.027347,-1991.848295
3131.342935,-3108.864956,-11399.171507,-919.314598
3131.343263,-2072.576638,-7846.182985,-2221.676944
3131.343590,-222.061783,-7698.141797,-1608.800546
3131.343918,148.041188,-9252.574275,689.485948
3131.344245,1258.350101,-6883.915261,1378.971896
3131.344573,1998.556043,-7476.080014,612.876398
3131.344900,1702.473667,-9178.553681,1225.752797
3131.345228,1036.288319,-8142.265362,1302.362347
3131.345555,-296.082377,-8660.409521,536.266849
3131.345883,-2738.761985,-10955.047942,1685.410096
3131.346210,-592.164754,-10807.006753,0.000000
3131.346538,1110.308913,-11547.212695,-3370.820191
3131.346865,-962.267725,-14434.015869,-1608.800546
3131.347193,-1702.473667,-11547.212695,-306.438199
3131.347520,444.123565,-7550.100608,-2604.724693
3131.347848,148.041188,-9030.512492,-1532.190996
3131.348175,222.061783,-9400.615463,229.828649
3131.348503,1702.473667,-6291.750507,383.047749
3131.348830,1554.432478,-7994.224174,1072.533697
3131.349158,1036.288319,-9622.677246,2145.067394
3131.349485,740.205942,-9474.636058,459.657299
3131.349813,-666.185348,-11325.150913,229.828649
3131.350140,-666.185348,-12361.439231,0.000000
3131.350468,296.082377,-11991.336260,-3140.991542
3131.350795,-296.082377,-13545.768739,-2451.505594
3131.351123,-1184.329507,-12065.356855,-153.219100
3131.351450,74.020594,-6883.915261,-1225.752797
3131.351778,518.144159,-7698.141797,-919.314598
3131.352105,-444.123565,-9548.656652,1685.410096
3131.352433,1110.308913,-6735.874072,1378.971896
3131.352760,1776.494261,-5477.523971,76.609550
3131.353088,814.226536,-8438.347739,1302.362347
3131.353416,444.123565,-8882.471304,2145.067394
3131.353743,222.061783,-8882.471304,766.095498
3131.354071,444.123565,-11103.089130,229.828649
3131.354398,740.205942,-11843.295072,0.000000
3131.354726,1702.473667,-12805.562797,-2145.067394
3131.355053,-296.082377,-13619.789333,0.000000
3131.355381,-518.144159,-9104.533087,-306.438199
3131.355708,-814.226536,-6809.894666,-2298.286494
3131.356036,-1998.556043,-9474.636058,-919.314598
3131.356363,-1406.391290,-8068.244768,536.266849
3131.356691,1702.473667,-6069.688724,-766.095498
3131.357018,1998.556043,-8142.265362,229.828649
3131.357346,1480.411884,-9178.553681,1991.848295
3131.357673,1924.535449,-8808.450710,1149.143247
3131.358001,2072.576638,-11251.130318,842.705048
3131.358328,2072.576638,-11473.192101,76.609550
3131.358656,888.247130,-9918.759623,-842.705048
3131.358983,-1554.432478,-12657.521608,0.000000
3131.359311,-2886.803174,-12731.542202,0.000000
3131.359638,-1924.535449,-9770.718434,-3140.991542
3131.359966,-1924.535449,-9918.759623,-3830.477490
3131.360293,-2220.617826,-11029.068536,-1762.019645
3131.360621,518.144159,-8290.306550,-842.705048
3131.360948,2738.761985,-8068.244768,-153.219100
3131.361276,2294.638420,-9844.739029,2451.505594
3131.361603,1850.514855,-7550.100608,2374.896044
3131.361931,2072.576638,-8290.306550,1072.533697
3131.362258,518.144159,-10658.965565,1762.019645
3131.362586,370.102971,-10066.800811,536.266849
3131.362913,296.082377,-10510.924376,-1149.143247
3131.363241,-666.185348,-12805.562797,-536.266849
3131.363568,0.000000,-9474.636058,-459.657299
3131.363896,0.000000,-8438.347739,-2068.457845
3131.364223,-1480.411884,-10510.924376,0.000000
3131.364551,-370.102971,-9104.533087,0.000000
3131.364878,1036.288319,-7476.080014,-2451.505594
3131.365206,222.061783,-8882.471304,0.000000
3131.365533,-148.041188,-7105.977043,2298.286494
3131.365861,1628.453072,-6291.750507,2298.286494
3131.366188,2072.576638,-9918.759623,2604.724693
3131.366516,1776.494261,-12139.377449,2451.505594
3131.366843,2368.659014,-12139.377449,-689.485948
3131.367171,962.267725,-12287.418637,-1915.238745
3131.367498,-740.205942,-10214.842000,-689.485948
3131.367826,-1184.329507,-6957.935855,-1838.629195
3131.368153,-2516.700203,-9104.533087,-842.705048
3131.368481,-2664.741391,-10732.986159,-306.438199
3131.368808,370.102971,-7920.203579,-1838.629195
3131.369136,1924.535449,-9696.697840,-1532.190996
3131.369463,1184.329507,-11177.109724,1532.190996
3131.369791,1332.370696,-8364.327145,1225.752797
3131.370118,2072.576638,-8660.409521,612.876398
3131.370446,1924.535449,-11547.212695,0.000000
3131.370773,1480.411884,-10807.006753,-536.266849
3131.371101,444.123565,-11177.109724,0.000000
3131.371428,-1776.494261,-11399.171507,689.485948
3131.371756,-888.247130,-9992.780217,-766.095498
3131.372083,-1332.370696,-9992.780217,-2451.505594
3131.372411,-2220.617826,-12213.398043,-612.876398
3131.372738,-1036.288319,-9178.553681,-689.485948
3131.373066,1554.432478,-6957.935855,-2068.457845
3131.373393,962.267725,-8734.430116,0.000000
3131.373721,518.144159,-7624.121203,2298.286494
3131.374048,1406.391290,-6439.791695,1455.581446
3131.374376,1924.535449,-9178.553681,1915.238745
3131.374703,1554.432478,-10658.965565,1378.971896
3131.375031,1776.494261,-9844.739029,-766.095498
3131.375358,-1258.350101,-11843.295072,-842.705048
3131.375686,-1998.556043,-11769.274478,-766.095498
3131.376013,-1554.432478,-8882.471304,-3140.991542
3131.376341,-1258.350101,-10510.924376,-2604.724693
3131.376668,-1110.308913,-10658.965565,0.000000
3131.376996,1036.288319,-8142.265362,-229.828649
3131.377323,962.267725,-8142.265362,536.266849
3131.377651,-296.082377,-7920.203579,1991.848295
3131.377979,444.123565,-5255.462188,0.000000
3131.378306,814.226536,-7402.059420,76.609550
3131.378634,-222.061783,-10732.986159,1762.019645
3131.378961,1554.432478,-10288.862594,0.000000
3131.379289,2368.659014,-11991.336260,-1838.629195
3131.379616,1036.288319,-14211.954086,-842.705048
3131.379944,74.020594,-10658.965565,-1072.533697
3131.380271,74.020594,-10732.986159,-2604.724693
3131.380599,-666.185348,-12509.480420,-995.924147
3131.380926,370.102971,-10066.800811,-995.924147
3131.381254,1184.329507,-7476.080014,-1455.581446
3131.381581,-148.041188,-8660.409521,1378.971896
3131.381909,-296.082377,-6957.935855,2374.896044
3131.382236,962.267725,-5921.647536,306.438199
3131.382564,370.102971,-9474.636058,1149.143247
3131.382891,222.061783,-10732.986159,1072.533697
3131.383219,2516.700203,-9622.677246,-1149.143247
3131.383546,2072.576638,-12731.542202,0.000000
3131.383874,1332.370696,-12953.603985,1149.143247
3131.384201,1332.370696,-9252.574275,-919.314598
3131.384529,-814.226536,-10807.006753,0.000000
3131.384856,-2368.659014,-11177.109724,1149.143247
3131.385184,-814.226536,-7476.080014,-2374.896044
3131.385511,-814.226536,-7698.141797,-2374.896044
3131.385839,-1628.453072,-8586.388927,536.266849
3131.386166,222.061783,-6735.874072,612.876398
3131.386494,1110.308913,-7920.203579,1225.752797
3131.386821,296.082377,-9918.759623,1838.629195
3131.387149,1850.514855,-8808.450710,-689.485948
3131.387476,2516.700203,-10510.924376,-1991.848295
3131.387804,-296.082377,-12879.583391,229.828649
3131.388131,0.000000,-10362.883188,0.000000
3131.388459,814.226536,-9622.677246,-1838.629195
3131.388786,-888.247130,-11843.295072,612.876398
3131.389114,-592.164754,-9474.636058,919.314598
3131.389441,1702.473667,-8364.327145,-2221.676944
3131.389769,-148.041188,-10732.986159,-536.266849
3131.390096,-814.226536,-8586.388927,-153.219100
3131.390424,148.041188,-7031.956449,-2298.286494
3131.390751,-222.061783,-9844.739029,-383.047749
3131.391079,666.185348,-9696.697840,842.705048
3131.391406,1998.556043,-9326.594869,0.000000
3131.391734,1184.329507,-11843.295072,229.828649
3131.392061,444.123565,-11843.295072,766.095498
3131.392389,1998.556043,-10140.821405,-1685.410096
3131.392716,814.226536,-11769.274478,-536.266849
3131.393044,0.000000,-10362.883188,1608.800546
3131.393371,1184.329507,-6439.791695,0.000000
3131.393699,-370.102971,-7105.977043,-766.095498
3131.394026,-2516.700203,-8734.430116,919.314598
3131.394354,-2072.576638,-7254.018232,0.000000
3131.394681,0.000000,-8586.388927,-995.924147
3131.395009,592.164754,-11177.109724,842.705048
3131.395336,2146.597232,-9548.656652,0.000000
3131.395664,1924.535449,-10288.862594,-153.219100
3131.395992,1406.391290,-13767.830521,1225.752797
3131.396319,1554.432478,-9400.615463,-383.047749
3131.396647,444.123565,-8290.306550,-1378.971896
3131.396974,-2516.700203,-10066.800811,1072.533697
3131.397302,-1998.556043,-8438.347739,536.266849
3131.397629,296.082377,-8660.409521,-1608.800546
3131.397957,-1036.288319,-11695.253884,153.219100
3131.398285,-1480.411884,-10140.821405,459.657299
3131.398612,1258.350101,-6439.791695,-1762.019645
3131.398940,1628.453072,-9474.636058,-766.095498
3131.399267,1110.308913,-11473.192101,689.485948
3131.399595,2220.617826,-10510.924376,-536.266849
3131.399922,1628.453072,-10066.800811,0.000000
3131.400250,148.041188,-9474.636058,842.705048
3131.400578,1776.494261,-10066.800811,766.095498
3131.400905,0.000000,-12287.418637,-306.438199
3131.401233,-962.267725,-12065.356855,536.266849
3131.401560,592.164754,-9770.718434,-2834.553343
3131.401888,888.247130,-10955.047942,-3140.991542
3131.402216,-1480.411884,-10140.821405,229.828649
3131.402543,0.000000,-6735.874072,-383.047749
3131.402871,592.164754,-7254.018232,766.095498
3131.403198,666.185348,-9844.739029,1915.238745
3131.403526,2368.659014,-8808.450710,306.438199
3131.403853,1850.514855,-9252.574275,153.219100
3131.404181,-444.123565,-9252.574275,2221.676944
3131.404509,0.000000,-7550.100608,0.000000
3131.404836,222.061783,-10214.842000,-1838.629195
3131.405164,-1406.391290,-11621.233289,76.609550
3131.405491,518.144159,-8512.368333,-383.047749
3131.405819,1776.494261,-9622.677246,-1302.362347
3131.406146,-370.102971,-11843.295072,1302.362347
3131.406474,-1110.308913,-9474.636058,1455.581446
3131.406802,148.041188,-6513.812290,-1149.143247
3131.407129,-222.061783,-9104.533087,-229.828649
3131.407457,1036.288319,-9622.677246,229.828649
3131.407784,3182.885551,-9400.615463,-612.876398
3131.408112,444.123565,-10510.924376,1838.629195
3131.408439,-444.123565,-8808.450710,1762.019645
3131.408767,592.164754,-7846.182985,-2068.457845
3131.409095,-666.185348,-11399.171507,-1762.019645
3131.409422,-518.144159,-11695.253884,-383.047749
3131.409750,1184.329507,-9770.718434,-1838.629195
3131.410077,1776.494261,-12361.439231,-919.314598
3131.410405,-814.226536,-11103.089130,1915.238745
3131.410732,-222.061783,-7846.182985,536.266849
3131.411060,-592.164754,-8808.450710,-766.095498
3131.411388,-1332.370696,-11621.233289,153.219100
3131.411715,1332.370696,-9178.553681,-2451.505594
3131.412043,2072.576638,-9770.718434,-2528.115143
3131.412370,-962.267725,-11325.150913,1532.190996
3131.412698,0.000000,-8660.409521,153.219100
3131.413026,222.061783,-9326.594869,-1608.800546
3131.413353,-814.226536,-11177.109724,0.000000
3131.413681,592.164754,-9030.512492,-1072.533697
3131.414008,2072.576638,-9252.574275,-1302.362347
3131.414336,-518.144159,-10214.842000,2757.943793
3131.414663,-222.061783,-8512.368333,2145.067394
3131.414991,518.144159,-7920.203579,766.095498
3131.415319,-296.082377,-10066.800811,1455.581446
3131.415646,1258.350101,-10510.924376,0.000000
3131.415974,2220.617826,-9474.636058,-2911.162892
3131.416301,222.061783,-10510.924376,-1685.410096
3131.416629,-370.102971,-8364.327145,-689.485948
3131.416956,444.123565,-7476.080014,-1455.581446
3131.417284,0.000000,-10584.944971,1225.752797
3131.417612,74.020594,-9548.656652,2221.676944
3131.417939,2294.638420,-8512.368333,-995.924147
3131.418267,74.020594,-11843.295072,-306.438199
3131.418594,-1258.350101,-10066.800811,1455.581446
3131.418922,296.082377,-6809.894666,-536.266849
3131.419249,740.205942,-9474.636058,-229.828649
3131.419577,592.164754,-11251.130318,766.095498
3131.419905,2886.803174,-8290.306550,-1915.238745
3131.420232,1332.370696,-10066.800811,-2145.067394
3131.420560,-1110.308913,-12139.377449,0.000000
3131.420887,666.185348,-9548.656652,-1762.019645
3131.421215,1332.370696,-9622.677246,-1378.971896
3131.421542,296.082377,-11473.192101,919.314598
3131.421870,1258.350101,-10214.842000,229.828649
3131.422198,740.205942,-9992.780217,-766.095498
3131.422525,-1628.453072,-10658.965565,919.314598
3131.422853,-1480.411884,-7476.080014,459.657299
3131.423180,-1628.453072,-7698.141797,-689.485948
3131.423508,-1850.514855,-10214.842000,842.705048
3131.423836,0.000000,-9252.574275,-919.314598
3131.424163,2146.597232,-9326.594869,-2757.943793
3131.424491,0.000000,-12805.562797,-153.219100
3131.424818,888.247130,-9844.739029,0.000000
3131.425146,2664.741391,-7402.059420,-1838.629195
3131.425473,1184.329507,-11695.253884,229.828649
3131.425801,518.144159,-9992.780217,1532.190996
3131.426129,2072.576638,-6143.709319,306.438199
3131.426456,0.000000,-8734.430116,766.095498
3131.426784,-1480.411884,-10732.986159,2757.943793
3131.427111,-1258.350101,-7846.182985,995.924147
3131.427439,-2146.597232,-9474.636058,-689.485948
3131.427766,-1332.370696,-11251.130318,-1532.190996
3131.428094,888.247130,-9400.615463,-4136.915689
3131.428422,-666.185348,-8956.491898,-1915.238745
3131.428749,-1110.308913,-9918.759623,1225.752797
3131.429077,1702.473667,-7476.080014,-536.266849
3131.429404,2368.659014,-10066.800811,-689.485948
3131.429732,370.102971,-11177.109724,2221.676944
3131.430059,1184.329507,-7994.224174,842.705048
3131.430387,1110.308913,-8882.471304,-229.828649
3131.430715,-1184.329507,-10881.027347,1991.848295
3131.431042,-666.185348,-8956.491898,0.000000
3131.431370,-296.082377,-9252.574275,-1532.190996
3131.431697,-666.185348,-11917.315666,-383.047749
3131.432025,1184.329507,-11103.089130,-1225.752797
3131.432353,1924.535449,-9844.739029,-2681.334243
3131.432680,-888.247130,-11325.150913,153.219100
3131.433008,0.000000,-8808.450710,-229.828649
3131.433335,1554.432478,-7698.141797,-2987.772442
3131.433663,592.164754,-10807.006753,-383.047749
3131.433990,1036.288319,-8808.450710,1225.752797
3131.434318,2368.659014,-7698.141797,306.438199
3131.434646,0.000000,-10658.965565,1991.848295
3131.434973,-1332.370696,-9918.759623,2681.334243
3131.435301,518.144159,-9030.512492,-1072.533697
3131.435628,962.267725,-11621.233289,-1608.800546
3131.435956,592.164754,-11325.150913,0.000000
3131.436283,2072.576638,-8438.347739,-1608.800546
3131.436611,1184.329507,-11177.109724,689.485948
3131.436939,0.000000,-10807.006753,2528.115143
3131.437266,222.061783,-6587.832884,-689.485948
3131.437594,-1702.473667,-7846.182985,-2681.334243
3131.437921,-1776.494261,-9030.512492,-689.485948
3131.438249,1184.329507,-7254.018232,-1532.190996
3131.438576,518.144159,-9918.759623,536.266849
3131.438904,-1480.411884,-11029.068536,3677.258390
3131.439232,1036.288319,-8882.471304,1225.752797
3131.439559,1776.494261,-9548.656652,-1915.238745
3131.439887,0.000000,-12805.562797,-383.047749
3131.440214,1036.288319,-9992.780217,-1378.971896
3131.440542,740.205942,-9104.533087,-1762.019645
3131.440869,-962.267725,-11621.233289,229.828649
3131.441197,296.082377,-8734.430116,-842.705048
3131.441525,1554.432478,-8068.244768,-995.924147
3131.441852,370.102971,-10955.047942,1149.143247
3131.442180,962.267725,-9252.574275,76.609550
3131.442507,1776.494261,-7476.080014,-2681.334243
3131.442835,-1184.329507,-10436.903782,0.000000
3131.443163,-1776.494261,-9918.759623,1762.019645
3131.443490,148.041188,-8438.347739,76.609550
3131.443818,148.041188,-11325.150913,1149.143247
3131.444145,444.123565,-11991.336260,1149.143247
3131.444473,1332.370696,-10436.903782,-2145.067394
3131.444800,-148.041188,-11473.192101,-1685.410096
3131.445128,-666.185348,-10658.965565,-766.095498
3131.445456,1628.453072,-8068.244768,-2374.896044
3131.445783,1110.308913,-9030.512492,-612.876398
3131.446111,814.226536,-7179.997637,2221.676944
3131.446438,2516.700203,-5773.606348,689.485948
3131.446766,592.164754,-10584.944971,306.438199
3131.447093,-2220.617826,-11399.171507,3217.601092
3131.447421,-296.082377,-7105.977043,383.047749
3131.447749,666.185348,-9474.636058,-766.095498
3131.448076,-370.102971,-12657.521608,995.924147
3131.448404,592.164754,-10066.800811,-459.657299
3131.448731,1184.329507,-9770.718434,-2068.457845
3131.449059,-962.267725,-11695.253884,0.000000
3131.449386,-814.226536,-8956.491898,-1608.800546
3131.449714,-592.164754,-6661.853478,-2757.943793
3131.450042,-1702.473667,-8512.368333,-153.219100
3131.450369,962.267725,-8216.285956,153.219100
3131.450697,2886.803174,-9326.594869,-766.095498
3131.451024,888.247130,-11991.336260,2451.505594
3131.451352,518.144159,-9104.533087,1991.848295
3131.451679,1554.432478,-7698.141797,-1378.971896
3131.452007,-296.082377,-11991.336260,306.438199
3131.452335,-518.144159,-12213.398043,536.266849
3131.452662,1110.308913,-9622.677246,-2451.505594
3131.452990,-148.041188,-12213.398043,-1149.143247
3131.453317,-1702.473667,-11399.171507,-229.828649
3131.453645,0.000000,-9030.512492,-3064.381992
3131.453973,-814.226536,-9548.656652,-2604.724693
3131.454300,-740.205942,-10510.924376,-229.828649
3131.454628,1702.473667,-7698.141797,-1608.800546
3131.454955,1332.370696,-9030.512492,229.828649
3131.455283,74.020594,-8956.491898,3907.087040
3131.455610,1110.308913,-6291.750507,1838.629195
3131.455938,1036.288319,-9844.739029,1225.752797
3131.456266,-888.247130,-11991.336260,2528.115143
3131.456593,1184.329507,-9992.780217,-1072.533697
3131.456921,1184.329507,-11103.089130,-2528.115143
3131.457248,-1480.411884,-12361.439231,76.609550
3131.457576,-296.082377,-8216.285956,-1149.143247
3131.457903,740.205942,-7920.203579,-2451.505594
3131.458231,-444.123565,-11325.150913,0.000000
3131.458559,1554.432478,-8216.285956,0.000000
3131.458886,2516.700203,-7105.977043,0.000000
3131.459214,0.000000,-9030.512492,2987.772442
3131.459541,370.102971,-7402.059420,2451.505594
3131.459869,1110.308913,-7402.059420,-229.828649
3131.460196,-444.123565,-10955.047942,1072.533697
3131.460524,370.102971,-10881.027347,-766.095498
3131.460852,1924.535449,-9918.759623,-2987.772442
3131.461179,-444.123565,-12805.562797,-766.095498
3131.461507,-222.061783,-11917.315666,0.000000
3131.461834,1850.514855,-8808.450710,-3447.429741
3131.462162,518.144159,-10955.047942,-1072.533697
3131.462489,74.020594,-10584.944971,1149.143247
3131.462817,814.226536,-7179.997637,-689.485948
3131.463145,-1332.370696,-9474.636058,536.266849
3131.463472,-2442.679609,-9400.615463,1149.143247
3131.463800,0.000000,-6513.812290,-1838.629195
3131.464127,-444.123565,-10362.883188,-766.095498
3131.464455,-1258.350101,-13471.748144,1991.848295
3131.464783,2590.720797,-10214.842000,-1685.410096
3131.465110,1850.514855,-10881.027347,-2604.724693
3131.465438,-1480.411884,-12509.480420,-383.047749
3131.465765,296.082377,-9178.553681,-1685.410096
3131.466093,1628.453072,-9252.574275,-1762.019645
3131.466420,0.000000,-10807.006753,1455.581446
3131.466748,2220.617826,-8956.491898,842.705048
3131.467076,3404.947333,-8142.265362,-842.705048
3131.467403,888.247130,-9844.739029,2451.505594
3131.467731,518.144159,-7402.059420,2145.067394
3131.468058,370.102971,-6661.853478,-612.876398
3131.468386,-1332.370696,-9918.759623,1225.752797
3131.468713,370.102971,-9326.594869,-536.266849
3131.469041,1702.473667,-9326.594869,-3140.991542
3131.469369,-666.185348,-12287.418637,1302.362347
3131.469696,0.000000,-10436.903782,1072.533697
3131.470024,1406.391290,-9030.512492,-2145.067394
3131.470351,-296.082377,-12065.356855,-689.485948
3131.470679,444.123565,-10066.800811,-536.266849
3131.471006,2960.823768,-7550.100608,-2145.067394
3131.471334,1776.494261,-9622.677246,383.047749
3131.471662,296.082377,-8734.430116,3294.210641
3131.471989,888.247130,-4959.379811,1225.752797
3131.472317,-1702.473667,-8586.388927,306.438199
3131.472644,-2516.700203,-12731.542202,229.828649
3131.472972,962.267725,-10436.903782,-3064.381992
3131.473299,74.020594,-11029.068536,-2298.286494
3131.473627,-1924.535449,-12361.439231,919.314598
3131.473955,0.000000,-9104.533087,-1149.143247
3131.474282,592.164754,-9474.636058,-1532.190996
3131.474610,74.020594,-11991.336260,-689.485948
3131.474937,666.185348,-9030.512492,-1685.410096
3131.475265,-148.041188,-8586.388927,-2068.457845
3131.475593,-2590.720797,-9474.636058,842.705048
3131.475920,0.000000,-7624.121203,766.095498
3131.476248,1184.329507,-8438.347739,-383.047749
3131.476575,-222.061783,-12139.377449,2528.115143
3131.476903,1480.411884,-9622.677246,919.314598
3131.477230,3034.844362,-10066.800811,-2451.505594
3131.477558,-296.082377,-12879.583391,459.657299
3131.477886,-1184.329507,-9030.512492,766.095498
3131.478213,-666.185348,-7105.977043,-1302.362347
3131.478541,-962.267725,-11251.130318,459.657299
3131.478868,0.000000,-9474.636058,612.876398
3131.479196,1776.494261,-8734.430116,-2298.286494
3131.479523,-1406.391290,-10955.047942,0.000000
3131.479851,-1924.535449,-8956.491898,612.876398
3131.480179,518.144159,-5699.585753,-2221.676944
3131.480506,74.020594,-9252.574275,-229.828649
3131.480834,0.000000,-10140.821405,1915.238745
3131.481161,3182.885551,-7698.141797,0.000000
3131.481489,1776.494261,-10436.903782,229.828649
3131.481816,-222.061783,-12805.562797,2374.896044
3131.482144,1480.411884,-8734.430116,-1149.143247
3131.482472,0.000000,-9548.656652,-995.924147
3131.482799,-1554.432478,-11991.336260,1608.800546
3131.483127,2072.576638,-8882.471304,-2451.505594
3131.483454,1702.473667,-9030.512492,-2374.896044
3131.483782,-888.247130,-11177.109724,1608.800546
3131.484110,222.061783,-7920.203579,536.266849
3131.484437,444.123565,-7994.224174,-1072.533697
3131.484765,-962.267725,-11029.068536,766.095498
3131.485092,1702.473667,-9104.533087,-766.095498
3131.485420,2294.638420,-9104.533087,-1378.971896
3131.485747,-518.144159,-11695.253884,1685.410096
3131.486075,592.164754,-9474.636058,766.095498
3131.486403,1924.535449,-8734.430116,-1915.238745
3131.486730,-148.041188,-12213.398043,536.266849
3131.487058,518.144159,-10658.965565,0.000000
3131.487385,2368.659014,-8438.347739,-2604.724693
3131.487713,888.247130,-11325.150913,0.000000
3131.488040,0.000000,-9252.574275,2221.676944
3131.488368,1554.432478,-6143.709319,383.047749
3131.488696,-1554.432478,-9400.615463,1608.800546
3131.489023,-1702.473667,-10436.903782,536.266849
3131.489351,1406.391290,-7994.224174,-3753.867940
3131.489678,444.123565,-10881.027347,-2451.505594
3131.490006,-1554.432478,-10807.006753,1072.533697
3131.490333,814.226536,-8216.285956,76.609550
3131.490661,592.164754,-9844.739029,-689.485948
3131.490989,0.000000,-11547.212695,0.000000
3131.491316,1924.535449,-9104.533087,-1915.238745
3131.491644,1036.288319,-9992.780217,-842.705048
3131.491971,-666.185348,-10658.965565,2451.505594
3131.492299,1110.308913,-7254.018232,383.047749
3131.492626,740.205942,-8512.368333,-153.219100
3131.492954,-296.082377,-11177.109724,2528.115143
3131.493282,1850.514855,-8216.285956,-229.828649
3131.493609,2368.659014,-9770.718434,-2451.505594
3131.493937,-1850.514855,-12287.418637,766.095498
3131.494264,-962.267725,-8660.409521,-306.438199
3131.494592,-370.102971,-6587.832884,-2221.676944
3131.494920,-2072.576638,-11251.130318,689.485948
3131.495247,-296.082377,-9918.759623,995.924147
3131.495575,1998.556043,-9104.533087,-842.705048
3131.495902,-444.123565,-12731.542202,995.924147
3131.496230,0.000000,-11103.089130,0.000000
3131.496557,2072.576638,-7772.162391,-1455.581446
3131.496885,740.205942,-10584.944971,689.485948
3131.497213,814.226536,-9252.574275,2145.067394
3131.497540,3034.844362,-7105.977043,-1915.238745
3131.497868,-296.082377,-9178.553681,0.000000
3131.498196,-2960.823768,-10066.800811,1455.581446
3131.498524,-1480.411884,-8216.285956,-1915.238745
3131.498851,-962.267725,-10436.903782,-1532.190996
3131.499179,-592.164754,-11029.068536,459.657299
3131.499507,2072.576638,-9474.636058,-995.924147
3131.499834,1184.329507,-11547.212695,153.219100
3131.500162,296.082377,-12139.377449,2221.676944
3131.500490,1702.473667,-7846.182985,-536.266849
3131.500817,-666.185348,-7550.100608,-1225.752797
3131.501145,-3108.864956,-10214.842000,766.095498
3131.501473,444.123565,-8290.306550,-1532.190996
3131.501801,2368.659014,-10214.842000,-2374.896044
3131.502128,-370.102971,-11843.295072,1149.143247
3131.502456,1036.288319,-9178.553681,383.047749
3131.502784,1702.473667,-8364.327145,-1838.629195
3131.503111,-148.041188,-11325.150913,306.438199
3131.503439,962.267725,-9696.697840,0.000000
3131.503767,2442.679609,-9326.594869,-1225.752797
3131.504094,-444.123565,-10732.986159,1302.362347
3131.504422,-962.267725,-9030.512492,2604.724693
3131.504750,888.247130,-7698.141797,-383.047749
3131.505077,-1850.514855,-11399.171507,459.657299
3131.505405,-370.102971,-11547.212695,-612.876398
3131.505733,1628.453072,-7772.162391,-4290.134789
3131.506061,962.267725,-11399.171507,-2451.505594
3131.506388,0.000000,-9178.553681,1302.362347
3131.506716,2146.597232,-7254.018232,-306.438199
3131.507044,518.144159,-10066.800811,1915.238745
3131.507371,0.000000,-10214.842000,2604.724693
3131.507699,1924.535449,-7476.080014,-919.314598
3131.508027,1036.288319,-10510.924376,-153.219100
3131.508354,-592.164754,-11251.130318,1685.410096
3131.508682,1628.453072,-8068.244768,0.000000
3131.509010,-370.102971,-9252.574275,306.438199
3131.509338,-1702.473667,-11547.212695,1149.143247
3131.509665,1702.473667,-8364.327145,-2528.115143
3131.509993,1702.473667,-9844.739029,-3217.601092
3131.510321,-1406.391290,-12509.480420,1685.410096
3131.510648,296.082377,-8290.306550,0.000000
3131.510976,888.247130,-7402.059420,-1149.143247
3131.511304,-444.123565,-11325.150913,1378.971896
3131.511631,888.247130,-8586.388927,459.657299
3131.511959,2072.576638,-8142.265362,-919.314598
3131.512287,0.000000,-11621.233289,2145.067394
3131.512614,888.247130,-9770.718434,612.876398
3131.512942,1110.308913,-8068.244768,-1225.752797
3131.513270,-1332.370696,-11399.171507,1608.800546
3131.513598,370.102971,-10658.965565,0.000000
3131.513925,2516.700203,-9474.636058,-3524.039291
3131.514253,-888.247130,-11991.336260,-612.876398
3131.514581,-1110.308913,-9918.759623,689.485948
3131.514908,1110.308913,-6883.915261,-1378.971896
3131.515236,518.144159,-10436.903782,-383.047749
3131.515564,-962.267725,-9918.759623,2374.896044
3131.515891,74.020594,-7105.977043,-919.314598
3131.516219,-2442.679609,-9844.739029,-306.438199
3131.516547,-2516.700203,-10955.047942,-536.266849
3131.516875,74.020594,-8734.430116,-2987.772442
3131.517202,296.082377,-11621.233289,-1072.533697
3131.517530,0.000000,-13175.665768,1608.800546
3131.517858,3478.967927,-10658.965565,-995.924147
3131.518185,2220.617826,-11029.068536,-1072.533697
3131.518513,-592.164754,-11621.233289,766.095498
3131.518841,666.185348,-6661.853478,-1378.971896
3131.519168,296.082377,-6291.750507,-1455.581446
3131.519496,-1924.535449,-9252.574275,2374.896044
3131.519824,-592.164754,-7179.997637,2068.457845
3131.520152,296.082377,-8364.327145,459.657299
3131.520479,-1480.411884,-11621.233289,1838.629195
3131.520807,0.000000,-9326.594869,-153.219100
3131.521135,296.082377,-8734.430116,-2451.505594
3131.521462,-222.061783,-12583.501014,-229.828649
3131.521790,1924.535449,-10955.047942,-1455.581446
3131.522118,3330.926739,-9104.533087,-2374.896044
3131.522445,962.267725,-11325.150913,1991.848295
3131.522773,814.226536,-9104.533087,1838.629195
3131.523101,2590.720797,-6957.935855,-1685.410096
3131.523428,0.000000,-10510.924376,-459.657299
3131.523756,-666.185348,-10140.821405,612.876398
3131.524084,1184.329507,-7031.956449,-612.876398
3131.524412,296.082377,-8808.450710,842.705048
3131.524739,-518.144159,-8438.347739,2911.162892
3131.525067,962.267725,-6069.688724,-459.657299
3131.525395,-592.164754,-9918.759623,-995.924147
3131.525722,-962.267725,-13915.871710,0.000000
3131.526050,2368.659014,-10658.965565,-2987.772442
3131.526378,1924.535449,-11547.212695,-1991.848295
3131.526705,0.000000,-11547.212695,995.924147
3131.527033,2442.679609,-8068.244768,-1225.752797
3131.527361,2368.659014,-10214.842000,-1915.238745
3131.527689,-666.185348,-11695.253884,536.266849
3131.528016,222.061783,-7550.100608,-842.705048
3131.528344,-370.102971,-7402.059420,-1378.971896
3131.528672,-2960.823768,-10732.986159,2298.286494
3131.528999,-370.102971,-9474.636058,1378.971896
3131.529327,148.041188,-8956.491898,-306.438199
3131.529655,-962.267725,-12953.603985,995.924147
3131.529982,1036.288319,-10732.986159,-383.047749
3131.530310,2368.659014,-9030.512492,-3294.210641
3131.530638,-1702.473667,-11621.233289,0.000000
3131.530965,-1480.411884,-9400.615463,919.314598
3131.531293,1110.308913,-6217.729913,-2451.505594
3131.531621,-666.185348,-10658.965565,-612.876398
3131.531949,-518.144159,-10288.862594,1302.362347
3131.532276,814.226536,-7624.121203,-459.657299
3131.532604,-740.205942,-9992.780217,766.095498
3131.532932,-1258.350101,-9992.780217,1455.581446
3131.533259,-370.102971,-7402.059420,-919.314598
3131.533587,-888.247130,-9622.677246,1149.143247
3131.533915,-370.102971,-10362.883188,1915.238745
3131.534242,1480.411884,-8586.388927,-1838.629195
3131.534570,0.000000,-10436.903782,-612.876398
3131.534898,-1998.556043,-10658.965565,1838.629195
3131.535226,148.041188,-6735.874072,-1762.019645
3131.535553,888.247130,-9104.533087,-3064.381992
3131.535881,-296.082377,-11399.171507,-153.219100
3131.536209,1332.370696,-7698.141797,-919.314598
3131.536536,1924.535449,-9104.533087,-689.485948
3131.536864,0.000000,-11843.295072,2987.772442
3131.537192,1258.350101,-8734.430116,1072.533697
3131.537519,1406.391290,-8956.491898,-383.047749
3131.537847,148.041188,-12657.521608,1455.581446
3131.538175,2220.617826,-9770.718434,-612.876398
3131.538502,2072.576638,-9770.718434,-2451.505594
3131.538830,-740.205942,-11843.295072,229.828649
3131.539158,0.000000,-8882.471304,-1149.143247
3131.539486,1850.514855,-7105.977043,-3217.601092
3131.539813,0.000000,-11473.192101,-459.657299
3131.540141,370.102971,-10658.965565,459.657299
3131.540469,2220.617826,-8216.285956,-1378.971896
3131.540796,0.000000,-10510.924376,919.314598
3131.541124,-1332.370696,-9474.636058,2145.067394
3131.541452,-370.102971,-7179.997637,0.000000
3131.541779,-1628.453072,-11399.171507,0.000000
3131.542107,-1036.288319,-11769.274478,229.828649
3131.542435,2738.761985,-9326.594869,-3677.258390
3131.542763,1628.453072,-12213.398043,-766.095498
3131.543090,0.000000,-13027.624579,3064.381992
3131.543418,1850.514855,-7624.121203,-919.314598
3131.543746,1850.514855,-9400.615463,-2528.115143
3131.544073,-148.041188,-9844.739029,-306.438199
3131.544401,1184.329507,-5995.668130,-995.924147
3131.544729,1110.308913,-7402.059420,842.705048
3131.545056,-518.144159,-9178.553681,4060.306139
3131.545384,666.185348,-7105.977043,2451.505594
3131.545712,370.102971,-8216.285956,919.314598
3131.546039,-592.164754,-11917.315666,2068.457845
3131.546367,1850.514855,-10807.006753,-766.095498
3131.546695,1776.494261,-10214.842000,-3447.429741
3131.547023,-888.247130,-13397.727550,-536.266849
3131.547350,1184.329507,-9918.759623,-1762.019645
3131.547678,3034.844362,-7920.203579,-2911.162892
3131.548006,296.082377,-11251.130318,1072.533697
3131.548333,1110.308913,-9178.553681,1455.581446
3131.548661,2738.761985,-7254.018232,-1225.752797
3131.548989,-222.061783,-10881.027347,689.485948
3131.549316,-1702.473667,-9030.512492,1915.238745
3131.549644,0.000000,-6143.709319,-306.438199
3131.549972,-518.144159,-9918.759623,153.219100
3131.550300,-148.041188,-9844.739029,306.438199
3131.550627,1184.329507,-9252.574275,-1991.848295
3131.550955,-518.144159,-13841.851115,-1149.143247
3131.551283,-1776.494261,-13397.727550,0.000000
3131.551610,1258.350101,-8438.347739,-3447.429741
3131.551938,222.061783,-9696.697840,-2145.067394
3131.552266,-444.123565,-11177.109724,1762.019645
3131.552593,2590.720797,-7698.141797,0.000000
3131.552921,2886.803174,-9104.533087,-383.047749
3131.553249,-518.144159,-10658.965565,3217.601092
3131.553577,-592.164754,-6883.915261,1685.410096
3131.553904,-1554.432478,-7031.956449,0.000000
3131.554232,-2812.782580,-10510.924376,1225.752797
3131.554560,-962.267725,-9622.677246,0.000000
3131.554887,370.102971,-11843.295072,-1991.848295
3131.555215,-1036.288319,-13397.727550,383.047749
3131.555543,444.123565,-9400.615463,-1072.533697
3131.555870,444.123565,-7846.182985,-2528.115143
3131.556198,-1628.453072,-11103.089130,229.828649
3131.556526,0.000000,-7846.182985,-842.705048
3131.556853,1480.411884,-6365.771101,-2451.505594
3131.557181,-1184.329507,-9844.739029,1685.410096
3131.557509,-444.123565,-9918.759623,2834.553343
3131.557837,814.226536,-7550.100608,383.047749
3131.558164,-148.041188,-10955.047942,842.705048
3131.558492,0.000000,-11843.295072,-153.219100
3131.558820,2146.597232,-10436.903782,-2987.772442
3131.559147,1184.329507,-12287.418637,-2451.505594
3131.559475,-222.061783,-10658.965565,612.876398
3131.559803,1184.329507,-7994.224174,-1302.362347
3131.560130,-518.144159,-9992.780217,76.609550
3131.560458,-1480.411884,-9844.739029,1149.143247
3131.560786,1554.432478,-7698.141797,-2145.067394
3131.561114,1332.370696,-10066.800811,-1149.143247
3131.561441,-1258.350101,-10362.883188,2298.286494
3131.561769,370.102971,-6587.832884,229.828649
3131.562097,518.144159,-8512.368333,-536.266849
3131.562424,-592.164754,-12435.459826,1532.190996
3131.562752,1628.453072,-10436.903782,-689.485948
3131.563080,1776.494261,-10955.047942,-1302.362347
3131.563407,148.041188,-12509.480420,1149.143247
3131.563735,1258.350101,-8660.409521,0.000000
3131.564063,888.247130,-7772.162391,-1302.362347
3131.564390,-518.144159,-10214.842000,1072.533697
3131.564718,1554.432478,-8216.285956,-459.657299
3131.565046,2590.720797,-8068.244768,-1455.581446
3131.565374,-148.041188,-10510.924376,1685.410096
3131.565701,74.020594,-7846.182985,1915.238745
3131.566029,1406.391290,-7105.977043,-306.438199
3131.566357,-148.041188,-10732.986159,1225.752797
3131.566684,-962.267725,-10066.800811,1072.533697
3131.567012,370.102971,-9474.636058,-2374.896044
3131.567340,-296.082377,-12657.521608,-1378.971896
3131.567667,296.082377,-10732.986159,-689.485948
3131.567995,2590.720797,-8068.244768,-2068.457845
3131.568323,888.247130,-11029.068536,306.438199
3131.568651,666.185348,-11399.171507,1225.752797
3131.568978,2368.659014,-8216.285956,-2604.724693
3131.569306,518.144159,-9844.739029,-2145.067394
3131.569634,-1258.350101,-9326.594869,306.438199
3131.569961,222.061783,-6809.894666,-612.876398
3131.570289,222.061783,-9178.553681,459.657299
3131.570617,-592.164754,-11991.336260,3064.381992
3131.570944,1554.432478,-10436.903782,153.219100
3131.571272,1406.391290,-11103.089130,-1225.752797
3131.571600,-1036.288319,-11843.295072,536.266849
3131.571927,-592.164754,-8586.388927,-1532.190996
3131.572255,-296.082377,-9104.533087,-2451.505594
3131.572583,-1332.370696,-11251.130318,0.000000
3131.572911,740.205942,-9548.656652,-1225.752797
3131.573238,1998.556043,-9474.636058,-1762.019645
3131.573566,444.123565,-10436.903782,1149.143247
3131.573894,592.164754,-8290.306550,919.314598
3131.574221,444.123565,-8068.244768,-536.266849
3131.574549,-740.205942,-11325.150913,1378.971896
3131.574877,592.164754,-9474.636058,1149.143247
3131.575204,1258.350101,-7105.977043,-306.438199
3131.575532,-1036.288319,-10066.800811,1838.629195
3131.575860,-2886.803174,-9696.697840,2145.067394
3131.576188,-1702.473667,-7772.162391,-1378.971896
3131.576515,-814.226536,-11103.089130,-2451.505594
3131.576843,0.000000,-10510.924376,-1915.238745
3131.577171,1702.473667,-7698.141797,-1762.019645
3131.577498,814.226536,-10140.821405,-153.219100
3131.577826,0.000000,-9844.739029,1608.800546
3131.578154,1702.473667,-6587.832884,-459.657299
3131.578481,814.226536,-9326.594869,-153.219100
3131.578809,-1110.308913,-11399.171507,2145.067394
3131.579137,1554.432478,-9400.615463,-536.266849
3131.579464,1332.370696,-11177.109724,-689.485948
3131.579792,-1110.308913,-12731.542202,2451.505594
3131.580120,0.000000,-9474.636058,-1225.752797
3131.580448,0.000000,-9400.615463,-2604.724693
3131.580775,-370.102971,-12065.356855,-1532.190996
3131.581103,740.205942,-9696.697840,-2604.724693
3131.581431,814.226536,-8586.388927,-2221.676944
3131.581758,-1036.288319,-9326.594869,1225.752797
3131.582086,740.205942,-8290.306550,1225.752797
3131.582414,1628.453072,-9474.636058,-229.828649
3131.582741,444.123565,-11843.295072,1455.581446
3131.583069,1480.411884,-10214.842000,-306.438199
3131.583397,2294.638420,-8956.491898,-2834.553343
3131.583725,370.102971,-12139.377449,153.219100
3131.584052,-148.041188,-11177.109724,919.314598
3131.584380,1184.329507,-8586.388927,-1225.752797
3131.584708,0.000000,-10436.903782,0.000000
3131.585035,-444.123565,-10140.821405,0.000000
3131.585363,1702.473667,-7402.059420,-1915.238745
3131.585691,0.000000,-8956.491898,383.047749
3131.586018,-222.061783,-8512.368333,2145.067394
3131.586346,1258.350101,-6957.935855,306.438199
3131.586674,1554.432478,-8956.491898,-612.876398
3131.587001,814.226536,-9770.718434,1149.143247
3131.587329,814.226536,-8216.285956,229.828649
3131.587657,296.082377,-10584.944971,-229.828649
3131.587985,-1110.308913,-12213.398043,1149.143247
3131.588312,444.123565,-8808.450710,-1378.971896
3131.588640,518.144159,-9622.677246,-1838.629195
3131.588968,-592.164754,-11325.150913,1302.362347
3131.589295,444.123565,-7550.100608,-153.219100
3131.589623,1036.288319,-8142.265362,-1915.238745
3131.589951,0.000000,-10584.944971,1072.533697
3131.590278,592.164754,-7920.203579,689.485948
3131.590606,888.247130,-8142.265362,0.000000
3131.590934,-518.144159,-10881.027347,766.095498
3131.591262,148.041188,-10436.903782,-766.095498
3131.591589,740.205942,-9548.656652,-2834.553343
3131.591917,-2072.576638,-11621.233289,-459.657299
3131.592245,-2220.617826,-10955.047942,-383.047749
3131.592572,0.000000,-9992.780217,-2834.553343
3131.592900,-518.144159,-11843.295072,-1302.362347
3131.593228,296.082377,-10807.006753,-536.266849
3131.593555,2072.576638,-9400.615463,0.000000
3131.593883,1332.370696,-12065.356855,1532.190996
3131.594211,444.123565,-9992.780217,1608.800546
3131.594539,1036.288319,-6809.894666,-1378.971896
3131.594866,518.144159,-9252.574275,-995.924147
3131.595194,-518.144159,-10140.821405,229.828649
3131.595522,0.000000,-8142.265362,-536.266849
3131.595849,0.000000,-9400.615463,306.438199
3131.596177,-888.247130,-10510.924376,1532.190996
3131.596504,296.082377,-9252.574275,-536.266849
3131.596832,518.144159,-9992.780217,-1149.143247
3131.597160,-1110.308913,-10288.862594,612.876398
3131.597487,370.102971,-7624.121203,-459.657299
3131.597815,740.205942,-8364.327145,-842.705048
3131.598143,0.000000,-9548.656652,1455.581446
3131.598470,1258.350101,-7031.956449,536.266849
3131.598798,1776.494261,-7402.059420,0.000000
3131.599126,888.247130,-11843.295072,1225.752797
3131.599453,1480.411884,-10288.862594,-842.705048
3131.599781,1332.370696,-10288.862594,-2451.505594
3131.600109,-222.061783,-11399.171507,383.047749
3131.600436,296.082377,-8364.327145,153.219100
3131.600764,444.123565,-7105.977043,-1149.143247
3131.601092,-1998.556043,-10510.924376,1762.019645
3131.601419,-1332.370696,-9918.759623,1072.533697
3131.601747,1406.391290,-9104.533087,-1915.238745
3131.602075,740.205942,-11473.192101,-459.657299
3131.602402,-592.164754,-9992.780217,842.705048
3131.602730,962.267725,-7846.182985,-1838.629195
3131.603058,1998.556043,-11399.171507,-1838.629195
3131.603385,1036.288319,-11695.253884,-1378.971896
3131.603713,1924.535449,-10362.883188,-2068.457845
3131.604041,148.041188,-12139.377449,0.000000
3131.604368,0.000000,-11547.212695,1225.752797
3131.604696,1110.308913,-8734.430116,-612.876398
3131.605024,888.247130,-9770.718434,229.828649
3131.605351,-962.267725,-10436.903782,2298.286494
3131.605679,962.267725,-7698.141797,612.876398
3131.606006,222.061783,-9622.677246,-842.705048
3131.606334,-1554.432478,-9918.759623,842.705048
3131.606662,-1036.288319,-5995.668130,-766.095498
3131.606989,-518.144159,-7476.080014,-995.924147
3131.607317,-222.061783,-11917.315666,1225.752797
3131.607645,2516.700203,-10807.006753,995.924147
3131.607972,2590.720797,-10658.965565,-766.095498
3131.608300,0.000000,-11399.171507,995.924147
3131.608628,-444.123565,-8438.347739,-306.438199
3131.608955,222.061783,-7624.121203,-1149.143247
3131.609283,-1184.329507,-9696.697840,919.314598
3131.609611,-370.102971,-8364.327145,612.876398
3131.609938,0.000000,-8438.347739,0.000000
3131.610266,0.000000,-10955.047942,1532.190996
3131.610594,-1036.288319,-8808.450710,1225.752797
3131.610921,-444.123565,-6957.935855,-995.924147
3131.611249,-592.164754,-10214.842000,-919.314598
3131.611577,370.102971,-11325.150913,-1225.752797
3131.611904,2220.617826,-10214.842000,-2528.115143
3131.612232,1554.432478,-11843.295072,-459.657299
3131.612560,1332.370696,-11399.171507,612.876398
3131.612887,1702.473667,-8882.471304,-995.924147
3131.613215,-370.102971,-10362.883188,-76.609550
3131.613543,-1628.453072,-10807.006753,229.828649
3131.613870,222.061783,-8956.491898,-1991.848295
3131.614198,444.123565,-10436.903782,-1302.362347
3131.614526,-1258.350101,-10288.862594,1072.533697
3131.614853,0.000000,-7550.100608,306.438199
3131.615181,740.205942,-9548.656652,229.828649
3131.615509,740.205942,-12435.459826,689.485948
3131.615836,1776.494261,-10214.842000,-995.924147
3131.616164,2220.617826,-9770.718434,-1762.019645
3131.616491,1036.288319,-10955.047942,0.000000
3131.616819,-518.144159,-7402.059420,1532.190996
3131.617147,-1184.329507,-7698.141797,0.000000
3131.617474,-2220.617826,-10436.903782,536.266849
3131.617802,-1406.391290,-9622.677246,-1072.533697
3131.618130,444.123565,-8068.244768,-2451.505594
3131.618457,0.000000,-10288.862594,612.876398
3131.618785,74.020594,-9474.636058,2145.067394
3131.619113,2220.617826,-8142.265362,2451.505594
3131.619440,1554.432478,-10881.027347,2145.067394
3131.619768,1998.556043,-10362.883188,306.438199
3131.620096,2664.741391,-8808.450710,-2451.505594
3131.620423,592.164754,-10214.842000,-995.924147
3131.620751,-1110.308913,-8290.306550,-383.047749
3131.621079,-592.164754,-6883.915261,-689.485948
3131.621406,-666.185348,-10362.883188,919.314598
3131.621734,592.164754,-11103.089130,1302.362347
3131.622062,2220.617826,-9326.594869,-383.047749
3131.622389,518.144159,-10807.006753,153.219100
3131.622717,-1036.288319,-10362.883188,1149.143247
3131.623045,0.000000,-7624.121203,-995.924147
3131.623372,814.226536,-9030.512492,-1149.143247
3131.623700,1036.288319,-11029.068536,153.219100
3131.624028,2294.638420,-10214.842000,0.000000
3131.624355,2368.659014,-11843.295072,-995.924147
3131.624683,962.267725,-13027.624579,-1302.362347
3131.625011,148.041188,-9548.656652,-2987.772442
3131.625338,0.000000,-8734.430116,-2681.334243
3131.625666,-666.185348,-9918.759623,0.000000
3131.625993,222.061783,-8290.306550,1072.533697
3131.626321,74.020594,-7846.182985,2221.676944
3131.626649,-1332.370696,-11547.212695,2987.772442
3131.626976,-1850.514855,-8586.388927,1608.800546
3131.627304,0.000000,-7179.997637,-1378.971896
3131.627632,0.000000,-11177.109724,0.000000
3131.627959,1036.288319,-11177.109724,-306.438199
3131.628287,2664.741391,-9992.780217,-2604.724693
3131.628615,962.267725,-10732.986159,-1072.533697
3131.628942,888.247130,-9844.739029,-842.705048
3131.629270,518.144159,-8068.244768,-919.314598
3131.629598,-1036.288319,-9844.739029,766.095498
3131.629925,-1110.308913,-9622.677246,1378.971896
3131.630253,0.000000,-8290.306550,153.219100
3131.630581,148.041188,-9548.656652,1149.143247
3131.630908,-962.267725,-9622.677246,2911.162892
3131.631236,74.020594,-8068.244768,1378.971896
3131.631564,518.144159,-10214.842000,306.438199
3131.631891,-222.061783,-11621.233289,0.000000
3131.632219,-370.102971,-8882.471304,-2681.334243
3131.632547,296.082377,-9770.718434,-3447.429741
3131.632874,370.102971,-10881.027347,-1532.190996
3131.633202,148.041188,-10066.800811,-612.876398
3131.633530,74.020594,-10658.965565,-689.485948
3131.633857,814.226536,-11251.130318,-612.876398
3131.634185,888.247130,-8586.388927,-1225.752797
3131.634513,1036.288319,-9622.677246,0.000000
3131.634840,0.000000,-10584.944971,2911.162892
3131.635168,0.000000,-9178.553681,1302.362347
3131.635495,370.102971,-9474.636058,0.000000
3131.635823,222.061783,-11991.336260,-306.438199
3131.636151,148.041188,-10066.800811,-1302.362347
3131.636478,740.205942,-9252.574275,-2298.286494
3131.636806,0.000000,-11251.130318,-1378.971896
3131.637134,-222.061783,-10288.862594,-1532.190996
3131.637461,1406.391290,-8734.430116,-2451.505594
3131.637789,1776.494261,-10288.862594,-1149.143247
3131.638117,1110.308913,-9474.636058,1225.752797
3131.638444,1184.329507,-8290.306550,995.924147
3131.638772,296.082377,-9844.739029,1838.629195
3131.639100,-222.061783,-9252.574275,1685.410096
3131.639427,222.061783,-7402.059420,0.000000
3131.639755,296.082377,-9918.759623,842.705048
3131.640083,1110.308913,-10214.842000,1072.533697
3131.640410,1258.350101,-8660.409521,-842.705048
3131.640738,370.102971,-10658.965565,-612.876398
3131.641066,222.061783,-10436.903782,-766.095498
3131.641393,1776.494261,-8142.265362,-2145.067394
3131.641721,2368.659014,-9030.512492,-766.095498
3131.642049,1036.288319,-9474.636058,2221.676944
3131.642376,1258.350101,-8364.327145,1149.143247
3131.642704,-296.082377,-8216.285956,1072.533697
3131.643032,-2664.741391,-9844.739029,2221.676944
3131.643359,-2516.700203,-8882.471304,0.000000
3131.643687,-1332.370696,-9622.677246,-2374.896044
3131.644015,-370.102971,-11399.171507,-689.485948
3131.644342,1554.432478,-10881.027347,-1225.752797
3131.644670,1850.514855,-11621.233289,-995.924147
3131.644997,1776.494261,-13767.830521,306.438199
3131.645325,1332.370696,-10510.924376,-1532.190996
3131.645653,1480.411884,-9252.574275,-2911.162892
3131.645980,1036.288319,-9622.677246,-1991.848295
3131.646308,-1258.350101,-8586.388927,459.657299
3131.646636,-814.226536,-7624.121203,689.485948
3131.646963,-222.061783,-9548.656652,1762.019645
3131.647291,-740.205942,-9548.656652,2145.067394
3131.647619,-592.164754,-8512.368333,306.438199
3131.647946,-222.061783,-11251.130318,229.828649
3131.648274,148.041188,-11621.233289,0.000000
3131.648602,518.144159,-9474.636058,-1991.848295
3131.648929,0.000000,-10955.047942,-1225.752797
3131.649257,-296.082377,-10362.883188,0.000000
3131.649585,1184.329507,-7772.162391,-1149.143247
3131.649912,1406.391290,-9178.553681,-1149.143247
3131.650240,444.123565,-10584.944971,612.876398
3131.650568,1110.308913,-8586.388927,-383.047749
3131.650895,1258.350101,-8808.450710,76.609550
3131.651223,222.061783,-9474.636058,2298.286494
3131.651551,-888.247130,-6069.688724,1762.019645
3131.651878,-888.247130,-8142.265362,1378.971896
3131.652206,-1110.308913,-11473.192101,995.924147
3131.652534,518.144159,-10214.842000,-1378.971896
3131.652861,888.247130,-10658.965565,-1225.752797
3131.653189,0.000000,-11621.233289,459.657299
3131.653517,1332.370696,-9474.636058,-1378.971896
3131.653844,1924.535449,-8364.327145,-2451.505594
3131.654172,740.205942,-9622.677246,-995.924147
3131.654500,-222.061783,-8438.347739,-612.876398
3131.654827,0.000000,-8290.306550,-1072.533697
3131.655155,-740.205942,-10362.883188,842.705048
3131.655482,-370.102971,-9622.677246,2068.457845
3131.655810,740.205942,-9770.718434,383.047749
3131.656138,444.123565,-11769.274478,919.314598
3131.656465,1776.494261,-12065.356855,459.657299
3131.656793,1850.514855,-10066.800811,-1685.410096
3131.657121,962.267725,-11547.212695,-1225.752797
3131.657448,-222.061783,-10288.862594,-766.095498
3131.657776,-296.082377,-7105.977043,-1991.848295
3131.658104,0.000000,-9400.615463,-1225.752797
3131.658431,296.082377,-11029.068536,-306.438199
3131.658759,962.267725,-9030.512492,-1149.143247
3131.659087,222.061783,-10066.800811,0.000000
3131.659414,-962.267725,-9844.739029,1225.752797
3131.659742,0.000000,-7105.977043,0.000000
3131.660070,740.205942,-9030.512492,383.047749
3131.660397,1184.329507,-11843.295072,2145.067394
3131.660725,1110.308913,-9770.718434,842.705048
3131.661053,1406.391290,-10881.027347,76.609550
3131.661380,814.226536,-11843.295072,76.609550
3131.661708,-296.082377,-8586.388927,-1072.533697
3131.662036,-1036.288319,-7402.059420,-1991.848295
3131.662363,-740.205942,-9104.533087,-1072.533697
3131.662691,444.123565,-8808.450710,-2221.676944
3131.663019,222.061783,-8808.450710,-1225.752797
3131.663346,-518.144159,-9770.718434,1072.533697
3131.663674,-444.123565,-7920.203579,2298.286494
3131.664002,814.226536,-8364.327145,919.314598
3131.664329,592.164754,-11843.295072,1149.143247
3131.664657,444.123565,-10066.800811,459.657299
3131.664984,1036.288319,-9252.574275,-1378.971896
3131.665312,0.000000,-12065.356855,-995.924147
3131.665640,-666.185348,-10807.006753,-1455.581446
3131.665967,-296.082377,-8290.306550,-2604.724693
3131.666295,222.061783,-10362.883188,-1378.971896
3131.666623,222.061783,-10955.047942,-383.047749
3131.666950,1480.411884,-9696.697840,-536.266849
3131.667278,2220.617826,-9770.718434,-612.876398
3131.667606,-296.082377,-8216.285956,1991.848295
3131.667933,-1554.432478,-6069.688724,1532.190996
3131.668261,-2220.617826,-9178.553681,459.657299
3131.668589,-1110.308913,-12361.439231,-459.657299
3131.668916,74.020594,-10140.821405,-2451.505594
3131.669244,148.041188,-10807.006753,-1762.019645
3131.669572,740.205942,-12805.562797,766.095498
3131.669899,1258.350101,-9844.739029,-766.095498
3131.670227,1184.329507,-9844.739029,-1302.362347
3131.670555,296.082377,-10732.986159,-459.657299
3131.670882,1406.391290,-8734.430116,-1532.190996
3131.671210,1406.391290,-8142.265362,-919.314598
3131.671538,-370.102971,-8364.327145,1915.238745
3131.671865,-814.226536,-5921.647536,2757.943793
3131.672193,74.020594,-7476.080014,1991.848295
3131.672521,1184.329507,-11177.109724,2374.896044
3131.672848,1702.473667,-10807.006753,459.657299
3131.673176,1406.391290,-9622.677246,-1225.752797
3131.673504,370.102971,-11547.212695,-919.314598
3131.673831,0.000000,-10214.842000,-1532.190996
3131.674159,0.000000,-8068.244768,-2221.676944
3131.674486,296.082377,-10584.944971,-383.047749
3131.674814,888.247130,-11103.089130,383.047749
3131.675142,1776.494261,-9252.574275,-229.828649
3131.675469,1554.432478,-10066.800811,229.828649
3131.675797,370.102971,-9474.636058,459.657299
3131.676125,1110.308913,-7698.141797,-459.657299
3131.676452,1480.411884,-9252.574275,229.828649
3131.676780,1702.473667,-9104.533087,612.876398
3131.677108,444.123565,-8660.409521,0.000000
3131.677435,-1184.329507,-11917.315666,0.000000
3131.677763,-1332.370696,-12805.562797,0.000000
3131.678091,666.185348,-9474.636058,-2528.115143
3131.678418,1850.514855,-10214.842000,-2451.505594
3131.678746,1110.308913,-12435.459826,0.000000
3131.679074,1406.391290,-9992.780217,-306.438199
3131.679401,1998.556043,-8290.306550,-919.314598
3131.679729,0.000000,-8364.327145,0.000000
3131.680057,-1702.473667,-7402.059420,689.485948
3131.680384,-1850.514855,-8364.327145,919.314598
3131.680712,0.000000,-10807.006753,1072.533697
3131.681040,1406.391290,-10362.883188,-459.657299
3131.681367,1332.370696,-10066.800811,-459.657299
3131.681695,0.000000,-11251.130318,766.095498
3131.682023,-148.041188,-9252.574275,0.000000
3131.682350,74.020594,-8364.327145,-1608.800546
3131.682678,-444.123565,-10807.006753,-766.095498
3131.683006,-518.144159,-9326.594869,0.000000
3131.683333,888.247130,-7402.059420,-842.705048
3131.683661,0.000000,-9326.594869,995.924147
3131.683989,-1702.473667,-9992.780217,2374.896044
3131.684316,-1702.473667,-7698.141797,0.000000
3131.684644,-1036.288319,-8956.491898,-1991.848295
3131.684971,-518.144159,-9326.594869,-2068.457845
3131.685299,222.061783,-8882.471304,-1762.019645
3131.685627,444.123565,-11621.233289,1072.533697
3131.685954,370.102971,-11695.253884,1378.971896
3131.686282,1702.473667,-9696.697840,-766.095498
3131.686610,814.226536,-10955.047942,-919.314598
3131.686937,0.000000,-11029.068536,-306.438199
3131.687265,592.164754,-8438.347739,-1608.800546
3131.687593,444.123565,-9548.656652,-766.095498
3131.687920,-740.205942,-10955.047942,459.657299
3131.688248,-222.061783,-8290.306550,0.000000
3131.688576,222.061783,-8438.347739,0.000000
3131.688903,592.164754,-10732.986159,76.609550
3131.689231,518.144159,-9992.780217,-612.876398
3131.689559,888.247130,-10436.903782,-766.095498
3131.689886,0.000000,-11621.233289,-153.219100
3131.690214,222.061783,-9622.677246,-459.657299
3131.690542,962.267725,-8882.471304,-306.438199
3131.690869,1332.370696,-10732.986159,612.876398
3131.691197,888.247130,-9622.677246,229.828649
3131.691525,1554.432478,-8586.388927,-459.657299
3131.691852,666.185348,-10362.883188,1072.533697
3131.692180,962.267725,-9696.697840,1455.581446
3131.692508,2072.576638,-7402.059420,76.609550
3131.692835,1110.308913,-9178.553681,919.314598
3131.693163,-666.185348,-8734.430116,306.438199
3131.693491,-1554.432478,-8956.491898,-1072.533697
3131.693818,-1184.329507,-10584.944971,-1532.190996
3131.694146,148.041188,-9474.636058,-1608.800546
3131.694473,222.061783,-8438.347739,-306.438199
3131.694801,814.226536,-10436.903782,1302.362347
3131.695129,1332.370696,-11103.089130,536.266849
3131.695456,962.267725,-8586.388927,76.609550
3131.695784,592.164754,-9918.759623,-1149.143247
3131.696112,0.000000,-10658.965565,-612.876398
3131.696439,0.000000,-8586.388927,-306.438199
3131.696767,518.144159,-8882.471304,-306.438199
3131.697095,666.185348,-10436.903782,153.219100
3131.697422,2072.576638,-9770.718434,689.485948
3131.697750,3034.844362,-11325.150913,-229.828649
3131.698077,1258.350101,-11843.295072,536.266849
3131.698405,0.000000,-8364.327145,-536.266849
3131.698733,-74.020594,-7698.141797,-1608.800546
3131.699060,-1036.288319,-10066.800811,-612.876398
3131.699388,-1554.432478,-8956.491898,76.609550
3131.699715,-444.123565,-9622.677246,76.609550
3131.700043,0.000000,-12435.459826,1455.581446
3131.700370,518.144159,-11251.130318,-306.438199
3131.700698,814.226536,-9474.636058,-1378.971896
3131.701026,666.185348,-10214.842000,-306.438199
3131.701353,2368.659014,-9918.759623,536.266849
3131.701681,2442.679609,-8734.430116,0.000000
3131.702008,592.164754,-9104.533087,1532.190996
3131.702336,-2072.576638,-8734.430116,1532.190996
3131.702664,-2368.659014,-9178.553681,0.000000
3131.702991,-1258.350101,-10140.821405,-1149.143247
3131.703319,-370.102971,-9770.718434,-995.924147
3131.703646,0.000000,-7846.182985,229.828649
3131.703974,0.000000,-10658.965565,995.924147
3131.704301,370.102971,-11029.068536,1378.971896
3131.704629,592.164754,-7402.059420,-1302.362347
3131.704957,-370.102971,-8586.388927,-536.266849
3131.705284,-518.144159,-9622.677246,459.657299
3131.705612,592.164754,-9104.533087,-459.657299
3131.705939,518.144159,-10436.903782,-459.657299
3131.706267,444.123565,-11251.130318,306.438199
3131.706595,370.102971,-8364.327145,-536.266849
3131.706922,444.123565,-8882.471304,-1455.581446
3131.707250,-666.185348,-10066.800811,-612.876398
3131.707577,-592.164754,-8438.347739,-919.314598
3131.707905,-296.082377,-9474.636058,-842.705048
3131.708232,592.164754,-12361.439231,919.314598
3131.708560,814.226536,-9474.636058,536.266849
3131.708888,222.061783,-8808.450710,1225.752797
3131.709215,888.247130,-11991.336260,612.876398
3131.709543,962.267725,-10214.842000,-2068.457845
3131.709870,1110.308913,-9030.512492,-3830.477490
3131.710198,-222.061783,-11177.109724,-1455.581446
3131.710526,222.061783,-9918.759623,0.000000
3131.710853,1036.288319,-7846.182985,-229.828649
3131.711181,296.082377,-10881.027347,-383.047749
3131.711508,0.000000,-10807.006753,766.095498
3131.711836,962.267725,-8734.430116,0.000000
3131.712164,666.185348,-10807.006753,689.485948
3131.712491,814.226536,-9992.780217,842.705048
3131.712819,962.267725,-6809.894666,76.609550
3131.713146,1184.329507,-8956.491898,1991.848295
3131.713474,1480.411884,-10436.903782,2221.676944
3131.713801,1480.411884,-8660.409521,-536.266849
3131.714129,1110.308913,-9770.718434,-689.485948
3131.714457,-370.102971,-11103.089130,0.000000
3131.714784,-814.226536,-8216.285956,-1532.190996
3131.715112,-222.061783,-9178.553681,-1838.629195
3131.715439,74.020594,-10140.821405,76.609550
3131.715767,666.185348,-8882.471304,536.266849
3131.716095,666.185348,-8512.368333,842.705048
3131.716422,518.144159,-10214.842000,1685.410096
3131.716750,148.041188,-8734.430116,1838.629195
3131.717077,222.061783,-7846.182985,1072.533697
3131.717405,1332.370696,-9992.780217,689.485948
3131.717732,1998.556043,-9400.615463,0.000000
3131.718060,666.185348,-9770.718434,-1378.971896
3131.718388,-1480.411884,-12361.439231,-995.924147
3131.718715,-2590.720797,-9770.718434,-2221.676944
3131.719043,-296.082377,-8364.327145,-4903.011187
3131.719370,148.041188,-11251.130318,-2604.724693
3131.719698,-666.185348,-11991.336260,1302.362347
3131.720026,0.000000,-9548.656652,1991.848295
3131.720353,1184.329507,-10658.965565,689.485948
3131.720681,0.000000,-10288.862594,-229.828649
3131.721008,-2072.576638,-7402.059420,-919.314598
3131.721336,-2146.597232,-9030.512492,0.000000
3131.721663,0.000000,-10362.883188,-536.266849
3131.721991,962.267725,-9474.636058,-1838.629195
3131.722319,0.000000,-10658.965565,306.438199
3131.722646,0.000000,-11325.150913,1225.752797
3131.722974,1480.411884,-9104.533087,-459.657299
3131.723301,1998.556043,-10066.800811,-1532.190996
3131.723629,0.000000,-10658.965565,0.000000
3131.723957,-296.082377,-7994.224174,0.000000
3131.724284,-296.082377,-7254.018232,842.705048
3131.724612,-1036.288319,-9178.553681,2221.676944
3131.724939,-592.164754,-7476.080014,1685.410096
3131.725267,0.000000,-9030.512492,1072.533697
3131.725595,518.144159,-11917.315666,612.876398
3131.725922,1406.391290,-10436.903782,-1762.019645
3131.726250,1406.391290,-9696.697840,-2681.334243
3131.726577,518.144159,-10362.883188,-1225.752797
3131.726905,888.247130,-7920.203579,-459.657299
3131.727232,1184.329507,-7105.977043,-612.876398
3131.727560,518.144159,-11103.089130,153.219100
3131.727888,-518.144159,-11917.315666,306.438199
3131.728215,1184.329507,-9622.677246,-459.657299
3131.728543,1406.391290,-9844.739029,76.609550
3131.728870,222.061783,-9548.656652,1149.143247
3131.729198,-666.185348,-8438.347739,919.314598
3131.729526,518.144159,-10066.800811,0.000000
3131.729853,1258.350101,-9548.656652,-1608.800546
3131.730181,74.020594,-9400.615463,-2451.505594
3131.730508,-1036.288319,-11177.109724,-536.266849
3131.730836,-444.123565,-10658.965565,-153.219100
3131.731163,1036.288319,-8808.450710,-2145.067394
3131.731491,1998.556043,-10881.027347,-2451.505594
3131.731819,2146.597232,-11695.253884,0.000000
3131.732146,1702.473667,-8956.491898,1225.752797
3131.732474,1036.288319,-8364.327145,1149.143247
3131.732801,-1110.308913,-10658.965565,2068.457845
3131.733129,-1110.308913,-7920.203579,536.266849
3131.733457,-1480.411884,-8142.265362,0.000000
3131.733784,148.041188,-11177.109724,536.266849
3131.734112,1036.288319,-11547.212695,0.000000
3131.734439,222.061783,-10658.965565,306.438199
3131.734767,-1850.514855,-9844.739029,-536.266849
3131.735094,-2220.617826,-7476.080014,-2145.067394
3131.735422,-148.041188,-7328.038826,-3447.429741
3131.735750,-592.164754,-10214.842000,-766.095498
3131.736077,-1332.370696,-8512.368333,1455.581446
3131.736405,666.185348,-8364.327145,1072.533697
3131.736732,370.102971,-11103.089130,1991.848295
3131.737060,0.000000,-10362.883188,1838.629195
3131.737388,-1998.556043,-8216.285956,459.657299
3131.737715,-296.082377,-10214.842000,-383.047749
3131.738043,1554.432478,-10510.924376,-1532.190996
3131.738370,1480.411884,-10362.883188,-1455.581446
3131.738698,666.185348,-11103.089130,766.095498
3131.739026,518.144159,-9622.677246,0.000000
3131.739353,1110.308913,-8216.285956,-1149.143247
3131.739681,74.020594,-10362.883188,-1532.190996
3131.740008,-962.267725,-9844.739029,-1302.362347
3131.740336,-814.226536,-7328.038826,-1685.410096
3131.740663,-444.123565,-8882.471304,0.000000
3131.740991,444.123565,-10732.986159,1378.971896
3131.741319,1258.350101,-9918.759623,1455.581446
3131.741646,1554.432478,-10436.903782,842.705048
3131.741974,2368.659014,-11843.295072,383.047749
3131.742301,2738.761985,-10362.883188,-1378.971896
3131.742629,2072.576638,-9844.739029,-995.924147
3131.742957,888.247130,-10362.883188,306.438199
3131.743284,814.226536,-9104.533087,-689.485948
3131.743612,1628.453072,-8956.491898,-2451.505594
3131.743939,962.267725,-9474.636058,-1072.533697
3131.744267,0.000000,-7994.224174,-459.657299
3131.744594,-1406.391290,-8586.388927,-383.047749
3131.744922,-1332.370696,-11695.253884,153.219100
3131.745250,148.041188,-9326.594869,-536.266849
3131.745577,592.164754,-8216.285956,-1302.362347
3131.745905,1554.432478,-11621.233289,1532.190996
3131.746232,3923.091493,-10955.047942,2374.896044
3131.746560,3775.050304,-9326.594869,1378.971896
3131.746888,2146.597232,-11547.212695,1378.971896
3131.747215,296.082377,-9696.697840,0.000000
3131.747543,-962.267725,-6439.791695,-2451.505594
3131.747870,-2368.659014,-7698.141797,-1685.410096
3131.748198,-1924.535449,-8438.347739,-1991.848295
3131.748526,-1480.411884,-7328.038826,-1762.019645
3131.748853,-370.102971,-10510.924376,842.705048
3131.749181,666.185348,-11769.274478,2451.505594
3131.749508,2294.638420,-9474.636058,2145.067394
3131.749836,2368.659014,-9918.759623,1455.581446
3131.750163,1332.370696,-9548.656652,1149.143247
3131.750491,1258.350101,-8438.347739,-459.657299
3131.750819,1036.288319,-9992.780217,-459.657299
3131.751146,74.020594,-11917.315666,536.266849
3131.751474,0.000000,-9918.759623,-766.095498
3131.751801,-148.041188,-10140.821405,-1762.019645
3131.752129,-296.082377,-11621.233289,-2451.505594
3131.752457,-1554.432478,-9104.533087,-2757.943793
3131.752784,-962.267725,-8882.471304,-1991.848295
3131.753112,-962.267725,-9992.780217,306.438199
3131.753439,148.041188,-7772.162391,1378.971896
3131.753767,-1258.350101,-5995.668130,1685.410096
3131.754094,-814.226536,-10436.903782,2834.553343
3131.754422,1110.308913,-12065.356855,766.095498
3131.754750,2146.597232,-10955.047942,-842.705048
3131.755077,2294.638420,-11695.253884,-1378.971896
3131.755405,0.000000,-10214.842000,-1838.629195
3131.755732,-740.205942,-8956.491898,-2681.334243
3131.756060,-666.185348,-10807.006753,-2834.553343
3131.756388,-2368.659014,-8956.491898,-2374.896044
3131.756715,-2738.761985,-7328.038826,-1838.629195
3131.757043,-1628.453072,-9992.780217,0.000000
3131.757370,0.000000,-9474.636058,919.314598
3131.757698,444.123565,-7105.977043,1072.533697
3131.758025,740.205942,-9474.636058,2068.457845
3131.758353,1998.556043,-11251.130318,2374.896044
3131.758681,2664.741391,-9474.636058,76.609550
3131.759008,1258.350101,-9622.677246,0.000000
3131.759336,0.000000,-10955.047942,459.657299
3131.759663,666.185348,-9030.512492,-1838.629195
3131.759991,74.020594,-9696.697840,-1072.533697
3131.760319,-962.267725,-9696.697840,-612.876398
3131.760646,-740.205942,-8882.471304,-1532.190996
3131.760974,0.000000,-10732.986159,-1302.362347
3131.761301,296.082377,-10732.986159,-842.705048
3131.761629,-370.102971,-6365.771101,229.828649
3131.761957,740.205942,-7031.956449,1149.143247
3131.762284,1776.494261,-10140.821405,2451.505594
3131.762612,1998.556043,-10140.821405,2068.457845
3131.762939,1776.494261,-9918.759623,919.314598
3131.763267,1850.514855,-12435.459826,306.438199
3131.763594,1702.473667,-11177.109724,-766.095498
3131.763922,1776.494261,-8734.430116,-2987.772442
3131.764250,666.185348,-10436.903782,-2298.286494
3131.764577,0.000000,-9474.636058,-842.705048
3131.764905,222.061783,-9696.697840,-536.266849
3131.765232,-666.185348,-11325.150913,153.219100
3131.765560,-444.123565,-8438.347739,0.000000
3131.765888,0.000000,-6069.688724,-383.047749
3131.766215,222.061783,-9622.677246,1149.143247
3131.766543,518.144159,-11029.068536,1991.848295
3131.766870,1332.370696,-9030.512492,0.000000
3131.767198,1776.494261,-10658.965565,-459.657299
3131.767525,1628.453072,-11843.295072,-689.485948
3131.767853,962.267725,-9400.615463,-995.924147
3131.768181,0.000000,-9474.636058,-383.047749
3131.768508,-370.102971,-10732.986159,-153.219100
3131.768836,0.000000,-9844.739029,-1302.362347
3131.769163,-296.082377,-9622.677246,-766.095498
3131.769491,-1184.329507,-9548.656652,612.876398
3131.769819,-444.123565,-6883.915261,76.609550
3131.770146,-518.144159,-7550.100608,612.876398
3131.770474,-592.164754,-10436.903782,1991.848295
3131.770801,-1184.329507,-9030.512492,2374.896044
3131.771129,-518.144159,-9474.636058,612.876398
3131.771456,0.000000,-11621.233289,-766.095498
3131.771784,0.000000,-10066.800811,-1532.190996
3131.772112,74.020594,-9474.636058,-766.095498
3131.772439,518.144159,-11399.171507,536.266849
3131.772767,592.164754,-9918.759623,-842.705048
3131.773094,-370.102971,-8216.285956,-2221.676944
3131.773422,-1998.556043,-8956.491898,-1149.143247
3131.773750,-2664.741391,-7624.121203,-612.876398
3131.774077,-2664.741391,-5921.647536,-1225.752797
3131.774405,-2294.638420,-8882.471304,76.609550
3131.774732,-518.144159,-11029.068536,766.095498
3131.775060,1998.556043,-11103.089130,612.876398
3131.775388,2812.782580,-11843.295072,1378.971896
3131.775715,3182.885551,-11325.150913,1149.143247
3131.776043,1776.494261,-9252.574275,-459.657299
3131.776370,1628.453072,-9474.636058,-1455.581446
3131.776698,222.061783,-9474.636058,-1072.533697
3131.777025,370.102971,-8068.244768,-1225.752797
3131.777353,1036.288319,-9474.636058,0.000000
3131.777681,666.185348,-10436.903782,536.266849
3131.778008,0.000000,-8956.491898,-383.047749
3131.778336,-444.123565,-9844.739029,-1225.752797
3131.778663,1480.411884,-11325.150913,-995.924147
3131.778991,2146.597232,-9992.780217,-306.438199
3131.779319,1776.494261,-9844.739029,1378.971896
3131.779646,2368.659014,-9474.636058,2757.943793
3131.779974,1998.556043,-7179.997637,1072.533697
3131.780301,740.205942,-9252.574275,383.047749
3131.780629,444.123565,-11621.233289,0.000000
3131.780956,222.061783,-9770.718434,-995.924147
3131.781284,666.185348,-9252.574275,-1915.238745
3131.781612,444.123565,-11103.089130,-1838.629195
3131.781939,0.000000,-9400.615463,-1225.752797
3131.782267,0.000000,-8364.327145,-995.924147
3131.782594,1184.329507,-10510.924376,0.000000
3131.782922,518.144159,-10066.800811,383.047749
3131.783250,-148.041188,-8290.306550,689.485948
3131.783577,-592.164754,-9474.636058,1608.800546
3131.783905,666.185348,-9400.615463,919.314598
3131.784232,1110.308913,-9178.553681,153.219100
3131.784560,1628.453072,-11251.130318,0.000000
3131.784887,1184.329507,-10955.047942,153.219100
3131.785215,296.082377,-8956.491898,-2221.676944
3131.785543,-740.205942,-9030.512492,-2298.286494
3131.785870,-1998.556043,-9474.636058,-842.705048
3131.786198,-1850.514855,-8142.265362,-919.314598
3131.786525,370.102971,-9918.759623,153.219100
3131.786853,1554.432478,-11325.150913,612.876398
3131.787181,962.267725,-10510.924376,919.314598
3131.787508,888.247130,-10732.986159,766.095498
3131.787836,296.082377,-10955.047942,459.657299
3131.788163,0.000000,-8882.471304,-919.314598
3131.788491,-666.185348,-9178.553681,-689.485948
3131.788819,-444.123565,-10955.047942,306.438199
3131.789146,-370.102971,-8216.285956,-306.438199
3131.789474,-296.082377,-9030.512492,0.000000
3131.789801,-888.247130,-10362.883188,306.438199
3131.790129,-888.247130,-7772.162391,-842.705048
3131.790456,-1110.308913,-7550.100608,-842.705048
3131.790784,0.000000,-9918.759623,-689.485948
3131.791112,-222.061783,-9548.656652,0.000000
3131.791439,814.226536,-8364.327145,1991.848295
3131.791767,1036.288319,-11029.068536,1149.143247
3131.792094,74.020594,-10214.842000,459.657299
3131.792422,-370.102971,-9030.512492,-689.485948
3131.792750,0.000000,-10881.027347,-612.876398
3131.793077,0.000000,-10436.903782,-995.924147
3131.793405,1110.308913,-9104.533087,-1532.190996
3131.793732,0.000000,-9992.780217,-689.485948
3131.794060,222.061783,-9918.759623,153.219100
3131.794387,666.185348,-7920.203579,0.000000
3131.794715,1184.329507,-9474.636058,0.000000
3131.795043,814.226536,-10214.842000,-153.219100
3131.795370,962.267725,-9400.615463,-536.266849
3131.795698,1258.350101,-10288.862594,153.219100
3131.796025,2146.597232,-11621.233289,0.000000
3131.796353,666.185348,-9178.553681,-612.876398
3131.796681,-592.164754,-10510.924376,76.609550
3131.797008,444.123565,-11769.274478,-1149.143247
3131.797336,1184.329507,-9844.739029,-2068.457845
3131.797663,1110.308913,-10362.883188,-1991.848295
3131.797991,888.247130,-11399.171507,-153.219100
3131.798318,1628.453072,-9178.553681,1455.581446
3131.798646,2368.659014,-8364.327145,306.438199
3131.798974,1332.370696,-9992.780217,306.438199
3131.799301,592.164754,-9474.636058,-153.219100
3131.799629,0.000000,-8586.388927,-1302.362347
3131.799956,-592.164754,-9104.533087,-306.438199
3131.800284,-962.267725,-7846.182985,229.828649
3131.800611,-888.247130,-7772.162391,153.219100
3131.800939,0.000000,-11399.171507,536.266849
3131.801267,1776.494261,-11251.130318,536.266849
3131.801594,2368.659014,-9992.780217,383.047749
3131.801922,740.205942,-10436.903782,1072.533697
3131.802249,0.000000,-8142.265362,0.000000
3131.802577,-444.123565,-6069.688724,-1302.362347
3131.802904,0.000000,-8364.327145,-842.705048
3131.803232,74.020594,-9696.697840,383.047749
3131.803560,296.082377,-9474.636058,612.876398
3131.803887,0.000000,-11399.171507,612.876398
3131.804215,-222.061783,-12435.459826,-536.266849
3131.804542,-296.082377,-9918.759623,-1455.581446
3131.804870,-370.102971,-9474.636058,-995.924147
3131.805197,0.000000,-8956.491898,0.000000
3131.805525,222.061783,-8438.347739,-459.657299
3131.805853,-518.144159,-11251.130318,1915.238745
3131.806180,222.061783,-11843.295072,1302.362347
3131.806508,1554.432478,-8660.409521,-229.828649
3131.806835,1998.556043,-9178.553681,-1072.533697
3131.807163,1184.329507,-11325.150913,-306.438199
3131.807490,518.144159,-11473.192101,-1225.752797
3131.807818,-370.102971,-9548.656652,-1608.800546
3131.808146,-1258.350101,-10807.006753,-2451.505594
3131.808473,-3034.844362,-9696.697840,-1378.971896
3131.808801,-3034.844362,-8216.285956,0.000000
3131.809128,-1850.514855,-9992.780217,842.705048
3131.809456,-1110.308913,-9400.615463,0.000000
3131.809784,0.000000,-8364.327145,459.657299
3131.810111,740.205942,-10288.862594,1149.143247
3131.810439,1258.350101,-8586.388927,919.314598
3131.810766,74.020594,-7105.977043,229.828649
3131.811094,74.020594,-8808.450710,76.609550
3131.811421,740.205942,-10584.944971,-1072.533697
3131.811749,1036.288319,-10214.842000,-1685.410096
3131.812077,888.247130,-10955.047942,0.000000
3131.812404,1924.535449,-10881.027347,229.828649
3131.812732,1036.288319,-9030.512492,76.609550
3131.813059,-296.082377,-9770.718434,0.000000
3131.813387,-296.082377,-9474.636058,0.000000
3131.813714,370.102971,-6957.935855,-383.047749
3131.814042,74.020594,-9030.512492,919.314598
3131.814370,666.185348,-10807.006753,1532.190996
3131.814697,814.226536,-7328.038826,612.876398
3131.815025,962.267725,-8734.430116,536.266849
3131.815352,1480.411884,-11769.274478,0.000000
3131.815680,2590.720797,-10881.027347,-1762.019645
3131.816007,1628.453072,-10214.842000,-1915.238745
3131.816335,1184.329507,-11103.089130,-1149.143247
3131.816663,1036.288319,-10584.944971,-766.095498
3131.816990,1480.411884,-9770.718434,-229.828649
3131.817318,962.267725,-10732.986159,536.266849
3131.817645,814.226536,-9178.553681,536.266849
3131.817973,0.000000,-9104.533087,153.219100
3131.818300,-1258.350101,-11029.068536,536.266849
3131.818628,-962.267725,-8438.347739,0.000000
3131.818956,-222.061783,-6735.874072,-536.266849
3131.819283,0.000000,-10066.800811,-306.438199
3131.819611,1184.329507,-11029.068536,-383.047749
3131.819938,1554.432478,-10436.903782,-612.876398
3131.820266,814.226536,-11621.233289,-536.266849
3131.820593,296.082377,-11029.068536,-536.266849
3131.820921,0.000000,-8068.244768,-1072.533697
3131.821249,0.000000,-9326.594869,-459.657299
3131.821576,-222.061783,-9104.533087,76.609550
3131.821904,-740.205942,-7179.997637,1149.143247
3131.822231,-1776.494261,-8586.388927,995.924147
3131.822559,-1628.453072,-10362.883188,612.876398
3131.822887,-1110.308913,-8364.327145,-76.609550
3131.823214,74.020594,-9104.533087,-536.266849
3131.823542,814.226536,-10881.027347,306.438199
3131.823869,2516.700203,-10436.903782,76.609550
3131.824197,2960.823768,-10807.006753,0.000000
3131.824524,1406.391290,-11547.212695,536.266849
3131.824852,-370.102971,-8216.285956,-1149.143247
3131.825180,-1628.453072,-7402.059420,-2451.505594
3131.825507,-2442.679609,-9252.574275,-2068.457845
3131.825835,-2664.741391,-7698.141797,-612.876398
3131.826162,-2146.597232,-8512.368333,383.047749
3131.826490,148.041188,-11769.274478,689.485948
3131.826817,1554.432478,-11103.089130,1072.533697
3131.827145,1554.432478,-9918.759623,919.314598
3131.827473,2220.617826,-10658.965565,612.876398
3131.827800,2442.679609,-10214.842000,-459.657299
3131.828128,2072.576638,-9252.574275,-1149.143247
3131.828455,222.061783,-10362.883188,-612.876398
3131.828783,0.000000,-9622.677246,0.000000
3131.829110,222.061783,-8956.491898,-689.485948
3131.829438,-222.061783,-11843.295072,-383.047749
3131.829766,-740.205942,-11547.212695,-919.314598
3131.830093,-1480.411884,-8290.306550,-1455.581446
3131.830421,-1554.432478,-8956.491898,-229.828649
3131.830748,-296.082377,-8660.409521,1302.362347
3131.831076,0.000000,-6291.750507,1378.971896
3131.831403,296.082377,-8956.491898,1915.238745
3131.831731,2664.741391,-11399.171507,1685.410096
3131.832059,4589.276840,-10807.006753,0.000000
3131.832386,4071.132681,-10510.924376,-1378.971896
3131.832714,2294.638420,-11103.089130,0.000000
3131.833041,1110.308913,-9104.533087,-1302.362347
3131.833369,444.123565,-9474.636058,-2987.772442
3131.833696,-444.123565,-10658.965565,-2298.286494
3131.834024,-1924.535449,-7846.182985,-1149.143247
3131.834352,-2368.659014,-8660.409521,612.876398
3131.834679,-1554.432478,-10510.924376,1991.848295
3131.835007,0.000000,-8364.327145,842.705048
3131.835334,370.102971,-7179.997637,995.924147
3131.835662,1776.494261,-11177.109724,689.485948
3131.835990,3552.988522,-10807.006753,383.047749
3131.836317,3627.009116,-8956.491898,0.000000
3131.836645,1332.370696,-10732.986159,76.609550
3131.836972,0.000000,-10436.903782,-689.485948
3131.837300,0.000000,-9030.512492,-2757.943793
3131.837627,-1776.494261,-10066.800811,-1838.629195
3131.837955,-1776.494261,-10436.903782,-2068.457845
3131.838283,-1850.514855,-9326.594869,-459.657299
3131.838610,-1702.473667,-10066.800811,536.266849
3131.838938,-888.247130,-10510.924376,1225.752797
3131.839265,-296.082377,-8808.450710,995.924147
3131.839593,0.000000,-10140.821405,2221.676944
3131.839920,1406.391290,-9992.780217,1302.362347
3131.840248,1480.411884,-9178.553681,-689.485948
3131.840576,592.164754,-10362.883188,-995.924147
3131.840903,148.041188,-10807.006753,-612.876398
3131.841231,-592.164754,-8586.388927,-995.924147
3131.841558,-148.041188,-9696.697840,-1455.581446
3131.841886,444.123565,-11917.315666,-842.705048
3131.842213,-518.144159,-8956.491898,-306.438199
3131.842541,-1850.514855,-8068.244768,995.924147
3131.842869,-1110.308913,-9474.636058,1378.971896
3131.843196,222.061783,-7920.203579,995.924147
3131.843524,-518.144159,-7846.182985,1915.238745
3131.843851,148.041188,-10510.924376,1915.238745
3131.844179,2220.617826,-10658.965565,306.438199
3131.844506,2368.659014,-9844.739029,-842.705048
3131.844834,1628.453072,-10732.986159,-459.657299
3131.845162,444.123565,-10066.800811,-1915.238745
3131.845489,888.247130,-8882.471304,-3064.381992
3131.845817,0.000000,-10584.944971,-2451.505594
3131.846144,0.000000,-9844.739029,-1455.581446
3131.846472,666.185348,-8290.306550,-919.314598
3131.846799,222.061783,-10807.006753,1991.848295
3131.847127,-148.041188,-8882.471304,2528.115143
3131.847455,0.000000,-7476.080014,1455.581446
3131.847782,1406.391290,-9844.739029,842.705048
3131.848110,2516.700203,-10955.047942,536.266849
3131.848437,2442.679609,-10658.965565,-306.438199
3131.848765,2960.823768,-10955.047942,0.000000
3131.849093,1628.453072,-10807.006753,-1225.752797
3131.849420,888.247130,-8956.491898,-1225.752797
3131.849748,-1480.411884,-9548.656652,-1608.800546
3131.850075,-2368.659014,-11991.336260,-1532.190996
3131.850403,-2146.597232,-9104.533087,-2987.772442
3131.850730,-1850.514855,-8660.409521,-2451.505594
3131.851058,-1406.391290,-9252.574275,-612.876398
3131.851386,-1184.329507,-8216.285956,2298.286494
3131.851713,370.102971,-8734.430116,3370.820191
3131.852041,2812.782580,-11029.068536,2681.334243
3131.852368,3108.864956,-10214.842000,689.485948
3131.852696,2442.679609,-9844.739029,-229.828649
3131.853023,1554.432478,-10436.903782,0.000000
3131.853351,592.164754,-8956.491898,-229.828649
3131.853679,518.144159,-7105.977043,-766.095498
3131.854006,370.102971,-9918.759623,-1532.190996
3131.854334,0.000000,-10066.800811,-1149.143247
3131.854661,-740.205942,-9252.574275,-229.828649
3131.854989,-814.226536,-10140.821405,842.705048
3131.855316,-1480.411884,-8068.244768,459.657299
3131.855644,-2294.638420,-7031.956449,612.876398
3131.855972,-962.267725,-9622.677246,612.876398
3131.856299,740.205942,-10584.944971,306.438199
3131.856627,2072.576638,-10510.924376,919.314598
3131.856954,2516.700203,-12065.356855,766.095498
3131.857282,2368.659014,-11843.295072,-459.657299
3131.857609,1628.453072,-9252.574275,-1915.238745
3131.857937,1036.288319,-9622.677246,-1915.238745
3131.858265,814.226536,-9474.636058,-1608.800546
3131.858592,-370.102971,-7105.977043,-1915.238745
3131.858920,-2368.659014,-9770.718434,-766.095498
3131.859247,-2960.823768,-10362.883188,0.000000
3131.859575,-2368.659014,-7328.038826,-383.047749
3131.859902,-1702.473667,-9548.656652,689.485948
3131.860230,148.041188,-11843.295072,1072.533697
3131.860558,2294.638420,-11251.130318,0.000000
3131.860885,2368.659014,-10510.924376,229.828649
3131.861213,2368.659014,-11695.253884,-153.219100
3131.861540,1184.329507,-9622.677246,-612.876398
3131.861868,0.000000,-8364.327145,-1608.800546
3131.862196,-1184.329507,-9770.718434,-1149.143247
3131.862523,-814.226536,-9622.677246,-995.924147
3131.862851,-592.164754,-9474.636058,-383.047749
3131.863178,-370.102971,-10140.821405,76.609550
3131.863506,-888.247130,-7624.121203,689.485948
3131.863833,-1998.556043,-6661.853478,1225.752797
3131.864161,-1406.391290,-9548.656652,1608.800546
3131.864489,148.041188,-9030.512492,306.438199
3131.864816,1184.329507,-9252.574275,-306.438199
3131.865144,3701.029710,-12953.603985,459.657299
3131.865471,2294.638420,-12657.521608,1532.190996
3131.865799,888.247130,-9400.615463,459.657299
3131.866126,666.185348,-8808.450710,-2145.067394
3131.866454,222.061783,-9918.759623,-3600.648841
3131.866782,-1332.370696,-7846.182985,-2145.067394
3131.867109,-1776.494261,-8586.388927,-612.876398
3131.867437,-1776.494261,-9252.574275,612.876398
3131.867764,0.000000,-8290.306550,306.438199
3131.868092,222.061783,-9548.656652,306.438199
3131.868419,1184.329507,-11177.109724,1762.019645
3131.868747,1850.514855,-10362.883188,919.314598
3131.869075,2294.638420,-11325.150913,0.000000
3131.869402,2294.638420,-12509.480420,-612.876398
3131.869730,2294.638420,-9474.636058,-1991.848295
3131.870057,814.226536,-8142.265362,-995.924147
3131.870385,222.061783,-10732.986159,76.609550
3131.870712,518.144159,-10732.986159,-1532.190996
3131.871040,-296.082377,-10732.986159,-2298.286494
3131.871368,-1554.432478,-9770.718434,-1762.019645
3131.871695,-1110.308913,-7402.059420,-766.095498
3131.872023,-962.267725,-7994.224174,306.438199
3131.872350,666.185348,-10584.944971,1302.362347
3131.872678,2368.659014,-10436.903782,1685.410096
3131.873005,2738.761985,-8956.491898,1762.019645
3131.873333,2960.823768,-10881.027347,1225.752797
3131.873661,2368.659014,-11103.089130,1149.143247
3131.873988,1776.494261,-9104.533087,-153.219100
3131.874316,0.000000,-9696.697840,0.000000
3131.874643,74.020594,-9844.739029,-842.705048
3131.874971,0.000000,-8660.409521,-1608.800546
3131.875298,-1332.370696,-9770.718434,-689.485948
3131.875626,-1924.535449,-8882.471304,0.000000
3131.875954,-2590.720797,-6513.812290,0.000000
3131.876281,-2960.823768,-7772.162391,76.609550
3131.876609,-1406.391290,-10140.821405,459.657299
3131.876936,148.041188,-9474.636058,0.000000
3131.877264,1258.350101,-9918.759623,-536.266849
3131.877592,2368.659014,-12583.501014,1225.752797
3131.877919,2664.741391,-11473.192101,919.314598
3131.878247,2368.659014,-10510.924376,0.000000
3131.878574,1406.391290,-10362.883188,-1149.143247
3131.878902,444.123565,-9104.533087,-2374.896044
3131.879229,-1036.288319,-9844.739029,-1762.019645
3131.879557,-1184.329507,-9474.636058,-1072.533697
3131.879885,-1850.514855,-7476.080014,-689.485948
3131.880212,-2072.576638,-8142.265362,0.000000
3131.880540,0.000000,-11843.295072,612.876398
3131.880867,1332.370696,-11473.192101,459.657299
3131.881195,1776.494261,-9548.656652,153.219100
3131.881522,1628.453072,-10955.047942,536.266849
3131.881850,518.144159,-10436.903782,0.000000
3131.882178,296.082377,-8734.430116,-766.095498
3131.882505,518.144159,-9474.636058,-689.485948
3131.882833,962.267725,-10066.800811,-383.047749
3131.883160,1406.391290,-10955.047942,-229.828649
3131.883488,370.102971,-12435.459826,306.438199
3131.883815,1184.329507,-10214.842000,-919.314598
3131.884143,-74.020594,-6661.853478,-919.314598
3131.884471,-592.164754,-7476.080014,-689.485948
3131.884798,-518.144159,-9104.533087,229.828649
3131.885126,-814.226536,-7402.059420,995.924147
3131.885453,0.000000,-9252.574275,1685.410096
3131.885781,-222.061783,-11399.171507,842.705048
3131.886108,0.000000,-9178.553681,-536.266849
3131.886436,1406.391290,-10214.842000,-995.924147
3131.886764,2220.617826,-11177.109724,-1149.143247
3131.887091,1776.494261,-9992.780217,-1225.752797
3131.887419,444.123565,-10066.800811,-383.047749
3131.887746,-888.247130,-9030.512492,76.609550
3131.888074,-222.061783,-8142.265362,229.828649
3131.888401,-1110.308913,-7105.977043,0.000000
3131.888729,-1628.453072,-9474.636058,689.485948
3131.889057,-370.102971,-9474.636058,383.047749
3131.889384,444.123565,-9030.512492,-919.314598
3131.889712,0.000000,-11769.274478,-459.657299
3131.890039,740.205942,-10658.965565,-459.657299
3131.890367,518.144159,-9696.697840,-229.828649
3131.890695,740.205942,-11843.295072,-689.485948
3131.891022,518.144159,-11251.130318,-1302.362347
3131.891350,0.000000,-10214.842000,-689.485948
3131.891677,444.123565,-11251.130318,229.828649
3131.892005,592.164754,-10140.821405,383.047749
3131.892332,296.082377,-8290.306550,0.000000
3131.892660,148.041188,-9400.615463,-459.657299
3131.892988,0.000000,-8882.471304,-766.095498
3131.893315,74.020594,-7920.203579,-1302.362347
3131.893643,296.082377,-10066.800811,0.000000
3131.893970,1036.288319,-11621.233289,459.657299
3131.894298,814.226536,-8882.471304,0.000000
3131.894625,518.144159,-9474.636058,229.828649
3131.894953,1332.370696,-10732.986159,153.219100
3131.895281,1480.411884,-9104.533087,76.609550
3131.895608,592.164754,-9474.636058,229.828649
3131.895936,0.000000,-9992.780217,0.000000
3131.896263,-296.082377,-7920.203579,-766.095498
3131.896591,-296.082377,-8364.327145,-995.924147
3131.896918,-370.102971,-10214.842000,229.828649
3131.897246,0.000000,-8882.471304,-383.047749
3131.897574,296.082377,-9104.533087,-1378.971896
3131.897901,814.226536,-11177.109724,-536.266849
3131.898229,1998.556043,-9548.656652,-842.705048
3131.898556,1628.453072,-8068.244768,536.266849
3131.898884,1258.350101,-9992.780217,1455.581446
3131.899212,1776.494261,-9918.759623,919.314598
3131.899539,1406.391290,-10066.800811,459.657299
3131.899867,666.185348,-10955.047942,919.314598
3131.900194,518.144159,-9844.739029,1072.533697
3131.900522,-222.061783,-7772.162391,-536.266849
3131.900850,-1776.494261,-10510.924376,0.000000
3131.901177,-1110.308913,-10658.965565,-1838.629195
3131.901505,-518.144159,-8808.450710,-3217.601092
3131.901832,-2146.597232,-10140.821405,-1532.190996
3131.902160,-1850.514855,-10955.047942,-536.266849
3131.902487,-518.144159,-9252.574275,-1378.971896
3131.902815,296.082377,-9400.615463,-612.876398
3131.903143,1332.370696,-10658.965565,919.314598
3131.903470,2072.576638,-10436.903782,1225.752797
3131.903798,1776.494261,-9770.718434,1225.752797
3131.904125,1628.453072,-10288.862594,766.095498
3131.904453,518.144159,-7698.141797,-1302.362347
3131.904781,-296.082377,-8216.285956,-689.485948
3131.905108,-666.185348,-10214.842000,-153.219100
3131.905436,-296.082377,-9252.574275,-766.095498
3131.905763,-296.082377,-9844.739029,-612.876398
3131.906091,1036.288319,-11917.315666,383.047749
3131.906419,1184.329507,-10288.862594,-459.657299
3131.906746,518.144159,-7402.059420,0.000000
3131.907074,-296.082377,-9474.636058,766.095498
3131.907401,-518.144159,-8512.368333,842.705048
3131.907729,0.000000,-8586.388927,612.876398
3131.908056,444.123565,-10584.944971,383.047749
3131.908384,1998.556043,-10732.986159,-229.828649
3131.908712,888.247130,-9400.615463,536.266849
3131.909039,962.267725,-11473.192101,459.657299
3131.909367,1036.288319,-11325.150913,-1455.581446
3131.909694,0.000000,-8808.450710,-1991.848295
3131.910022,370.102971,-9844.739029,-1915.238745
3131.910350,0.000000,-8734.430116,-1685.410096
3131.910677,-1184.329507,-7328.038826,229.828649
3131.911005,-1258.350101,-9770.718434,1225.752797
3131.911332,-370.102971,-10140.821405,383.047749
3131.911660,814.226536,-8512.368333,-1302.362347
3131.911988,296.082377,-9844.739029,-229.828649
3131.912315,740.205942,-12139.377449,383.047749
3131.912643,1776.494261,-10066.800811,-766.095498
3131.912970,1332.370696,-9400.615463,-612.876398
3131.913298,1850.514855,-10955.047942,-612.876398
3131.913625,1702.473667,-10362.883188,0.000000
3131.913953,444.123565,-10881.027347,536.266849
3131.914281,-370.102971,-9696.697840,76.609550
3131.914608,-518.144159,-7105.977043,-1455.581446
3131.914936,-1110.308913,-7698.141797,-766.095498
3131.915263,-740.205942,-9622.677246,306.438199
3131.915591,74.020594,-9918.759623,0.000000
3131.915919,-518.144159,-9474.636058,306.438199
3131.916246,0.000000,-10658.965565,0.000000
3131.916574,222.061783,-10066.800811,153.219100
3131.916901,444.123565,-9104.533087,0.000000
3131.917229,740.205942,-10658.965565,612.876398
3131.917557,1332.370696,-10362.883188,459.657299
3131.917884,1184.329507,-10214.842000,-536.266849
3131.918212,74.020594,-10362.883188,-459.657299
3131.918539,-814.226536,-8142.265362,-766.095498
3131.918867,-1480.411884,-6735.874072,-612.876398
3131.919194,-592.164754,-9622.677246,-689.485948
3131.919522,-888.247130,-10881.027347,-536.266849
3131.919850,-1036.288319,-8364.327145,0.000000
3131.920177,-370.102971,-9326.594869,612.876398
3131.920505,0.000000,-10510.924376,383.047749
3131.920832,222.061783,-9474.636058,383.047749
3131.921160,0.000000,-10362.883188,459.657299
3131.921488,1702.473667,-11325.150913,-536.266849
3131.921815,2516.700203,-10584.944971,-1378.971896
3131.922143,1998.556043,-11843.295072,0.000000
3131.922470,518.144159,-11029.068536,0.000000
3131.922798,-370.102971,-7698.141797,-229.828649
3131.923126,-592.164754,-8438.347739,-1762.019645
3131.923453,-296.082377,-10510.924376,-1378.971896
3131.923781,0.000000,-8956.491898,-689.485948
3131.924108,0.000000,-8660.409521,1149.143247
3131.924436,222.061783,-9918.759623,2298.286494
3131.924763,1554.432478,-8660.409521,842.705048
3131.925091,1776.494261,-8290.306550,1225.752797
3131.925419,2368.659014,-10955.047942,459.657299
3131.925746,3034.844362,-10881.027347,0.000000
3131.926074,2368.659014,-10510.924376,0.000000
3131.926401,296.082377,-10881.027347,0.000000
3131.926729,-1110.308913,-8808.450710,-1225.752797
3131.927057,-2664.741391,-6735.874072,-2145.067394
3131.927384,-3552.988522,-8882.471304,-1378.971896
3131.927712,-2516.700203,-10140.821405,-2374.896044
3131.928039,-1628.453072,-8882.471304,-2221.676944
3131.928367,-888.247130,-9548.656652,-153.219100
3131.928695,370.102971,-10140.821405,1838.629195
3131.929022,2368.659014,-9918.759623,3370.820191
3131.929350,2368.659014,-10214.842000,2528.115143
3131.929677,3849.070898,-10436.903782,689.485948
3131.930005,3182.885551,-9548.656652,-766.095498
3131.930332,1998.556043,-11325.150913,-842.705048
3131.930660,592.164754,-10881.027347,-766.095498
3131.930988,-962.267725,-7846.182985,-766.095498
3131.931315,-2146.597232,-8438.347739,-1762.019645
3131.931643,-1332.370696,-11843.295072,-1762.019645
3131.931970,-148.041188,-10510.924376,-919.314598
3131.932298,0.000000,-8956.491898,-229.828649
3131.932626,0.000000,-10584.944971,1608.800546
3131.932953,444.123565,-9178.553681,2068.457845
3131.933281,0.000000,-7772.162391,1915.238745
3131.933608,1702.473667,-9326.594869,1532.190996
3131.933936,3404.947333,-10066.800811,153.219100
3131.934264,3775.050304,-11695.253884,612.876398
3131.934591,3182.885551,-11769.274478,0.000000
3131.934919,2368.659014,-8956.491898,-1378.971896
3131.935246,0.000000,-7179.997637,-2298.286494
3131.935574,-1702.473667,-9474.636058,-1915.238745
3131.935901,-1554.432478,-9326.594869,-2528.115143
3131.936229,-1258.350101,-7624.121203,-1378.971896
3131.936557,-1036.288319,-9178.553681,1149.143247
