#time,accel_x,accel_y,accel_z
2715.170255,814.226536,-10066.800811,0.000000
2715.170582,518.144159,-9918.759623,-306.438199
2715.170910,444.123565,-9844.739029,-229.828649
2715.171238,296.082377,-9844.739029,-383.047749
2715.171565,0.000000,-9548.656652,-459.657299
2715.171893,-296.082377,-9474.636058,-689.485948
2715.172220,0.000000,-10436.903782,-306.438199
2715.172548,0.000000,-9992.780217,-536.266849
2715.172876,148.041188,-10214.842000,-383.047749
2715.173203,444.123565,-10140.821405,-229.828649
2715.173531,592.164754,-9770.718434,459.657299
2715.173859,740.205942,-9474.636058,689.485948
2715.174186,814.226536,-9622.677246,306.438199
2715.174514,518.144159,-9400.615463,76.609550
2715.174842,296.082377,-9104.533087,153.219100
2715.175169,74.020594,-8882.471304,0.000000
2715.175497,-148.041188,-8956.491898,0.000000
2715.175825,148.041188,-9400.615463,-153.219100
2715.176152,296.082377,-9178.553681,229.828649
2715.176480,222.061783,-9844.739029,-229.828649
2715.176808,592.164754,-9548.656652,-306.438199
2715.177135,666.185348,-9622.677246,76.609550
2715.177463,814.226536,-9992.780217,306.438199
2715.177791,740.205942,-9474.636058,306.438199
2715.178118,666.185348,-9696.697840,383.047749
2715.178446,370.102971,-9252.574275,76.609550
2715.178773,592.164754,-9178.553681,-536.266849
2715.179101,296.082377,-9622.677246,-919.314598
2715.179429,0.000000,-9696.697840,-612.876398
2715.179756,0.000000,-9770.718434,-766.095498
2715.180084,0.000000,-9992.780217,-919.314598
2715.180412,444.123565,-10288.862594,-842.705048
2715.180739,592.164754,-9918.759623,0.000000
2715.181067,666.185348,-10066.800811,0.000000
2715.181395,814.226536,-10436.903782,-153.219100
2715.181722,444.123565,-9548.656652,0.000000
2715.182050,296.082377,-9844.739029,0.000000
2715.182378,74.020594,-9548.656652,-229.828649
2715.182705,0.000000,-9622.677246,-229.828649
2715.183033,74.020594,-10066.800811,-229.828649
2715.183361,0.000000,-9326.594869,-383.047749
2715.183688,74.020594,-9400.615463,-383.047749
2715.184016,1480.411884,-9844.739029,-153.219100
2715.184344,2664.741391,-9474.636058,0.000000
2715.184671,3701.029710,-9178.553681,0.000000
2715.184999,4811.338623,-9252.574275,0.000000
2715.185327,5033.400406,-9844.739029,306.438199
2715.185654,5847.626942,-9622.677246,0.000000
2715.185982,6143.709319,-8586.388927,0.000000
2715.186309,6439.791695,-9104.533087,-153.219100
2715.186637,7105.977043,-9622.677246,-306.438199
2715.186965,7254.018232,-10140.821405,0.000000
2715.187292,7550.100608,-9696.697840,153.219100
2715.187620,8438.347739,-9622.677246,766.095498
2715.187948,9548.656652,-9178.553681,-153.219100
2715.188275,9918.759623,-8364.327145,153.219100
2715.188603,10584.944971,-8808.450710,229.828649
2715.188931,11769.274478,-8956.491898,383.047749
2715.189258,12213.398043,-9474.636058,919.314598
2715.189586,11991.336260,-10288.862594,383.047749
2715.189914,11251.130318,-9622.677246,0.000000
2715.190241,11177.109724,-8808.450710,536.266849
2715.190569,11991.336260,-10140.821405,-536.266849
2715.190897,12953.603985,-10658.965565,-919.314598
2715.191224,13989.892304,-10732.986159,-306.438199
2715.191552,14285.974681,-10658.965565,842.705048
2715.191880,15248.242405,-9326.594869,766.095498
2715.192207,14508.036463,-8364.327145,153.219100
2715.192535,13471.748144,-9252.574275,1838.629195
2715.192862,11769.274478,-9918.759623,1455.581446
2715.193190,11251.130318,-10362.883188,383.047749
2715.193518,10214.842000,-10214.842000,0.000000
2715.193845,8956.491898,-10288.862594,536.266849
2715.194173,7254.018232,-9474.636058,1072.533697
2715.194501,5551.544565,-9252.574275,536.266849
2715.194828,5403.503377,-10288.862594,-459.657299
2715.195156,4367.215058,-9474.636058,-1378.971896
2715.195484,3256.906145,-8808.450710,-612.876398
2715.195811,2886.803174,-9474.636058,153.219100
2715.196139,1480.411884,-9400.615463,919.314598
2715.196467,1924.535449,-8216.285956,689.485948
2715.196794,3182.885551,-7328.038826,-612.876398
2715.197122,5181.441594,-10436.903782,153.219100
2715.197450,5255.462188,-11177.109724,842.705048
2715.197777,4737.318029,-11177.109724,1302.362347
2715.198105,2294.638420,-11325.150913,1225.752797
2715.198433,0.000000,-11251.130318,153.219100
2715.198760,-2442.679609,-9252.574275,-995.924147
2715.199088,-2664.741391,-8216.285956,-689.485948
2715.199416,-1998.556043,-8512.368333,-1072.533697
2715.199743,-370.102971,-9992.780217,-536.266849
2715.200071,-962.267725,-10066.800811,1072.533697
2715.200398,-2368.659014,-10214.842000,1302.362347
2715.200726,-4737.318029,-7920.203579,-536.266849
2715.201054,-5847.626942,-6809.894666,-2451.505594
2715.201381,-4737.318029,-7476.080014,-3753.867940
2715.201709,-1258.350101,-9474.636058,-3447.429741
2715.202037,1480.411884,-10881.027347,0.000000
2715.202364,2442.679609,-11991.336260,1915.238745
2715.202692,1924.535449,-11917.315666,1915.238745
2715.203020,0.000000,-10732.986159,0.000000
2715.203347,-1258.350101,-9992.780217,-1532.190996
2715.203675,-888.247130,-9844.739029,-2911.162892
2715.204003,-666.185348,-10955.047942,-2374.896044
2715.204330,-444.123565,-10214.842000,383.047749
2715.204658,444.123565,-7402.059420,1149.143247
2715.204986,-592.164754,-6069.688724,1991.848295
2715.205313,-2516.700203,-6957.935855,2068.457845
2715.205641,-1776.494261,-9178.553681,-383.047749
2715.205969,888.247130,-9104.533087,-2604.724693
2715.206296,1258.350101,-8882.471304,-3140.991542
2715.206624,3404.947333,-9622.677246,-995.924147
2715.206951,4219.173869,-9252.574275,1302.362347
2715.207279,3330.926739,-10066.800811,2451.505594
2715.207607,3478.967927,-11991.336260,1072.533697
2715.207934,2590.720797,-11843.295072,-2145.067394
2715.208262,2590.720797,-11695.253884,-2834.553343
2715.208590,1406.391290,-9178.553681,-2145.067394
2715.208917,814.226536,-7179.997637,383.047749
2715.209245,888.247130,-7550.100608,1378.971896
2715.209573,1628.453072,-9622.677246,1225.752797
2715.209900,3108.864956,-10066.800811,0.000000
2715.210228,3923.091493,-8734.430116,-612.876398
2715.210556,4737.318029,-8216.285956,-536.266849
2715.210883,3478.967927,-8512.368333,689.485948
2715.211211,2664.741391,-9770.718434,1225.752797
2715.211539,3256.906145,-12213.398043,995.924147
2715.211866,3034.844362,-13841.851115,-459.657299
2715.212194,2368.659014,-13101.645173,-1991.848295
2715.212522,2442.679609,-10584.944971,-2681.334243
2715.212849,814.226536,-10362.883188,-1072.533697
2715.213177,-2368.659014,-11473.192101,1072.533697
2715.213505,-2220.617826,-11399.171507,1532.190996
2715.213832,-740.205942,-9474.636058,0.000000
2715.214160,-222.061783,-7402.059420,-459.657299
2715.214487,-296.082377,-5921.647536,306.438199
2715.214815,-888.247130,-6957.935855,1532.190996
2715.215143,0.000000,-8438.347739,3064.381992
2715.215470,296.082377,-9474.636058,2374.896044
2715.215798,148.041188,-10362.883188,0.000000
2715.216126,-444.123565,-10436.903782,0.000000
2715.216453,-1332.370696,-9622.677246,-689.485948
2715.216781,-3256.906145,-10066.800811,-995.924147
2715.217109,-4885.359217,-12139.377449,-1072.533697
2715.217436,-4219.173869,-11843.295072,-1608.800546
2715.217764,-3478.967927,-9474.636058,-1991.848295
2715.218092,-2368.659014,-7476.080014,-459.657299
2715.218419,-1850.514855,-7031.956449,689.485948
2715.218747,-1776.494261,-7624.121203,1685.410096
2715.219075,-1554.432478,-8068.244768,1762.019645
2715.219402,-1480.411884,-7698.141797,306.438199
2715.219730,-962.267725,-7920.203579,-766.095498
2715.220058,222.061783,-7698.141797,-995.924147
2715.220385,222.061783,-9178.553681,-306.438199
2715.220713,0.000000,-11991.336260,-383.047749
2715.221040,-296.082377,-14211.954086,-919.314598
2715.221368,148.041188,-13471.748144,-2604.724693
2715.221696,370.102971,-11547.212695,-3600.648841
2715.222023,0.000000,-9696.697840,-2528.115143
2715.222351,-444.123565,-9030.512492,-459.657299
2715.222679,-222.061783,-9400.615463,459.657299
2715.223006,222.061783,-9918.759623,-383.047749
2715.223334,1480.411884,-9326.594869,-1225.752797
2715.223662,1776.494261,-7698.141797,-1225.752797
2715.223989,1702.473667,-7550.100608,-459.657299
2715.224317,2072.576638,-10288.862594,0.000000
2715.224645,2294.638420,-11473.192101,153.219100
2715.224972,3256.906145,-12805.562797,-1378.971896
2715.225300,3627.009116,-12139.377449,-1302.362347
2715.225628,4145.153275,-10066.800811,-689.485948
2715.225955,3404.947333,-10066.800811,0.000000
2715.226283,2516.700203,-11399.171507,919.314598
2715.226611,1406.391290,-10955.047942,1302.362347
2715.226938,1258.350101,-9400.615463,842.705048
2715.227266,1554.432478,-8586.388927,229.828649
2715.227594,1480.411884,-6883.915261,766.095498
2715.227921,666.185348,-5773.606348,995.924147
2715.228249,-370.102971,-7254.018232,1532.190996
2715.228576,962.267725,-10955.047942,1225.752797
2715.228904,1924.535449,-10436.903782,689.485948
2715.229232,2146.597232,-8068.244768,689.485948
2715.229559,1850.514855,-9252.574275,229.828649
2715.229887,1110.308913,-10066.800811,536.266849
2715.230215,518.144159,-10955.047942,612.876398
2715.230542,0.000000,-12139.377449,0.000000
2715.230870,-370.102971,-11621.233289,-306.438199
2715.231198,-592.164754,-8364.327145,-536.266849
2715.231525,-1184.329507,-7328.038826,-536.266849
2715.231853,-2072.576638,-7994.224174,76.609550
2715.232181,-2146.597232,-9326.594869,76.609550
2715.232508,-1554.432478,-9918.759623,0.000000
2715.232836,-666.185348,-9400.615463,-383.047749
2715.233164,74.020594,-7476.080014,-995.924147
2715.233492,0.000000,-7698.141797,-1149.143247
2715.233819,-518.144159,-10436.903782,0.000000
2715.234147,-222.061783,-12805.562797,-229.828649
2715.234475,0.000000,-13175.665768,-1685.410096
2715.234802,-296.082377,-11103.089130,-2757.943793
2715.235130,-444.123565,-10066.800811,-2681.334243
2715.235458,-1554.432478,-9992.780217,-1608.800546
2715.235786,-2664.741391,-10658.965565,-306.438199
2715.236113,-2146.597232,-10955.047942,-536.266849
2715.236441,-1332.370696,-10288.862594,-1991.848295
2715.236769,-962.267725,-8734.430116,-995.924147
2715.237097,-444.123565,-6513.812290,0.000000
2715.237424,-814.226536,-7031.956449,1225.752797
2715.237752,-962.267725,-9030.512492,1838.629195
2715.238080,-370.102971,-11177.109724,306.438199
2715.238408,0.000000,-10436.903782,-1838.629195
2715.238735,74.020594,-8956.491898,-766.095498
2715.239063,444.123565,-8586.388927,-1991.848295
2715.239391,-518.144159,-9844.739029,-1149.143247
2715.239718,-1184.329507,-12065.356855,229.828649
2715.240046,74.020594,-12213.398043,-306.438199
2715.240374,1924.535449,-9622.677246,-919.314598
2715.240702,2516.700203,-7920.203579,-306.438199
2715.241029,2590.720797,-7031.956449,612.876398
2715.241357,1998.556043,-7772.162391,1608.800546
2715.241685,1850.514855,-8734.430116,2451.505594
2715.242013,2590.720797,-9548.656652,1225.752797
2715.242340,3034.844362,-8956.491898,383.047749
2715.242668,2664.741391,-7550.100608,919.314598
2715.242996,2220.617826,-9252.574275,383.047749
2715.243323,1036.288319,-11843.295072,-459.657299
2715.243651,1036.288319,-13619.789333,-459.657299
2715.243979,1332.370696,-12805.562797,-1608.800546
2715.244307,1184.329507,-10436.903782,-1455.581446
2715.244634,1258.350101,-8438.347739,-1149.143247
2715.244962,222.061783,-7994.224174,-536.266849
2715.245290,0.000000,-9992.780217,383.047749
2715.245618,0.000000,-10362.883188,536.266849
2715.245945,814.226536,-9326.594869,-536.266849
2715.246273,1406.391290,-8216.285956,-229.828649
2715.246601,1554.432478,-7846.182985,0.000000
2715.246929,1184.329507,-9178.553681,306.438199
2715.247256,518.144159,-12139.377449,0.000000
2715.247584,592.164754,-13323.706956,0.000000
2715.247912,666.185348,-11547.212695,-689.485948
2715.248239,1258.350101,-9400.615463,-995.924147
2715.248567,1036.288319,-8882.471304,-459.657299
2715.248895,0.000000,-9622.677246,919.314598
2715.249223,-666.185348,-9844.739029,995.924147
2715.249550,-962.267725,-9844.739029,0.000000
2715.249878,-740.205942,-8290.306550,-612.876398
2715.250206,-518.144159,-6439.791695,-1608.800546
2715.250534,-1702.473667,-7105.977043,459.657299
2715.250861,-1998.556043,-9326.594869,1149.143247
2715.251189,-666.185348,-10807.006753,459.657299
2715.251517,-740.205942,-10881.027347,-229.828649
2715.251844,-592.164754,-9548.656652,0.000000
2715.252172,-592.164754,-8290.306550,0.000000
2715.252500,-2294.638420,-8290.306550,0.000000
2715.252828,-3256.906145,-10362.883188,-306.438199
2715.253155,-2294.638420,-11251.130318,-1991.848295
2715.253483,-2368.659014,-10807.006753,-2068.457845
2715.253811,-1184.329507,-9104.533087,-995.924147
2715.254139,-518.144159,-7402.059420,-153.219100
2715.254466,-814.226536,-8142.265362,76.609550
2715.254794,-1110.308913,-10732.986159,-536.266849
2715.255122,-518.144159,-10955.047942,-689.485948
2715.255450,370.102971,-9844.739029,-1378.971896
2715.255777,1258.350101,-8290.306550,-766.095498
2715.256105,1332.370696,-8068.244768,306.438199
2715.256433,1110.308913,-9770.718434,842.705048
2715.256760,1184.329507,-11621.233289,229.828649
2715.257088,518.144159,-11769.274478,-1225.752797
2715.257416,666.185348,-10584.944971,-1532.190996
2715.257744,1258.350101,-9252.574275,-1608.800546
2715.258071,888.247130,-8808.450710,-536.266849
2715.258399,444.123565,-10362.883188,766.095498
2715.258727,1554.432478,-11251.130318,919.314598
2715.259055,2146.597232,-10732.986159,536.266849
2715.259382,1850.514855,-8364.327145,459.657299
2715.259710,1554.432478,-7550.100608,229.828649
2715.260038,222.061783,-7846.182985,383.047749
2715.260365,0.000000,-9474.636058,76.609550
2715.260693,1110.308913,-11547.212695,0.000000
2715.261021,2072.576638,-11251.130318,0.000000
2715.261349,3182.885551,-8956.491898,-383.047749
2715.261676,2294.638420,-7846.182985,76.609550
2715.262004,740.205942,-8956.491898,383.047749
2715.262332,518.144159,-10881.027347,612.876398
2715.262660,740.205942,-11473.192101,0.000000
2715.262987,962.267725,-9992.780217,-306.438199
2715.263315,2220.617826,-8068.244768,-229.828649
2715.263643,1850.514855,-7328.038826,536.266849
2715.263971,444.123565,-7846.182985,1685.410096
2715.264298,814.226536,-10510.924376,766.095498
2715.264626,1110.308913,-11029.068536,-919.314598
2715.264954,814.226536,-9918.759623,-1225.752797
2715.265281,1406.391290,-8956.491898,-919.314598
2715.265609,1036.288319,-9548.656652,0.000000
2715.265937,0.000000,-10881.027347,1225.752797
2715.266265,-444.123565,-11843.295072,842.705048
2715.266592,-518.144159,-11843.295072,-766.095498
2715.266920,74.020594,-10658.965565,-1532.190996
2715.267248,222.061783,-7994.224174,-1378.971896
2715.267576,-1258.350101,-7698.141797,76.609550
2715.267903,-1924.535449,-9326.594869,919.314598
2715.268231,-740.205942,-10510.924376,229.828649
2715.268559,-222.061783,-10362.883188,-536.266849
2715.268886,0.000000,-9252.574275,-1225.752797
2715.269214,-148.041188,-8290.306550,-1378.971896
2715.269542,-1036.288319,-9178.553681,-459.657299
2715.269870,-1554.432478,-11251.130318,76.609550
2715.270197,-1628.453072,-12435.459826,-306.438199
2715.270525,-1258.350101,-11399.171507,-1072.533697
2715.270853,0.000000,-8808.450710,-1302.362347
2715.271181,1184.329507,-8660.409521,-1838.629195
2715.271508,-222.061783,-8586.388927,459.657299
2715.271836,-814.226536,-9844.739029,1302.362347
2715.272164,-740.205942,-10214.842000,0.000000
2715.272492,-592.164754,-9474.636058,-689.485948
2715.272819,0.000000,-7624.121203,-1455.581446
2715.273147,-518.144159,-7254.018232,-306.438199
2715.273475,-518.144159,-10066.800811,919.314598
2715.273802,518.144159,-11843.295072,459.657299
2715.274130,592.164754,-11769.274478,-229.828649
2715.274458,666.185348,-10584.944971,-306.438199
2715.274786,814.226536,-8290.306550,-766.095498
2715.275113,74.020594,-8068.244768,-842.705048
2715.275441,-888.247130,-9992.780217,0.000000
2715.275769,74.020594,-11843.295072,-1149.143247
2715.276097,814.226536,-10658.965565,-1225.752797
2715.276424,1776.494261,-8882.471304,-689.485948
2715.276752,2590.720797,-8216.285956,0.000000
2715.277080,2220.617826,-9474.636058,842.705048
2715.277408,1924.535449,-10807.006753,1225.752797
2715.277735,2368.659014,-12213.398043,306.438199
2715.278063,2516.700203,-10732.986159,0.000000
2715.278391,2442.679609,-8290.306550,383.047749
2715.278718,2146.597232,-6957.935855,689.485948
2715.279046,740.205942,-7846.182985,919.314598
2715.279374,296.082377,-10436.903782,383.047749
2715.279702,444.123565,-11473.192101,-536.266849
2715.280029,666.185348,-9104.533087,-1608.800546
2715.280357,592.164754,-7772.162391,-1762.019645
2715.280685,666.185348,-8808.450710,-689.485948
2715.281013,296.082377,-10066.800811,995.924147
2715.281340,1110.308913,-11103.089130,612.876398
2715.281668,1628.453072,-10955.047942,536.266849
2715.281996,1554.432478,-9474.636058,459.657299
2715.282323,2220.617826,-7994.224174,-306.438199
2715.282651,0.000000,-7550.100608,383.047749
2715.282979,-1258.350101,-9474.636058,229.828649
2715.283307,-814.226536,-11251.130318,-766.095498
2715.283634,-444.123565,-10881.027347,-1378.971896
2715.283962,0.000000,-9474.636058,-1378.971896
2715.284290,740.205942,-7994.224174,-689.485948
2715.284618,-592.164754,-8808.450710,-229.828649
2715.284945,-1184.329507,-11991.336260,459.657299
2715.285273,-1110.308913,-11917.315666,0.000000
2715.285601,-518.144159,-10510.924376,-919.314598
2715.285929,0.000000,-8290.306550,-1072.533697
2715.286256,74.020594,-7846.182985,-766.095498
2715.286584,-518.144159,-9474.636058,229.828649
2715.286912,-1110.308913,-10584.944971,0.000000
2715.287239,-814.226536,-11843.295072,-919.314598
2715.287567,-518.144159,-11029.068536,-1838.629195
2715.287895,-148.041188,-8882.471304,-1838.629195
2715.288223,148.041188,-7772.162391,-842.705048
2715.288550,-370.102971,-9548.656652,1149.143247
2715.288878,74.020594,-11251.130318,1838.629195
2715.289206,1184.329507,-10881.027347,995.924147
2715.289534,1258.350101,-9178.553681,0.000000
2715.289861,1110.308913,-7846.182985,-383.047749
2715.290189,0.000000,-7550.100608,0.000000
2715.290517,-1332.370696,-9326.594869,383.047749
2715.290844,-1332.370696,-11325.150913,0.000000
2715.291172,-370.102971,-11103.089130,-1302.362347
2715.291500,-296.082377,-9030.512492,-1762.019645
2715.291828,0.000000,-7772.162391,-1532.190996
2715.292155,-222.061783,-8438.347739,-306.438199
2715.292483,0.000000,-10510.924376,306.438199
2715.292811,518.144159,-11473.192101,612.876398
2715.293139,814.226536,-10140.821405,229.828649
2715.293466,2516.700203,-7772.162391,76.609550
2715.293794,2812.782580,-7846.182985,-766.095498
2715.294122,1184.329507,-8660.409521,2145.067394
2715.294450,666.185348,-10807.006753,1225.752797
2715.294777,1036.288319,-11695.253884,-459.657299
2715.295105,1480.411884,-11177.109724,-1455.581446
2715.295433,1998.556043,-9622.677246,-1378.971896
2715.295760,1184.329507,-8586.388927,-383.047749
2715.296088,222.061783,-9844.739029,383.047749
2715.296416,592.164754,-11251.130318,229.828649
2715.296744,1406.391290,-11399.171507,-1072.533697
2715.297071,1184.329507,-9400.615463,-689.485948
2715.297399,1258.350101,-7624.121203,-229.828649
2715.297727,1110.308913,-7846.182985,-153.219100
2715.298055,148.041188,-10140.821405,612.876398
2715.298382,1036.288319,-11843.295072,76.609550
2715.298710,1110.308913,-11917.315666,-995.924147
2715.299038,1184.329507,-9696.697840,-1149.143247
2715.299365,1110.308913,-8586.388927,-306.438199
2715.299693,0.000000,-9474.636058,0.000000
2715.300021,-666.185348,-11029.068536,459.657299
2715.300349,0.000000,-11769.274478,0.000000
2715.300676,296.082377,-10510.924376,-689.485948
2715.301004,1036.288319,-9030.512492,-766.095498
2715.301332,1406.391290,-7402.059420,0.000000
2715.301660,0.000000,-7846.182985,842.705048
2715.301987,-666.185348,-10066.800811,1149.143247
2715.302315,-444.123565,-10436.903782,-153.219100
2715.302643,0.000000,-9474.636058,-1685.410096
2715.302971,888.247130,-8290.306550,-919.314598
2715.303298,296.082377,-8068.244768,0.000000
2715.303626,-962.267725,-9178.553681,1302.362347
2715.303954,-1184.329507,-11251.130318,1072.533697
2715.304281,-296.082377,-10955.047942,153.219100
2715.304609,-296.082377,-9178.553681,-995.924147
2715.304937,-222.061783,-8068.244768,-842.705048
2715.305265,-888.247130,-7994.224174,-1149.143247
2715.305592,-1702.473667,-8882.471304,0.000000
2715.305920,-1554.432478,-10881.027347,0.000000
2715.306248,-1184.329507,-10881.027347,-383.047749
2715.306576,-370.102971,-9178.553681,-995.924147
2715.306903,0.000000,-8216.285956,-1072.533697
2715.307231,-370.102971,-8882.471304,-766.095498
2715.307559,-666.185348,-11103.089130,383.047749
2715.307886,-222.061783,-12065.356855,76.609550
2715.308214,0.000000,-10584.944971,0.000000
2715.308542,1332.370696,-9252.574275,-995.924147
2715.308870,1406.391290,-8068.244768,-919.314598
2715.309197,222.061783,-9326.594869,229.828649
2715.309525,518.144159,-10881.027347,689.485948
2715.309853,1036.288319,-11177.109724,383.047749
2715.310181,1554.432478,-10288.862594,-995.924147
2715.310508,1554.432478,-9104.533087,0.000000
2715.310836,1036.288319,-8660.409521,306.438199
2715.311164,222.061783,-9326.594869,995.924147
2715.311492,-370.102971,-10362.883188,689.485948
2715.311819,-592.164754,-10214.842000,-383.047749
2715.312147,-740.205942,-9400.615463,-842.705048
2715.312475,-592.164754,-7550.100608,-1225.752797
2715.312802,-518.144159,-7550.100608,-1149.143247
2715.313130,0.000000,-9474.636058,153.219100
2715.313458,814.226536,-11103.089130,0.000000
2715.313786,1776.494261,-11251.130318,-919.314598
2715.314113,2442.679609,-9770.718434,-459.657299
2715.314441,2442.679609,-8660.409521,306.438199
2715.314769,1258.350101,-8660.409521,612.876398
2715.315097,1628.453072,-10362.883188,1072.533697
2715.315424,2146.597232,-11547.212695,536.266849
2715.315752,2072.576638,-10288.862594,0.000000
2715.316080,2146.597232,-8956.491898,-459.657299
2715.316407,1628.453072,-7698.141797,0.000000
2715.316735,-444.123565,-7624.121203,-383.047749
2715.317063,-1110.308913,-9844.739029,306.438199
2715.317391,-1258.350101,-11769.274478,-1149.143247
2715.317718,74.020594,-11399.171507,-2145.067394
2715.318046,1702.473667,-9696.697840,-1991.848295
2715.318374,1406.391290,-9474.636058,0.000000
2715.318702,370.102971,-10288.862594,1762.019645
2715.319029,0.000000,-11991.336260,1455.581446
2715.319357,0.000000,-11029.068536,-306.438199
2715.319685,-592.164754,-9622.677246,-2068.457845
2715.320013,-962.267725,-7254.018232,-1608.800546
2715.320340,-1480.411884,-6809.894666,-229.828649
2715.320668,-1924.535449,-9030.512492,1225.752797
2715.320996,-740.205942,-10955.047942,1072.533697
2715.321323,444.123565,-11325.150913,0.000000
2715.321651,518.144159,-9770.718434,-612.876398
2715.321979,666.185348,-7994.224174,-1072.533697
2715.322307,-666.185348,-8142.265362,-536.266849
2715.322634,-1332.370696,-10362.883188,689.485948
2715.322962,-518.144159,-11843.295072,919.314598
2715.323290,518.144159,-10955.047942,229.828649
2715.323618,814.226536,-8438.347739,0.000000
2715.323945,1480.411884,-8586.388927,-229.828649
2715.324273,-370.102971,-8956.491898,153.219100
2715.324601,-1184.329507,-10436.903782,0.000000
2715.324928,-1110.308913,-10955.047942,-766.095498
2715.325256,-222.061783,-9992.780217,-1149.143247
2715.325584,1184.329507,-8216.285956,-383.047749
2715.325912,1998.556043,-7994.224174,919.314598
2715.326239,1332.370696,-9548.656652,1838.629195
2715.326567,666.185348,-11029.068536,2068.457845
2715.326895,740.205942,-11473.192101,153.219100
2715.327223,-222.061783,-9622.677246,-1608.800546
2715.327550,-814.226536,-7698.141797,-1915.238745
2715.327878,-1480.411884,-7476.080014,-995.924147
2715.328206,-1702.473667,-9548.656652,153.219100
2715.328534,-1258.350101,-11177.109724,-229.828649
2715.328861,518.144159,-11695.253884,-766.095498
2715.329189,962.267725,-10066.800811,-1225.752797
2715.329517,1628.453072,-8586.388927,-459.657299
2715.329844,1110.308913,-8808.450710,76.609550
2715.330172,1184.329507,-10807.006753,612.876398
2715.330500,1332.370696,-11029.068536,612.876398
2715.330828,2294.638420,-10362.883188,306.438199
2715.331155,2442.679609,-9030.512492,0.000000
2715.331483,2368.659014,-8068.244768,536.266849
2715.331811,962.267725,-8734.430116,612.876398
2715.332139,-444.123565,-10288.862594,536.266849
2715.332466,0.000000,-11769.274478,-1072.533697
2715.332794,296.082377,-11177.109724,-2298.286494
2715.333122,1036.288319,-8734.430116,-1378.971896
2715.333449,1406.391290,-7994.224174,0.000000
2715.333777,814.226536,-9844.739029,1378.971896
2715.334105,74.020594,-10732.986159,1838.629195
2715.334433,222.061783,-10288.862594,459.657299
2715.334761,-222.061783,-8808.450710,-229.828649
2715.335088,148.041188,-7550.100608,-1455.581446
2715.335416,0.000000,-7920.203579,-612.876398
2715.335744,-740.205942,-9474.636058,459.657299
2715.336072,-666.185348,-10881.027347,229.828649
2715.336399,1110.308913,-11547.212695,-842.705048
2715.336727,1406.391290,-10510.924376,-1149.143247
2715.337055,1554.432478,-9030.512492,-459.657299
2715.337383,814.226536,-7772.162391,76.609550
2715.337710,0.000000,-10288.862594,995.924147
2715.338038,-370.102971,-11399.171507,1378.971896
2715.338366,444.123565,-10807.006753,-306.438199
2715.338694,814.226536,-8290.306550,-1072.533697
2715.339021,592.164754,-8068.244768,-919.314598
2715.339349,-888.247130,-8882.471304,-383.047749
2715.339677,-1258.350101,-10362.883188,153.219100
2715.340005,-1332.370696,-11473.192101,-995.924147
2715.340332,-148.041188,-11399.171507,-1685.410096
2715.340660,666.185348,-9178.553681,-1608.800546
2715.340988,1036.288319,-8734.430116,0.000000
2715.341316,0.000000,-9548.656652,1302.362347
2715.341643,-444.123565,-11547.212695,1378.971896
2715.341971,0.000000,-11325.150913,842.705048
2715.342299,296.082377,-9474.636058,-306.438199
2715.342627,222.061783,-7698.141797,-1149.143247
2715.342954,-444.123565,-7476.080014,0.000000
2715.343282,-1036.288319,-9030.512492,459.657299
2715.343610,-296.082377,-10807.006753,0.000000
2715.343938,0.000000,-11029.068536,-1072.533697
2715.344265,518.144159,-9252.574275,-766.095498
2715.344593,222.061783,-7328.038826,-1149.143247
2715.344921,518.144159,-8068.244768,76.609550
2715.345249,0.000000,-10436.903782,995.924147
2715.345576,370.102971,-11547.212695,1149.143247
2715.345904,1258.350101,-11177.109724,76.609550
2715.346232,1406.391290,-9252.574275,0.000000
2715.346560,1036.288319,-7328.038826,-689.485948
2715.346888,296.082377,-8956.491898,-459.657299
2715.347215,-740.205942,-10881.027347,-459.657299
2715.347543,74.020594,-11547.212695,-995.924147
2715.347871,814.226536,-11103.089130,-1915.238745
2715.348199,1554.432478,-9622.677246,-1149.143247
2715.348526,2072.576638,-8216.285956,306.438199
2715.348854,1184.329507,-9326.594869,1608.800546
2715.349182,666.185348,-10955.047942,1455.581446
2715.349510,666.185348,-10955.047942,-766.095498
2715.349837,740.205942,-9474.636058,-1838.629195
2715.350165,222.061783,-8216.285956,-1378.971896
2715.350493,0.000000,-8438.347739,-153.219100
2715.350821,-370.102971,-9696.697840,383.047749
2715.351148,222.061783,-10955.047942,-306.438199
2715.351476,1628.453072,-11547.212695,-612.876398
2715.351804,1776.494261,-10066.800811,-689.485948
2715.352132,1332.370696,-8290.306550,-689.485948
2715.352459,666.185348,-8216.285956,0.000000
2715.352787,0.000000,-9844.739029,383.047749
2715.353115,0.000000,-11473.192101,536.266849
2715.353443,740.205942,-10584.944971,1149.143247
2715.353770,1110.308913,-8660.409521,0.000000
2715.354098,1184.329507,-8068.244768,-842.705048
2715.354426,-296.082377,-9030.512492,0.000000
2715.354754,-1184.329507,-10066.800811,-229.828649
2715.355081,-370.102971,-11399.171507,-995.924147
2715.355409,444.123565,-10732.986159,-1072.533697
2715.355737,1480.411884,-8734.430116,-536.266849
2715.356065,1628.453072,-8142.265362,229.828649
2715.356392,592.164754,-9178.553681,2298.286494
2715.356720,296.082377,-10955.047942,1838.629195
2715.357048,222.061783,-10658.965565,306.438199
2715.357376,-444.123565,-9844.739029,-1149.143247
2715.357703,-888.247130,-7846.182985,-919.314598
2715.358031,-888.247130,-7550.100608,-383.047749
2715.358359,-1924.535449,-8808.450710,229.828649
2715.358687,-1776.494261,-10658.965565,0.000000
2715.359015,-1110.308913,-11621.233289,-1149.143247
2715.359342,-962.267725,-10214.842000,-1149.143247
2715.359670,0.000000,-8512.368333,-1149.143247
2715.359998,370.102971,-8586.388927,-766.095498
2715.360326,0.000000,-10066.800811,766.095498
2715.360653,222.061783,-11177.109724,1762.019645
2715.360981,1110.308913,-10807.006753,689.485948
2715.361309,1480.411884,-9770.718434,-689.485948
2715.361637,1406.391290,-8660.409521,-1225.752797
2715.361964,592.164754,-8808.450710,-689.485948
2715.362292,148.041188,-10362.883188,306.438199
2715.362620,888.247130,-11547.212695,306.438199
2715.362948,1480.411884,-10881.027347,-1225.752797
2715.363275,1480.411884,-9104.533087,-383.047749
2715.363603,1110.308913,-7402.059420,76.609550
2715.363931,222.061783,-8438.347739,766.095498
2715.364259,-370.102971,-10732.986159,1149.143247
2715.364586,-814.226536,-11621.233289,229.828649
2715.364914,-296.082377,-9474.636058,-995.924147
2715.365242,814.226536,-8586.388927,-1532.190996
2715.365570,518.144159,-8586.388927,-919.314598
2715.365897,-370.102971,-9400.615463,76.609550
2715.366225,0.000000,-10362.883188,76.609550
2715.366553,888.247130,-10955.047942,-766.095498
2715.366881,1258.350101,-9770.718434,-919.314598
2715.367208,444.123565,-7772.162391,153.219100
2715.367536,0.000000,-7179.997637,842.705048
2715.367864,0.000000,-8882.471304,766.095498
2715.368192,74.020594,-10732.986159,612.876398
2715.368519,592.164754,-11695.253884,0.000000
2715.368847,1628.453072,-9770.718434,-612.876398
2715.369175,1480.411884,-7994.224174,-1608.800546
2715.369503,296.082377,-9030.512492,-1378.971896
2715.369830,-148.041188,-10510.924376,-689.485948
2715.370158,740.205942,-11325.150913,-612.876398
2715.370486,1702.473667,-11029.068536,-1072.533697
2715.370814,2220.617826,-9844.739029,-612.876398
2715.371142,1850.514855,-9474.636058,383.047749
2715.371469,740.205942,-9474.636058,1225.752797
2715.371797,-296.082377,-10436.903782,1149.143247
2715.372125,-296.082377,-11029.068536,-919.314598
2715.372453,222.061783,-9992.780217,-1532.190996
2715.372780,222.061783,-8512.368333,-1149.143247
2715.373108,444.123565,-7846.182985,-383.047749
2715.373436,444.123565,-8956.491898,306.438199
2715.373764,370.102971,-11325.150913,995.924147
2715.374091,148.041188,-12139.377449,76.609550
2715.374419,-518.144159,-10214.842000,-919.314598
2715.374747,-518.144159,-8290.306550,-1455.581446
2715.375075,-1184.329507,-8290.306550,-995.924147
2715.375402,-1554.432478,-9474.636058,0.000000
2715.375730,-1184.329507,-10436.903782,689.485948
2715.376058,-296.082377,-10214.842000,689.485948
2715.376386,148.041188,-9030.512492,-306.438199
2715.376713,814.226536,-7550.100608,76.609550
2715.377041,370.102971,-7624.121203,-536.266849
2715.377369,0.000000,-9548.656652,229.828649
2715.377697,666.185348,-11325.150913,536.266849
2715.378024,1258.350101,-10955.047942,459.657299
2715.378352,1258.350101,-9178.553681,919.314598
2715.378680,1184.329507,-7624.121203,459.657299
2715.379008,444.123565,-8882.471304,0.000000
2715.379335,-814.226536,-11177.109724,689.485948
2715.379663,-814.226536,-11473.192101,-383.047749
2715.379991,-740.205942,-9918.759623,-1455.581446
2715.380319,-592.164754,-8660.409521,-1302.362347
2715.380646,-444.123565,-7920.203579,-1072.533697
2715.380974,-740.205942,-8734.430116,76.609550
2715.381302,0.000000,-11177.109724,536.266849
2715.381630,74.020594,-11621.233289,-536.266849
2715.381957,518.144159,-10362.883188,-995.924147
2715.382285,1258.350101,-8808.450710,-612.876398
2715.382613,1184.329507,-8586.388927,-306.438199
2715.382941,370.102971,-9992.780217,536.266849
2715.383269,222.061783,-11991.336260,536.266849
2715.383596,1258.350101,-12065.356855,-1455.581446
2715.383924,1554.432478,-9622.677246,-995.924147
2715.384252,1406.391290,-8586.388927,-612.876398
2715.384580,888.247130,-8882.471304,-306.438199
2715.384907,444.123565,-10066.800811,766.095498
2715.385235,666.185348,-11103.089130,689.485948
2715.385563,1110.308913,-10584.944971,-306.438199
2715.385891,740.205942,-9178.553681,-766.095498
2715.386218,148.041188,-7402.059420,153.219100
2715.386546,0.000000,-7698.141797,229.828649
2715.386874,-740.205942,-9992.780217,919.314598
2715.387202,-814.226536,-10955.047942,536.266849
2715.387529,-296.082377,-9770.718434,-612.876398
2715.387857,-444.123565,-7772.162391,-1378.971896
2715.388185,-370.102971,-7772.162391,-1991.848295
2715.388513,-518.144159,-8586.388927,76.609550
2715.388840,-296.082377,-10584.944971,76.609550
2715.389168,444.123565,-11473.192101,76.609550
2715.389496,1184.329507,-10288.862594,-229.828649
2715.389824,962.267725,-8660.409521,0.000000
2715.390151,518.144159,-8068.244768,0.000000
2715.390479,-296.082377,-8734.430116,229.828649
2715.390807,0.000000,-10881.027347,689.485948
2715.391135,370.102971,-10881.027347,-306.438199
2715.391462,962.267725,-9696.697840,-1225.752797
2715.391790,1110.308913,-8290.306550,-1302.362347
2715.392118,370.102971,-8956.491898,-689.485948
2715.392446,222.061783,-10881.027347,0.000000
2715.392773,592.164754,-11769.274478,0.000000
2715.393101,814.226536,-11843.295072,-306.438199
2715.393429,814.226536,-10436.903782,-383.047749
2715.393757,444.123565,-8660.409521,0.000000
2715.394084,-148.041188,-8512.368333,536.266849
2715.394412,-1036.288319,-10362.883188,153.219100
2715.394740,-888.247130,-11843.295072,-383.047749
2715.395068,-592.164754,-10955.047942,-306.438199
2715.395396,0.000000,-8660.409521,-1149.143247
2715.395723,0.000000,-7994.224174,-995.924147
2715.396051,-962.267725,-9178.553681,0.000000
2715.396379,-888.247130,-10510.924376,306.438199
2715.396707,0.000000,-10881.027347,153.219100
2715.397034,518.144159,-9474.636058,0.000000
2715.397362,666.185348,-7772.162391,306.438199
2715.397690,814.226536,-8142.265362,689.485948
2715.398018,592.164754,-8956.491898,1378.971896
2715.398345,518.144159,-10436.903782,1762.019645
2715.398673,814.226536,-10658.965565,76.609550
2715.399001,666.185348,-9474.636058,-995.924147
2715.399329,1332.370696,-7698.141797,-1608.800546
2715.399656,1184.329507,-7772.162391,-612.876398
2715.399984,592.164754,-10214.842000,1838.629195
2715.400312,666.185348,-11325.150913,1378.971896
2715.400640,1406.391290,-10881.027347,0.000000
2715.400967,1184.329507,-9770.718434,-919.314598
2715.401295,1110.308913,-8660.409521,-459.657299
2715.401623,666.185348,-8364.327145,0.000000
2715.401951,592.164754,-10066.800811,459.657299
2715.402278,148.041188,-11547.212695,0.000000
2715.402606,148.041188,-10658.965565,-1225.752797
2715.402934,518.144159,-9178.553681,-1915.238745
2715.403262,296.082377,-8512.368333,-1378.971896
2715.403589,296.082377,-9696.697840,-612.876398
2715.403917,1110.308913,-11325.150913,0.000000
2715.404245,1332.370696,-11695.253884,229.828649
2715.404573,1850.514855,-11251.130318,-459.657299
2715.404900,518.144159,-8956.491898,-306.438199
2715.405228,296.082377,-8216.285956,76.609550
2715.405556,-962.267725,-9030.512492,383.047749
2715.405884,-1480.411884,-10510.924376,0.000000
2715.406211,-1776.494261,-10288.862594,-919.314598
2715.406539,-666.185348,-9844.739029,-1302.362347
2715.406867,-962.267725,-8142.265362,-842.705048
2715.407195,296.082377,-7846.182985,-459.657299
2715.407523,74.020594,-10140.821405,536.266849
2715.407850,444.123565,-11991.336260,689.485948
2715.408178,1184.329507,-11399.171507,0.000000
2715.408506,1776.494261,-9326.594869,-306.438199
2715.408834,1406.391290,-7550.100608,0.000000
2715.409161,740.205942,-7772.162391,1225.752797
2715.409489,0.000000,-9400.615463,2068.457845
2715.409817,148.041188,-10288.862594,766.095498
2715.410145,296.082377,-10288.862594,-536.266849
2715.410472,0.000000,-8808.450710,-1072.533697
2715.410800,-592.164754,-7402.059420,0.000000
2715.411128,-1110.308913,-7698.141797,0.000000
2715.411456,-1628.453072,-9474.636058,0.000000
2715.411783,-1258.350101,-11621.233289,-612.876398
2715.412111,222.061783,-11251.130318,-1378.971896
2715.412439,962.267725,-9400.615463,-919.314598
2715.412767,962.267725,-8734.430116,229.828649
2715.413094,0.000000,-9622.677246,306.438199
2715.413422,-222.061783,-11621.233289,-229.828649
2715.413750,0.000000,-11251.130318,-1302.362347
2715.414078,666.185348,-9844.739029,-2068.457845
2715.414405,222.061783,-8660.409521,-1608.800546
2715.414733,444.123565,-8660.409521,-306.438199
2715.415061,518.144159,-10584.944971,842.705048
2715.415389,444.123565,-10732.986159,995.924147
2715.415716,666.185348,-11029.068536,0.000000
2715.416044,592.164754,-9400.615463,-229.828649
2715.416372,592.164754,-7772.162391,-1378.971896
2715.416700,0.000000,-8068.244768,-842.705048
2715.417027,-740.205942,-9918.759623,995.924147
2715.417355,-370.102971,-11103.089130,459.657299
2715.417683,370.102971,-11103.089130,-612.876398
2715.418011,666.185348,-9696.697840,-1378.971896
2715.418338,740.205942,-8808.450710,-1149.143247
2715.418666,0.000000,-8956.491898,-689.485948
2715.418994,-370.102971,-9918.759623,76.609550
2715.419322,370.102971,-10658.965565,0.000000
2715.419650,1110.308913,-9770.718434,0.000000
2715.419977,1332.370696,-7846.182985,76.609550
2715.420305,2072.576638,-7402.059420,1378.971896
2715.420633,1628.453072,-8290.306550,919.314598
2715.420961,1036.288319,-10436.903782,919.314598
2715.421288,740.205942,-12139.377449,0.000000
2715.421616,666.185348,-11547.212695,-1762.019645
2715.421944,444.123565,-9178.553681,-1991.848295
2715.422272,296.082377,-8808.450710,-1838.629195
2715.422599,-814.226536,-9696.697840,-842.705048
2715.422927,-370.102971,-11103.089130,459.657299
2715.423255,296.082377,-10362.883188,0.000000
2715.423583,814.226536,-9104.533087,-612.876398
2715.423910,296.082377,-7328.038826,-383.047749
2715.424238,0.000000,-7476.080014,229.828649
2715.424566,-592.164754,-9326.594869,1302.362347
2715.424894,222.061783,-10881.027347,1302.362347
2715.425221,962.267725,-11547.212695,-459.657299
2715.425549,666.185348,-9474.636058,-1072.533697
2715.425877,296.082377,-8586.388927,-995.924147
2715.426205,148.041188,-9400.615463,0.000000
2715.426532,222.061783,-10955.047942,229.828649
2715.426860,0.000000,-11103.089130,689.485948
2715.427188,0.000000,-10436.903782,-383.047749
2715.427516,74.020594,-7920.203579,-306.438199
2715.427843,814.226536,-7772.162391,-229.828649
2715.428171,0.000000,-8216.285956,536.266849
2715.428499,-666.185348,-10066.800811,1302.362347
2715.428827,-518.144159,-11251.130318,612.876398
2715.429154,370.102971,-9844.739029,-919.314598
2715.429482,666.185348,-8216.285956,-1762.019645
2715.429810,1332.370696,-8512.368333,-995.924147
2715.430138,0.000000,-9844.739029,459.657299
2715.430465,296.082377,-11325.150913,766.095498
2715.430793,1406.391290,-11399.171507,-306.438199
2715.431121,1998.556043,-10066.800811,-1149.143247
2715.431449,1924.535449,-7846.182985,-612.876398
2715.431777,666.185348,-7846.182985,1072.533697
2715.432104,-222.061783,-9770.718434,1149.143247
2715.432432,-592.164754,-11251.130318,612.876398
2715.432760,0.000000,-10584.944971,-1225.752797
2715.433088,-518.144159,-9178.553681,-1838.629195
2715.433415,-592.164754,-8364.327145,-1378.971896
2715.433743,-666.185348,-8438.347739,-306.438199
2715.434071,-444.123565,-9992.780217,229.828649
2715.434399,-222.061783,-11399.171507,383.047749
2715.434726,222.061783,-11177.109724,-612.876398
2715.435054,222.061783,-8956.491898,-536.266849
2715.435382,296.082377,-7994.224174,-766.095498
2715.435709,-370.102971,-8956.491898,0.000000
2715.436037,-740.205942,-10807.006753,306.438199
2715.436365,0.000000,-11769.274478,-383.047749
2715.436692,592.164754,-10140.821405,-842.705048
2715.437020,1332.370696,-8956.491898,-1455.581446
2715.437348,962.267725,-8586.388927,-459.657299
2715.437675,444.123565,-9252.574275,995.924147
2715.438003,74.020594,-10288.862594,1378.971896
2715.438331,666.185348,-10214.842000,0.000000
2715.438658,592.164754,-8882.471304,-1378.971896
2715.438986,666.185348,-8956.491898,-689.485948
2715.439314,222.061783,-7698.141797,-153.219100
2715.439641,-148.041188,-9474.636058,919.314598
2715.439969,-444.123565,-11325.150913,1072.533697
2715.440296,-296.082377,-11251.130318,-306.438199
2715.440624,-296.082377,-9474.636058,-1915.238745
2715.440952,0.000000,-7846.182985,-2451.505594
2715.441279,74.020594,-8364.327145,-2068.457845
2715.441607,-370.102971,-10214.842000,459.657299
2715.441935,444.123565,-11547.212695,919.314598
2715.442262,1184.329507,-10510.924376,0.000000
2715.442590,1184.329507,-9622.677246,-766.095498
2715.442918,518.144159,-7846.182985,-612.876398
2715.443245,-518.144159,-7846.182985,459.657299
2715.443573,-814.226536,-9770.718434,153.219100
2715.443901,-592.164754,-11399.171507,-919.314598
2715.444228,518.144159,-10732.986159,-1378.971896
2715.444556,1480.411884,-9474.636058,-1225.752797
2715.444883,1776.494261,-9104.533087,-229.828649
2715.445211,1554.432478,-10510.924376,1225.752797
2715.445539,1554.432478,-11103.089130,1072.533697
2715.445866,1184.329507,-11103.089130,-995.924147
2715.446194,888.247130,-9400.615463,-1149.143247
2715.446522,1332.370696,-8216.285956,-766.095498
2715.446849,666.185348,-7772.162391,612.876398
2715.447177,-148.041188,-9252.574275,1532.190996
2715.447505,0.000000,-11621.233289,459.657299
2715.447832,222.061783,-11103.089130,-1072.533697
2715.448160,296.082377,-9622.677246,-1762.019645
2715.448487,148.041188,-7772.162391,-995.924147
2715.448815,222.061783,-7994.224174,0.000000
2715.449143,0.000000,-9844.739029,1378.971896
2715.449470,148.041188,-11251.130318,1455.581446
2715.449798,888.247130,-9622.677246,612.876398
2715.450126,962.267725,-8216.285956,229.828649
2715.450453,592.164754,-7698.141797,612.876398
2715.450781,-666.185348,-8586.388927,229.828649
2715.451109,-444.123565,-10510.924376,229.828649
2715.451436,296.082377,-11843.295072,-766.095498
2715.451764,1406.391290,-11103.089130,-1532.190996
2715.452092,1702.473667,-9474.636058,-1302.362347
2715.452419,1332.370696,-7994.224174,153.219100
2715.452747,148.041188,-9030.512492,1072.533697
2715.453074,-222.061783,-10288.862594,919.314598
2715.453402,-444.123565,-10510.924376,0.000000
2715.453730,-370.102971,-9326.594869,-1149.143247
2715.454057,-814.226536,-7994.224174,-1225.752797
2715.454385,-1110.308913,-8142.265362,-842.705048
2715.454713,-1776.494261,-9770.718434,-766.095498
2715.455040,-740.205942,-11399.171507,-383.047749
2715.455368,-222.061783,-11103.089130,-1378.971896
2715.455696,296.082377,-10362.883188,-1532.190996
2715.456023,1184.329507,-9400.615463,-1455.581446
2715.456351,1184.329507,-9252.574275,-689.485948
2715.456678,518.144159,-10066.800811,842.705048
2715.457006,1110.308913,-11177.109724,995.924147
2715.457334,1406.391290,-10214.842000,0.000000
2715.457661,1258.350101,-8586.388927,-612.876398
2715.457989,370.102971,-7254.018232,-306.438199
2715.458317,-518.144159,-8216.285956,-229.828649
2715.458644,-1036.288319,-10732.986159,383.047749
2715.458972,-370.102971,-11103.089130,-612.876398
2715.459300,1036.288319,-10807.006753,-1378.971896
2715.459627,1258.350101,-10066.800811,-1838.629195
2715.459955,1258.350101,-8956.491898,-536.266849
2715.460283,666.185348,-9326.594869,383.047749
2715.460610,518.144159,-10140.821405,536.266849
2715.460938,740.205942,-10658.965565,76.609550
2715.461265,222.061783,-9548.656652,76.609550
2715.461593,0.000000,-7994.224174,229.828649
2715.461921,-222.061783,-7328.038826,383.047749
2715.462248,0.000000,-9400.615463,536.266849
2715.462576,-518.144159,-11177.109724,536.266849
2715.462904,-296.082377,-10955.047942,-612.876398
2715.463231,0.000000,-9548.656652,-1225.752797
2715.463559,0.000000,-7698.141797,-1302.362347
2715.463887,296.082377,-7624.121203,-612.876398
2715.464214,444.123565,-9622.677246,689.485948
2715.464542,1110.308913,-11769.274478,766.095498
2715.464869,1406.391290,-11325.150913,0.000000
2715.465197,666.185348,-9770.718434,-536.266849
2715.465525,444.123565,-8882.471304,-766.095498
2715.465852,222.061783,-9400.615463,-383.047749
2715.466180,-518.144159,-10732.986159,0.000000
2715.466508,0.000000,-11399.171507,-919.314598
2715.466835,814.226536,-10807.006753,-2068.457845
2715.467163,1406.391290,-9474.636058,-1072.533697
2715.467491,1480.411884,-8808.450710,0.000000
2715.467818,1258.350101,-9474.636058,995.924147
2715.468146,1850.514855,-11695.253884,995.924147
2715.468474,1480.411884,-10436.903782,0.000000
2715.468801,1480.411884,-10584.944971,-689.485948
2715.469129,740.205942,-9252.574275,-995.924147
2715.469456,-740.205942,-8216.285956,-383.047749
2715.469784,-1924.535449,-9622.677246,229.828649
2715.470112,-2072.576638,-11325.150913,0.000000
2715.470439,-1924.535449,-10658.965565,-1455.581446
2715.470767,-888.247130,-8808.450710,-1532.190996
2715.471095,-518.144159,-7179.997637,-2451.505594
2715.471422,-592.164754,-7105.977043,229.828649
2715.471750,-370.102971,-9252.574275,1762.019645
2715.472078,444.123565,-10214.842000,2068.457845
2715.472405,1110.308913,-9696.697840,1072.533697
2715.472733,1110.308913,-8734.430116,153.219100
2715.473061,666.185348,-7328.038826,229.828649
2715.473388,222.061783,-8586.388927,612.876398
2715.473716,-666.185348,-9918.759623,306.438199
2715.474043,-444.123565,-11843.295072,-153.219100
2715.474371,148.041188,-11917.315666,-995.924147
2715.474699,666.185348,-9770.718434,-1838.629195
2715.475026,666.185348,-7624.121203,-1532.190996
2715.475354,0.000000,-9326.594869,76.609550
2715.475682,222.061783,-10214.842000,995.924147
2715.476009,148.041188,-9918.759623,766.095498
2715.476337,1036.288319,-9400.615463,-383.047749
2715.476665,1184.329507,-9030.512492,-919.314598
2715.476992,962.267725,-9030.512492,-459.657299
2715.477320,0.000000,-9770.718434,229.828649
2715.477647,0.000000,-11177.109724,0.000000
2715.477975,814.226536,-11991.336260,-1838.629195
2715.478303,740.205942,-10955.047942,-2374.896044
2715.478630,1036.288319,-8956.491898,-1532.190996
2715.478958,1332.370696,-8734.430116,-459.657299
2715.479286,962.267725,-10140.821405,612.876398
2715.479613,592.164754,-10807.006753,1149.143247
2715.479941,740.205942,-9844.739029,153.219100
2715.480269,814.226536,-8734.430116,-766.095498
2715.480596,-296.082377,-7994.224174,-689.485948
2715.480924,0.000000,-8216.285956,0.000000
2715.481252,-592.164754,-9622.677246,153.219100
2715.481579,-222.061783,-11473.192101,76.609550
2715.481907,296.082377,-11473.192101,0.000000
2715.482234,296.082377,-9326.594869,-842.705048
2715.482562,888.247130,-8142.265362,-612.876398
2715.482890,222.061783,-9030.512492,689.485948
2715.483217,-370.102971,-10140.821405,1302.362347
2715.483545,0.000000,-10584.944971,995.924147
2715.483873,592.164754,-9400.615463,153.219100
2715.484200,592.164754,-7772.162391,0.000000
2715.484528,888.247130,-8660.409521,76.609550
2715.484856,-592.164754,-9400.615463,612.876398
2715.485183,-592.164754,-10807.006753,766.095498
2715.485511,-666.185348,-10288.862594,-536.266849
2715.485838,0.000000,-9474.636058,-1532.190996
2715.486166,148.041188,-8660.409521,-995.924147
2715.486494,740.205942,-8586.388927,-383.047749
2715.486821,962.267725,-9474.636058,306.438199
2715.487149,888.247130,-11843.295072,689.485948
2715.487477,148.041188,-11399.171507,0.000000
2715.487804,-740.205942,-8808.450710,-995.924147
2715.488132,-370.102971,-7550.100608,-1838.629195
2715.488460,-592.164754,-8734.430116,-1762.019645
2715.488787,0.000000,-11177.109724,-229.828649
2715.489115,1110.308913,-12139.377449,0.000000
2715.489443,2294.638420,-11621.233289,-1072.533697
2715.489770,2072.576638,-9992.780217,-842.705048
2715.490098,1184.329507,-8734.430116,-766.095498
2715.490425,0.000000,-8660.409521,-153.219100
2715.490753,-740.205942,-9770.718434,383.047749
2715.491081,-74.020594,-10510.924376,0.000000
2715.491408,1110.308913,-9622.677246,-612.876398
2715.491736,1184.329507,-8438.347739,0.000000
2715.492064,666.185348,-8438.347739,919.314598
2715.492391,-444.123565,-9474.636058,1149.143247
2715.492719,-592.164754,-11029.068536,229.828649
2715.493047,-222.061783,-10807.006753,-1532.190996
2715.493374,444.123565,-9104.533087,-2068.457845
2715.493702,740.205942,-8142.265362,-459.657299
2715.494029,666.185348,-7846.182985,1072.533697
2715.494357,0.000000,-9252.574275,1915.238745
2715.494685,74.020594,-10658.965565,1072.533697
2715.495012,296.082377,-10807.006753,-689.485948
2715.495340,74.020594,-9474.636058,-1608.800546
2715.495668,222.061783,-7920.203579,-1608.800546
2715.495995,666.185348,-7994.224174,-536.266849
2715.496323,592.164754,-10066.800811,766.095498
2715.496651,666.185348,-11991.336260,1225.752797
2715.496978,1628.453072,-11547.212695,0.000000
2715.497306,2220.617826,-9770.718434,-995.924147
2715.497634,1776.494261,-9252.574275,-842.705048
2715.497961,740.205942,-9474.636058,229.828649
2715.498289,962.267725,-10140.821405,383.047749
2715.498616,888.247130,-11473.192101,0.000000
2715.498944,814.226536,-10436.903782,-383.047749
2715.499272,1184.329507,-9104.533087,-766.095498
2715.499599,962.267725,-8660.409521,-383.047749
2715.499927,0.000000,-9400.615463,689.485948
2715.500255,-962.267725,-10881.027347,1685.410096
2715.500582,-444.123565,-11325.150913,0.000000
2715.500910,-740.205942,-9400.615463,-995.924147
2715.501238,-1110.308913,-8068.244768,-1532.190996
2715.501565,-1332.370696,-8068.244768,-612.876398
2715.501893,-1480.411884,-9178.553681,459.657299
2715.502221,-518.144159,-10658.965565,612.876398
2715.502548,-222.061783,-10288.862594,842.705048
2715.502876,518.144159,-9474.636058,-766.095498
2715.503203,444.123565,-7772.162391,-229.828649
2715.503531,518.144159,-8068.244768,-306.438199
2715.503859,148.041188,-9770.718434,459.657299
2715.504186,666.185348,-11695.253884,459.657299
2715.504514,1924.535449,-10881.027347,-153.219100
2715.504842,2146.597232,-8882.471304,-459.657299
2715.505169,1554.432478,-7846.182985,0.000000
2715.505497,74.020594,-8290.306550,689.485948
2715.505825,-444.123565,-9918.759623,995.924147
2715.506152,74.020594,-11103.089130,-306.438199
2715.506480,370.102971,-10140.821405,-1532.190996
2715.506807,814.226536,-9474.636058,-1608.800546
2715.507135,222.061783,-8956.491898,0.000000
2715.507463,0.000000,-9548.656652,1302.362347
2715.507790,-370.102971,-10881.027347,842.705048
2715.508118,-518.144159,-11399.171507,-689.485948
2715.508446,-148.041188,-10288.862594,-1378.971896
2715.508773,222.061783,-8956.491898,-1225.752797
2715.509101,222.061783,-8808.450710,0.000000
2715.509429,-296.082377,-9622.677246,1225.752797
2715.509756,-148.041188,-10732.986159,229.828649
2715.510084,0.000000,-9918.759623,-536.266849
2715.510412,222.061783,-8956.491898,-1149.143247
2715.510739,148.041188,-8586.388927,-1302.362347
2715.511067,0.000000,-8438.347739,-459.657299
2715.511394,0.000000,-9992.780217,153.219100
2715.511722,370.102971,-11843.295072,306.438199
2715.512050,666.185348,-11177.109724,-383.047749
2715.512377,1258.350101,-9400.615463,-1149.143247
2715.512705,1406.391290,-8882.471304,-995.924147
2715.513033,518.144159,-8512.368333,306.438199
2715.513360,0.000000,-10066.800811,1378.971896
2715.513688,0.000000,-10436.903782,842.705048
2715.514016,148.041188,-9622.677246,-306.438199
2715.514343,666.185348,-8586.388927,-1072.533697
2715.514671,-592.164754,-7920.203579,0.000000
2715.514998,0.000000,-9252.574275,689.485948
2715.515326,0.000000,-11177.109724,306.438199
2715.515654,370.102971,-11621.233289,-153.219100
2715.515981,444.123565,-10140.821405,-1225.752797
2715.516309,0.000000,-8734.430116,-919.314598
2715.516637,0.000000,-8068.244768,-306.438199
2715.516964,-222.061783,-8660.409521,229.828649
2715.517292,-296.082377,-9992.780217,306.438199
2715.517620,-666.185348,-10066.800811,-766.095498
2715.517947,-370.102971,-9326.594869,-1225.752797
2715.518275,-444.123565,-7846.182985,-1149.143247
2715.518603,0.000000,-8586.388927,-842.705048
2715.518930,888.247130,-10658.965565,-229.828649
2715.519258,1776.494261,-12879.583391,-383.047749
2715.519585,2146.597232,-11399.171507,459.657299
2715.519913,2220.617826,-9474.636058,-153.219100
2715.520241,1258.350101,-8660.409521,0.000000
2715.520568,0.000000,-8956.491898,459.657299
2715.520896,-370.102971,-9770.718434,919.314598
2715.521224,0.000000,-10584.944971,-306.438199
2715.521551,518.144159,-10214.842000,-536.266849
2715.521879,592.164754,-9178.553681,-766.095498
2715.522207,0.000000,-8808.450710,-153.219100
2715.522534,-666.185348,-9548.656652,536.266849
2715.522862,-592.164754,-11177.109724,0.000000
2715.523189,0.000000,-11103.089130,-919.314598
2715.523517,814.226536,-9400.615463,-995.924147
2715.523845,1110.308913,-9326.594869,-459.657299
2715.524172,444.123565,-8216.285956,842.705048
2715.524500,370.102971,-8956.491898,1302.362347
2715.524828,1184.329507,-10288.862594,459.657299
2715.525155,592.164754,-10658.965565,-153.219100
2715.525483,518.144159,-9400.615463,-919.314598
2715.525811,666.185348,-8142.265362,-1072.533697
2715.526138,148.041188,-8068.244768,-306.438199
2715.526466,222.061783,-10288.862594,0.000000
2715.526794,370.102971,-11769.274478,536.266849
2715.527121,888.247130,-11103.089130,76.609550
2715.527449,1702.473667,-9918.759623,-689.485948
2715.527776,1258.350101,-8808.450710,-766.095498
2715.528104,222.061783,-8512.368333,0.000000
2715.528432,-1110.308913,-9696.697840,995.924147
2715.528759,-592.164754,-10140.821405,612.876398
2715.529087,222.061783,-10510.924376,-842.705048
2715.529415,444.123565,-9474.636058,-1455.581446
2715.529742,-518.144159,-8660.409521,-612.876398
2715.530070,-888.247130,-9622.677246,459.657299
2715.530398,-740.205942,-10955.047942,459.657299
2715.530725,0.000000,-11695.253884,-612.876398
2715.531053,74.020594,-10288.862594,-1915.238745
2715.531381,370.102971,-9030.512492,-919.314598
2715.531708,74.020594,-8290.306550,459.657299
2715.532036,0.000000,-8882.471304,995.924147
2715.532363,-296.082377,-10658.965565,919.314598
2715.532691,74.020594,-10732.986159,-689.485948
2715.533019,148.041188,-9400.615463,-1455.581446
2715.533346,0.000000,-8142.265362,-995.924147
2715.533674,-1036.288319,-8216.285956,-536.266849
2715.534002,-1184.329507,-9474.636058,0.000000
2715.534329,-518.144159,-11621.233289,-306.438199
2715.534657,370.102971,-11473.192101,-842.705048
2715.534985,1480.411884,-9548.656652,-1378.971896
2715.535312,1776.494261,-8438.347739,-229.828649
2715.535640,1258.350101,-8956.491898,1225.752797
2715.535967,74.020594,-9770.718434,1685.410096
2715.536295,74.020594,-10362.883188,536.266849
2715.536623,740.205942,-10066.800811,-1302.362347
2715.536950,740.205942,-9252.574275,-1685.410096
2715.537278,0.000000,-8068.244768,-459.657299
2715.537605,-1036.288319,-8438.347739,1302.362347
2715.537933,-666.185348,-10955.047942,1532.190996
2715.538260,-296.082377,-11251.130318,76.609550
2715.538588,296.082377,-9992.780217,-842.705048
2715.538915,518.144159,-8956.491898,-919.314598
2715.539243,444.123565,-7994.224174,0.000000
2715.539570,370.102971,-8660.409521,919.314598
2715.539898,444.123565,-9770.718434,612.876398
2715.540225,592.164754,-10436.903782,0.000000
2715.540553,296.082377,-9474.636058,-459.657299
2715.540880,444.123565,-8808.450710,-919.314598
2715.541208,370.102971,-9252.574275,-1072.533697
2715.541535,222.061783,-10510.924376,-612.876398
2715.541863,1110.308913,-11547.212695,766.095498
2715.542190,1480.411884,-11399.171507,-76.609550
2715.542518,2220.617826,-9918.759623,0.000000
2715.542845,1924.535449,-8586.388927,-383.047749
2715.543173,888.247130,-8068.244768,459.657299
2715.543500,74.020594,-9474.636058,1302.362347
2715.543828,370.102971,-10436.903782,1149.143247
2715.544155,1036.288319,-10436.903782,0.000000
2715.544483,1184.329507,-9474.636058,-766.095498
2715.544810,222.061783,-8956.491898,-1072.533697
2715.545138,-666.185348,-9252.574275,0.000000
2715.545465,-296.082377,-11029.068536,153.219100
2715.545793,74.020594,-11399.171507,-689.485948
2715.546120,592.164754,-10658.965565,-842.705048
2715.546448,814.226536,-8586.388927,-536.266849
2715.546775,740.205942,-7698.141797,-536.266849
2715.547103,-222.061783,-7846.182985,1685.410096
2715.547430,-444.123565,-9474.636058,1149.143247
2715.547758,-962.267725,-10066.800811,0.000000
2715.548085,-1110.308913,-9622.677246,-1378.971896
2715.548413,-1184.329507,-8660.409521,-1915.238745
2715.548740,-888.247130,-8512.368333,-1149.143247
2715.549068,-370.102971,-9770.718434,0.000000
2715.549395,148.041188,-11621.233289,766.095498
2715.549723,222.061783,-11547.212695,-229.828649
2715.550050,1480.411884,-10066.800811,-995.924147
2715.550378,1924.535449,-8364.327145,-689.485948
2715.550705,814.226536,-8068.244768,0.000000
2715.551033,518.144159,-9548.656652,1378.971896
2715.551360,666.185348,-10955.047942,1302.362347
2715.551688,1258.350101,-10732.986159,0.000000
2715.552015,1110.308913,-9252.574275,-1378.971896
2715.552343,-222.061783,-8586.388927,-766.095498
2715.552670,-1406.391290,-9474.636058,153.219100
2715.552998,-888.247130,-11251.130318,536.266849
2715.553325,0.000000,-11473.192101,0.000000
2715.553653,592.164754,-10584.944971,-842.705048
2715.553980,370.102971,-8956.491898,-766.095498
2715.554308,0.000000,-7698.141797,-153.219100
2715.554635,-518.144159,-8438.347739,919.314598
2715.554963,-592.164754,-10140.821405,689.485948
2715.555290,-888.247130,-10362.883188,-459.657299
2715.555618,-518.144159,-9400.615463,-1532.190996
2715.555945,444.123565,-8512.368333,-995.924147
2715.556273,296.082377,-8660.409521,0.000000
2715.556600,370.102971,-10362.883188,612.876398
2715.556928,518.144159,-11473.192101,306.438199
2715.557255,1184.329507,-11399.171507,-689.485948
2715.557583,1258.350101,-9918.759623,-995.924147
2715.557910,888.247130,-7624.121203,-229.828649
2715.558238,518.144159,-7031.956449,536.266849
2715.558565,296.082377,-9104.533087,1532.190996
2715.558893,740.205942,-10658.965565,689.485948
2715.559220,1036.288319,-10955.047942,-383.047749
2715.559548,1628.453072,-9844.739029,-1532.190996
2715.559875,1110.308913,-9030.512492,-1072.533697
2715.560203,222.061783,-9696.697840,536.266849
2715.560530,296.082377,-11251.130318,689.485948
2715.560858,814.226536,-11177.109724,306.438199
2715.561185,1110.308913,-9992.780217,-1149.143247
2715.561513,1110.308913,-8808.450710,-612.876398
2715.561840,1036.288319,-8216.285956,306.438199
2715.562168,296.082377,-8660.409521,1302.362347
2715.562495,148.041188,-10066.800811,689.485948
2715.562823,740.205942,-10732.986159,-536.266849
2715.563150,148.041188,-9992.780217,-995.924147
2715.563478,0.000000,-7920.203579,-1225.752797
2715.563805,-444.123565,-7624.121203,-842.705048
2715.564133,-370.102971,-9696.697840,0.000000
2715.564460,0.000000,-11843.295072,306.438199
2715.564788,0.000000,-11177.109724,383.047749
2715.565115,592.164754,-8586.388927,-842.705048
2715.565443,740.205942,-7698.141797,-689.485948
2715.565770,444.123565,-8660.409521,383.047749
2715.566098,74.020594,-9326.594869,1302.362347
2715.566425,296.082377,-10214.842000,995.924147
2715.566753,592.164754,-10288.862594,76.609550
2715.567080,592.164754,-9474.636058,-1149.143247
2715.567408,0.000000,-8438.347739,-383.047749
2715.567735,-1110.308913,-9104.533087,383.047749
2715.568063,-1036.288319,-11029.068536,766.095498
2715.568390,-1036.288319,-11399.171507,0.000000
2715.568718,-222.061783,-10732.986159,-1302.362347
2715.569045,-296.082377,-8586.388927,-1455.581446
2715.569373,-148.041188,-8364.327145,-306.438199
2715.569700,-666.185348,-8808.450710,1378.971896
2715.570027,-666.185348,-9918.759623,229.828649
2715.570355,-1036.288319,-10658.965565,-1149.143247
2715.570682,-666.185348,-10066.800811,-1608.800546
2715.571010,-296.082377,-8956.491898,-1685.410096
2715.571337,296.082377,-9030.512492,-1149.143247
2715.571665,962.267725,-10362.883188,-383.047749
2715.571992,1628.453072,-11917.315666,383.047749
2715.572320,1998.556043,-12139.377449,306.438199
2715.572647,2590.720797,-10140.821405,-459.657299
2715.572975,2072.576638,-8808.450710,-536.266849
2715.573302,814.226536,-8068.244768,76.609550
2715.573630,-148.041188,-9326.594869,766.095498
2715.573957,-296.082377,-10881.027347,-229.828649
2715.574285,592.164754,-10584.944971,-766.095498
2715.574612,592.164754,-9474.636058,-1225.752797
2715.574940,-222.061783,-8142.265362,-306.438199
2715.575267,-444.123565,-8956.491898,612.876398
2715.575595,-370.102971,-10732.986159,536.266849
2715.575922,0.000000,-11177.109724,0.000000
2715.576250,444.123565,-9622.677246,-383.047749
2715.576577,370.102971,-7698.141797,0.000000
2715.576905,666.185348,-7402.059420,689.485948
2715.577232,-518.144159,-8216.285956,1072.533697
2715.577560,-740.205942,-9992.780217,1072.533697
2715.577887,0.000000,-11029.068536,0.000000
2715.578215,518.144159,-10140.821405,-1149.143247
2715.578542,370.102971,-9030.512492,-995.924147
2715.578870,0.000000,-8216.285956,-306.438199
2715.579197,1036.288319,-9400.615463,306.438199
2715.579525,1110.308913,-11103.089130,766.095498
2715.579852,1480.411884,-11547.212695,459.657299
2715.580180,2072.576638,-9548.656652,-306.438199
2715.580507,1924.535449,-8438.347739,0.000000
2715.580835,1036.288319,-8734.430116,459.657299
2715.581162,-444.123565,-9548.656652,536.266849
2715.581490,-1110.308913,-11029.068536,-612.876398
2715.581817,-592.164754,-10732.986159,-1762.019645
2715.582145,518.144159,-10066.800811,-2528.115143
2715.582472,370.102971,-9918.759623,-842.705048
2715.582800,222.061783,-10288.862594,1149.143247
2715.583127,74.020594,-11103.089130,1455.581446
2715.583455,1036.288319,-11695.253884,536.266849
2715.583782,518.144159,-9844.739029,-766.095498
2715.584110,592.164754,-8882.471304,-612.876398
2715.584437,-518.144159,-7846.182985,153.219100
2715.584765,-1406.391290,-7994.224174,536.266849
2715.585092,-1110.308913,-9474.636058,612.876398
2715.585420,-666.185348,-10584.944971,0.000000
2715.585747,-518.144159,-9474.636058,-612.876398
2715.586075,0.000000,-7846.182985,-919.314598
2715.586402,518.144159,-8660.409521,-766.095498
2715.586730,222.061783,-9622.677246,229.828649
2715.587057,814.226536,-10584.944971,919.314598
2715.587385,592.164754,-10288.862594,766.095498
2715.587712,1110.308913,-8956.491898,-612.876398
2715.588040,888.247130,-8142.265362,-612.876398
2715.588367,222.061783,-7994.224174,-383.047749
2715.588695,296.082377,-9252.574275,0.000000
2715.589022,370.102971,-10881.027347,306.438199
2715.589350,148.041188,-10584.944971,-536.266849
2715.589677,444.123565,-9844.739029,-1685.410096
2715.590005,148.041188,-9104.533087,-1225.752797
2715.590332,-518.144159,-8586.388927,-306.438199
2715.590660,-370.102971,-10140.821405,766.095498
2715.590987,592.164754,-11843.295072,536.266849
2715.591315,1184.329507,-10658.965565,0.000000
2715.591642,518.144159,-8956.491898,-1378.971896
2715.591970,-296.082377,-8734.430116,-1072.533697
2715.592297,-666.185348,-8882.471304,-1608.800546
2715.592625,-222.061783,-9844.739029,-612.876398
2715.592952,0.000000,-11251.130318,-1225.752797
2715.593280,814.226536,-10807.006753,-1072.533697
2715.593607,1406.391290,-9474.636058,-919.314598
2715.593935,1036.288319,-9030.512492,229.828649
2715.594262,444.123565,-9474.636058,1072.533697
2715.594590,814.226536,-11029.068536,229.828649
2715.594917,444.123565,-11251.130318,-306.438199
2715.595245,518.144159,-9326.594869,-919.314598
2715.595572,518.144159,-7624.121203,-919.314598
2715.595900,148.041188,-7920.203579,536.266849
2715.596227,222.061783,-9252.574275,1302.362347
2715.596555,592.164754,-10955.047942,536.266849
2715.596882,888.247130,-10214.842000,-842.705048
2715.597210,1554.432478,-9548.656652,-995.924147
2715.597537,888.247130,-8512.368333,-919.314598
2715.597865,592.164754,-8512.368333,536.266849
2715.598192,222.061783,-9696.697840,1838.629195
2715.598520,666.185348,-10658.965565,1225.752797
2715.598847,1332.370696,-9474.636058,0.000000
2715.599175,888.247130,-7846.182985,-689.485948
2715.599502,-296.082377,-7031.956449,229.828649
2715.599830,-1480.411884,-8512.368333,383.047749
2715.600157,-1480.411884,-9992.780217,536.266849
2715.600485,-370.102971,-11399.171507,-766.095498
2715.600812,296.082377,-10881.027347,-1685.410096
2715.601140,444.123565,-9770.718434,-1072.533697
2715.601467,518.144159,-9326.594869,0.000000
2715.601795,888.247130,-9992.780217,0.000000
2715.602122,0.000000,-10807.006753,-153.219100
2715.602450,-222.061783,-10955.047942,0.000000
2715.602777,444.123565,-9844.739029,-1072.533697
2715.603105,814.226536,-8734.430116,-766.095498
2715.603432,296.082377,-8438.347739,-306.438199
2715.603760,0.000000,-9844.739029,612.876398
2715.604087,-444.123565,-11029.068536,0.000000
2715.604415,444.123565,-10881.027347,-1302.362347
2715.604742,370.102971,-10140.821405,-1685.410096
2715.605070,148.041188,-9326.594869,-1378.971896
2715.605397,0.000000,-9104.533087,0.000000
2715.605725,148.041188,-10584.944971,919.314598
2715.606052,148.041188,-11695.253884,995.924147
2715.606380,444.123565,-10807.006753,-919.314598
2715.606707,222.061783,-8734.430116,-1608.800546
2715.607035,296.082377,-8438.347739,-1149.143247
2715.607362,-518.144159,-8438.347739,536.266849
2715.607690,-814.226536,-9548.656652,842.705048
2715.608017,0.000000,-10436.903782,76.609550
2715.608345,222.061783,-9696.697840,-689.485948
2715.608672,222.061783,-8142.265362,-919.314598
2715.609000,444.123565,-7179.997637,766.095498
2715.609327,148.041188,-8882.471304,842.705048
2715.609655,962.267725,-11399.171507,612.876398
2715.609982,1406.391290,-11621.233289,229.828649
2715.610310,1776.494261,-9992.780217,-766.095498
2715.610637,1332.370696,-8216.285956,-306.438199
2715.610964,814.226536,-7846.182985,306.438199
2715.611292,0.000000,-8660.409521,0.000000
2715.611619,-148.041188,-11029.068536,0.000000
2715.611947,74.020594,-10658.965565,-919.314598
2715.612274,518.144159,-9474.636058,-1762.019645
2715.612602,444.123565,-8512.368333,-1072.533697
2715.612929,148.041188,-9104.533087,459.657299
2715.613257,666.185348,-10955.047942,1225.752797
2715.613584,1776.494261,-11473.192101,536.266849
2715.613912,1258.350101,-11029.068536,0.000000
2715.614239,518.144159,-9326.594869,-689.485948
2715.614567,-666.185348,-7920.203579,-153.219100
2715.614894,-1258.350101,-8364.327145,0.000000
2715.615222,-1258.350101,-9992.780217,0.000000
2715.615549,-296.082377,-11399.171507,0.000000
2715.615877,74.020594,-10881.027347,-1149.143247
2715.616204,740.205942,-9474.636058,-995.924147
2715.616532,444.123565,-8364.327145,0.000000
2715.616859,-666.185348,-8660.409521,459.657299
2715.617187,-222.061783,-10732.986159,766.095498
2715.617514,518.144159,-10955.047942,0.000000
2715.617842,1702.473667,-9474.636058,-1225.752797
2715.618169,2146.597232,-8586.388927,0.000000
2715.618497,1406.391290,-8438.347739,1532.190996
2715.618824,370.102971,-9030.512492,1378.971896
2715.619152,74.020594,-10807.006753,306.438199
2715.619479,0.000000,-10955.047942,-1455.581446
2715.619807,370.102971,-9548.656652,-2221.676944
2715.620134,666.185348,-8068.244768,-1532.190996
2715.620462,0.000000,-8290.306550,919.314598
2715.620789,222.061783,-10066.800811,2221.676944
2715.621117,-518.144159,-11325.150913,1455.581446
2715.621444,-74.020594,-10214.842000,-842.705048
2715.621772,0.000000,-8808.450710,-2068.457845
2715.622099,-518.144159,-7846.182985,-1455.581446
2715.622427,-1110.308913,-8512.368333,0.000000
2715.622754,-1258.350101,-10140.821405,383.047749
2715.623082,-962.267725,-10510.924376,0.000000
2715.623409,222.061783,-11029.068536,-995.924147
2715.623737,444.123565,-9770.718434,-1378.971896
2715.624064,222.061783,-9030.512492,-1149.143247
2715.624392,0.000000,-9474.636058,-306.438199
2715.624719,370.102971,-11103.089130,842.705048
2715.625047,444.123565,-11843.295072,689.485948
2715.625374,888.247130,-9622.677246,-153.219100
2715.625702,814.226536,-8290.306550,-766.095498
2715.626029,444.123565,-8438.347739,76.609550
2715.626357,222.061783,-9622.677246,229.828649
2715.626684,518.144159,-10436.903782,0.000000
2715.627012,148.041188,-10510.924376,-306.438199
2715.627339,1036.288319,-9770.718434,-536.266849
2715.627667,444.123565,-8660.409521,0.000000
2715.627994,-370.102971,-8438.347739,229.828649
2715.628322,-666.185348,-10288.862594,383.047749
2715.628649,-296.082377,-11695.253884,0.000000
2715.628977,592.164754,-11029.068536,-1072.533697
2715.629304,1332.370696,-9030.512492,-689.485948
2715.629632,740.205942,-8068.244768,1149.143247
2715.629959,-296.082377,-7994.224174,1149.143247
2715.630287,0.000000,-10066.800811,842.705048
2715.630614,222.061783,-11029.068536,0.000000
2715.630942,518.144159,-10066.800811,-1302.362347
2715.631269,148.041188,-8956.491898,-919.314598
2715.631597,0.000000,-8290.306550,0.000000
2715.631924,148.041188,-7994.224174,1149.143247
2715.632252,666.185348,-10584.944971,612.876398
2715.632579,814.226536,-11843.295072,383.047749
2715.632907,1628.453072,-10658.965565,-689.485948
2715.633234,1702.473667,-8586.388927,-1302.362347
2715.633562,814.226536,-7994.224174,-842.705048
2715.633889,0.000000,-9178.553681,1225.752797
2715.634217,740.205942,-10510.924376,689.485948
2715.634544,962.267725,-10658.965565,-459.657299
2715.634872,2220.617826,-10732.986159,-1608.800546
2715.635199,1628.453072,-9696.697840,-919.314598
2715.635527,888.247130,-9474.636058,919.314598
2715.635854,148.041188,-10214.842000,1072.533697
2715.636182,0.000000,-11325.150913,612.876398
2715.636509,222.061783,-10214.842000,-995.924147
2715.636837,148.041188,-8660.409521,-919.314598
2715.637164,148.041188,-7772.162391,-612.876398
2715.637492,-222.061783,-8290.306550,842.705048
2715.637819,-592.164754,-9844.739029,689.485948
2715.638147,-370.102971,-11399.171507,0.000000
2715.638474,0.000000,-10807.006753,-1532.190996
2715.638802,592.164754,-9252.574275,-1991.848295
2715.639129,0.000000,-8438.347739,-766.095498
2715.639457,-148.041188,-9178.553681,536.266849
2715.639785,296.082377,-10362.883188,1149.143247
2715.640112,666.185348,-11547.212695,995.924147
2715.640440,962.267725,-10584.944971,0.000000
2715.640767,1406.391290,-8438.347739,-689.485948
2715.641095,888.247130,-7698.141797,306.438199
2715.641423,296.082377,-8512.368333,536.266849
2715.641750,-148.041188,-10066.800811,612.876398
2715.642078,148.041188,-10732.986159,0.000000
2715.642405,296.082377,-9770.718434,-919.314598
2715.642733,0.000000,-8512.368333,-842.705048
2715.643061,0.000000,-9696.697840,612.876398
2715.643388,-518.144159,-10584.944971,766.095498
2715.643716,-1184.329507,-10955.047942,383.047749
2715.644043,-1110.308913,-10140.821405,-383.047749
2715.644371,-222.061783,-8882.471304,-2068.457845
2715.644699,0.000000,-7994.224174,-1225.752797
2715.645026,-592.164754,-8586.388927,306.438199
2715.645354,0.000000,-9992.780217,0.000000
2715.645681,370.102971,-11695.253884,76.609550
2715.646009,1258.350101,-11251.130318,-229.828649
2715.646337,814.226536,-9252.574275,-1302.362347
2715.646664,222.061783,-8956.491898,0.000000
2715.646992,148.041188,-9918.759623,536.266849
2715.647319,370.102971,-11103.089130,536.266849
2715.647647,1110.308913,-10955.047942,-766.095498
2715.647975,1776.494261,-10288.862594,-229.828649
2715.648302,1776.494261,-9252.574275,-995.924147
2715.648630,740.205942,-8142.265362,-383.047749
2715.648957,0.000000,-8438.347739,-229.828649
2715.649285,-222.061783,-10214.842000,0.000000
2715.649613,0.000000,-10881.027347,-459.657299
2715.649940,518.144159,-9622.677246,-1225.752797
2715.650268,666.185348,-8586.388927,-536.266849
2715.650595,740.205942,-9474.636058,766.095498
2715.650923,666.185348,-10362.883188,1532.190996
2715.651251,370.102971,-10732.986159,1072.533697
2715.651578,370.102971,-10362.883188,-459.657299
2715.651906,518.144159,-8586.388927,-1532.190996
2715.652233,-370.102971,-7254.018232,-612.876398
2715.652561,-444.123565,-7772.162391,76.609550
2715.652889,148.041188,-9844.739029,766.095498
2715.653216,888.247130,-11399.171507,229.828649
2715.653544,1258.350101,-11399.171507,-459.657299
2715.653872,1036.288319,-9770.718434,-1072.533697
2715.654199,518.144159,-8956.491898,0.000000
2715.654527,148.041188,-8660.409521,459.657299
2715.654854,222.061783,-9992.780217,536.266849
2715.655182,444.123565,-11473.192101,459.657299
2715.655510,518.144159,-10362.883188,-229.828649
2715.655837,888.247130,-8808.450710,-612.876398
2715.656165,74.020594,-8438.347739,-306.438199
2715.656492,-518.144159,-8734.430116,383.047749
2715.656820,0.000000,-10140.821405,0.000000
2715.657148,740.205942,-11843.295072,-1532.190996
2715.657475,1702.473667,-11251.130318,-1149.143247
2715.657803,1776.494261,-9474.636058,-919.314598
2715.658130,1406.391290,-9104.533087,1302.362347
2715.658458,666.185348,-10066.800811,1991.848295
2715.658786,148.041188,-11177.109724,1225.752797
2715.659113,-740.205942,-9992.780217,-536.266849
2715.659441,-222.061783,-8808.450710,-1378.971896
2715.659768,-1184.329507,-8216.285956,-1225.752797
2715.660096,-1554.432478,-7772.162391,-306.438199
2715.660424,-1258.350101,-8512.368333,229.828649
2715.660751,-740.205942,-10807.006753,0.000000
2715.661079,296.082377,-11251.130318,-842.705048
2715.661406,444.123565,-8660.409521,-919.314598
2715.661734,1184.329507,-8586.388927,-153.219100
2715.662062,222.061783,-8734.430116,919.314598
2715.662389,74.020594,-10658.965565,1455.581446
2715.662717,-592.164754,-11399.171507,919.314598
2715.663044,370.102971,-10584.944971,-842.705048
2715.663372,444.123565,-8882.471304,-1991.848295
2715.663700,0.000000,-8142.265362,-1302.362347
2715.664027,0.000000,-9178.553681,76.609550
2715.664355,296.082377,-10732.986159,153.219100
2715.664682,444.123565,-10955.047942,-229.828649
2715.665010,814.226536,-10140.821405,-1302.362347
2715.665338,740.205942,-8808.450710,-995.924147
2715.665665,444.123565,-8882.471304,0.000000
2715.665993,444.123565,-9252.574275,766.095498
2715.666320,740.205942,-11177.109724,766.095498
2715.666648,1036.288319,-11547.212695,-612.876398
2715.666976,1110.308913,-9474.636058,-1225.752797
2715.667303,296.082377,-8438.347739,-1072.533697
2715.667631,-1036.288319,-9326.594869,-306.438199
2715.667958,-888.247130,-10214.842000,-536.266849
2715.668286,0.000000,-11325.150913,-1225.752797
2715.668614,592.164754,-11917.315666,-536.266849
2715.668941,1110.308913,-9770.718434,-459.657299
2715.669269,814.226536,-8142.265362,536.266849
2715.669596,592.164754,-8364.327145,1072.533697
2715.669924,666.185348,-10066.800811,536.266849
2715.670252,222.061783,-10807.006753,229.828649
2715.670579,740.205942,-9474.636058,0.000000
2715.670907,1406.391290,-7772.162391,-995.924147
2715.671234,888.247130,-7920.203579,0.000000
2715.671562,0.000000,-9030.512492,919.314598
2715.671890,0.000000,-10881.027347,612.876398
2715.672217,74.020594,-11621.233289,-689.485948
2715.672545,740.205942,-10214.842000,-1991.848295
2715.672872,296.082377,-8364.327145,-1225.752797
2715.673200,518.144159,-8068.244768,919.314598
2715.673528,296.082377,-8956.491898,1915.238745
2715.673855,1110.308913,-10881.027347,1225.752797
2715.674183,1110.308913,-10140.821405,229.828649
2715.674510,962.267725,-9030.512492,-1532.190996
2715.674838,-148.041188,-8290.306550,-1378.971896
2715.675166,-814.226536,-8956.491898,0.000000
2715.675493,-148.041188,-10066.800811,-536.266849
2715.675821,0.000000,-11843.295072,0.000000
2715.676148,0.000000,-12287.418637,-536.266849
2715.676476,0.000000,-10436.903782,-1302.362347
2715.676804,-1110.308913,-9104.533087,-536.266849
2715.677131,-1406.391290,-8956.491898,-459.657299
2715.677459,-888.247130,-10214.842000,-459.657299
2715.677787,-1110.308913,-12361.439231,536.266849
2715.678114,592.164754,-11399.171507,0.000000
2715.678442,1776.494261,-8660.409521,-689.485948
2715.678769,1110.308913,-8956.491898,0.000000
2715.679097,74.020594,-9474.636058,919.314598
2715.679425,0.000000,-10288.862594,766.095498
2715.679752,0.000000,-11103.089130,-536.266849
2715.680080,518.144159,-9918.759623,-1685.410096
2715.680407,962.267725,-8660.409521,-1072.533697
2715.680735,518.144159,-8512.368333,1225.752797
2715.681063,592.164754,-9548.656652,2451.505594
2715.681390,1036.288319,-10807.006753,1991.848295
2715.681718,666.185348,-10140.821405,153.219100
2715.682045,518.144159,-8438.347739,-1455.581446
2715.682373,-592.164754,-7105.977043,-1378.971896
2715.682701,-1184.329507,-6735.874072,536.266849
2715.683028,148.041188,-9400.615463,612.876398
2715.683356,592.164754,-11325.150913,153.219100
2715.683683,740.205942,-11251.130318,-459.657299
2715.684011,1036.288319,-9696.697840,-689.485948
2715.684339,888.247130,-8956.491898,-153.219100
2715.684666,296.082377,-8734.430116,-1302.362347
2715.684994,0.000000,-9696.697840,0.000000
2715.685321,222.061783,-11399.171507,0.000000
2715.685649,1480.411884,-11177.109724,-766.095498
2715.685977,1850.514855,-9696.697840,-1838.629195
2715.686304,1184.329507,-8808.450710,-459.657299
2715.686632,592.164754,-9474.636058,153.219100
2715.686959,370.102971,-11325.150913,-383.047749
2715.687287,740.205942,-11399.171507,-536.266849
2715.687615,1332.370696,-9992.780217,-2145.067394
2715.687942,1110.308913,-9252.574275,-1838.629195
2715.688270,370.102971,-9030.512492,0.000000
2715.688597,222.061783,-9622.677246,1225.752797
2715.688925,592.164754,-11473.192101,1762.019645
2715.689253,518.144159,-11547.212695,0.000000
2715.689580,444.123565,-9252.574275,-1532.190996
2715.689908,-962.267725,-7550.100608,-1225.752797
2715.690235,-1850.514855,-7772.162391,0.000000
2715.690563,-1628.453072,-8956.491898,383.047749
2715.690891,-888.247130,-11251.130318,306.438199
2715.691218,-296.082377,-11103.089130,0.000000
2715.691546,0.000000,-8808.450710,-229.828649
2715.691873,0.000000,-7772.162391,459.657299
2715.692201,148.041188,-7920.203579,919.314598
2715.692529,296.082377,-9622.677246,842.705048
2715.692856,740.205942,-10955.047942,536.266849
2715.693184,1480.411884,-10584.944971,0.000000
2715.693511,2072.576638,-9104.533087,-459.657299
2715.693839,740.205942,-7920.203579,306.438199
2715.694167,-370.102971,-8586.388927,689.485948
2715.694494,0.000000,-11103.089130,76.609550
2715.694822,666.185348,-12065.356855,-919.314598
2715.695149,1554.432478,-10807.006753,-2221.676944
2715.695477,1184.329507,-8808.450710,-919.314598
2715.695805,592.164754,-8660.409521,995.924147
2715.696132,0.000000,-9400.615463,1455.581446
2715.696460,-518.144159,-10658.965565,536.266849
2715.696787,-1184.329507,-10140.821405,-1149.143247
2715.697115,-1036.288319,-9178.553681,-2911.162892
2715.697443,-1036.288319,-9178.553681,-2374.896044
2715.697770,-888.247130,-9252.574275,-459.657299
2715.698098,-666.185348,-10658.965565,383.047749
2715.698425,444.123565,-11991.336260,0.000000
2715.698753,888.247130,-12065.356855,-919.314598
2715.699081,1184.329507,-9696.697840,-2068.457845
2715.699408,296.082377,-8290.306550,-766.095498
2715.699736,-296.082377,-7994.224174,766.095498
2715.700064,222.061783,-9622.677246,1225.752797
2715.700391,370.102971,-11251.130318,1225.752797
2715.700719,814.226536,-10214.842000,0.000000
2715.701046,1110.308913,-9326.594869,-1225.752797
2715.701374,592.164754,-8512.368333,-1149.143247
2715.701702,0.000000,-8956.491898,-229.828649
2715.702029,-222.061783,-9844.739029,536.266849
2715.702357,222.061783,-10732.986159,919.314598
2715.702684,1406.391290,-10436.903782,76.609550
2715.703012,1554.432478,-8512.368333,-153.219100
2715.703340,222.061783,-7920.203579,919.314598
2715.703667,-296.082377,-8956.491898,1685.410096
2715.703995,0.000000,-10732.986159,1072.533697
2715.704322,222.061783,-10955.047942,-459.657299
2715.704650,148.041188,-9178.553681,-1838.629195
2715.704978,148.041188,-7920.203579,-1608.800546
2715.705305,-222.061783,-8068.244768,229.828649
2715.705633,74.020594,-9918.759623,459.657299
2715.705960,592.164754,-11621.233289,153.219100
2715.706288,1110.308913,-11325.150913,-459.657299
2715.706616,1702.473667,-10140.821405,-995.924147
2715.706943,1036.288319,-8734.430116,-612.876398
2715.707271,0.000000,-8068.244768,0.000000
2715.707598,0.000000,-9622.677246,0.000000
2715.707926,0.000000,-11695.253884,0.000000
2715.708254,74.020594,-11473.192101,-1532.190996
2715.708581,518.144159,-9104.533087,-1991.848295
2715.708909,0.000000,-7920.203579,-1302.362347
2715.709236,-148.041188,-9474.636058,0.000000
2715.709564,148.041188,-11103.089130,153.219100
2715.709892,592.164754,-11325.150913,842.705048
2715.710219,1406.391290,-10881.027347,-1378.971896
2715.710547,1480.411884,-9178.553681,-1302.362347
2715.710874,518.144159,-8512.368333,689.485948
2715.711202,0.000000,-8734.430116,1915.238745
2715.711530,0.000000,-10362.883188,1455.581446
2715.711857,0.000000,-10436.903782,-459.657299
2715.712185,0.000000,-9474.636058,-1991.848295
2715.712512,-888.247130,-8142.265362,-1762.019645
2715.712840,-1480.411884,-7550.100608,229.828649
2715.713168,-740.205942,-8586.388927,306.438199
2715.713495,0.000000,-11177.109724,153.219100
2715.713823,1184.329507,-11473.192101,0.000000
2715.714150,1628.453072,-9326.594869,-536.266849
2715.714478,592.164754,-7476.080014,383.047749
2715.714806,222.061783,-8142.265362,1149.143247
2715.715133,-1036.288319,-9548.656652,689.485948
2715.715461,-962.267725,-10807.006753,306.438199
2715.715788,-148.041188,-10881.027347,-995.924147
2715.716116,1184.329507,-9918.759623,-1608.800546
2715.716444,1406.391290,-9104.533087,-612.876398
2715.716771,666.185348,-8586.388927,1149.143247
2715.717099,-296.082377,-10066.800811,1455.581446
2715.717426,740.205942,-11843.295072,229.828649
2715.717754,1332.370696,-10658.965565,-1378.971896
2715.718082,1110.308913,-9178.553681,-1455.581446
2715.718409,296.082377,-8068.244768,0.000000
2715.718737,0.000000,-8808.450710,1455.581446
2715.719064,0.000000,-11103.089130,2451.505594
2715.719392,-222.061783,-11769.274478,536.266849
2715.719720,-222.061783,-10288.862594,-2451.505594
2715.720047,-888.247130,-8660.409521,-2757.943793
2715.720375,-1258.350101,-8216.285956,-1532.190996
2715.720702,-888.247130,-9474.636058,76.609550
2715.721030,296.082377,-10214.842000,1072.533697
2715.721358,740.205942,-9844.739029,1225.752797
2715.721685,1480.411884,-9326.594869,-689.485948
2715.722013,1628.453072,-8586.388927,76.609550
2715.722341,592.164754,-8364.327145,1302.362347
2715.722668,-222.061783,-9696.697840,919.314598
2715.722996,-666.185348,-11399.171507,76.609550
2715.723323,-148.041188,-11103.089130,-1149.143247
2715.723651,666.185348,-9326.594869,-2528.115143
2715.723979,1036.288319,-8438.347739,-1838.629195
2715.724306,518.144159,-10066.800811,0.000000
2715.724634,148.041188,-11029.068536,919.314598
2715.724961,592.164754,-11251.130318,0.000000
2715.725289,962.267725,-10140.821405,-1149.143247
2715.725617,888.247130,-7920.203579,-995.924147
2715.725944,-296.082377,-7105.977043,229.828649
2715.726272,0.000000,-8290.306550,1149.143247
2715.726599,74.020594,-10510.924376,689.485948
2715.726927,222.061783,-11103.089130,-153.219100
2715.727255,518.144159,-9918.759623,-1378.971896
2715.727582,222.061783,-8808.450710,-1532.190996
2715.727910,0.000000,-8882.471304,-383.047749
2715.728237,-518.144159,-9474.636058,153.219100
2715.728565,740.205942,-11325.150913,-1149.143247
2715.728893,1776.494261,-11103.089130,-842.705048
2715.729220,1998.556043,-9844.739029,-76.609550
2715.729548,1332.370696,-8438.347739,842.705048
2715.729875,370.102971,-8364.327145,995.924147
2715.730203,-370.102971,-9474.636058,-229.828649
2715.730531,-740.205942,-11251.130318,0.000000
2715.730858,296.082377,-11547.212695,-1608.800546
2715.731186,1332.370696,-10140.821405,-2145.067394
2715.731513,592.164754,-8438.347739,-766.095498
2715.731841,74.020594,-8734.430116,536.266849
2715.732169,444.123565,-10510.924376,1072.533697
2715.732496,888.247130,-11103.089130,76.609550
2715.732824,1332.370696,-10807.006753,-1149.143247
2715.733151,1776.494261,-9400.615463,-995.924147
2715.733479,888.247130,-7920.203579,842.705048
2715.733807,0.000000,-8438.347739,1991.848295
2715.734134,-444.123565,-9992.780217,1762.019645
2715.734462,-444.123565,-10807.006753,0.000000
2715.734789,222.061783,-10140.821405,-2068.457845
2715.735117,0.000000,-8660.409521,-2145.067394
2715.735445,-1036.288319,-8660.409521,0.000000
2715.735772,-370.102971,-8808.450710,1838.629195
2715.736100,0.000000,-10436.903782,1378.971896
2715.736427,148.041188,-10732.986159,0.000000
2715.736755,370.102971,-9474.636058,-1455.581446
2715.737083,-592.164754,-7920.203579,-689.485948
2715.737410,-666.185348,-8142.265362,459.657299
2715.737737,-296.082377,-9548.656652,383.047749
2715.738065,0.000000,-11399.171507,536.266849
2715.738392,296.082377,-10955.047942,0.000000
2715.738720,1110.308913,-9474.636058,-1532.190996
2715.739047,888.247130,-8142.265362,-1455.581446
2715.739375,222.061783,-8068.244768,459.657299
2715.739702,-370.102971,-9696.697840,612.876398
2715.740030,74.020594,-11177.109724,459.657299
2715.740357,888.247130,-10807.006753,-612.876398
2715.740685,222.061783,-8882.471304,-1455.581446
2715.741012,-370.102971,-8956.491898,-536.266849
2715.741340,0.000000,-9696.697840,306.438199
2715.741667,962.267725,-11621.233289,383.047749
2715.741995,888.247130,-12139.377449,-459.657299
2715.742322,1110.308913,-11029.068536,-1302.362347
2715.742650,518.144159,-9178.553681,-1455.581446
2715.742977,222.061783,-8290.306550,-766.095498
2715.743305,-148.041188,-8438.347739,0.000000
2715.743632,-296.082377,-10140.821405,0.000000
2715.743960,74.020594,-10881.027347,-229.828649
2715.744287,888.247130,-9474.636058,-306.438199
2715.744615,666.185348,-8142.265362,-459.657299
2715.744942,0.000000,-8438.347739,1072.533697
2715.745270,0.000000,-9844.739029,689.485948
2715.745597,296.082377,-11399.171507,-766.095498
2715.745925,296.082377,-10955.047942,-1608.800546
2715.746252,222.061783,-9030.512492,-2145.067394
2715.746580,740.205942,-7624.121203,-919.314598
2715.746907,1110.308913,-8438.347739,842.705048
2715.747235,962.267725,-10066.800811,1685.410096
2715.747562,1406.391290,-11695.253884,919.314598
2715.747890,2072.576638,-11029.068536,-919.314598
2715.748217,1998.556043,-9104.533087,-1532.190996
2715.748545,666.185348,-7624.121203,153.219100
2715.748872,0.000000,-7402.059420,1225.752797
2715.749200,-222.061783,-9770.718434,2221.676944
2715.749527,0.000000,-11547.212695,-306.438199
2715.749855,370.102971,-10658.965565,-1838.629195
2715.750182,0.000000,-9252.574275,-1991.848295
2715.750510,-740.205942,-8290.306550,-689.485948
2715.750837,-1332.370696,-9104.533087,689.485948
2715.751164,-666.185348,-11177.109724,0.000000
2715.751492,0.000000,-11399.171507,-1072.533697
2715.751819,888.247130,-10066.800811,-1455.581446
2715.752147,518.144159,-9178.553681,-459.657299
2715.752474,0.000000,-9178.553681,842.705048
2715.752802,-444.123565,-9696.697840,1378.971896
2715.753129,-592.164754,-10658.965565,459.657299
2715.753457,-370.102971,-11177.109724,-1225.752797
2715.753784,148.041188,-9548.656652,-2145.067394
2715.754112,592.164754,-8364.327145,-995.924147
2715.754439,888.247130,-8438.347739,919.314598
2715.754767,814.226536,-10140.821405,1532.190996
2715.755094,592.164754,-11843.295072,766.095498
2715.755422,962.267725,-10955.047942,0.000000
2715.755749,1110.308913,-8586.388927,-1608.800546
2715.756077,0.000000,-7476.080014,-383.047749
2715.756404,-740.205942,-8660.409521,1149.143247
2715.756732,-1036.288319,-10658.965565,1532.190996
2715.757059,-814.226536,-11029.068536,459.657299
2715.757387,-666.185348,-9252.574275,-1532.190996
2715.757714,-888.247130,-8364.327145,-2451.505594
2715.758042,-888.247130,-8364.327145,-766.095498
2715.758369,-518.144159,-7698.141797,842.705048
2715.758697,592.164754,-9770.718434,153.219100
2715.759024,740.205942,-11251.130318,229.828649
2715.759352,1480.411884,-10362.883188,-306.438199
2715.759679,1258.350101,-8216.285956,-229.828649
2715.760007,888.247130,-8290.306550,459.657299
2715.760334,148.041188,-9474.636058,229.828649
2715.760662,888.247130,-11399.171507,-153.219100
2715.760989,962.267725,-11547.212695,-1685.410096
2715.761317,1332.370696,-9918.759623,-2451.505594
2715.761644,1036.288319,-8882.471304,-1608.800546
2715.761972,444.123565,-9030.512492,0.000000
2715.762299,296.082377,-10955.047942,689.485948
2715.762627,740.205942,-11843.295072,842.705048
2715.762954,962.267725,-10658.965565,-1072.533697
2715.763282,1332.370696,-8882.471304,-1225.752797
2715.763609,1036.288319,-8142.265362,-459.657299
2715.763936,0.000000,-8808.450710,995.924147
2715.764264,0.000000,-10955.047942,1072.533697
2715.764591,-222.061783,-11029.068536,-306.438199
2715.764919,518.144159,-10510.924376,-2451.505594
2715.765246,148.041188,-8512.368333,-1838.629195
2715.765574,-296.082377,-8364.327145,0.000000
2715.765901,-370.102971,-8734.430116,995.924147
2715.766229,666.185348,-10732.986159,536.266849
2715.766556,888.247130,-11621.233289,0.000000
2715.766884,740.205942,-9696.697840,-153.219100
2715.767211,148.041188,-7624.121203,76.609550
2715.767539,0.000000,-7402.059420,1072.533697
2715.767866,74.020594,-8734.430116,1378.971896
2715.768194,222.061783,-10807.006753,459.657299
2715.768521,444.123565,-11325.150913,0.000000
2715.768849,1332.370696,-9696.697840,-1532.190996
2715.769176,1554.432478,-8512.368333,-842.705048
2715.769504,74.020594,-8734.430116,0.000000
2715.769831,-1184.329507,-9548.656652,1072.533697
2715.770159,-962.267725,-10955.047942,76.609550
2715.770486,296.082377,-10881.027347,-2221.676944
2715.770814,1332.370696,-9548.656652,-2221.676944
2715.771141,148.041188,-8512.368333,153.219100
2715.771469,-296.082377,-8438.347739,2145.067394
2715.771796,222.061783,-10510.924376,1072.533697
2715.772124,592.164754,-11843.295072,-612.876398
2715.772451,-222.061783,-11029.068536,-1378.971896
2715.772779,-296.082377,-8586.388927,-2451.505594
2715.773106,-592.164754,-8216.285956,-1149.143247
2715.773434,-814.226536,-9104.533087,229.828649
2715.773761,-222.061783,-10436.903782,612.876398
2715.774089,370.102971,-11029.068536,0.000000
2715.774416,1184.329507,-9474.636058,-459.657299
2715.774744,592.164754,-8882.471304,-1072.533697
2715.775071,-296.082377,-8216.285956,229.828649
2715.775399,-518.144159,-8734.430116,689.485948
2715.775726,0.000000,-10584.944971,383.047749
2715.776054,814.226536,-10955.047942,0.000000
2715.776381,2294.638420,-10214.842000,-766.095498
2715.776709,1702.473667,-9400.615463,-459.657299
2715.777036,1184.329507,-9104.533087,0.000000
2715.777363,222.061783,-10288.862594,383.047749
2715.777691,370.102971,-11473.192101,0.000000
2715.778018,666.185348,-10510.924376,-1149.143247
2715.778346,1110.308913,-8956.491898,-1149.143247
2715.778673,296.082377,-7846.182985,0.000000
2715.779001,518.144159,-8290.306550,2068.457845
2715.779328,1258.350101,-9918.759623,842.705048
2715.779656,444.123565,-11251.130318,306.438199
2715.779983,148.041188,-10436.903782,-1225.752797
2715.780311,0.000000,-8882.471304,-1991.848295
2715.780638,-222.061783,-8068.244768,-536.266849
2715.780966,0.000000,-8734.430116,383.047749
2715.781293,1258.350101,-10955.047942,995.924147
2715.781621,1554.432478,-11843.295072,536.266849
2715.781948,1184.329507,-10658.965565,-229.828649
2715.782276,444.123565,-8586.388927,-842.705048
2715.782603,-592.164754,-8216.285956,0.000000
2715.782931,-962.267725,-8586.388927,612.876398
2715.783258,-222.061783,-10214.842000,689.485948
2715.783586,444.123565,-10807.006753,-612.876398
2715.783913,444.123565,-9770.718434,-842.705048
2715.784241,370.102971,-9178.553681,-919.314598
2715.784568,0.000000,-8512.368333,0.000000
2715.784896,0.000000,-10066.800811,459.657299
2715.785223,222.061783,-11843.295072,229.828649
2715.785551,444.123565,-10584.944971,-536.266849
2715.785878,1258.350101,-8660.409521,-612.876398
2715.786206,1258.350101,-8438.347739,383.047749
2715.786533,518.144159,-9178.553681,1915.238745
2715.786861,0.000000,-10140.821405,1991.848295
2715.787188,-370.102971,-10584.944971,0.000000
2715.787516,-518.144159,-9696.697840,-1532.190996
2715.787843,-740.205942,-8956.491898,-1532.190996
2715.788171,-1850.514855,-8142.265362,0.000000
2715.788498,-1776.494261,-8660.409521,536.266849
2715.788826,-592.164754,-9992.780217,0.000000
2715.789153,-296.082377,-11251.130318,-689.485948
2715.789481,148.041188,-10214.842000,-1149.143247
2715.789808,0.000000,-8808.450710,-383.047749
2715.790135,-222.061783,-8808.450710,536.266849
2715.790463,-666.185348,-8660.409521,459.657299
2715.790790,148.041188,-10732.986159,459.657299
2715.791118,518.144159,-11473.192101,-383.047749
2715.791445,1776.494261,-11103.089130,-1302.362347
2715.791773,2294.638420,-10140.821405,-1455.581446
2715.792100,1480.411884,-9696.697840,0.000000
2715.792428,888.247130,-9770.718434,1608.800546
2715.792755,444.123565,-10288.862594,766.095498
2715.793083,592.164754,-10436.903782,0.000000
2715.793410,962.267725,-8956.491898,-1149.143247
2715.793738,592.164754,-7994.224174,-995.924147
2715.794065,74.020594,-8438.347739,842.705048
2715.794393,0.000000,-10214.842000,1072.533697
2715.794720,518.144159,-11473.192101,-536.266849
2715.795048,592.164754,-10807.006753,-1532.190996
2715.795375,1036.288319,-9400.615463,-2068.457845
2715.795703,518.144159,-8734.430116,-1072.533697
2715.796030,592.164754,-8956.491898,689.485948
2715.796358,1258.350101,-10066.800811,1915.238745
2715.796685,1480.411884,-9844.739029,995.924147
2715.797013,1110.308913,-9400.615463,-536.266849
2715.797340,-296.082377,-8142.265362,0.000000
2715.797668,-518.144159,-7254.018232,-306.438199
2715.797995,-740.205942,-8068.244768,383.047749
2715.798323,0.000000,-10214.842000,153.219100
2715.798650,222.061783,-11103.089130,-229.828649
2715.798978,962.267725,-10288.862594,-1225.752797
2715.799305,888.247130,-8882.471304,-1149.143247
2715.799633,592.164754,-9178.553681,-306.438199
2715.799960,74.020594,-9696.697840,919.314598
2715.800288,666.185348,-11769.274478,459.657299
2715.800615,962.267725,-11251.130318,-383.047749
2715.800943,1628.453072,-9474.636058,-1302.362347
2715.801270,740.205942,-8438.347739,-766.095498
2715.801598,74.020594,-9474.636058,766.095498
2715.801925,-444.123565,-10066.800811,1149.143247
2715.802253,0.000000,-10584.944971,-383.047749
2715.802580,0.000000,-11103.089130,-1991.848295
2715.802908,-296.082377,-10066.800811,-1532.190996
2715.803235,-740.205942,-8512.368333,-229.828649
2715.803562,-518.144159,-8364.327145,919.314598
2715.803890,-666.185348,-10214.842000,766.095498
2715.804217,-518.144159,-11843.295072,306.438199
2715.804545,0.000000,-10658.965565,-1225.752797
2715.804872,222.061783,-8660.409521,-1455.581446
2715.805200,-444.123565,-8586.388927,0.000000
2715.805527,-1184.329507,-9400.615463,1072.533697
2715.805855,-814.226536,-10214.842000,306.438199
2715.806182,148.041188,-10584.944971,-383.047749
2715.806510,1332.370696,-10140.821405,-1378.971896
2715.806837,1036.288319,-8364.327145,-1225.752797
2715.807165,444.123565,-7994.224174,766.095498
2715.807492,518.144159,-9252.574275,1608.800546
2715.807820,666.185348,-10955.047942,1225.752797
2715.808147,888.247130,-10214.842000,76.609550
2715.808475,666.185348,-8808.450710,-1378.971896
2715.808802,740.205942,-7254.018232,-612.876398
2715.809130,222.061783,-8216.285956,306.438199
2715.809457,-296.082377,-10214.842000,1225.752797
2715.809785,-148.041188,-11547.212695,0.000000
2715.810112,-296.082377,-10807.006753,-2221.676944
2715.810440,296.082377,-9696.697840,-2451.505594
2715.810767,0.000000,-8438.347739,-766.095498
2715.811095,-444.123565,-8660.409521,842.705048
2715.811422,814.226536,-9548.656652,766.095498
2715.811750,888.247130,-10658.965565,0.000000
2715.812077,888.247130,-10510.924376,-842.705048
2715.812405,296.082377,-9400.615463,-919.314598
2715.812732,-518.144159,-8364.327145,0.000000
2715.813060,-740.205942,-9030.512492,459.657299
2715.813387,444.123565,-10955.047942,153.219100
2715.813715,1036.288319,-12583.501014,0.000000
2715.814042,1332.370696,-11325.150913,-1532.190996
2715.814370,814.226536,-9622.677246,-1608.800546
2715.814697,518.144159,-8956.491898,-612.876398
2715.815025,296.082377,-9474.636058,459.657299
2715.815352,1258.350101,-10732.986159,1225.752797
2715.815680,1184.329507,-9918.759623,229.828649
2715.816007,1554.432478,-8882.471304,-459.657299
2715.816335,296.082377,-7846.182985,0.000000
2715.816662,-666.185348,-8660.409521,536.266849
2715.816989,-1258.350101,-9622.677246,612.876398
2715.817317,-518.144159,-10584.944971,-842.705048
2715.817644,74.020594,-11399.171507,-2068.457845
2715.817972,370.102971,-10807.006753,-1608.800546
2715.818299,814.226536,-8290.306550,-536.266849
2715.818627,74.020594,-7624.121203,1149.143247
2715.818954,0.000000,-9548.656652,1302.362347
2715.819282,148.041188,-10436.903782,-153.219100
2715.819609,0.000000,-9474.636058,-1149.143247
2715.819937,0.000000,-7402.059420,-1532.190996
2715.820264,-592.164754,-7105.977043,306.438199
2715.820592,-962.267725,-8438.347739,1838.629195
2715.820919,0.000000,-10510.924376,1149.143247
2715.821247,0.000000,-11325.150913,-459.657299
2715.821574,296.082377,-10807.006753,-1838.629195
2715.821902,518.144159,-9326.594869,-1915.238745
2715.822229,666.185348,-8660.409521,-689.485948
2715.822557,444.123565,-8808.450710,919.314598
2715.822884,518.144159,-10214.842000,1608.800546
2715.823212,1184.329507,-11177.109724,536.266849
2715.823539,1554.432478,-10140.821405,-1072.533697
2715.823867,518.144159,-8364.327145,-1072.533697
2715.824194,-296.082377,-8512.368333,-612.876398
2715.824522,-148.041188,-11029.068536,-306.438199
2715.824849,0.000000,-11473.192101,-536.266849
2715.825177,296.082377,-11325.150913,-1608.800546
2715.825504,370.102971,-9622.677246,-1455.581446
2715.825832,444.123565,-8882.471304,-306.438199
2715.826159,222.061783,-8808.450710,1072.533697
2715.826487,296.082377,-9622.677246,919.314598
2715.826814,888.247130,-10362.883188,0.000000
2715.827142,814.226536,-11029.068536,-1302.362347
2715.827469,888.247130,-9104.533087,-995.924147
2715.827797,296.082377,-8216.285956,383.047749
2715.828124,-296.082377,-8438.347739,1225.752797
2715.828452,0.000000,-10584.944971,459.657299
2715.828779,148.041188,-11769.274478,-612.876398
2715.829107,1184.329507,-10584.944971,-1072.533697
2715.829434,1184.329507,-8512.368333,-1072.533697
2715.829761,814.226536,-8364.327145,842.705048
2715.830089,592.164754,-8364.327145,2068.457845
2715.830416,666.185348,-9474.636058,1838.629195
2715.830744,222.061783,-9696.697840,689.485948
2715.831071,666.185348,-8956.491898,-842.705048
2715.831399,74.020594,-7846.182985,-459.657299
2715.831726,-370.102971,-8438.347739,689.485948
2715.832054,-814.226536,-9844.739029,995.924147
2715.832381,-444.123565,-11103.089130,0.000000
2715.832709,-222.061783,-10955.047942,-1455.581446
2715.833036,296.082377,-9770.718434,-2068.457845
2715.833364,518.144159,-8586.388927,-919.314598
2715.833691,740.205942,-8438.347739,536.266849
2715.834019,296.082377,-9400.615463,919.314598
2715.834346,370.102971,-10732.986159,459.657299
2715.834674,222.061783,-10436.903782,-536.266849
2715.835001,-518.144159,-8586.388927,-1225.752797
2715.835329,-2072.576638,-8438.347739,-919.314598
2715.835656,-1702.473667,-10362.883188,0.000000
2715.835984,0.000000,-11399.171507,-383.047749
2715.836311,962.267725,-12065.356855,-919.314598
2715.836639,592.164754,-10584.944971,-1225.752797
2715.836966,1554.432478,-9844.739029,-1149.143247
2715.837294,1184.329507,-9548.656652,-306.438199
2715.837621,592.164754,-9178.553681,766.095498
2715.837949,888.247130,-9918.759623,383.047749
2715.838276,666.185348,-10214.842000,0.000000
2715.838603,1036.288319,-10066.800811,-306.438199
2715.838930,444.123565,-8882.471304,-459.657299
2715.839258,-370.102971,-8512.368333,-306.438199
2715.839585,-962.267725,-10214.842000,536.266849
2715.839913,-444.123565,-11399.171507,-153.219100
2715.840240,0.000000,-10066.800811,-1762.019645
2715.840568,0.000000,-8734.430116,-1532.190996
2715.840895,0.000000,-8438.347739,-229.828649
2715.841223,-370.102971,-7476.080014,842.705048
2715.841550,518.144159,-9252.574275,842.705048
2715.841878,1332.370696,-10658.965565,0.000000
2715.842205,1184.329507,-10732.986159,-306.438199
2715.842533,740.205942,-8808.450710,-689.485948
2715.842860,296.082377,-8068.244768,0.000000
2715.843188,74.020594,-8512.368333,306.438199
2715.843515,888.247130,-9474.636058,383.047749
2715.843843,1110.308913,-10732.986159,0.000000
2715.844170,1480.411884,-10881.027347,-842.705048
2715.844498,1554.432478,-9030.512492,-995.924147
2715.844825,1258.350101,-8364.327145,229.828649
2715.845153,222.061783,-8956.491898,1532.190996
2715.845481,962.267725,-9992.780217,995.924147
2715.845808,1554.432478,-10584.944971,-995.924147
2715.846136,444.123565,-10658.965565,-842.705048
2715.846463,666.185348,-8660.409521,-1532.190996
2715.846791,148.041188,-8142.265362,-306.438199
2715.847118,222.061783,-11177.109724,766.095498
2715.847446,-370.102971,-13323.706956,459.657299
2715.847773,-148.041188,-11029.068536,-1302.362347
2715.848101,-148.041188,-8216.285956,-2221.676944
2715.848428,444.123565,-9474.636058,-1149.143247
2715.848756,0.000000,-8956.491898,766.095498
2715.849083,296.082377,-9326.594869,1838.629195
2715.849411,740.205942,-10140.821405,383.047749
2715.849738,1110.308913,-10955.047942,-536.266849
2715.850066,296.082377,-9474.636058,-536.266849
2715.850393,-370.102971,-7624.121203,536.266849
2715.850721,-1406.391290,-8216.285956,1455.581446
2715.851048,-370.102971,-11029.068536,-306.438199
2715.851376,-592.164754,-11621.233289,-1838.629195
2715.851703,-814.226536,-10955.047942,-1915.238745
2715.852031,-592.164754,-9030.512492,-1072.533697
2715.852358,148.041188,-7550.100608,76.609550
2715.852686,-296.082377,-8512.368333,1225.752797
2715.853013,-518.144159,-9400.615463,842.705048
2715.853341,222.061783,-9326.594869,0.000000
2715.853668,888.247130,-8956.491898,-842.705048
2715.853996,592.164754,-9030.512492,-995.924147
2715.854323,0.000000,-9178.553681,459.657299
2715.854651,0.000000,-9104.533087,1685.410096
2715.854978,888.247130,-11473.192101,-995.924147
2715.855306,444.123565,-11621.233289,-1302.362347
2715.855633,1110.308913,-9770.718434,-2145.067394
2715.855961,222.061783,-7920.203579,-919.314598
2715.856288,-740.205942,-8364.327145,306.438199
2715.856616,-740.205942,-10140.821405,536.266849
2715.856943,0.000000,-10658.965565,-536.266849
2715.857271,-148.041188,-9844.739029,-1915.238745
2715.857598,-222.061783,-8956.491898,-1149.143247
2715.857926,-370.102971,-9030.512492,-383.047749
2715.858253,-592.164754,-9548.656652,229.828649
2715.858581,444.123565,-10436.903782,-383.047749
2715.858908,1036.288319,-11473.192101,-919.314598
2715.859236,592.164754,-10066.800811,-689.485948
2715.859563,1554.432478,-9326.594869,-766.095498
2715.859891,962.267725,-9252.574275,689.485948
2715.860218,962.267725,-9622.677246,1378.971896
2715.860546,814.226536,-10584.944971,1149.143247
2715.860873,888.247130,-10510.924376,76.609550
2715.861201,962.267725,-9548.656652,-1149.143247
2715.861528,518.144159,-8142.265362,-766.095498
2715.861856,-962.267725,-8364.327145,612.876398
2715.862183,-666.185348,-9622.677246,1838.629195
2715.862511,370.102971,-10658.965565,383.047749
2715.862838,296.082377,-10436.903782,-766.095498
2715.863166,222.061783,-9400.615463,-1149.143247
2715.863493,444.123565,-8068.244768,-689.485948
2715.863821,296.082377,-8290.306550,0.000000
2715.864148,370.102971,-9178.553681,1762.019645
2715.864476,1628.453072,-11251.130318,76.609550
2715.864804,1332.370696,-11029.068536,-383.047749
2715.865131,888.247130,-10140.821405,0.000000
2715.865459,0.000000,-8586.388927,306.438199
2715.865786,-962.267725,-8364.327145,229.828649
2715.866114,-444.123565,-10066.800811,76.609550
2715.866441,370.102971,-11251.130318,-1915.238745
2715.866769,740.205942,-10584.944971,-1608.800546
2715.867096,1110.308913,-9474.636058,-536.266849
2715.867424,888.247130,-9030.512492,1072.533697
2715.867751,444.123565,-9474.636058,2145.067394
2715.868079,296.082377,-9992.780217,689.485948
2715.868406,0.000000,-9992.780217,-995.924147
2715.868734,0.000000,-8808.450710,-2298.286494
2715.869061,0.000000,-8808.450710,-2451.505594
2715.869389,-666.185348,-9326.594869,0.000000
2715.869716,-666.185348,-10066.800811,1608.800546
2715.870044,-296.082377,-11325.150913,1072.533697
2715.870371,-1036.288319,-10658.965565,-459.657299
2715.870699,-1110.308913,-8882.471304,-2068.457845
2715.871026,-888.247130,-8142.265362,-2221.676944
2715.871354,-814.226536,-8512.368333,-1072.533697
2715.871681,-666.185348,-9770.718434,766.095498
2715.872009,1036.288319,-11473.192101,995.924147
2715.872336,1554.432478,-10955.047942,76.609550
2715.872664,888.247130,-9474.636058,-612.876398
2715.872991,0.000000,-8734.430116,-383.047749
2715.873319,-740.205942,-8586.388927,-229.828649
2715.873646,0.000000,-9844.739029,0.000000
2715.873974,370.102971,-11029.068536,-1225.752797
2715.874301,666.185348,-10362.883188,-766.095498
2715.874629,1184.329507,-8808.450710,-459.657299
2715.874956,1110.308913,-9252.574275,1149.143247
2715.875284,740.205942,-9252.574275,1532.190996
2715.875611,888.247130,-9992.780217,383.047749
2715.875939,888.247130,-9992.780217,-2068.457845
2715.876266,1406.391290,-9696.697840,-1991.848295
2715.876594,1184.329507,-8808.450710,-689.485948
2715.876921,296.082377,-9104.533087,1149.143247
2715.877249,0.000000,-9918.759623,1991.848295
2715.877576,814.226536,-10881.027347,76.609550
2715.877904,592.164754,-11547.212695,-1225.752797
2715.878231,0.000000,-9770.718434,-1838.629195
2715.878559,-592.164754,-8586.388927,-842.705048
2715.878886,-666.185348,-8142.265362,76.609550
2715.879214,-444.123565,-9178.553681,842.705048
2715.879541,592.164754,-10214.842000,229.828649
2715.879869,518.144159,-9992.780217,689.485948
2715.880196,74.020594,-8956.491898,0.000000
2715.880524,0.000000,-7994.224174,0.000000
2715.880851,-370.102971,-8438.347739,76.609550
2715.881179,0.000000,-9918.759623,0.000000
2715.881506,1184.329507,-11621.233289,-536.266849
2715.881834,2072.576638,-11325.150913,-842.705048
2715.882161,2146.597232,-9844.739029,-229.828649
2715.882489,1702.473667,-9104.533087,689.485948
2715.882816,370.102971,-8586.388927,1072.533697
2715.883144,0.000000,-9474.636058,1532.190996
2715.883471,0.000000,-10214.842000,-536.266849
2715.883799,0.000000,-9622.677246,-2221.676944
2715.884126,-296.082377,-8438.347739,-2221.676944
2715.884454,-222.061783,-8586.388927,-306.438199
2715.884782,0.000000,-10362.883188,1455.581446
2715.885109,444.123565,-10658.965565,919.314598
2715.885437,222.061783,-10732.986159,-689.485948
2715.885764,148.041188,-9844.739029,-1838.629195
2715.886092,148.041188,-8660.409521,-1532.190996
2715.886419,0.000000,-8660.409521,-306.438199
2715.886747,-296.082377,-9030.512492,842.705048
2715.887074,962.267725,-10807.006753,1072.533697
2715.887402,518.144159,-10436.903782,153.219100
2715.887729,74.020594,-8660.409521,-995.924147
2715.888057,-444.123565,-8142.265362,-842.705048
2715.888384,-1406.391290,-8142.265362,-536.266849
2715.888712,-1110.308913,-9992.780217,-689.485948
2715.889039,-370.102971,-12065.356855,-612.876398
2715.889367,296.082377,-11547.212695,-1685.410096
2715.889694,1850.514855,-10288.862594,-919.314598
2715.890022,1998.556043,-9696.697840,0.000000
2715.890349,962.267725,-9770.718434,1302.362347
2715.890677,814.226536,-10362.883188,1225.752797
2715.891004,296.082377,-9770.718434,-536.266849
2715.891332,-370.102971,-8586.388927,-1915.238745
2715.891659,-740.205942,-7772.162391,-1608.800546
2715.891987,-1110.308913,-7698.141797,536.266849
2715.892314,-1184.329507,-9178.553681,1838.629195
2715.892642,518.144159,-11103.089130,766.095498
2715.892969,666.185348,-11399.171507,-842.705048
2715.893297,814.226536,-10140.821405,-1838.629195
2715.893624,888.247130,-7994.224174,-1608.800546
2715.893952,0.000000,-8142.265362,-459.657299
2715.894279,-666.185348,-9474.636058,1762.019645
2715.894607,1406.391290,-10807.006753,383.047749
2715.894934,1184.329507,-10436.903782,-383.047749
2715.895262,518.144159,-10140.821405,-536.266849
2715.895589,222.061783,-9252.574275,-689.485948
2715.895917,0.000000,-8956.491898,-766.095498
2715.896244,0.000000,-9622.677246,-919.314598
2715.896572,1110.308913,-11177.109724,-459.657299
2715.896899,1628.453072,-10807.006753,-306.438199
2715.897227,2072.576638,-9474.636058,76.609550
2715.897554,1554.432478,-8660.409521,1072.533697
2715.897882,444.123565,-9252.574275,1991.848295
2715.898209,296.082377,-10140.821405,1072.533697
2715.898537,592.164754,-10584.944971,-1378.971896
2715.898864,-592.164754,-10584.944971,-2221.676944
2715.899192,0.000000,-9696.697840,-2834.553343
2715.899519,-666.185348,-9030.512492,-306.438199
2715.899847,-1110.308913,-9696.697840,1225.752797
2715.900174,74.020594,-11029.068536,612.876398
2715.900502,962.267725,-10881.027347,-995.924147
2715.900829,518.144159,-9474.636058,-1149.143247
2715.901157,222.061783,-8364.327145,0.000000
2715.901484,0.000000,-7994.224174,612.876398
2715.901812,74.020594,-8290.306550,1915.238745
2715.902139,962.267725,-9696.697840,1225.752797
2715.902467,888.247130,-10140.821405,153.219100
2715.902794,518.144159,-9252.574275,-612.876398
2715.903122,0.000000,-8512.368333,-995.924147
2715.903449,-962.267725,-8290.306550,-1072.533697
2715.903777,-888.247130,-9474.636058,0.000000
2715.904104,370.102971,-11473.192101,-995.924147
2715.904432,592.164754,-11547.212695,-689.485948
2715.904760,1406.391290,-10066.800811,-536.266849
2715.905087,1776.494261,-8734.430116,0.000000
2715.905415,444.123565,-8882.471304,1915.238745
2715.905742,222.061783,-9474.636058,1302.362347
2715.906070,444.123565,-9696.697840,-383.047749
2715.906397,0.000000,-9474.636058,-1302.362347
2715.906725,74.020594,-9326.594869,-1455.581446
2715.907052,-148.041188,-9326.594869,-536.266849
2715.907380,-888.247130,-9844.739029,1072.533697
2715.907707,74.020594,-11917.315666,383.047749
2715.908035,518.144159,-11991.336260,-1072.533697
2715.908362,74.020594,-9844.739029,-1838.629195
2715.908690,-222.061783,-8290.306550,-1378.971896
2715.909017,-296.082377,-8142.265362,0.000000
2715.909345,-296.082377,-9474.636058,1608.800546
2715.909672,962.267725,-10362.883188,536.266849
2715.910000,444.123565,-9770.718434,-1225.752797
2715.910327,-148.041188,-9474.636058,-842.705048
2715.910655,0.000000,-9844.739029,-1225.752797
2715.910982,148.041188,-9770.718434,-536.266849
2715.911310,592.164754,-10066.800811,0.000000
2715.911637,1850.514855,-11547.212695,-842.705048
2715.911965,1480.411884,-11695.253884,-459.657299
2715.912292,1554.432478,-9548.656652,842.705048
2715.912620,1258.350101,-7994.224174,766.095498
2715.912947,0.000000,-8068.244768,1455.581446
2715.913275,296.082377,-9548.656652,766.095498
2715.913602,666.185348,-9844.739029,0.000000
2715.913930,518.144159,-9770.718434,-842.705048
2715.914257,518.144159,-9474.636058,-1378.971896
2715.914585,0.000000,-8660.409521,-383.047749
2715.914912,-1110.308913,-9104.533087,1302.362347
2715.915240,-740.205942,-9696.697840,459.657299
2715.915567,-148.041188,-10140.821405,-766.095498
2715.915895,0.000000,-9474.636058,-1532.190996
2715.916222,-222.061783,-8734.430116,-1149.143247
2715.916550,-370.102971,-8586.388927,612.876398
2715.916877,-814.226536,-8290.306550,1991.848295
2715.917205,-444.123565,-9844.739029,536.266849
2715.917532,0.000000,-10584.944971,-1455.581446
2715.917860,0.000000,-9992.780217,-2451.505594
2715.918187,0.000000,-9252.574275,-1762.019645
2715.918515,0.000000,-10140.821405,0.000000
2715.918842,1110.308913,-10955.047942,0.000000
2715.919170,1628.453072,-12361.439231,-229.828649
2715.919497,1036.288319,-11251.130318,-1149.143247
2715.919825,1110.308913,-9992.780217,-995.924147
2715.920152,888.247130,-8512.368333,-383.047749
2715.920480,-222.061783,-8068.244768,536.266849
2715.920807,-518.144159,-9178.553681,1072.533697
2715.921135,74.020594,-9474.636058,0.000000
2715.921462,370.102971,-9548.656652,-1455.581446
2715.921790,518.144159,-10140.821405,-842.705048
2715.922117,0.000000,-9918.759623,0.000000
2715.922445,0.000000,-9844.739029,689.485948
2715.922772,814.226536,-10807.006753,0.000000
2715.923100,1036.288319,-10436.903782,-766.095498
2715.923427,740.205942,-9474.636058,0.000000
2715.923755,222.061783,-8364.327145,229.828649
2715.924083,0.000000,-8290.306550,1455.581446
2715.924410,74.020594,-8808.450710,1455.581446
2715.924738,518.144159,-9252.574275,689.485948
2715.925065,-444.123565,-9474.636058,-229.828649
2715.925393,-962.267725,-9548.656652,-842.705048
2715.925720,-1110.308913,-8512.368333,-1072.533697
2715.926048,-666.185348,-7994.224174,-383.047749
2715.926375,222.061783,-9770.718434,536.266849
2715.926703,1110.308913,-11103.089130,-229.828649
2715.927030,1110.308913,-11399.171507,-153.219100
2715.927358,1110.308913,-9992.780217,0.000000
2715.927685,888.247130,-8438.347739,-383.047749
2715.928013,666.185348,-9030.512492,459.657299
2715.928340,296.082377,-9548.656652,383.047749
2715.928668,962.267725,-10288.862594,-306.438199
2715.928995,1258.350101,-11251.130318,-1149.143247
2715.929323,296.082377,-9844.739029,-1378.971896
2715.929650,0.000000,-9622.677246,-229.828649
2715.929978,74.020594,-9844.739029,612.876398
2715.930305,370.102971,-10584.944971,612.876398
2715.930633,888.247130,-10732.986159,0.000000
2715.930960,1036.288319,-9918.759623,-1532.190996
2715.931288,74.020594,-8956.491898,-1072.533697
2715.931615,-222.061783,-8364.327145,459.657299
2715.931943,-962.267725,-8734.430116,995.924147
2715.932270,-518.144159,-9918.759623,229.828649
2715.932598,-222.061783,-9992.780217,-536.266849
2715.932925,-222.061783,-9992.780217,-1608.800546
2715.933253,-148.041188,-9030.512492,-919.314598
2715.933580,-444.123565,-8808.450710,459.657299
2715.933908,74.020594,-9474.636058,1072.533697
2715.934235,888.247130,-10807.006753,383.047749
2715.934563,962.267725,-10584.944971,-689.485948
2715.934890,518.144159,-9474.636058,-383.047749
2715.935218,370.102971,-8068.244768,229.828649
2715.935545,740.205942,-8216.285956,842.705048
2715.935873,888.247130,-9474.636058,1302.362347
2715.936200,1036.288319,-11103.089130,306.438199
2715.936528,666.185348,-10288.862594,-919.314598
2715.936855,518.144159,-9474.636058,-1838.629195
2715.937183,-222.061783,-8808.450710,-842.705048
2715.937511,-962.267725,-9178.553681,0.000000
2715.937838,-1258.350101,-10362.883188,612.876398
2715.938166,0.000000,-10584.944971,-76.609550
2715.938493,518.144159,-10140.821405,-1149.143247
2715.938821,592.164754,-9252.574275,-842.705048
2715.939149,222.061783,-8364.327145,306.438199
2715.939476,0.000000,-8882.471304,919.314598
2715.939804,222.061783,-9622.677246,689.485948
2715.940132,222.061783,-10362.883188,-1225.752797
2715.940459,-518.144159,-9548.656652,-1302.362347
2715.940787,148.041188,-9178.553681,-1302.362347
2715.941114,518.144159,-9992.780217,0.000000
2715.941442,1036.288319,-11251.130318,459.657299
2715.941770,1998.556043,-11695.253884,0.000000
2715.942097,2072.576638,-10955.047942,-919.314598
2715.942425,1850.514855,-9326.594869,-1149.143247
2715.942752,1258.350101,-7772.162391,-229.828649
2715.943080,444.123565,-7994.224174,1149.143247
2715.943408,74.020594,-9178.553681,1838.629195
2715.943735,666.185348,-10288.862594,536.266849
2715.944063,222.061783,-9770.718434,-1149.143247
2715.944390,444.123565,-9918.759623,-1455.581446
2715.944718,222.061783,-9474.636058,-689.485948
2715.945046,74.020594,-9400.615463,0.000000
2715.945373,296.082377,-10584.944971,1072.533697
2715.945701,814.226536,-10881.027347,0.000000
2715.946029,518.144159,-9696.697840,-306.438199
2715.946356,0.000000,-7772.162391,0.000000
2715.946684,-888.247130,-7105.977043,995.924147
2715.947011,-1332.370696,-8364.327145,383.047749
2715.947339,-740.205942,-9696.697840,306.438199
2715.947667,0.000000,-10140.821405,-1302.362347
2715.947994,-518.144159,-10288.862594,-1608.800546
2715.948322,0.000000,-9326.594869,-1225.752797
2715.948649,296.082377,-8660.409521,-766.095498
2715.948977,740.205942,-9918.759623,229.828649
2715.949305,1776.494261,-11325.150913,766.095498
2715.949632,2146.597232,-11621.233289,-995.924147
2715.949960,1628.453072,-10362.883188,-229.828649
2715.950287,1036.288319,-8956.491898,0.000000
2715.950615,296.082377,-8882.471304,459.657299
2715.950943,0.000000,-9844.739029,766.095498
2715.951270,444.123565,-11103.089130,-766.095498
2715.951598,444.123565,-10955.047942,-1838.629195
2715.951926,518.144159,-10436.903782,-1991.848295
2715.952253,0.000000,-9252.574275,-919.314598
2715.952581,-888.247130,-9622.677246,766.095498
2715.952908,-666.185348,-10584.944971,919.314598
2715.953236,296.082377,-10288.862594,-459.657299
2715.953564,814.226536,-9474.636058,-1762.019645
2715.953891,0.000000,-8882.471304,-766.095498
2715.954219,-370.102971,-7920.203579,459.657299
2715.954546,0.000000,-8808.450710,919.314598
2715.954874,222.061783,-9844.739029,766.095498
2715.955202,0.000000,-10214.842000,-612.876398
2715.955529,-370.102971,-9252.574275,-919.314598
2715.955857,-370.102971,-9104.533087,0.000000
2715.956185,-370.102971,-8956.491898,-306.438199
2715.956512,74.020594,-9918.759623,536.266849
2715.956840,962.267725,-10807.006753,383.047749
2715.957167,1332.370696,-10214.842000,229.828649
2715.957495,1628.453072,-9400.615463,0.000000
2715.957823,1184.329507,-8142.265362,76.609550
2715.958150,370.102971,-8068.244768,612.876398
2715.958478,74.020594,-8808.450710,1072.533697
2715.958805,1850.514855,-10510.924376,-1455.581446
2715.959133,740.205942,-11177.109724,-842.705048
2715.959461,296.082377,-10584.944971,-1302.362347
2715.959788,222.061783,-9474.636058,-919.314598
2715.960116,0.000000,-9992.780217,306.438199
2715.960443,0.000000,-10881.027347,1455.581446
2715.960771,444.123565,-10510.924376,-459.657299
2715.961099,814.226536,-9622.677246,-1072.533697
2715.961426,444.123565,-8956.491898,-766.095498
2715.961754,0.000000,-8290.306550,153.219100
2715.962082,-518.144159,-8808.450710,995.924147
2715.962409,-222.061783,-10214.842000,766.095498
2715.962737,148.041188,-11103.089130,-919.314598
2715.963064,296.082377,-10436.903782,-1838.629195
2715.963392,-592.164754,-9326.594869,-766.095498
2715.963720,-296.082377,-9178.553681,306.438199
2715.964047,-444.123565,-9844.739029,612.876398
2715.964375,296.082377,-11103.089130,0.000000
2715.964702,444.123565,-10436.903782,-766.095498
2715.965030,592.164754,-9252.574275,-842.705048
2715.965358,814.226536,-8660.409521,459.657299
2715.965685,1406.391290,-8586.388927,1072.533697
2715.966013,888.247130,-9400.615463,1608.800546
2715.966340,1036.288319,-10362.883188,612.876398
2715.966668,814.226536,-9918.759623,-995.924147
2715.966996,444.123565,-8734.430116,-1455.581446
2715.967323,0.000000,-8068.244768,-842.705048
2715.967651,-222.061783,-8882.471304,0.000000
2715.967979,-222.061783,-10066.800811,1225.752797
2715.968306,814.226536,-10732.986159,153.219100
2715.968634,740.205942,-10584.944971,-919.314598
2715.968961,148.041188,-9622.677246,0.000000
2715.969289,148.041188,-8438.347739,-306.438199
2715.969617,0.000000,-7698.141797,153.219100
2715.969944,-296.082377,-9400.615463,766.095498
2715.970272,222.061783,-10436.903782,-459.657299
2715.970599,0.000000,-9918.759623,-1149.143247
2715.970927,74.020594,-9474.636058,-612.876398
2715.971255,222.061783,-9474.636058,-153.219100
2715.971582,518.144159,-10066.800811,-229.828649
2715.971910,740.205942,-11029.068536,0.000000
2715.972237,1036.288319,-11029.068536,-995.924147
2715.972565,740.205942,-9918.759623,-1455.581446
2715.972893,740.205942,-8882.471304,-536.266849
2715.973220,518.144159,-8660.409521,383.047749
2715.973548,74.020594,-9770.718434,1072.533697
2715.973876,592.164754,-10955.047942,919.314598
2715.974203,888.247130,-11325.150913,-689.485948
2715.974531,148.041188,-9844.739029,-1608.800546
2715.974858,74.020594,-9178.553681,-1378.971896
2715.975186,-222.061783,-9178.553681,-229.828649
2715.975514,74.020594,-10214.842000,842.705048
2715.975841,888.247130,-10362.883188,536.266849
2715.976169,1184.329507,-9992.780217,0.000000
2715.976496,296.082377,-9030.512492,689.485948
2715.976824,888.247130,-8364.327145,612.876398
2715.977152,296.082377,-7994.224174,1302.362347
2715.977479,-444.123565,-8956.491898,919.314598
2715.977807,74.020594,-9844.739029,-229.828649
2715.978134,148.041188,-9622.677246,-1225.752797
2715.978462,0.000000,-9252.574275,-689.485948
2715.978790,74.020594,-9252.574275,536.266849
2715.979117,0.000000,-9252.574275,1072.533697
2715.979445,-296.082377,-10066.800811,689.485948
2715.979773,740.205942,-10510.924376,-995.924147
2715.980100,814.226536,-9696.697840,-1225.752797
2715.980428,814.226536,-8956.491898,-612.876398
2715.980755,666.185348,-8586.388927,306.438199
2715.981083,222.061783,-9178.553681,459.657299
2715.981411,148.041188,-11103.089130,766.095498
2715.981738,962.267725,-10807.006753,-1302.362347
2715.982066,444.123565,-10584.944971,-1608.800546
2715.982393,370.102971,-9622.677246,-1302.362347
2715.982721,518.144159,-9622.677246,-383.047749
2715.983049,222.061783,-11103.089130,919.314598
2715.983376,592.164754,-11399.171507,0.000000
2715.983704,592.164754,-10140.821405,-1072.533697
2715.984031,-222.061783,-9474.636058,-1762.019645
2715.984359,-666.185348,-8512.368333,-919.314598
2715.984687,-1110.308913,-8216.285956,0.000000
