#time,accel_x,accel_y,accel_z
3040.234161,296.082377,-9474.636058,383.047749
3040.234489,74.020594,-8956.491898,0.000000
3040.234817,0.000000,-9104.533087,-536.266849
3040.235144,0.000000,-9326.594869,-306.438199
3040.235472,148.041188,-9474.636058,0.000000
3040.235800,74.020594,-10140.821405,-459.657299
3040.236128,222.061783,-10066.800811,-689.485948
3040.236455,518.144159,-10066.800811,-612.876398
3040.236783,888.247130,-10214.842000,0.000000
3040.237111,740.205942,-9844.739029,76.609550
3040.237438,814.226536,-10288.862594,153.219100
3040.237766,518.144159,-9622.677246,-306.438199
3040.238094,370.102971,-9548.656652,-153.219100
3040.238421,222.061783,-9474.636058,-459.657299
3040.238749,0.000000,-9770.718434,-995.924147
3040.239077,0.000000,-9992.780217,-766.095498
3040.239405,-222.061783,-9548.656652,-919.314598
3040.239732,222.061783,-9992.780217,-919.314598
3040.240060,370.102971,-10288.862594,-459.657299
3040.240388,370.102971,-10066.800811,-383.047749
3040.240715,518.144159,-10362.883188,0.000000
3040.241043,592.164754,-10066.800811,0.000000
3040.241371,962.267725,-9474.636058,306.438199
3040.241699,-148.041188,-9104.533087,459.657299
3040.242026,74.020594,-9252.574275,0.000000
3040.242354,296.082377,-9326.594869,153.219100
3040.242682,0.000000,-9178.553681,0.000000
3040.243009,0.000000,-9178.553681,-306.438199
3040.243337,148.041188,-9474.636058,-229.828649
3040.243665,370.102971,-9696.697840,76.609550
3040.243992,518.144159,-9622.677246,0.000000
3040.244320,962.267725,-9326.594869,0.000000
3040.244648,962.267725,-9770.718434,0.000000
3040.244976,518.144159,-9474.636058,229.828649
3040.245303,370.102971,-9400.615463,306.438199
3040.245631,222.061783,-9178.553681,0.000000
3040.245959,-148.041188,-9104.533087,0.000000
3040.246286,74.020594,-9326.594869,459.657299
3040.246614,148.041188,-9622.677246,-536.266849
3040.246942,0.000000,-9918.759623,-612.876398
3040.247269,296.082377,-10288.862594,-536.266849
3040.247597,888.247130,-9992.780217,-766.095498
3040.247925,1332.370696,-9696.697840,-306.438199
3040.248253,2368.659014,-9696.697840,0.000000
3040.248580,2812.782580,-9474.636058,306.438199
3040.248908,3627.009116,-8808.450710,-612.876398
3040.249236,4145.153275,-9178.553681,0.000000
3040.249563,4589.276840,-9622.677246,-306.438199
3040.249891,5403.503377,-9770.718434,-612.876398
3040.250219,6291.750507,-9622.677246,-1072.533697
3040.250546,6587.832884,-10140.821405,-536.266849
3040.250874,7994.224174,-10436.903782,-842.705048
3040.251202,8660.409521,-10955.047942,-536.266849
3040.251530,8512.368333,-10732.986159,306.438199
3040.251857,9252.574275,-9622.677246,153.219100
3040.252185,9918.759623,-9326.594869,0.000000
3040.252513,9918.759623,-9104.533087,383.047749
3040.252840,10510.924376,-8438.347739,919.314598
3040.253168,10584.944971,-8290.306550,766.095498
3040.253496,10436.903782,-8808.450710,919.314598
3040.253823,10881.027347,-9548.656652,0.000000
3040.254151,10658.965565,-9474.636058,0.000000
3040.254479,11177.109724,-9474.636058,0.000000
3040.254807,11843.295072,-9992.780217,0.000000
3040.255134,12583.501014,-10288.862594,229.828649
3040.255462,14137.933492,-10288.862594,919.314598
3040.255790,14211.954086,-9252.574275,1225.752797
3040.256117,14804.118840,-9178.553681,1302.362347
3040.256445,13989.892304,-9178.553681,919.314598
3040.256773,13175.665768,-9030.512492,612.876398
3040.257101,12435.459826,-8956.491898,306.438199
3040.257428,12065.356855,-9548.656652,0.000000
3040.257756,11769.274478,-10214.842000,-766.095498
3040.258084,11917.315666,-9178.553681,689.485948
3040.258411,11769.274478,-8660.409521,689.485948
3040.258739,11843.295072,-9474.636058,536.266849
3040.259067,12139.377449,-10362.883188,306.438199
3040.259394,11547.212695,-10362.883188,536.266849
3040.259722,10362.883188,-9474.636058,383.047749
3040.260050,9770.718434,-9918.759623,0.000000
3040.260378,8364.327145,-8882.471304,76.609550
3040.260705,7920.203579,-8734.430116,-306.438199
3040.261033,8734.430116,-8956.491898,-766.095498
3040.261361,9474.636058,-10658.965565,-689.485948
3040.261688,9548.656652,-11917.315666,-383.047749
3040.262016,9326.594869,-11251.130318,76.609550
3040.262344,8438.347739,-9770.718434,76.609550
3040.262671,8438.347739,-8660.409521,0.000000
3040.262999,8068.244768,-9474.636058,0.000000
3040.263327,7994.224174,-10732.986159,536.266849
3040.263655,7550.100608,-10732.986159,1302.362347
3040.263982,6513.812290,-9326.594869,919.314598
3040.264310,5551.544565,-8290.306550,-229.828649
3040.264638,3256.906145,-9770.718434,229.828649
3040.264965,1998.556043,-10807.006753,306.438199
3040.265293,2072.576638,-9770.718434,-1455.581446
3040.265621,3701.029710,-8216.285956,-2221.676944
3040.265948,4145.153275,-8068.244768,-612.876398
3040.266276,3256.906145,-9474.636058,1685.410096
3040.266604,592.164754,-9030.512492,3064.381992
3040.266932,-518.144159,-8364.327145,1302.362347
3040.267259,3256.906145,-8882.471304,-2374.896044
3040.267587,4293.194464,-9252.574275,-2834.553343
3040.267915,3404.947333,-10214.842000,-383.047749
3040.268242,3404.947333,-9030.512492,1378.971896
3040.268570,4219.173869,-9474.636058,536.266849
3040.268898,4441.235652,-11103.089130,-612.876398
3040.269225,2590.720797,-9326.594869,-1608.800546
3040.269553,2146.597232,-7031.956449,-1149.143247
3040.269881,2664.741391,-9104.533087,-1302.362347
3040.270209,3923.091493,-11843.295072,-459.657299
3040.270536,4219.173869,-11399.171507,1302.362347
3040.270864,3552.988522,-8660.409521,2221.676944
3040.271192,3404.947333,-9474.636058,1838.629195
3040.271519,2294.638420,-10066.800811,76.609550
3040.271847,148.041188,-9474.636058,-766.095498
3040.272175,-740.205942,-8438.347739,-2221.676944
3040.272502,-296.082377,-8586.388927,-2221.676944
3040.272830,-666.185348,-9104.533087,0.000000
3040.273158,-296.082377,-9696.697840,919.314598
3040.273486,1406.391290,-10436.903782,306.438199
3040.273813,3923.091493,-11547.212695,-2145.067394
3040.274141,2516.700203,-11547.212695,-3140.991542
3040.274469,444.123565,-9918.759623,-306.438199
3040.274796,2146.597232,-9548.656652,536.266849
3040.275124,3552.988522,-9918.759623,689.485948
3040.275452,2368.659014,-8882.471304,1149.143247
3040.275780,888.247130,-9622.677246,919.314598
3040.276107,1480.411884,-10732.986159,766.095498
3040.276435,2220.617826,-9400.615463,0.000000
3040.276763,0.000000,-8882.471304,-612.876398
3040.277090,-814.226536,-10510.924376,76.609550
3040.277418,2294.638420,-10955.047942,0.000000
3040.277746,3552.988522,-9770.718434,-383.047749
3040.278073,2294.638420,-9844.739029,-536.266849
3040.278401,444.123565,-10140.821405,689.485948
3040.278729,518.144159,-9918.759623,1225.752797
3040.279057,-1406.391290,-9252.574275,536.266849
3040.279384,-2590.720797,-8438.347739,-306.438199
3040.279712,-962.267725,-8660.409521,-1302.362347
3040.280040,-444.123565,-9474.636058,-689.485948
3040.280367,-962.267725,-9548.656652,919.314598
3040.280695,-740.205942,-9696.697840,689.485948
3040.281023,0.000000,-10066.800811,0.000000
3040.281350,-888.247130,-9326.594869,0.000000
3040.281678,-1258.350101,-9770.718434,-383.047749
3040.282006,-1184.329507,-10510.924376,0.000000
3040.282334,-592.164754,-10732.986159,536.266849
3040.282661,-1036.288319,-9548.656652,0.000000
3040.282989,-1554.432478,-11029.068536,-689.485948
3040.283317,-2368.659014,-11251.130318,0.000000
3040.283644,-1258.350101,-10066.800811,0.000000
3040.283972,-2368.659014,-8808.450710,-1302.362347
3040.284300,-2368.659014,-8882.471304,-2145.067394
3040.284627,-1776.494261,-8512.368333,-1302.362347
3040.284955,-962.267725,-8290.306550,0.000000
3040.285283,-962.267725,-8364.327145,0.000000
3040.285611,370.102971,-10066.800811,919.314598
3040.285938,518.144159,-9918.759623,0.000000
3040.286266,148.041188,-10436.903782,-536.266849
3040.286594,74.020594,-11251.130318,-1072.533697
3040.286921,814.226536,-11177.109724,-919.314598
3040.287249,888.247130,-10436.903782,-153.219100
3040.287577,1110.308913,-12139.377449,-1072.533697
3040.287904,74.020594,-11177.109724,0.000000
3040.288232,518.144159,-8660.409521,153.219100
3040.288560,148.041188,-6883.915261,-383.047749
3040.288888,-518.144159,-9030.512492,229.828649
3040.289215,74.020594,-9030.512492,612.876398
3040.289543,1110.308913,-6883.915261,536.266849
3040.289871,2072.576638,-7105.977043,612.876398
3040.290198,3330.926739,-10584.944971,-383.047749
3040.290526,3034.844362,-10288.862594,0.000000
3040.290854,1702.473667,-10214.842000,0.000000
3040.291181,1406.391290,-12805.562797,-1302.362347
3040.291509,1924.535449,-13175.665768,-1991.848295
3040.291837,1628.453072,-11177.109724,-1225.752797
3040.292165,1110.308913,-10732.986159,-995.924147
3040.292492,444.123565,-11325.150913,-153.219100
3040.292820,518.144159,-9548.656652,612.876398
3040.293148,0.000000,-6587.832884,383.047749
3040.293475,-444.123565,-6513.812290,689.485948
3040.293803,222.061783,-6883.915261,919.314598
3040.294131,1036.288319,-6883.915261,1838.629195
3040.294459,1628.453072,-7550.100608,1455.581446
3040.294786,2368.659014,-9474.636058,-459.657299
3040.295114,2442.679609,-10881.027347,-306.438199
3040.295442,1406.391290,-12139.377449,0.000000
3040.295769,1406.391290,-13989.892304,-1762.019645
3040.296097,1776.494261,-13841.851115,-2451.505594
3040.296424,888.247130,-11251.130318,-2298.286494
3040.296752,-296.082377,-11325.150913,-766.095498
3040.297079,-1110.308913,-10584.944971,383.047749
3040.297407,-1554.432478,-7402.059420,1608.800546
3040.297734,-2960.823768,-4293.194464,1149.143247
3040.298062,-4515.256246,-5329.482782,0.000000
3040.298389,-3849.070898,-6957.935855,-612.876398
3040.298717,-1258.350101,-6217.729913,-1149.143247
3040.299044,0.000000,-6661.853478,-1072.533697
3040.299372,1776.494261,-11547.212695,76.609550
3040.299699,3108.864956,-13619.789333,-306.438199
3040.300027,2368.659014,-12879.583391,-459.657299
3040.300354,1332.370696,-13989.892304,-1915.238745
3040.300682,888.247130,-14211.954086,-3217.601092
3040.301009,370.102971,-12139.377449,-2757.943793
3040.301337,-1628.453072,-9918.759623,-1378.971896
3040.301664,-2738.761985,-9622.677246,612.876398
3040.301992,-2664.741391,-7254.018232,1762.019645
3040.302319,-2072.576638,-5403.503377,1378.971896
3040.302647,-2072.576638,-4811.338623,1455.581446
3040.302974,-148.041188,-5773.606348,1225.752797
3040.303302,148.041188,-6883.915261,1455.581446
3040.303629,518.144159,-8290.306550,1608.800546
3040.303957,2886.803174,-10214.842000,0.000000
3040.304285,2294.638420,-11473.192101,-1455.581446
3040.304612,444.123565,-11917.315666,76.609550
3040.304940,0.000000,-13323.706956,-459.657299
3040.305267,962.267725,-13989.892304,-2757.943793
3040.305595,814.226536,-12139.377449,-2987.772442
3040.305922,296.082377,-10362.883188,-1991.848295
3040.306250,-1258.350101,-10436.903782,306.438199
3040.306577,-1924.535449,-8068.244768,1455.581446
3040.306905,-1628.453072,-4811.338623,689.485948
3040.307232,-1406.391290,-3182.885551,229.828649
3040.307560,-370.102971,-5699.585753,2221.676944
3040.307887,3034.844362,-7550.100608,3140.991542
3040.308215,4589.276840,-8068.244768,2681.334243
3040.308542,4663.297435,-11547.212695,536.266849
3040.308870,3627.009116,-13323.706956,-1455.581446
3040.309197,2072.576638,-14285.974681,-2298.286494
3040.309525,1036.288319,-13619.789333,-2834.553343
3040.309852,888.247130,-14211.954086,-3983.696590
3040.310180,1776.494261,-13693.809927,-2604.724693
3040.310507,1258.350101,-11029.068536,-919.314598
3040.310835,-296.082377,-10066.800811,153.219100
3040.311162,-1776.494261,-8216.285956,842.705048
3040.311490,-2886.803174,-5033.400406,383.047749
3040.311817,-2368.659014,-3034.844362,-612.876398
3040.312145,-1554.432478,-5181.441594,0.000000
3040.312472,2812.782580,-8142.265362,2911.162892
3040.312800,5403.503377,-9252.574275,3217.601092
3040.313127,6513.812290,-12287.418637,1302.362347
3040.313455,5181.441594,-15174.221811,-1302.362347
3040.313782,1554.432478,-14211.954086,-1991.848295
3040.314110,-1184.329507,-12731.542202,-2604.724693
3040.314437,-2146.597232,-12361.439231,-3983.696590
3040.314765,-1110.308913,-11251.130318,-3524.039291
3040.315093,-370.102971,-9326.594869,-1838.629195
3040.315420,-814.226536,-9918.759623,1685.410096
3040.315748,-1850.514855,-8142.265362,2604.724693
3040.316075,-2516.700203,-5477.523971,1685.410096
3040.316403,-4441.235652,-2738.761985,995.924147
3040.316730,-3775.050304,-4515.256246,229.828649
3040.317058,-1776.494261,-6587.832884,1072.533697
3040.317385,666.185348,-7328.038826,2374.896044
3040.317713,2590.720797,-9104.533087,2451.505594
3040.318040,4145.153275,-14508.036463,766.095498
3040.318368,1776.494261,-15248.242405,153.219100
3040.318695,-1110.308913,-12435.459826,-1302.362347
3040.319023,-1628.453072,-12361.439231,-4136.915689
3040.319350,-1702.473667,-12657.521608,-4519.963438
3040.319678,-1258.350101,-9474.636058,-2451.505594
3040.320005,-1480.411884,-7402.059420,766.095498
3040.320333,-2812.782580,-7105.977043,2911.162892
3040.320660,-3108.864956,-5995.668130,2911.162892
3040.320988,-2664.741391,-3627.009116,0.000000
3040.321315,-3404.947333,-4885.359217,-689.485948
3040.321643,-518.144159,-8216.285956,229.828649
3040.321970,1702.473667,-9918.759623,766.095498
3040.322298,3478.967927,-10881.027347,1532.190996
3040.322625,4219.173869,-12213.398043,459.657299
3040.322953,3108.864956,-14878.139434,-1225.752797
3040.323280,814.226536,-14730.098246,-1225.752797
3040.323608,518.144159,-12805.562797,-3677.258390
3040.323935,1406.391290,-11991.336260,-5515.887586
3040.324263,370.102971,-10214.842000,-1991.848295
3040.324590,-296.082377,-8438.347739,-383.047749
3040.324918,-370.102971,-9548.656652,1762.019645
3040.325245,-1406.391290,-5921.647536,1915.238745
3040.325573,0.000000,-3627.009116,-306.438199
3040.325901,370.102971,-6883.915261,-919.314598
3040.326228,1332.370696,-9918.759623,1302.362347
3040.326556,3330.926739,-8956.491898,3524.039291
3040.326883,5107.421000,-8734.430116,2451.505594
3040.327211,4071.132681,-11769.274478,459.657299
3040.327538,1628.453072,-14359.995275,383.047749
3040.327866,-1184.329507,-12139.377449,-842.705048
3040.328193,-1850.514855,-11695.253884,-4366.744339
3040.328521,-370.102971,-11843.295072,-6128.763984
3040.328848,814.226536,-9622.677246,-3524.039291
3040.329176,444.123565,-8956.491898,842.705048
3040.329503,-592.164754,-9252.574275,4673.182538
3040.329831,666.185348,-6587.832884,3064.381992
3040.330158,1184.329507,-3330.926739,919.314598
3040.330486,0.000000,-5107.421000,459.657299
3040.330813,296.082377,-7550.100608,1991.848295
3040.331141,1628.453072,-7994.224174,3753.867940
3040.331468,3182.885551,-7402.059420,2451.505594
3040.331796,3552.988522,-11843.295072,-229.828649
3040.332123,1554.432478,-14952.160028,0.000000
3040.332451,-740.205942,-13693.809927,-995.924147
3040.332778,-1850.514855,-11843.295072,-3753.867940
3040.333106,-1554.432478,-12213.398043,-6511.811733
3040.333433,-2368.659014,-10584.944971,-5286.058936
3040.333761,-2220.617826,-7994.224174,-1149.143247
3040.334088,-1628.453072,-7328.038826,2145.067394
3040.334416,296.082377,-7624.121203,2834.553343
3040.334743,1628.453072,-6143.709319,1378.971896
3040.335071,0.000000,-6217.729913,1072.533697
3040.335398,-1776.494261,-8512.368333,1302.362347
3040.335726,0.000000,-10066.800811,1608.800546
3040.336053,1628.453072,-11103.089130,-995.924147
3040.336381,1924.535449,-12213.398043,-2451.505594
3040.336709,1480.411884,-14952.160028,-1685.410096
3040.337036,296.082377,-14730.098246,-995.924147
3040.337364,370.102971,-12805.562797,-1915.238745
3040.337691,518.144159,-11473.192101,-3983.696590
3040.338019,-592.164754,-9844.739029,-3140.991542
3040.338346,-1924.535449,-9104.533087,459.657299
3040.338674,-1110.308913,-7994.224174,459.657299
3040.339001,-740.205942,-7105.977043,2068.457845
3040.339329,0.000000,-5033.400406,1532.190996
3040.339656,-888.247130,-4959.379811,1302.362347
3040.339984,-1924.535449,-7772.162391,2757.943793
3040.340311,-592.164754,-8734.430116,2145.067394
3040.340639,2442.679609,-9030.512492,76.609550
3040.340966,1702.473667,-10214.842000,-919.314598
3040.341294,2368.659014,-13323.706956,-919.314598
3040.341621,1998.556043,-14434.015869,383.047749
3040.341949,1702.473667,-12805.562797,-306.438199
3040.342276,1850.514855,-11621.233289,-3140.991542
3040.342604,1258.350101,-10436.903782,-3140.991542
3040.342931,148.041188,-7920.203579,-689.485948
3040.343259,-814.226536,-7920.203579,1225.752797
3040.343586,-1406.391290,-7328.038826,1302.362347
3040.343914,-1332.370696,-5329.482782,-153.219100
3040.344241,-1406.391290,-4145.153275,-995.924147
3040.344569,-2220.617826,-7031.956449,536.266849
3040.344896,-296.082377,-9178.553681,2451.505594
3040.345224,3182.885551,-11029.068536,1072.533697
3040.345551,3775.050304,-10807.006753,919.314598
3040.345879,3923.091493,-14582.057057,-536.266849
3040.346206,2220.617826,-16062.468941,-1149.143247
3040.346534,1036.288319,-14063.912898,-1762.019645
3040.346861,1184.329507,-10807.006753,-3830.477490
3040.347189,1036.288319,-11769.274478,-4903.011187
3040.347517,-518.144159,-9918.759623,-919.314598
3040.347844,-444.123565,-8142.265362,612.876398
3040.348172,296.082377,-7698.141797,1225.752797
3040.348499,-1110.308913,-6957.935855,1838.629195
3040.348827,-1184.329507,-5255.462188,842.705048
3040.349154,-962.267725,-7031.956449,383.047749
3040.349482,-1332.370696,-7772.162391,2145.067394
3040.349809,1554.432478,-9178.553681,1225.752797
3040.350137,3404.947333,-9844.739029,842.705048
3040.350464,2590.720797,-14359.995275,1072.533697
3040.350792,888.247130,-15174.221811,766.095498
3040.351119,0.000000,-12435.459826,-1225.752797
3040.351447,-2072.576638,-11325.150913,-3140.991542
3040.351774,-1184.329507,-11695.253884,-4749.792088
3040.352102,-888.247130,-8734.430116,-2145.067394
3040.352429,-444.123565,-7179.997637,1149.143247
3040.352757,-296.082377,-7550.100608,3524.039291
3040.353084,296.082377,-6069.688724,2451.505594
3040.353412,-888.247130,-3330.926739,1991.848295
3040.353739,-2146.597232,-5181.441594,1532.190996
3040.354067,-1258.350101,-8290.306550,689.485948
3040.354394,888.247130,-8660.409521,689.485948
3040.354722,2368.659014,-10288.862594,-383.047749
3040.355049,2590.720797,-14211.954086,-1149.143247
3040.355377,1850.514855,-16580.613101,229.828649
3040.355704,222.061783,-14063.912898,-229.828649
3040.356032,814.226536,-12879.583391,-3600.648841
3040.356359,222.061783,-11621.233289,-4903.011187
3040.356687,-1628.453072,-10066.800811,-3907.087040
3040.357014,-1924.535449,-8216.285956,-536.266849
3040.357342,-1184.329507,-7254.018232,306.438199
3040.357669,-370.102971,-5699.585753,306.438199
3040.357997,-148.041188,-4737.318029,0.000000
3040.358325,-1850.514855,-7105.977043,536.266849
3040.358652,-666.185348,-9030.512492,919.314598
3040.358980,2590.720797,-9178.553681,0.000000
3040.359307,4515.256246,-11843.295072,-995.924147
3040.359635,3478.967927,-14952.160028,0.000000
3040.359962,3182.885551,-15470.304188,766.095498
3040.360290,2072.576638,-13397.727550,229.828649
3040.360617,888.247130,-11917.315666,-1149.143247
3040.360945,666.185348,-11029.068536,-2834.553343
3040.361272,-740.205942,-8734.430116,-1072.533697
3040.361600,-296.082377,-7476.080014,-153.219100
3040.361927,-592.164754,-6513.812290,1455.581446
3040.362255,-1554.432478,-6069.688724,1378.971896
3040.362582,-2220.617826,-3849.070898,383.047749
3040.362910,-2960.823768,-3701.029710,76.609550
3040.363237,-962.267725,-7105.977043,459.657299
3040.363565,2664.741391,-8808.450710,1455.581446
3040.363892,5329.482782,-9548.656652,2757.943793
3040.364220,4515.256246,-12139.377449,2298.286494
3040.364547,3182.885551,-16136.489536,1991.848295
3040.364875,1628.453072,-16358.551318,306.438199
3040.365202,-370.102971,-11917.315666,-2221.676944
3040.365530,-888.247130,-9474.636058,-4366.744339
3040.365857,-1110.308913,-9918.759623,-4596.572988
3040.366185,-740.205942,-9918.759623,-1991.848295
3040.366512,444.123565,-7624.121203,1225.752797
3040.366840,592.164754,-6069.688724,1685.410096
3040.367167,222.061783,-5403.503377,1685.410096
3040.367495,-2220.617826,-5625.565159,1149.143247
3040.367822,-2590.720797,-7550.100608,-76.609550
3040.368150,74.020594,-9030.512492,-1225.752797
3040.368477,3182.885551,-10436.903782,-766.095498
3040.368805,2886.803174,-13101.645173,1302.362347
3040.369133,1480.411884,-16506.592507,2068.457845
3040.369460,666.185348,-16728.654289,-229.828649
3040.369788,-370.102971,-13323.706956,-4290.134789
3040.370115,-2220.617826,-10436.903782,-6511.811733
3040.370443,-2812.782580,-9918.759623,-4826.401637
3040.370770,-222.061783,-9400.615463,-1225.752797
3040.371098,1628.453072,-8956.491898,1838.629195
3040.371425,1776.494261,-7698.141797,3447.429741
3040.371753,518.144159,-5255.462188,3370.820191
3040.372080,-518.144159,-4293.194464,1455.581446
3040.372408,-2220.617826,-5551.544565,383.047749
3040.372735,-2220.617826,-7328.038826,0.000000
3040.373063,296.082377,-7994.224174,459.657299
3040.373390,666.185348,-9770.718434,76.609550
3040.373718,74.020594,-13545.768739,1455.581446
3040.374045,-148.041188,-15248.242405,919.314598
3040.374373,-222.061783,-13767.830521,-612.876398
3040.374700,74.020594,-11917.315666,-3983.696590
3040.375028,148.041188,-11251.130318,-4673.182538
3040.375355,518.144159,-10214.842000,-919.314598
3040.375683,1406.391290,-7031.956449,2068.457845
3040.376010,1702.473667,-5625.565159,3753.867940
3040.376338,296.082377,-4663.297435,3677.258390
3040.376665,-1480.411884,-3849.070898,1915.238745
3040.376993,-1850.514855,-4663.297435,536.266849
3040.377320,-740.205942,-8068.244768,-842.705048
3040.377648,1998.556043,-9844.739029,-306.438199
3040.377975,2294.638420,-10436.903782,459.657299
3040.378303,1258.350101,-14137.933492,1072.533697
3040.378630,1184.329507,-17172.777854,153.219100
3040.378958,1702.473667,-14878.139434,-2374.896044
3040.379285,1184.329507,-12139.377449,-4596.572988
3040.379613,370.102971,-11769.274478,-4519.963438
3040.379941,74.020594,-11473.192101,-2221.676944
3040.380268,444.123565,-8512.368333,612.876398
3040.380596,814.226536,-7254.018232,1608.800546
3040.380923,-148.041188,-6809.894666,1608.800546
3040.381251,-444.123565,-5921.647536,0.000000
3040.381578,-814.226536,-5551.544565,-153.219100
3040.381906,-1628.453072,-6069.688724,766.095498
3040.382233,962.267725,-7846.182985,1149.143247
3040.382561,2146.597232,-10658.965565,1072.533697
3040.382888,1480.411884,-13397.727550,1455.581446
3040.383216,2072.576638,-13841.851115,842.705048
3040.383543,814.226536,-13249.686362,-995.924147
3040.383871,370.102971,-13101.645173,-2221.676944
3040.384198,74.020594,-12731.542202,-3983.696590
3040.384526,-1110.308913,-10658.965565,-2604.724693
3040.384853,-296.082377,-8734.430116,-229.828649
3040.385181,592.164754,-8068.244768,1225.752797
3040.385508,-1036.288319,-7254.018232,2834.553343
3040.385836,-2072.576638,-4589.276840,2298.286494
3040.386163,-2368.659014,-3849.070898,689.485948
3040.386491,-1480.411884,-5699.585753,76.609550
3040.386818,1406.391290,-7994.224174,-229.828649
3040.387146,1924.535449,-9104.533087,1838.629195
3040.387473,1184.329507,-10658.965565,3064.381992
3040.387801,592.164754,-13027.624579,1072.533697
3040.388128,1406.391290,-14582.057057,-2221.676944
3040.388456,888.247130,-13767.830521,-4136.915689
3040.388783,370.102971,-13545.768739,-4749.792088
3040.389111,-370.102971,-11991.336260,-2374.896044
3040.389438,370.102971,-10140.821405,-612.876398
3040.389766,1036.288319,-9104.533087,306.438199
3040.390093,-222.061783,-7624.121203,2145.067394
3040.390421,-814.226536,-5699.585753,2374.896044
3040.390749,0.000000,-4737.318029,842.705048
3040.391076,296.082377,-5477.523971,-766.095498
3040.391404,296.082377,-6957.935855,919.314598
3040.391731,592.164754,-8586.388927,1532.190996
3040.392059,370.102971,-10584.944971,1149.143247
3040.392386,222.061783,-14359.995275,-612.876398
3040.392714,296.082377,-14804.118840,-2221.676944
3040.393041,74.020594,-12509.480420,-3294.210641
3040.393369,-592.164754,-12213.398043,-3294.210641
3040.393696,740.205942,-12879.583391,-2911.162892
3040.394024,2368.659014,-11251.130318,-919.314598
3040.394351,2220.617826,-8586.388927,1378.971896
3040.394679,592.164754,-7105.977043,2451.505594
3040.395006,-370.102971,-6291.750507,2451.505594
3040.395334,-592.164754,-4219.173869,1302.362347
3040.395661,0.000000,-4737.318029,612.876398
3040.395989,148.041188,-6143.709319,1532.190996
3040.396316,1184.329507,-6587.832884,2221.676944
3040.396644,370.102971,-11029.068536,1225.752797
3040.396971,888.247130,-14582.057057,-306.438199
3040.397299,1776.494261,-13693.809927,-2528.115143
3040.397627,1258.350101,-12435.459826,-3447.429741
3040.397954,740.205942,-14285.974681,-2374.896044
3040.398282,-370.102971,-13323.706956,-995.924147
3040.398610,1110.308913,-9178.553681,-842.705048
3040.398937,0.000000,-6513.812290,-459.657299
3040.399265,-1924.535449,-7698.141797,383.047749
3040.399593,-2294.638420,-6661.853478,306.438199
3040.399920,-2590.720797,-3849.070898,842.705048
3040.400248,-1480.411884,-4515.256246,766.095498
3040.400576,1406.391290,-8808.450710,459.657299
3040.400904,4145.153275,-11251.130318,2298.286494
3040.401231,4367.215058,-11621.233289,2451.505594
3040.401559,3256.906145,-13175.665768,536.266849
3040.401887,1480.411884,-14878.139434,-1455.581446
3040.402214,-814.226536,-12657.521608,-3830.477490
3040.402542,-2072.576638,-10955.047942,-4673.182538
3040.402870,-3775.050304,-11177.109724,-2911.162892
3040.403197,-2146.597232,-11251.130318,-1455.581446
3040.403525,-1110.308913,-8956.491898,-1608.800546
3040.403853,-1776.494261,-7994.224174,-1149.143247
3040.404180,-2146.597232,-7476.080014,306.438199
3040.404508,-962.267725,-5255.462188,842.705048
3040.404836,0.000000,-5033.400406,1072.533697
3040.405164,0.000000,-6365.771101,1762.019645
3040.405491,1036.288319,-7994.224174,2451.505594
3040.405819,2072.576638,-8586.388927,2681.334243
3040.406147,1480.411884,-11177.109724,2145.067394
3040.406474,1258.350101,-14952.160028,229.828649
3040.406802,592.164754,-14285.974681,-2604.724693
3040.407130,0.000000,-11991.336260,-4366.744339
3040.407457,-2072.576638,-11177.109724,-4366.744339
3040.407785,-1258.350101,-11917.315666,-2451.505594
3040.408113,518.144159,-7920.203579,-306.438199
3040.408440,962.267725,-6661.853478,1455.581446
3040.408768,518.144159,-7846.182985,2757.943793
3040.409096,444.123565,-7402.059420,3217.601092
3040.409423,0.000000,-4811.338623,1532.190996
3040.409751,-740.205942,-5995.668130,153.219100
3040.410079,-148.041188,-9030.512492,689.485948
3040.410407,888.247130,-8660.409521,0.000000
3040.410734,1554.432478,-11473.192101,-459.657299
3040.411062,2220.617826,-15470.304188,-766.095498
3040.411390,3775.050304,-14878.139434,-1991.848295
3040.411717,1628.453072,-12139.377449,-2528.115143
3040.412045,370.102971,-12583.501014,-1991.848295
3040.412373,222.061783,-12065.356855,-1762.019645
3040.412700,1480.411884,-8882.471304,-1532.190996
3040.413028,1998.556043,-7772.162391,-536.266849
3040.413356,1036.288319,-8808.450710,1838.629195
3040.413683,74.020594,-5847.626942,2528.115143
3040.414011,-222.061783,-4145.153275,2221.676944
3040.414339,-1184.329507,-6735.874072,1532.190996
3040.414667,-1258.350101,-8290.306550,0.000000
3040.414994,-962.267725,-9326.594869,-229.828649
3040.415322,518.144159,-11325.150913,-995.924147
3040.415650,1406.391290,-13323.706956,-2068.457845
3040.415977,2072.576638,-13619.789333,-1991.848295
3040.416305,1110.308913,-12879.583391,-1225.752797
3040.416633,148.041188,-12435.459826,-1762.019645
3040.416960,1554.432478,-11325.150913,-2145.067394
3040.417288,1850.514855,-8216.285956,-1608.800546
3040.417616,1406.391290,-7624.121203,-306.438199
3040.417943,0.000000,-8364.327145,1685.410096
3040.418271,-1110.308913,-6587.832884,2987.772442
3040.418599,-1702.473667,-4145.153275,1072.533697
3040.418926,-1702.473667,-6143.709319,76.609550
3040.419254,-1480.411884,-8364.327145,459.657299
3040.419582,74.020594,-9252.574275,919.314598
3040.419910,2442.679609,-11177.109724,229.828649
3040.420237,1702.473667,-13841.851115,0.000000
3040.420565,518.144159,-13471.748144,-1455.581446
3040.420893,74.020594,-10955.047942,-1072.533697
3040.421220,-1258.350101,-11177.109724,-2451.505594
3040.421548,-1184.329507,-11547.212695,-2374.896044
3040.421876,1184.329507,-9844.739029,-2681.334243
3040.422203,1480.411884,-8956.491898,-306.438199
3040.422531,0.000000,-9474.636058,2604.724693
3040.422859,-444.123565,-7846.182985,3907.087040
3040.423186,-1628.453072,-4589.276840,1532.190996
3040.423514,-2146.597232,-4737.318029,306.438199
3040.423842,-2146.597232,-7476.080014,-995.924147
3040.424170,-740.205942,-8808.450710,76.609550
3040.424497,1702.473667,-8512.368333,1149.143247
3040.424825,2886.803174,-11029.068536,1149.143247
3040.425153,2664.741391,-14285.974681,536.266849
3040.425480,1184.329507,-13397.727550,-1149.143247
3040.425808,-592.164754,-12509.480420,-4060.306139
3040.426136,74.020594,-12213.398043,-5362.668486
3040.426463,1776.494261,-12139.377449,-4366.744339
3040.426791,2664.741391,-10436.903782,-612.876398
3040.427119,1554.432478,-9400.615463,3140.991542
3040.427446,740.205942,-8438.347739,3830.477490
3040.427774,1110.308913,-5921.647536,1225.752797
3040.428102,-1480.411884,-4293.194464,-766.095498
3040.428429,-2368.659014,-5995.668130,-459.657299
3040.428757,-2294.638420,-7772.162391,306.438199
3040.429085,962.267725,-9918.759623,153.219100
3040.429413,3256.906145,-12657.521608,153.219100
3040.429740,3330.926739,-15618.345376,1149.143247
3040.430068,2294.638420,-13767.830521,0.000000
3040.430396,1776.494261,-13841.851115,-2451.505594
3040.430723,222.061783,-13693.809927,-4979.620737
3040.431051,0.000000,-10436.903782,-3753.867940
3040.431379,592.164754,-7402.059420,-995.924147
3040.431706,222.061783,-7105.977043,2451.505594
3040.432034,-888.247130,-7254.018232,4290.134789
3040.432362,0.000000,-5773.606348,3753.867940
3040.432689,-518.144159,-4737.318029,306.438199
3040.433017,-1110.308913,-8068.244768,-842.705048
3040.433345,-962.267725,-9548.656652,-766.095498
3040.433673,-222.061783,-8512.368333,153.219100
3040.434000,518.144159,-11769.274478,229.828649
3040.434328,1850.514855,-14656.077652,0.000000
3040.434656,1110.308913,-13175.665768,-153.219100
3040.434983,-740.205942,-11399.171507,-1455.581446
3040.435311,-444.123565,-12065.356855,-3064.381992
3040.435639,-74.020594,-10881.027347,-3140.991542
3040.435966,518.144159,-8068.244768,-1608.800546
3040.436294,0.000000,-7624.121203,1149.143247
3040.436622,-222.061783,-8438.347739,2681.334243
3040.436949,-370.102971,-6143.709319,2451.505594
3040.437277,-148.041188,-4071.132681,-306.438199
3040.437605,-1406.391290,-7179.997637,-153.219100
3040.437932,-1036.288319,-10362.883188,766.095498
3040.438260,814.226536,-10881.027347,1149.143247
3040.438588,1110.308913,-10955.047942,306.438199
3040.438916,1406.391290,-14137.933492,-995.924147
3040.439243,740.205942,-13767.830521,-1378.971896
3040.439571,-740.205942,-11325.150913,-1915.238745
3040.439899,-1110.308913,-11695.253884,-2298.286494
3040.440226,-444.123565,-11695.253884,-3447.429741
3040.440554,0.000000,-9178.553681,-2604.724693
3040.440882,444.123565,-7624.121203,0.000000
3040.441209,0.000000,-7846.182985,1915.238745
3040.441537,-296.082377,-7476.080014,2604.724693
3040.441865,370.102971,-5477.523971,919.314598
3040.442192,-148.041188,-7105.977043,0.000000
3040.442520,222.061783,-8956.491898,229.828649
3040.442848,2072.576638,-9622.677246,1302.362347
3040.443176,3330.926739,-10510.924376,1838.629195
3040.443503,1850.514855,-12953.603985,1915.238745
3040.443831,-296.082377,-12657.521608,229.828649
3040.444159,-1332.370696,-12287.418637,-1991.848295
3040.444486,-2072.576638,-11843.295072,-5056.230287
3040.444814,0.000000,-10732.986159,-4596.572988
3040.445142,740.205942,-8290.306550,-2451.505594
3040.445469,814.226536,-8142.265362,842.705048
3040.445797,1110.308913,-9178.553681,3370.820191
3040.446125,814.226536,-5921.647536,3217.601092
3040.446452,592.164754,-4071.132681,1532.190996
3040.446780,296.082377,-5995.668130,229.828649
3040.447108,74.020594,-8882.471304,0.000000
3040.447435,222.061783,-9178.553681,1072.533697
3040.447763,888.247130,-10584.944971,306.438199
3040.448091,1850.514855,-14582.057057,0.000000
3040.448419,1406.391290,-15100.201217,-612.876398
3040.448746,1036.288319,-12731.542202,-1838.629195
3040.449074,0.000000,-12879.583391,-2834.553343
3040.449402,666.185348,-11695.253884,-4060.306139
3040.449729,888.247130,-9030.512492,-3064.381992
3040.450057,444.123565,-7328.038826,-229.828649
3040.450385,296.082377,-6883.915261,2298.286494
3040.450712,222.061783,-6513.812290,3217.601092
3040.451040,148.041188,-5477.523971,1762.019645
3040.451368,-592.164754,-6661.853478,-229.828649
3040.451695,-370.102971,-9622.677246,-459.657299
3040.452023,370.102971,-11103.089130,612.876398
3040.452351,740.205942,-10510.924376,842.705048
3040.452679,740.205942,-12509.480420,153.219100
3040.453006,666.185348,-14434.015869,-1072.533697
3040.453334,444.123565,-13027.624579,-2068.457845
3040.453662,-962.267725,-10658.965565,-2374.896044
3040.453989,-444.123565,-10214.842000,-1915.238745
3040.454317,0.000000,-9474.636058,-1302.362347
3040.454645,148.041188,-8438.347739,229.828649
3040.454972,222.061783,-7402.059420,919.314598
3040.455300,444.123565,-7105.977043,919.314598
3040.455628,-148.041188,-6439.791695,1302.362347
3040.455955,148.041188,-6069.688724,76.609550
3040.456283,0.000000,-8216.285956,459.657299
3040.456611,0.000000,-10362.883188,1608.800546
3040.456938,1258.350101,-10584.944971,842.705048
3040.457266,592.164754,-11621.233289,612.876398
3040.457594,0.000000,-13175.665768,-842.705048
3040.457922,0.000000,-13619.789333,-1915.238745
3040.458249,-370.102971,-12139.377449,-2221.676944
3040.458577,-1628.453072,-9918.759623,-2451.505594
3040.458905,222.061783,-10436.903782,-2911.162892
3040.459232,962.267725,-9104.533087,-1225.752797
3040.459560,666.185348,-8512.368333,306.438199
3040.459888,74.020594,-7698.141797,1225.752797
3040.460215,296.082377,-5625.565159,842.705048
3040.460543,592.164754,-5329.482782,0.000000
3040.460871,0.000000,-8142.265362,1072.533697
3040.461198,296.082377,-9844.739029,1685.410096
3040.461526,2368.659014,-10214.842000,995.924147
3040.461854,3108.864956,-13027.624579,-536.266849
3040.462182,2146.597232,-15322.262999,-919.314598
3040.462509,0.000000,-13767.830521,-1302.362347
3040.462837,-1480.411884,-11251.130318,-2834.553343
3040.463165,-2220.617826,-11325.150913,-3447.429741
3040.463492,-740.205942,-10214.842000,-3677.258390
3040.463820,370.102971,-8216.285956,-1838.629195
3040.464148,888.247130,-7105.977043,1149.143247
3040.464475,1332.370696,-7328.038826,2911.162892
3040.464803,1406.391290,-6291.750507,2451.505594
3040.465131,1110.308913,-4293.194464,1225.752797
3040.465458,-296.082377,-6217.729913,1378.971896
3040.465786,0.000000,-9548.656652,1455.581446
3040.466114,1110.308913,-10288.862594,1225.752797
3040.466441,2294.638420,-10510.924376,612.876398
3040.466769,1332.370696,-13323.706956,689.485948
3040.467097,666.185348,-14804.118840,-536.266849
3040.467425,-592.164754,-13619.789333,-612.876398
3040.467752,-1702.473667,-10510.924376,-2757.943793
3040.468080,-1332.370696,-9326.594869,-2834.553343
3040.468408,-814.226536,-8068.244768,-1455.581446
3040.468735,-370.102971,-5995.668130,995.924147
3040.469063,-370.102971,-6883.915261,2451.505594
3040.469391,-740.205942,-5921.647536,3217.601092
3040.469718,0.000000,-4959.379811,919.314598
3040.470046,-296.082377,-6217.729913,-459.657299
3040.470374,-1332.370696,-9474.636058,612.876398
3040.470701,370.102971,-10584.944971,229.828649
3040.471029,2442.679609,-11917.315666,-536.266849
3040.471357,2812.782580,-15248.242405,-536.266849
3040.471685,2146.597232,-16062.468941,76.609550
3040.472012,1776.494261,-14285.974681,-919.314598
3040.472340,-1258.350101,-11029.068536,-1455.581446
3040.472668,-2886.803174,-10066.800811,-2834.553343
3040.472995,-2812.782580,-9326.594869,-3370.820191
3040.473323,-2442.679609,-7105.977043,-1991.848295
3040.473651,-962.267725,-6513.812290,-306.438199
3040.473978,-296.082377,-6883.915261,153.219100
3040.474306,-222.061783,-6143.709319,1072.533697
3040.474634,-518.144159,-6661.853478,842.705048
3040.474961,666.185348,-8956.491898,0.000000
3040.475289,1776.494261,-10066.800811,0.000000
3040.475617,3182.885551,-10732.986159,612.876398
3040.475944,3256.906145,-14285.974681,536.266849
3040.476272,2886.803174,-16580.613101,919.314598
3040.476600,888.247130,-12731.542202,0.000000
3040.476928,-814.226536,-10214.842000,-1225.752797
3040.477255,-1850.514855,-10955.047942,-2451.505594
3040.477583,-1110.308913,-9696.697840,-2834.553343
3040.477911,-370.102971,-6883.915261,-1455.581446
3040.478238,-296.082377,-6069.688724,459.657299
3040.478566,74.020594,-6809.894666,995.924147
3040.478894,444.123565,-5033.400406,1302.362347
3040.479221,0.000000,-3330.926739,1838.629195
3040.479549,148.041188,-6587.832884,1991.848295
3040.479877,1702.473667,-9770.718434,1532.190996
3040.480204,4071.132681,-11325.150913,766.095498
3040.480532,4145.153275,-13323.706956,459.657299
3040.480860,2886.803174,-15766.386565,689.485948
3040.481188,888.247130,-15396.283594,0.000000
3040.481515,-1110.308913,-11843.295072,-1838.629195
3040.481843,-3330.926739,-9252.574275,-3830.477490
3040.482171,-2960.823768,-9326.594869,-4060.306139
3040.482498,-814.226536,-7994.224174,-2068.457845
3040.482826,962.267725,-5995.668130,1072.533697
3040.483154,888.247130,-5477.523971,3370.820191
3040.483481,0.000000,-5995.668130,2834.553343
3040.483809,0.000000,-5921.647536,1455.581446
3040.484137,296.082377,-7328.038826,-1149.143247
3040.484464,1554.432478,-9474.636058,0.000000
3040.484792,3478.967927,-11843.295072,153.219100
3040.485120,4663.297435,-15100.201217,1225.752797
3040.485447,3256.906145,-16432.571912,229.828649
3040.485775,1628.453072,-14804.118840,-995.924147
3040.486103,-1332.370696,-12805.562797,-3370.820191
3040.486431,-3849.070898,-10140.821405,-3907.087040
3040.486758,-3849.070898,-8142.265362,-4519.963438
3040.487086,-1850.514855,-7179.997637,-2374.896044
3040.487414,370.102971,-6513.812290,459.657299
3040.487741,1110.308913,-7624.121203,3217.601092
3040.488069,888.247130,-6365.771101,3907.087040
3040.488397,0.000000,-4885.359217,1455.581446
3040.488724,-518.144159,-7105.977043,-383.047749
3040.489052,0.000000,-9474.636058,-919.314598
3040.489380,1036.288319,-9696.697840,-229.828649
3040.489707,2960.823768,-11473.192101,766.095498
3040.490035,3256.906145,-14878.139434,1455.581446
3040.490363,1776.494261,-16876.695478,2221.676944
3040.490691,370.102971,-12731.542202,-689.485948
3040.491018,-1480.411884,-9918.759623,-3677.258390
3040.491346,-2590.720797,-10140.821405,-4366.744339
3040.491674,-2368.659014,-8142.265362,-2911.162892
3040.492001,-1924.535449,-4219.173869,0.000000
3040.492329,-2072.576638,-4515.256246,1762.019645
3040.492657,-666.185348,-6143.709319,2834.553343
3040.492984,0.000000,-5847.626942,1915.238745
3040.493312,-1036.288319,-5477.523971,919.314598
3040.493640,740.205942,-9770.718434,0.000000
3040.493967,2442.679609,-12509.480420,-689.485948
3040.494295,3701.029710,-12731.542202,0.000000
3040.494623,3034.844362,-13989.892304,766.095498
3040.494950,2516.700203,-15100.201217,612.876398
3040.495278,962.267725,-13471.748144,-1149.143247
3040.495606,-666.185348,-11843.295072,-2451.505594
3040.495934,-1554.432478,-10658.965565,-3907.087040
3040.496261,-1554.432478,-9918.759623,-3140.991542
3040.496589,-1850.514855,-8438.347739,-766.095498
3040.496917,-1110.308913,-6883.915261,842.705048
3040.497244,-1036.288319,-5625.565159,2298.286494
3040.497572,0.000000,-4737.318029,689.485948
3040.497900,148.041188,-5847.626942,689.485948
3040.498227,666.185348,-9252.574275,229.828649
3040.498555,2368.659014,-10732.986159,1149.143247
3040.498883,4441.235652,-10436.903782,1072.533697
3040.499210,2960.823768,-12213.398043,1225.752797
3040.499538,1554.432478,-15692.365970,612.876398
3040.499866,814.226536,-13989.892304,-689.485948
3040.500193,0.000000,-11399.171507,-2374.896044
3040.500521,-296.082377,-11547.212695,-3064.381992
3040.500848,-814.226536,-10362.883188,-2298.286494
3040.501176,74.020594,-7402.059420,383.047749
3040.501504,-592.164754,-5921.647536,2374.896044
3040.501831,-2590.720797,-6143.709319,3907.087040
3040.502159,-2368.659014,-4145.153275,1762.019645
3040.502487,-1924.535449,-3330.926739,-612.876398
3040.502814,-666.185348,-6439.791695,-536.266849
3040.503142,1554.432478,-9992.780217,229.828649
3040.503469,3701.029710,-10362.883188,1532.190996
3040.503797,2960.823768,-12953.603985,1302.362347
3040.504125,2368.659014,-15988.448347,-153.219100
3040.504452,2442.679609,-15840.407159,-2451.505594
3040.504780,222.061783,-13027.624579,-3064.381992
3040.505107,-1184.329507,-12139.377449,-3370.820191
3040.505435,-1332.370696,-11251.130318,-2221.676944
3040.505763,-444.123565,-8364.327145,-383.047749
3040.506090,-740.205942,-6513.812290,1455.581446
3040.506418,-1998.556043,-5921.647536,3217.601092
3040.506746,-962.267725,-5107.421000,1532.190996
3040.507073,-296.082377,-5329.482782,-229.828649
3040.507401,-370.102971,-7105.977043,-766.095498
3040.507728,592.164754,-8808.450710,-383.047749
3040.508056,2590.720797,-10362.883188,229.828649
3040.508384,3701.029710,-11917.315666,1072.533697
3040.508711,2664.741391,-15100.201217,689.485948
3040.509039,1924.535449,-15840.407159,-1072.533697
3040.509367,1332.370696,-13915.871710,-2757.943793
3040.509694,518.144159,-12509.480420,-2757.943793
3040.510022,0.000000,-11325.150913,-1838.629195
3040.510349,-1702.473667,-7328.038826,1302.362347
3040.510677,-2220.617826,-6069.688724,1762.019645
3040.511005,-2072.576638,-5921.647536,1072.533697
3040.511332,-2072.576638,-5033.400406,1072.533697
3040.511660,-2072.576638,-3478.967927,842.705048
3040.511988,-740.205942,-5107.421000,1532.190996
3040.512315,962.267725,-8142.265362,2221.676944
3040.512643,2960.823768,-10288.862594,1608.800546
3040.512970,3701.029710,-12287.418637,612.876398
3040.513298,3923.091493,-14508.036463,-229.828649
3040.513626,3997.112087,-15544.324782,-536.266849
3040.513953,2664.741391,-14285.974681,-1608.800546
3040.514281,0.000000,-12657.521608,-1685.410096
3040.514608,-1406.391290,-11843.295072,-1915.238745
3040.514936,-2294.638420,-9104.533087,-1608.800546
3040.515264,-2368.659014,-6439.791695,-1302.362347
3040.515591,-3034.844362,-6217.729913,-842.705048
3040.515919,-3404.947333,-4441.235652,766.095498
3040.516247,-2146.597232,-4219.173869,612.876398
3040.516574,0.000000,-6291.750507,612.876398
3040.516902,1184.329507,-8808.450710,1302.362347
3040.517229,3256.906145,-10807.006753,1225.752797
3040.517557,4663.297435,-11991.336260,459.657299
3040.517885,4145.153275,-14582.057057,-689.485948
3040.518212,2812.782580,-16580.613101,-1991.848295
3040.518540,888.247130,-14137.933492,-2604.724693
3040.518868,-962.267725,-11695.253884,-2757.943793
3040.519195,-1776.494261,-11991.336260,-2604.724693
3040.519523,-1480.411884,-10288.862594,-1532.190996
3040.519850,-962.267725,-8216.285956,0.000000
3040.520178,-814.226536,-6883.915261,-536.266849
3040.520506,-1332.370696,-5699.585753,1378.971896
3040.520833,-2294.638420,-2960.823768,1685.410096
3040.521161,-1628.453072,-3478.967927,1608.800546
3040.521489,-518.144159,-6587.832884,1225.752797
3040.521816,1702.473667,-8956.491898,1072.533697
3040.522144,2812.782580,-10510.924376,919.314598
3040.522471,3330.926739,-12139.377449,0.000000
3040.522799,2590.720797,-15322.262999,0.000000
3040.523127,1628.453072,-15248.242405,-1838.629195
3040.523454,0.000000,-13027.624579,-2681.334243
3040.523782,-1110.308913,-11621.233289,-3217.601092
3040.524109,-962.267725,-10658.965565,-2221.676944
3040.524437,-296.082377,-7698.141797,306.438199
3040.524765,-1258.350101,-6143.709319,1762.019645
3040.525092,-1850.514855,-5625.565159,3907.087040
3040.525420,-2146.597232,-4219.173869,3294.210641
3040.525748,-1850.514855,-3627.009116,689.485948
3040.526075,-1110.308913,-7179.997637,-306.438199
3040.526403,296.082377,-9474.636058,0.000000
3040.526730,1776.494261,-9844.739029,-153.219100
3040.527058,3404.947333,-12435.459826,995.924147
3040.527386,2960.823768,-15544.324782,0.000000
3040.527713,2738.761985,-16728.654289,-1608.800546
3040.528041,1332.370696,-13175.665768,-2757.943793
3040.528369,-222.061783,-11843.295072,-3217.601092
3040.528696,-888.247130,-11177.109724,-2451.505594
3040.529024,0.000000,-8216.285956,-1225.752797
3040.529351,-814.226536,-7624.121203,0.000000
3040.529679,-1036.288319,-7846.182985,1838.629195
3040.530007,-1258.350101,-5773.606348,1608.800546
3040.530334,-1110.308913,-4515.256246,1225.752797
3040.530662,-1480.411884,-5995.668130,76.609550
3040.530990,-1702.473667,-8660.409521,612.876398
3040.531317,296.082377,-9844.739029,0.000000
3040.531645,2812.782580,-11769.274478,-459.657299
3040.531972,4737.318029,-14804.118840,-1072.533697
3040.532300,4441.235652,-15026.180623,-612.876398
3040.532628,1776.494261,-13249.686362,-306.438199
3040.532955,222.061783,-12361.439231,-1762.019645
3040.533283,370.102971,-11251.130318,-3830.477490
3040.533610,-592.164754,-9104.533087,-2834.553343
3040.533938,-1776.494261,-7550.100608,229.828649
3040.534266,-1776.494261,-6809.894666,1838.629195
3040.534593,-1628.453072,-6291.750507,2528.115143
3040.534921,-1332.370696,-4441.235652,1762.019645
3040.535249,-148.041188,-5477.523971,1532.190996
3040.535576,592.164754,-8068.244768,2068.457845
3040.535904,1628.453072,-8734.430116,1608.800546
3040.536231,3923.091493,-10362.883188,766.095498
3040.536559,3775.050304,-13545.768739,-995.924147
3040.536887,3182.885551,-14952.160028,-459.657299
3040.537214,1406.391290,-12435.459826,-1455.581446
3040.537542,-222.061783,-11251.130318,-2374.896044
3040.537870,-962.267725,-11991.336260,-2987.772442
3040.538197,-592.164754,-10214.842000,-2987.772442
3040.538525,-1332.370696,-7994.224174,-1378.971896
3040.538852,-888.247130,-9400.615463,2145.067394
3040.539180,-888.247130,-7846.182985,2987.772442
3040.539508,-666.185348,-3849.070898,2451.505594
3040.539835,-2368.659014,-3108.864956,1225.752797
3040.540163,-962.267725,-6513.812290,383.047749
3040.540491,1258.350101,-10066.800811,459.657299
3040.540818,2442.679609,-10436.903782,1455.581446
3040.541146,3997.112087,-12139.377449,153.219100
3040.541473,2368.659014,-14285.974681,-536.266849
3040.541801,222.061783,-13989.892304,-2451.505594
3040.542129,-962.267725,-13767.830521,-3983.696590
3040.542456,-518.144159,-13027.624579,-4903.011187
3040.542784,222.061783,-10881.027347,-3447.429741
3040.543111,592.164754,-9696.697840,229.828649
3040.543439,-296.082377,-9252.574275,2987.772442
3040.543767,-2294.638420,-7254.018232,3907.087040
3040.544094,-2294.638420,-4219.173869,2528.115143
3040.544422,-3701.029710,-3330.926739,-689.485948
3040.544750,-3256.906145,-5847.626942,-1455.581446
3040.545077,-1184.329507,-8660.409521,-612.876398
3040.545405,2516.700203,-10362.883188,1072.533697
3040.545732,5255.462188,-13545.768739,1378.971896
3040.546060,4885.359217,-15618.345376,536.266849
3040.546388,3256.906145,-15766.386565,-766.095498
3040.546715,1628.453072,-13175.665768,-2757.943793
3040.547043,222.061783,-11621.233289,-4290.134789
3040.547371,-148.041188,-9326.594869,-3830.477490
3040.547698,-962.267725,-8438.347739,-1302.362347
3040.548026,-1480.411884,-7994.224174,2068.457845
3040.548353,-2590.720797,-7105.977043,3524.039291
3040.548681,-2294.638420,-4663.297435,2298.286494
3040.549009,-1036.288319,-4885.359217,-995.924147
3040.549336,-518.144159,-8438.347739,-1455.581446
3040.549664,370.102971,-8956.491898,919.314598
3040.549992,2294.638420,-8142.265362,1685.410096
3040.550319,3923.091493,-11103.089130,842.705048
3040.550647,3849.070898,-14508.036463,689.485948
3040.550974,3552.988522,-14137.933492,76.609550
3040.551302,1258.350101,-11399.171507,-1072.533697
3040.551630,-370.102971,-11325.150913,-3140.991542
3040.551957,-444.123565,-11769.274478,-4826.401637
3040.552285,-740.205942,-10066.800811,-3830.477490
3040.552612,-1998.556043,-7920.203579,-383.047749
3040.552940,-2442.679609,-7031.956449,2374.896044
3040.553268,-1628.453072,-6143.709319,1532.190996
3040.553595,-444.123565,-4737.318029,459.657299
3040.553923,-222.061783,-6143.709319,536.266849
3040.554251,296.082377,-9104.533087,1685.410096
3040.554578,2220.617826,-10510.924376,1991.848295
3040.554906,4145.153275,-10658.965565,842.705048
3040.555233,2886.803174,-13693.809927,-383.047749
3040.555561,1258.350101,-14434.015869,-689.485948
3040.555889,666.185348,-12213.398043,-2451.505594
3040.556216,0.000000,-11991.336260,-3983.696590
3040.556544,0.000000,-12287.418637,-3830.477490
3040.556872,74.020594,-10881.027347,-2757.943793
3040.557199,0.000000,-9178.553681,0.000000
3040.557527,-1258.350101,-8956.491898,2145.067394
3040.557854,-1998.556043,-6143.709319,2145.067394
3040.558182,-1332.370696,-3034.844362,919.314598
3040.558510,-444.123565,-5403.503377,153.219100
3040.558837,0.000000,-9178.553681,1608.800546
3040.559165,2220.617826,-10140.821405,2451.505594
3040.559493,2960.823768,-10066.800811,2681.334243
3040.559820,2294.638420,-13545.768739,842.705048
3040.560148,-222.061783,-14804.118840,-995.924147
3040.560475,-2072.576638,-12583.501014,-2911.162892
3040.560803,-1776.494261,-11251.130318,-4366.744339
3040.561131,518.144159,-11621.233289,-4826.401637
3040.561458,740.205942,-10140.821405,-1991.848295
3040.561786,370.102971,-8364.327145,2451.505594
3040.562113,444.123565,-7846.182985,3677.258390
3040.562441,-888.247130,-6883.915261,2374.896044
3040.562769,-2368.659014,-4071.132681,612.876398
3040.563096,-2146.597232,-3627.009116,-1072.533697
3040.563424,-1480.411884,-6957.935855,0.000000
3040.563752,592.164754,-10140.821405,459.657299
3040.564079,3182.885551,-10214.842000,2374.896044
3040.564407,4293.194464,-13249.686362,1455.581446
3040.564734,3552.988522,-16062.468941,383.047749
3040.565062,3034.844362,-14952.160028,-1762.019645
3040.565390,1332.370696,-11621.233289,-3677.258390
3040.565717,148.041188,-10140.821405,-3677.258390
3040.566045,0.000000,-8956.491898,-3217.601092
3040.566373,-444.123565,-7846.182985,-612.876398
3040.566700,-1184.329507,-7550.100608,2298.286494
3040.567028,-1702.473667,-6957.935855,2374.896044
3040.567355,-1110.308913,-6143.709319,0.000000
3040.567683,-962.267725,-7179.997637,-1991.848295
3040.568011,-518.144159,-9030.512492,-689.485948
3040.568338,444.123565,-10066.800811,1685.410096
3040.568666,3627.009116,-10140.821405,1991.848295
3040.568994,5625.565159,-12065.356855,1072.533697
3040.569321,4145.153275,-15396.283594,1302.362347
3040.569649,2664.741391,-13989.892304,766.095498
3040.569976,2146.597232,-11177.109724,-1072.533697
3040.570304,0.000000,-10584.944971,-2298.286494
3040.570632,-1110.308913,-9548.656652,-3217.601092
3040.570959,-3256.906145,-7105.977043,-2834.553343
3040.571287,-3997.112087,-7698.141797,0.000000
3040.571614,-1628.453072,-7624.121203,536.266849
3040.571942,222.061783,-6439.791695,612.876398
3040.572270,296.082377,-5921.647536,2068.457845
3040.572597,222.061783,-8142.265362,2757.943793
3040.572925,814.226536,-9474.636058,3600.648841
3040.573253,2146.597232,-8660.409521,1149.143247
3040.573580,2516.700203,-9474.636058,0.000000
3040.573908,962.267725,-13323.706956,0.000000
3040.574235,222.061783,-14063.912898,-153.219100
3040.574563,444.123565,-11843.295072,-1685.410096
3040.574891,74.020594,-11473.192101,-3677.258390
3040.575218,0.000000,-12139.377449,-3217.601092
3040.575546,0.000000,-10510.924376,-2068.457845
3040.575874,-1258.350101,-7846.182985,-842.705048
3040.576201,-2368.659014,-7920.203579,306.438199
3040.576529,-2294.638420,-5773.606348,995.924147
3040.576856,-1776.494261,-3182.885551,689.485948
3040.577184,-1702.473667,-5477.523971,1455.581446
3040.577512,-962.267725,-9252.574275,3217.601092
3040.577839,1110.308913,-10140.821405,689.485948
3040.578167,3404.947333,-11621.233289,-689.485948
3040.578495,2738.761985,-15100.201217,-1685.410096
3040.578822,1628.453072,-16358.551318,-1838.629195
3040.579150,1554.432478,-13915.871710,-3140.991542
3040.579477,740.205942,-11621.233289,-3753.867940
3040.579805,0.000000,-11029.068536,-3217.601092
3040.580133,-1406.391290,-8586.388927,-919.314598
3040.580460,-1110.308913,-7179.997637,459.657299
3040.580788,-444.123565,-7105.977043,1225.752797
3040.581115,-1702.473667,-5625.565159,1149.143247
3040.581443,-2516.700203,-3775.050304,766.095498
3040.581771,-2220.617826,-5033.400406,306.438199
3040.582098,-962.267725,-7772.162391,1225.752797
3040.582426,1332.370696,-8734.430116,1762.019645
3040.582754,3182.885551,-11325.150913,1302.362347
3040.583081,4811.338623,-15470.304188,536.266849
3040.583409,4071.132681,-16358.551318,612.876398
3040.583736,2146.597232,-12879.583391,76.609550
3040.584064,1258.350101,-11843.295072,-2145.067394
3040.584392,-296.082377,-10584.944971,-2374.896044
3040.584719,-1480.411884,-7550.100608,-2834.553343
3040.585047,-2220.617826,-5551.544565,-766.095498
3040.585375,-1110.308913,-6809.894666,1378.971896
3040.585702,-1184.329507,-7254.018232,2451.505594
3040.586030,-1110.308913,-4737.318029,1455.581446
3040.586357,-1184.329507,-5107.421000,0.000000
3040.586685,-592.164754,-9252.574275,-1302.362347
3040.587013,1332.370696,-9844.739029,383.047749
3040.587340,4663.297435,-9918.759623,383.047749
3040.587668,5403.503377,-14359.995275,1378.971896
3040.587996,4515.256246,-17764.942608,2528.115143
3040.588323,2664.741391,-14285.974681,383.047749
3040.588651,1924.535449,-11473.192101,-2834.553343
3040.588978,-1554.432478,-11769.274478,-4213.525239
3040.589306,-4589.276840,-10362.883188,-3677.258390
3040.589634,-4441.235652,-8290.306550,-2987.772442
3040.589961,-3330.926739,-6587.832884,-1915.238745
3040.590289,-2220.617826,-6365.771101,-995.924147
3040.590616,-1036.288319,-6069.688724,1225.752797
3040.590944,74.020594,-6069.688724,2451.505594
3040.591272,1998.556043,-7994.224174,2221.676944
3040.591599,2590.720797,-9474.636058,1455.581446
3040.591927,3256.906145,-10288.862594,995.924147
3040.592255,3923.091493,-12361.439231,1378.971896
3040.592582,2368.659014,-14508.036463,1455.581446
3040.592910,592.164754,-14508.036463,0.000000
3040.593237,-444.123565,-12805.562797,-2221.676944
3040.593565,-1184.329507,-10881.027347,-3294.210641
3040.593893,-2146.597232,-10510.924376,-3370.820191
3040.594220,-1924.535449,-9400.615463,-2221.676944
3040.594548,-962.267725,-7031.956449,-153.219100
3040.594876,-592.164754,-5033.400406,842.705048
3040.595203,-1258.350101,-3849.070898,2451.505594
3040.595531,-962.267725,-3330.926739,2145.067394
3040.595858,0.000000,-5921.647536,2451.505594
3040.596186,1110.308913,-7846.182985,2451.505594
3040.596514,2960.823768,-9252.574275,1302.362347
3040.596841,3108.864956,-14137.933492,383.047749
3040.597169,1998.556043,-17098.757260,1072.533697
3040.597497,1406.391290,-15026.180623,-766.095498
3040.597824,1702.473667,-13249.686362,-3677.258390
3040.598152,-518.144159,-11991.336260,-3294.210641
3040.598480,-1850.514855,-9474.636058,-2528.115143
3040.598807,-1332.370696,-7402.059420,-1838.629195
3040.599135,-1184.329507,-7402.059420,459.657299
3040.599463,-1332.370696,-6883.915261,919.314598
3040.599790,-518.144159,-4885.359217,995.924147
3040.600118,-2368.659014,-3701.029710,1685.410096
3040.600445,-1776.494261,-6587.832884,229.828649
3040.600773,0.000000,-9252.574275,-306.438199
3040.601101,3256.906145,-10066.800811,0.000000
3040.601428,4959.379811,-13471.748144,383.047749
3040.601756,4959.379811,-18431.127956,2221.676944
3040.602084,2960.823768,-16802.674883,1532.190996
3040.602411,1258.350101,-13545.768739,-1838.629195
3040.602739,-370.102971,-11843.295072,-3830.477490
3040.603067,-2738.761985,-9178.553681,-4213.525239
3040.603394,-2368.659014,-7179.997637,-2911.162892
3040.603722,-1480.411884,-6291.750507,-536.266849
3040.604050,-592.164754,-7624.121203,459.657299
3040.604377,-518.144159,-7550.100608,1685.410096
3040.604705,-740.205942,-5107.421000,2451.505594
3040.605033,-518.144159,-4959.379811,229.828649
3040.605360,74.020594,-9030.512492,-689.485948
3040.605688,2220.617826,-9548.656652,306.438199
3040.606016,3404.947333,-10066.800811,995.924147
3040.606343,3108.864956,-13767.830521,2834.553343
3040.606671,2220.617826,-16284.530724,2987.772442
3040.606999,1110.308913,-13841.851115,306.438199
3040.607326,0.000000,-10732.986159,-3217.601092
3040.607654,-1184.329507,-10214.842000,-4903.011187
3040.607982,-1480.411884,-10436.903782,-3983.696590
3040.608309,-1554.432478,-7698.141797,-1762.019645
3040.608637,-1702.473667,-6069.688724,76.609550
3040.608964,-2294.638420,-5847.626942,1762.019645
3040.609292,-1554.432478,-5477.523971,2145.067394
3040.609620,0.000000,-4737.318029,1532.190996
3040.609947,222.061783,-7179.997637,1532.190996
3040.610275,1702.473667,-8068.244768,1608.800546
3040.610603,3108.864956,-10807.006753,842.705048
3040.610930,3108.864956,-14285.974681,1455.581446
3040.611258,1184.329507,-15322.262999,1149.143247
3040.611586,740.205942,-13249.686362,-1378.971896
3040.611913,222.061783,-12509.480420,-4443.353888
3040.612241,0.000000,-12583.501014,-4443.353888
3040.612569,-888.247130,-11695.253884,-3677.258390
3040.612896,-518.144159,-9400.615463,-1072.533697
3040.613224,-740.205942,-7328.038826,536.266849
3040.613552,-1480.411884,-6513.812290,1302.362347
3040.613879,-2072.576638,-3997.112087,842.705048
3040.614207,-1628.453072,-2960.823768,766.095498
3040.614535,0.000000,-6809.894666,1072.533697
3040.614862,1998.556043,-9474.636058,1762.019645
3040.615190,2738.761985,-10140.821405,2068.457845
3040.615518,3034.844362,-13619.789333,995.924147
3040.615845,1332.370696,-15396.283594,766.095498
3040.616173,666.185348,-14434.015869,-1838.629195
3040.616501,740.205942,-12879.583391,-4749.792088
3040.616828,-222.061783,-12583.501014,-4596.572988
3040.617156,-296.082377,-11251.130318,-2374.896044
3040.617483,0.000000,-8882.471304,0.000000
3040.617811,222.061783,-7846.182985,1378.971896
3040.618139,-444.123565,-6513.812290,1991.848295
3040.618466,-2442.679609,-4737.318029,2528.115143
3040.618794,-4071.132681,-2664.741391,2068.457845
3040.619122,-3923.091493,-4515.256246,-383.047749
3040.619449,0.000000,-7476.080014,-459.657299
3040.619777,2812.782580,-9474.636058,-306.438199
3040.620105,3108.864956,-13249.686362,2221.676944
3040.620432,3256.906145,-15914.427753,2451.505594
3040.620760,4071.132681,-15322.262999,-689.485948
3040.621088,3256.906145,-14137.933492,-3370.820191
3040.621415,1406.391290,-12509.480420,-3140.991542
3040.621743,-1184.329507,-10881.027347,-1915.238745
3040.622071,-1702.473667,-7994.224174,-536.266849
3040.622398,-1776.494261,-7031.956449,-612.876398
3040.622726,-1850.514855,-7994.224174,612.876398
3040.623054,-2442.679609,-6069.688724,1455.581446
3040.623381,-1628.453072,-3997.112087,1149.143247
3040.623709,0.000000,-6957.935855,0.000000
3040.624037,1036.288319,-9104.533087,306.438199
3040.624364,2368.659014,-8808.450710,995.924147
3040.624692,3478.967927,-9844.739029,1532.190996
3040.625020,3330.926739,-13397.727550,1608.800546
3040.625347,2442.679609,-14730.098246,1072.533697
3040.625675,2294.638420,-13323.706956,-1302.362347
3040.626003,148.041188,-12509.480420,-3600.648841
3040.626330,-1036.288319,-12287.418637,-2528.115143
3040.626658,-962.267725,-10955.047942,-3064.381992
3040.626985,-1184.329507,-7994.224174,-1378.971896
3040.627313,-2738.761985,-6587.832884,0.000000
3040.627641,-2738.761985,-5625.565159,459.657299
3040.627968,-1998.556043,-4589.276840,842.705048
3040.628296,-814.226536,-6143.709319,1991.848295
3040.628624,1332.370696,-7476.080014,2451.505594
3040.628951,2516.700203,-7698.141797,3064.381992
3040.629279,2738.761985,-8660.409521,2681.334243
3040.629607,1850.514855,-12731.542202,1225.752797
3040.629934,666.185348,-15026.180623,-689.485948
3040.630262,1184.329507,-13471.748144,-3524.039291
3040.630590,1628.453072,-13545.768739,-4673.182538
3040.630917,444.123565,-13841.851115,-3294.210641
3040.631245,0.000000,-11547.212695,-1225.752797
3040.631573,0.000000,-8660.409521,0.000000
3040.631900,-1258.350101,-7846.182985,76.609550
3040.632228,-2516.700203,-6513.812290,459.657299
3040.632556,-2442.679609,-3404.947333,229.828649
3040.632883,-2072.576638,-3256.906145,0.000000
3040.633211,740.205942,-7031.956449,995.924147
3040.633539,2664.741391,-9548.656652,2911.162892
3040.633866,3182.885551,-11325.150913,2681.334243
3040.634194,3923.091493,-15174.221811,1455.581446
3040.634522,3478.967927,-16062.468941,-1072.533697
3040.634849,2072.576638,-13323.706956,-3907.087040
3040.635177,74.020594,-12287.418637,-3064.381992
3040.635504,-592.164754,-11843.295072,-3370.820191
3040.635832,-962.267725,-9548.656652,-1225.752797
3040.636160,-296.082377,-8438.347739,612.876398
3040.636487,296.082377,-8364.327145,766.095498
3040.636815,-518.144159,-7994.224174,842.705048
3040.637143,-1406.391290,-6069.688724,306.438199
3040.637470,-1924.535449,-3923.091493,76.609550
3040.637798,-1406.391290,-6439.791695,0.000000
3040.638126,-518.144159,-7402.059420,1072.533697
3040.638453,1110.308913,-8808.450710,1762.019645
3040.638781,2960.823768,-12657.521608,2068.457845
3040.639109,3034.844362,-14063.912898,1149.143247
3040.639436,2886.803174,-14211.954086,-1225.752797
3040.639764,888.247130,-13545.768739,-2068.457845
3040.640092,-222.061783,-11769.274478,-2528.115143
3040.640419,-1110.308913,-9770.718434,-2987.772442
3040.640747,-814.226536,-7179.997637,-2068.457845
3040.641075,-962.267725,-8290.306550,-383.047749
3040.641402,-962.267725,-8586.388927,1455.581446
3040.641730,-1998.556043,-5477.523971,1991.848295
3040.642058,-1924.535449,-5255.462188,1838.629195
3040.642385,-1406.391290,-7920.203579,1149.143247
3040.642713,0.000000,-8956.491898,0.000000
3040.643041,740.205942,-8142.265362,76.609550
3040.643368,2812.782580,-11325.150913,536.266849
3040.643696,3182.885551,-14952.160028,842.705048
3040.644023,2590.720797,-14582.057057,612.876398
3040.644351,1480.411884,-12139.377449,-1532.190996
3040.644679,-666.185348,-11399.171507,-3753.867940
3040.645006,-1406.391290,-11547.212695,-3677.258390
3040.645334,-1110.308913,-10066.800811,-3370.820191
3040.645662,-666.185348,-8586.388927,-1532.190996
3040.645989,-1998.556043,-7476.080014,766.095498
3040.646317,-1702.473667,-6513.812290,1608.800546
3040.646645,-1702.473667,-5995.668130,1149.143247
3040.646972,-444.123565,-6365.771101,1225.752797
3040.647300,814.226536,-7179.997637,1378.971896
3040.647628,1110.308913,-8438.347739,2068.457845
3040.647955,2294.638420,-11399.171507,1532.190996
3040.648283,2368.659014,-13397.727550,689.485948
3040.648611,1110.308913,-13915.871710,-689.485948
3040.648938,518.144159,-11103.089130,-2528.115143
3040.649266,148.041188,-12139.377449,-4596.572988
3040.649594,-296.082377,-12361.439231,-3753.867940
3040.649921,0.000000,-10362.883188,-2451.505594
3040.650249,814.226536,-8438.347739,-919.314598
3040.650577,0.000000,-8660.409521,1455.581446
3040.650904,-888.247130,-7772.162391,2451.505594
3040.651232,-592.164754,-4441.235652,2068.457845
3040.651560,-1258.350101,-4293.194464,842.705048
3040.651887,-370.102971,-7328.038826,459.657299
3040.652215,1258.350101,-9178.553681,919.314598
3040.652542,2886.803174,-10658.965565,1149.143247
3040.652870,4367.215058,-14063.912898,689.485948
3040.653198,4071.132681,-15618.345376,0.000000
3040.653525,1776.494261,-13175.665768,-2068.457845
3040.653853,-518.144159,-11325.150913,-3983.696590
3040.654181,74.020594,-10807.006753,-4443.353888
3040.654508,0.000000,-9252.574275,-2451.505594
3040.654836,592.164754,-8734.430116,536.266849
3040.655164,222.061783,-9252.574275,2451.505594
3040.655491,-370.102971,-8586.388927,2681.334243
3040.655819,-814.226536,-5551.544565,2145.067394
3040.656147,-518.144159,-4515.256246,-383.047749
3040.656474,-1258.350101,-7254.018232,76.609550
3040.656802,0.000000,-9474.636058,1378.971896
3040.657130,1850.514855,-9696.697840,1225.752797
3040.657457,3404.947333,-12805.562797,383.047749
3040.657785,3997.112087,-15100.201217,0.000000
3040.658113,1850.514855,-12065.356855,-383.047749
3040.658440,-296.082377,-9992.780217,-1378.971896
3040.658768,-1480.411884,-10955.047942,-2757.943793
3040.659096,-1332.370696,-10510.924376,-3600.648841
3040.659423,444.123565,-8882.471304,-1915.238745
3040.659751,518.144159,-8068.244768,1149.143247
3040.660079,-1036.288319,-8290.306550,3600.648841
3040.660406,-1332.370696,-6661.853478,2298.286494
3040.660734,-814.226536,-5033.400406,306.438199
3040.661061,-1480.411884,-6957.935855,-689.485948
3040.661389,-370.102971,-9104.533087,306.438199
3040.661717,444.123565,-8882.471304,766.095498
3040.662044,2294.638420,-11843.295072,766.095498
3040.662372,2960.823768,-15026.180623,383.047749
3040.662700,1924.535449,-13693.809927,-995.924147
3040.663027,-740.205942,-12213.398043,-1455.581446
3040.663355,-666.185348,-11843.295072,-3064.381992
3040.663683,-222.061783,-11177.109724,-4903.011187
3040.664010,-1036.288319,-9178.553681,-3217.601092
3040.664338,-2146.597232,-7476.080014,0.000000
3040.664666,-2368.659014,-7105.977043,1685.410096
3040.664993,-1628.453072,-6735.874072,2528.115143
3040.665321,-1480.411884,-6957.935855,919.314598
3040.665649,-222.061783,-7920.203579,383.047749
3040.665976,1036.288319,-9400.615463,1378.971896
3040.666304,2738.761985,-10140.821405,1225.752797
3040.666632,3108.864956,-12139.377449,229.828649
3040.666959,1924.535449,-14804.118840,229.828649
3040.667287,444.123565,-12139.377449,-1378.971896
3040.667615,-1036.288319,-10288.862594,-2298.286494
3040.667942,-2072.576638,-10436.903782,-3217.601092
3040.668270,-1332.370696,-10140.821405,-3217.601092
3040.668598,0.000000,-9104.533087,-1915.238745
3040.668925,518.144159,-8438.347739,153.219100
3040.669253,-296.082377,-8364.327145,2221.676944
3040.669581,0.000000,-6069.688724,2834.553343
3040.669908,370.102971,-3256.906145,766.095498
3040.670236,222.061783,-6439.791695,229.828649
3040.670563,518.144159,-9770.718434,1915.238745
3040.670891,2072.576638,-10436.903782,2145.067394
3040.671219,3256.906145,-11843.295072,842.705048
3040.671546,3404.947333,-14952.160028,0.000000
3040.671874,1480.411884,-14285.974681,-689.485948
3040.672202,-370.102971,-11547.212695,-2068.457845
3040.672529,-666.185348,-11103.089130,-4443.353888
3040.672857,-444.123565,-10288.862594,-4290.134789
3040.673185,-518.144159,-8734.430116,-1838.629195
3040.673512,0.000000,-7105.977043,919.314598
3040.673840,-518.144159,-7402.059420,2145.067394
3040.674168,0.000000,-7179.997637,1685.410096
3040.674495,-666.185348,-5847.626942,536.266849
3040.674823,0.000000,-7031.956449,0.000000
3040.675151,222.061783,-9770.718434,229.828649
3040.675478,1924.535449,-10436.903782,919.314598
3040.675806,3182.885551,-12509.480420,842.705048
3040.676134,2960.823768,-16136.489536,842.705048
3040.676461,1776.494261,-14508.036463,-536.266849
3040.676789,222.061783,-11695.253884,-1608.800546
3040.677117,-1554.432478,-10362.883188,-2451.505594
3040.677444,-962.267725,-9918.759623,-3064.381992
3040.677772,-296.082377,-8068.244768,-1991.848295
3040.678100,-222.061783,-6513.812290,0.000000
3040.678427,-1258.350101,-6883.915261,919.314598
3040.678755,-1628.453072,-6883.915261,2604.724693
3040.679082,-1776.494261,-5107.421000,842.705048
3040.679410,-2368.659014,-6365.771101,-612.876398
3040.679738,-1554.432478,-10066.800811,-612.876398
3040.680065,1628.453072,-11695.253884,76.609550
3040.680393,3701.029710,-11473.192101,766.095498
3040.680721,3923.091493,-14508.036463,1608.800546
3040.681048,2294.638420,-15100.201217,1915.238745
3040.681376,1776.494261,-12583.501014,-766.095498
3040.681704,-592.164754,-10214.842000,-3217.601092
3040.682031,-2368.659014,-9622.677246,-3524.039291
3040.682359,-2294.638420,-7624.121203,-2834.553343
3040.682687,-1998.556043,-6439.791695,-1302.362347
3040.683014,-2442.679609,-6809.894666,919.314598
3040.683342,-1554.432478,-7624.121203,1302.362347
3040.683670,-666.185348,-6069.688724,1455.581446
3040.683997,518.144159,-6661.853478,689.485948
3040.684325,1480.411884,-10140.821405,919.314598
3040.684653,2738.761985,-11325.150913,1532.190996
3040.684980,4071.132681,-9918.759623,1991.848295
3040.685308,4367.215058,-12509.480420,2221.676944
3040.685636,2590.720797,-14878.139434,1455.581446
3040.685963,-222.061783,-13027.624579,-459.657299
3040.686291,-1258.350101,-12509.480420,-2681.334243
3040.686619,-1850.514855,-10807.006753,-5515.887586
3040.686946,-2516.700203,-9474.636058,-4979.620737
3040.687274,-1702.473667,-8216.285956,-2145.067394
3040.687601,-888.247130,-6883.915261,1455.581446
3040.687929,0.000000,-7328.038826,1838.629195
3040.688257,1406.391290,-5773.606348,2681.334243
3040.688584,1480.411884,-4663.297435,2757.943793
3040.688912,2590.720797,-7920.203579,2911.162892
3040.689240,3182.885551,-9844.739029,3524.039291
3040.689567,3552.988522,-8438.347739,2911.162892
3040.689895,2960.823768,-11621.233289,459.657299
3040.690223,962.267725,-17394.839637,-995.924147
3040.690550,0.000000,-15100.201217,-2834.553343
3040.690878,0.000000,-12435.459826,-4596.572988
3040.691206,-740.205942,-12065.356855,-3983.696590
3040.691533,-1110.308913,-11029.068536,-3600.648841
3040.691861,-444.123565,-8364.327145,-1532.190996
3040.692189,-518.144159,-5477.523971,842.705048
3040.692516,-814.226536,-6143.709319,689.485948
3040.692844,-1554.432478,-5551.544565,536.266849
3040.693172,-1258.350101,-4145.153275,536.266849
3040.693499,-888.247130,-6291.750507,919.314598
3040.693827,1332.370696,-9992.780217,2221.676944
3040.694155,3849.070898,-12287.418637,2068.457845
3040.694482,5477.523971,-15174.221811,1149.143247
3040.694810,4515.256246,-16876.695478,-919.314598
3040.695138,2146.597232,-15322.262999,-2604.724693
3040.695465,-740.205942,-12657.521608,-3370.820191
3040.695793,-2960.823768,-10436.903782,-3524.039291
3040.696120,-3627.009116,-8882.471304,-3217.601092
3040.696448,-3627.009116,-6883.915261,-995.924147
3040.696776,-2146.597232,-5773.606348,306.438199
3040.697103,-1184.329507,-6291.750507,459.657299
3040.697431,-1332.370696,-7105.977043,919.314598
3040.697759,-1184.329507,-4737.318029,-383.047749
3040.698086,74.020594,-6291.750507,-306.438199
3040.698414,740.205942,-9696.697840,2068.457845
3040.698742,2368.659014,-10584.944971,2757.943793
3040.699069,4515.256246,-11621.233289,2451.505594
3040.699397,5329.482782,-15322.262999,2221.676944
3040.699724,3034.844362,-15174.221811,1072.533697
3040.700052,592.164754,-12879.583391,-459.657299
3040.700380,-2812.782580,-10955.047942,-2528.115143
3040.700707,-3923.091493,-8956.491898,-3983.696590
3040.701035,-3182.885551,-7105.977043,-4060.306139
3040.701362,-1998.556043,-6735.874072,-2145.067394
3040.701690,-2368.659014,-6883.915261,536.266849
3040.702018,-370.102971,-7476.080014,1685.410096
3040.702345,-370.102971,-6587.832884,1072.533697
3040.702673,148.041188,-6809.894666,766.095498
3040.703000,1702.473667,-8142.265362,612.876398
3040.703328,3404.947333,-9548.656652,1378.971896
3040.703656,4663.297435,-10807.006753,1915.238745
3040.703983,5181.441594,-14582.057057,1685.410096
3040.704311,3330.926739,-16580.613101,1225.752797
3040.704638,1628.453072,-13989.892304,-229.828649
3040.704966,-1184.329507,-11843.295072,-2451.505594
3040.705294,-3404.947333,-10807.006753,-4290.134789
3040.705621,-3478.967927,-9548.656652,-4673.182538
3040.705949,-2664.741391,-7476.080014,-2604.724693
3040.706276,-1628.453072,-5995.668130,-306.438199
3040.706604,-518.144159,-5921.647536,1991.848295
3040.706931,444.123565,-5847.626942,2528.115143
3040.707259,1110.308913,-5699.585753,1455.581446
3040.707587,1036.288319,-8364.327145,1149.143247
3040.707914,2960.823768,-9770.718434,1455.581446
3040.708242,4589.276840,-10214.842000,1302.362347
3040.708569,3997.112087,-14063.912898,2528.115143
3040.708897,1850.514855,-16358.551318,1991.848295
3040.709225,222.061783,-14582.057057,-919.314598
3040.709552,-1480.411884,-12953.603985,-4290.134789
3040.709880,-2738.761985,-11251.130318,-4903.011187
3040.710207,-2442.679609,-9474.636058,-3600.648841
3040.710535,-1998.556043,-7031.956449,0.000000
3040.710863,-1110.308913,-5921.647536,1225.752797
3040.711190,592.164754,-6069.688724,1685.410096
3040.711518,0.000000,-5033.400406,995.924147
3040.711845,-1258.350101,-4367.215058,1762.019645
3040.712173,-444.123565,-6957.935855,1072.533697
3040.712501,1184.329507,-8512.368333,536.266849
3040.712828,2368.659014,-9474.636058,1225.752797
3040.713156,3478.967927,-13841.851115,2451.505594
3040.713483,3775.050304,-17987.004391,1225.752797
3040.713811,2590.720797,-16506.592507,-229.828649
3040.714139,0.000000,-11991.336260,-2145.067394
3040.714466,-3108.864956,-9622.677246,-3600.648841
3040.714794,-3923.091493,-8956.491898,-3447.429741
3040.715121,-2664.741391,-7328.038826,-2145.067394
3040.715449,-1998.556043,-5329.482782,-1225.752797
3040.715776,-1850.514855,-5995.668130,459.657299
3040.716104,-296.082377,-7105.977043,229.828649
3040.716432,-222.061783,-6513.812290,1225.752797
3040.716759,74.020594,-7624.121203,689.485948
3040.717087,2072.576638,-10140.821405,306.438199
3040.717414,3997.112087,-11177.109724,459.657299
3040.717742,5403.503377,-12213.398043,1762.019645
3040.718070,4589.276840,-15692.365970,2834.553343
3040.718397,2664.741391,-15100.201217,1991.848295
3040.718725,-296.082377,-11621.233289,-229.828649
3040.719052,-2368.659014,-10436.903782,-3294.210641
3040.719380,-3552.988522,-9918.759623,-4136.915689
3040.719708,-2368.659014,-7698.141797,-3217.601092
3040.720035,-1776.494261,-7179.997637,-1762.019645
3040.720363,-518.144159,-7846.182985,-383.047749
3040.720690,-222.061783,-6957.935855,689.485948
3040.721018,0.000000,-5107.421000,1685.410096
3040.721346,518.144159,-6291.750507,1838.629195
3040.721673,2072.576638,-8882.471304,2221.676944
3040.722001,3552.988522,-9178.553681,1915.238745
3040.722328,4663.297435,-9992.780217,1685.410096
3040.722656,4071.132681,-14211.954086,1455.581446
3040.722984,3108.864956,-14952.160028,1762.019645
3040.723311,666.185348,-11991.336260,-383.047749
3040.723639,-888.247130,-12065.356855,-2221.676944
3040.723966,-1110.308913,-11843.295072,-4903.011187
3040.724294,-1332.370696,-9844.739029,-4366.744339
3040.724621,-2664.741391,-7254.018232,-1685.410096
3040.724949,-2812.782580,-6291.750507,-536.266849
3040.725277,-1850.514855,-6217.729913,0.000000
3040.725604,-1850.514855,-4737.318029,1685.410096
3040.725932,-666.185348,-5033.400406,1378.971896
3040.726259,1480.411884,-8438.347739,459.657299
3040.726587,3923.091493,-11399.171507,612.876398
3040.726915,3701.029710,-11177.109724,1685.410096
3040.727242,3404.947333,-13545.768739,1685.410096
3040.727570,1554.432478,-15840.407159,1149.143247
3040.727897,518.144159,-14137.933492,-1455.581446
3040.728225,-1258.350101,-11917.315666,-3217.601092
3040.728553,-1850.514855,-11769.274478,-3447.429741
3040.728880,-1480.411884,-11251.130318,-2451.505594
3040.729208,-666.185348,-7476.080014,-1302.362347
3040.729535,-2590.720797,-5329.482782,1149.143247
3040.729863,-2886.803174,-5033.400406,1225.752797
3040.730191,-1184.329507,-5181.441594,0.000000
3040.730518,-666.185348,-5255.462188,536.266849
3040.730846,222.061783,-7328.038826,1302.362347
3040.731173,2146.597232,-9696.697840,1685.410096
3040.731501,3256.906145,-11251.130318,2451.505594
3040.731829,3404.947333,-13249.686362,1532.190996
3040.732156,2886.803174,-15322.262999,689.485948
3040.732484,1776.494261,-14434.015869,-1072.533697
3040.732811,74.020594,-11843.295072,-2221.676944
3040.733139,-444.123565,-11843.295072,-2451.505594
3040.733466,-370.102971,-9992.780217,-1915.238745
3040.733794,-1480.411884,-6661.853478,0.000000
3040.734122,-2590.720797,-5773.606348,1685.410096
3040.734449,-3330.926739,-5773.606348,383.047749
3040.734777,-2294.638420,-5033.400406,-995.924147
3040.735104,-1702.473667,-5107.421000,-612.876398
3040.735432,0.000000,-7772.162391,536.266849
3040.735760,2294.638420,-10140.821405,1532.190996
3040.736087,4589.276840,-10362.883188,1991.848295
3040.736415,4145.153275,-11843.295072,1225.752797
3040.736742,4441.235652,-16580.613101,-383.047749
3040.737070,3108.864956,-16136.489536,-689.485948
3040.737398,-592.164754,-11547.212695,-1915.238745
3040.737725,-2146.597232,-11621.233289,-2834.553343
3040.738053,-1998.556043,-12805.562797,-3524.039291
3040.738380,-2146.597232,-9178.553681,-2681.334243
3040.738708,-2072.576638,-6513.812290,-995.924147
3040.739036,-2146.597232,-7254.018232,153.219100
3040.739363,-1184.329507,-7476.080014,153.219100
3040.739691,-222.061783,-5847.626942,919.314598
3040.740018,1036.288319,-5995.668130,612.876398
3040.740346,1850.514855,-9326.594869,1532.190996
3040.740674,4145.153275,-9918.759623,2374.896044
3040.741001,4367.215058,-10658.965565,2298.286494
3040.741329,2590.720797,-13915.871710,536.266849
3040.741656,2368.659014,-14952.160028,-919.314598
3040.741984,222.061783,-12435.459826,-1762.019645
3040.742311,0.000000,-11991.336260,-2221.676944
3040.742639,-814.226536,-12583.501014,-1608.800546
3040.742967,-1702.473667,-8660.409521,-1378.971896
3040.743294,-2664.741391,-5255.462188,-689.485948
3040.743622,-2368.659014,-6217.729913,76.609550
3040.743949,-1554.432478,-4663.297435,612.876398
3040.744277,-1776.494261,-3701.029710,1915.238745
3040.744605,-148.041188,-5699.585753,2068.457845
3040.744932,2294.638420,-8364.327145,1072.533697
3040.745260,4071.132681,-9326.594869,689.485948
3040.745587,4293.194464,-10362.883188,1149.143247
3040.745915,3404.947333,-14137.933492,612.876398
3040.746243,2442.679609,-14582.057057,-689.485948
3040.746570,1998.556043,-13915.871710,-2528.115143
3040.746898,0.000000,-12731.542202,-2757.943793
3040.747225,-1628.453072,-11325.150913,-1685.410096
3040.747553,-1258.350101,-10066.800811,-1608.800546
3040.747881,-2368.659014,-8956.491898,0.000000
3040.748208,-2146.597232,-8364.327145,0.000000
3040.748536,-1110.308913,-5921.647536,-689.485948
3040.748863,-1480.411884,-4071.132681,0.000000
3040.749191,-888.247130,-6143.709319,229.828649
3040.749519,2146.597232,-10066.800811,842.705048
3040.749846,3330.926739,-11029.068536,1762.019645
3040.750174,2590.720797,-11103.089130,1532.190996
3040.750501,2368.659014,-14211.954086,-766.095498
3040.750829,2442.679609,-15544.324782,-1838.629195
3040.751156,1554.432478,-13915.871710,-1915.238745
3040.751484,-296.082377,-11769.274478,-536.266849
3040.751812,-222.061783,-10807.006753,-766.095498
3040.752139,222.061783,-10066.800811,-1302.362347
3040.752467,-592.164754,-7846.182985,-383.047749
3040.752794,-2294.638420,-6143.709319,459.657299
3040.753122,-2960.823768,-5625.565159,1455.581446
3040.753450,-2738.761985,-4811.338623,383.047749
3040.753777,-2664.741391,-4737.318029,306.438199
3040.754105,-888.247130,-7698.141797,1378.971896
3040.754432,2516.700203,-9030.512492,1915.238745
3040.754760,4071.132681,-10214.842000,1149.143247
3040.755088,3849.070898,-12657.521608,919.314598
3040.755415,3849.070898,-15248.242405,0.000000
3040.755743,2368.659014,-13323.706956,-1302.362347
3040.756070,-222.061783,-11399.171507,-1532.190996
3040.756398,-1554.432478,-11177.109724,-1608.800546
3040.756726,-1480.411884,-9992.780217,-2451.505594
3040.757053,-1702.473667,-7624.121203,-1302.362347
3040.757381,-1850.514855,-8586.388927,-1225.752797
3040.757708,-2368.659014,-8808.450710,-612.876398
3040.758036,-2220.617826,-5995.668130,383.047749
3040.758364,-2146.597232,-3701.029710,612.876398
3040.758691,-666.185348,-7550.100608,536.266849
3040.759019,1702.473667,-9992.780217,1532.190996
3040.759346,3701.029710,-10436.903782,1072.533697
3040.759674,4071.132681,-12657.521608,459.657299
3040.760001,3923.091493,-16062.468941,-612.876398
3040.760329,3256.906145,-14878.139434,-1685.410096
3040.760657,222.061783,-11547.212695,-2451.505594
3040.760984,-1776.494261,-11103.089130,-2681.334243
3040.761312,-740.205942,-11177.109724,-3217.601092
3040.761639,-296.082377,-8438.347739,-2068.457845
3040.761967,-1258.350101,-7698.141797,383.047749
3040.762295,-962.267725,-8216.285956,1838.629195
3040.762622,-1332.370696,-6883.915261,2451.505594
3040.762950,-1924.535449,-4071.132681,2298.286494
3040.763277,-666.185348,-5033.400406,995.924147
3040.763605,1184.329507,-8142.265362,229.828649
3040.763933,2590.720797,-9326.594869,1838.629195
3040.764260,3034.844362,-10584.944971,2451.505594
3040.764588,4071.132681,-14434.015869,689.485948
3040.764915,3701.029710,-14137.933492,-1608.800546
3040.765243,1110.308913,-11917.315666,-2451.505594
3040.765571,-1184.329507,-11473.192101,-2451.505594
3040.765898,-1702.473667,-9474.636058,-2451.505594
3040.766226,-1184.329507,-7772.162391,-2298.286494
3040.766553,-2664.741391,-7920.203579,383.047749
3040.766881,-2812.782580,-8364.327145,1455.581446
3040.767209,-592.164754,-6439.791695,1685.410096
3040.767536,-962.267725,-4219.173869,1072.533697
3040.767864,0.000000,-7179.997637,1302.362347
3040.768191,1406.391290,-10955.047942,1685.410096
3040.768519,2664.741391,-8956.491898,383.047749
3040.768846,2886.803174,-10658.965565,-229.828649
3040.769174,4219.173869,-15766.386565,-995.924147
3040.769502,2590.720797,-14952.160028,-1915.238745
3040.769829,518.144159,-12361.439231,-2145.067394
3040.770157,-1184.329507,-11547.212695,-2145.067394
3040.770484,-1184.329507,-11325.150913,-2604.724693
3040.770812,296.082377,-9696.697840,-2451.505594
3040.771140,-1258.350101,-7772.162391,383.047749
3040.771467,-2294.638420,-8364.327145,1302.362347
3040.771795,-2590.720797,-7624.121203,1685.410096
3040.772122,-2368.659014,-4959.379811,612.876398
3040.772450,-1480.411884,-4663.297435,0.000000
3040.772778,666.185348,-7994.224174,1532.190996
3040.773105,2220.617826,-10955.047942,2987.772442
3040.773433,3478.967927,-10881.027347,2374.896044
3040.773760,5255.462188,-13693.809927,0.000000
3040.774088,4663.297435,-15470.304188,-1455.581446
3040.774416,1776.494261,-12361.439231,-1455.581446
3040.774743,-1628.453072,-9178.553681,-1302.362347
3040.775071,-740.205942,-9400.615463,-2757.943793
3040.775398,-148.041188,-9622.677246,-3370.820191
3040.775726,-740.205942,-8142.265362,-383.047749
3040.776054,-2146.597232,-6217.729913,2451.505594
3040.776381,-2738.761985,-7031.956449,3217.601092
3040.776709,-2664.741391,-5699.585753,1685.410096
3040.777036,-2294.638420,-4441.235652,-919.314598
3040.777364,0.000000,-8216.285956,-919.314598
3040.777691,4071.132681,-11103.089130,919.314598
3040.778019,6291.750507,-9992.780217,2068.457845
3040.778347,5921.647536,-13249.686362,2451.505594
3040.778674,4885.359217,-17024.736666,-306.438199
3040.779002,2368.659014,-14211.954086,-2987.772442
3040.779329,-1554.432478,-10658.965565,-3447.429741
3040.779657,-3034.844362,-10066.800811,-4366.744339
3040.779985,-1258.350101,-9992.780217,-5056.230287
3040.780312,-1628.453072,-9030.512492,-1991.848295
3040.780640,-2146.597232,-8734.430116,1225.752797
3040.780967,-1998.556043,-8734.430116,1685.410096
3040.781295,-1480.411884,-7179.997637,1225.752797
3040.781623,-1110.308913,-5403.503377,306.438199
3040.781950,0.000000,-6883.915261,153.219100
3040.782278,1924.535449,-9474.636058,1072.533697
3040.782605,3701.029710,-9326.594869,2145.067394
3040.782933,4293.194464,-12953.603985,1225.752797
3040.783261,3330.926739,-16210.510130,229.828649
3040.783588,1554.432478,-13619.789333,-1685.410096
3040.783916,-1702.473667,-10732.986159,-2757.943793
3040.784243,-2368.659014,-10584.944971,-3983.696590
3040.784571,-1110.308913,-10807.006753,-4443.353888
3040.784899,-444.123565,-8068.244768,-1072.533697
3040.785226,-2072.576638,-5995.668130,3217.601092
3040.785554,-2516.700203,-6957.935855,4060.306139
3040.785881,-2368.659014,-5995.668130,2911.162892
3040.786209,-2146.597232,-3552.988522,919.314598
3040.786536,-1110.308913,-5995.668130,306.438199
3040.786864,2146.597232,-9844.739029,1378.971896
3040.787192,3256.906145,-9474.636058,3140.991542
3040.787519,3775.050304,-11843.295072,1838.629195
3040.787847,2960.823768,-16062.468941,-306.438199
3040.788174,2590.720797,-13915.871710,-2834.553343
3040.788502,-888.247130,-11103.089130,-2834.553343
3040.788830,-1628.453072,-10881.027347,-2374.896044
3040.789157,-1036.288319,-10066.800811,-2987.772442
3040.789485,1258.350101,-9400.615463,-1915.238745
3040.789812,-1036.288319,-7402.059420,1302.362347
3040.790140,-1924.535449,-7772.162391,1915.238745
3040.790468,-1998.556043,-6291.750507,766.095498
3040.790795,-2220.617826,-4959.379811,-1072.533697
3040.791123,-1850.514855,-7550.100608,-842.705048
3040.791450,518.144159,-10510.924376,612.876398
3040.791778,4293.194464,-12139.377449,2374.896044
3040.792106,5255.462188,-13249.686362,2451.505594
3040.792433,4737.318029,-15544.324782,1072.533697
3040.792761,2960.823768,-14508.036463,-1378.971896
3040.793088,148.041188,-11251.130318,-2221.676944
3040.793416,-1258.350101,-9918.759623,-3064.381992
3040.793744,-814.226536,-9178.553681,-3753.867940
3040.794071,0.000000,-9474.636058,-2221.676944
3040.794399,-1110.308913,-7846.182985,842.705048
3040.794726,-1628.453072,-7254.018232,1072.533697
3040.795054,-1850.514855,-7105.977043,995.924147
3040.795381,-2886.803174,-5107.421000,1302.362347
3040.795709,-3108.864956,-4589.276840,383.047749
3040.796037,74.020594,-8956.491898,842.705048
3040.796364,2442.679609,-11325.150913,2604.724693
3040.796692,4589.276840,-10807.006753,2451.505594
3040.797019,5107.421000,-13397.727550,2298.286494
3040.797347,4441.235652,-15470.304188,919.314598
3040.797675,1480.411884,-11991.336260,-995.924147
3040.798002,-296.082377,-10510.924376,-2528.115143
3040.798330,-962.267725,-9918.759623,-4136.915689
3040.798657,-666.185348,-9622.677246,-4290.134789
3040.798985,-1554.432478,-7624.121203,-1302.362347
3040.799313,-2442.679609,-6513.812290,612.876398
3040.799640,-2516.700203,-6217.729913,536.266849
3040.799968,-1850.514855,-5551.544565,689.485948
3040.800295,-1554.432478,-5107.421000,1915.238745
3040.800623,592.164754,-9252.574275,1991.848295
3040.800951,2146.597232,-10584.944971,1915.238745
3040.801278,3849.070898,-10436.903782,1225.752797
3040.801606,3478.967927,-12435.459826,153.219100
3040.801933,2960.823768,-15396.283594,-1149.143247
3040.802261,1332.370696,-14285.974681,-2068.457845
3040.802589,-222.061783,-13101.645173,-2757.943793
3040.802916,-962.267725,-12139.377449,-3064.381992
3040.803244,296.082377,-11177.109724,-4826.401637
3040.803571,-666.185348,-9104.533087,-2068.457845
3040.803899,-1332.370696,-8068.244768,383.047749
3040.804226,-2220.617826,-6217.729913,1915.238745
3040.804554,-1850.514855,-4441.235652,1762.019645
3040.804882,-1998.556043,-3552.988522,1762.019645
3040.805209,-1406.391290,-7105.977043,2681.334243
3040.805537,962.267725,-9178.553681,2528.115143
3040.805864,2812.782580,-8956.491898,1991.848295
3040.806192,3849.070898,-11103.089130,1608.800546
3040.806520,3404.947333,-14952.160028,-459.657299
3040.806847,2516.700203,-14952.160028,-2221.676944
3040.807175,1702.473667,-13397.727550,-2604.724693
3040.807502,1924.535449,-11843.295072,-3217.601092
3040.807830,1924.535449,-10436.903782,-3140.991542
3040.808158,-296.082377,-8290.306550,-383.047749
3040.808485,-2368.659014,-6957.935855,1149.143247
3040.808813,-3256.906145,-5699.585753,1149.143247
3040.809140,-2516.700203,-3997.112087,-383.047749
3040.809468,-3034.844362,-3330.926739,-459.657299
3040.809796,-3182.885551,-6587.832884,1225.752797
3040.810123,-296.082377,-9548.656652,2528.115143
3040.810451,2812.782580,-10288.862594,2451.505594
3040.810778,5847.626942,-12509.480420,1302.362347
3040.811106,5625.565159,-15914.427753,536.266849
3040.811434,3923.091493,-16284.530724,-995.924147
3040.811761,2516.700203,-13767.830521,-2221.676944
3040.812089,444.123565,-10658.965565,-3217.601092
3040.812416,-888.247130,-9770.718434,-3983.696590
3040.812744,-2368.659014,-8512.368333,-2681.334243
3040.813071,-3330.926739,-7476.080014,-459.657299
3040.813399,-2960.823768,-7179.997637,0.000000
3040.813727,-2146.597232,-7179.997637,-842.705048
3040.814054,-1924.535449,-5551.544565,-536.266849
3040.814382,-1998.556043,-6291.750507,1608.800546
3040.814709,444.123565,-8290.306550,1838.629195
3040.815037,2886.803174,-8660.409521,3140.991542
3040.815365,4737.318029,-10807.006753,2528.115143
3040.815692,5773.606348,-14804.118840,2145.067394
3040.816020,4811.338623,-16136.489536,919.314598
3040.816347,2368.659014,-12583.501014,-306.438199
3040.816675,-740.205942,-11029.068536,-2145.067394
3040.817003,-2220.617826,-10658.965565,-3907.087040
3040.817330,-2738.761985,-9400.615463,-4673.182538
3040.817658,-3701.029710,-6513.812290,-2221.676944
3040.817985,-3552.988522,-5329.482782,0.000000
3040.818313,-2368.659014,-6365.771101,306.438199
3040.818641,-1628.453072,-5181.441594,1532.190996
3040.818968,-1850.514855,-4663.297435,3217.601092
3040.819296,444.123565,-6809.894666,3140.991542
3040.819623,3552.988522,-8808.450710,1838.629195
3040.819951,4515.256246,-10214.842000,2145.067394
3040.820279,4885.359217,-13693.809927,1915.238745
3040.820606,4589.276840,-16580.613101,306.438199
3040.820934,2516.700203,-15544.324782,-1302.362347
3040.821261,-222.061783,-13471.748144,-2528.115143
3040.821589,-1850.514855,-11177.109724,-3294.210641
3040.821916,-2738.761985,-10140.821405,-4519.963438
3040.822244,-2738.761985,-8882.471304,-3217.601092
3040.822572,-3997.112087,-6143.709319,-1072.533697
3040.822899,-3108.864956,-4737.318029,-306.438199
3040.823227,-2516.700203,-3997.112087,153.219100
3040.823554,-1554.432478,-5181.441594,1225.752797
3040.823882,0.000000,-7550.100608,1608.800546
3040.824210,3256.906145,-10140.821405,2298.286494
3040.824537,4737.318029,-11029.068536,2068.457845
3040.824865,4293.194464,-15026.180623,2374.896044
3040.825192,2812.782580,-16728.654289,1149.143247
3040.825520,2294.638420,-15248.242405,-2068.457845
3040.825848,888.247130,-13397.727550,-4136.915689
3040.826175,0.000000,-11843.295072,-5056.230287
3040.826503,-518.144159,-10510.924376,-2528.115143
3040.826830,-1480.411884,-8586.388927,-536.266849
3040.827158,-1702.473667,-6291.750507,76.609550
3040.827486,-1850.514855,-5773.606348,0.000000
3040.827813,-3478.967927,-3256.906145,0.000000
3040.828141,-2812.782580,-3034.844362,689.485948
3040.828468,-518.144159,-5255.462188,919.314598
3040.828796,2590.720797,-8290.306550,2068.457845
3040.829124,3923.091493,-9696.697840,3600.648841
3040.829451,5255.462188,-13619.789333,3907.087040
3040.829779,5699.585753,-16506.592507,2451.505594
3040.830106,3775.050304,-14952.160028,459.657299
3040.830434,666.185348,-11325.150913,-1302.362347
3040.830761,-1332.370696,-10881.027347,-3677.258390
3040.831089,-1480.411884,-9474.636058,-4060.306139
3040.831417,-2368.659014,-7624.121203,-2757.943793
3040.831744,-3701.029710,-6661.853478,-306.438199
3040.832072,-2590.720797,-6883.915261,0.000000
3040.832399,-2368.659014,-6883.915261,-995.924147
3040.832727,-592.164754,-5625.565159,-1072.533697
3040.833055,0.000000,-5773.606348,1378.971896
3040.833382,1554.432478,-9030.512492,2451.505594
3040.833710,4145.153275,-11251.130318,3064.381992
3040.834037,4663.297435,-12139.377449,4136.915689
3040.834365,2442.679609,-13545.768739,3217.601092
3040.834693,2442.679609,-14508.036463,-229.828649
3040.835020,-222.061783,-12879.583391,-2451.505594
3040.835348,-2146.597232,-11473.192101,-3600.648841
3040.835675,-2516.700203,-10732.986159,-5669.106685
3040.836003,-2442.679609,-11621.233289,-4979.620737
3040.836331,-2664.741391,-9918.759623,-2987.772442
3040.836658,-592.164754,-7920.203579,-1149.143247
3040.836986,-962.267725,-6439.791695,536.266849
3040.837313,-666.185348,-5699.585753,1838.629195
3040.837641,0.000000,-6217.729913,2604.724693
3040.837969,2442.679609,-7179.997637,2911.162892
3040.838296,2664.741391,-8290.306550,2374.896044
3040.838624,2294.638420,-10214.842000,2451.505594
3040.838951,1702.473667,-12139.377449,2451.505594
3040.839279,1332.370696,-13915.871710,306.438199
3040.839606,962.267725,-13619.789333,-2145.067394
3040.839934,0.000000,-13101.645173,-3830.477490
3040.840262,296.082377,-11917.315666,-3447.429741
3040.840589,370.102971,-10362.883188,-3447.429741
3040.840917,-888.247130,-8660.409521,-1532.190996
3040.841244,-1924.535449,-5995.668130,-383.047749
3040.841572,-2368.659014,-4367.215058,0.000000
3040.841900,-2664.741391,-3034.844362,1072.533697
3040.842227,-1406.391290,-4663.297435,1838.629195
3040.842555,1850.514855,-8660.409521,2374.896044
3040.842882,3182.885551,-10362.883188,2451.505594
3040.843210,3552.988522,-11473.192101,1838.629195
3040.843538,3775.050304,-14285.974681,919.314598
3040.843865,1850.514855,-14211.954086,-1072.533697
3040.844193,-222.061783,-12435.459826,-2068.457845
3040.844520,-148.041188,-12805.562797,-2757.943793
3040.844848,1110.308913,-13175.665768,-2987.772442
3040.845176,1184.329507,-12065.356855,-2911.162892
3040.845503,-222.061783,-9474.636058,-536.266849
3040.845831,-1850.514855,-7846.182985,0.000000
3040.846158,-2368.659014,-6883.915261,-459.657299
3040.846486,-2442.679609,-3997.112087,-1378.971896
3040.846814,-3849.070898,-3923.091493,-459.657299
3040.847141,-370.102971,-7105.977043,1455.581446
3040.847469,3182.885551,-10066.800811,2298.286494
3040.847796,3552.988522,-11029.068536,3600.648841
3040.848124,3256.906145,-12139.377449,3064.381992
3040.848451,3034.844362,-13397.727550,459.657299
3040.848779,2368.659014,-13767.830521,-1762.019645
3040.849107,1480.411884,-11843.295072,-2451.505594
3040.849434,592.164754,-11695.253884,-2681.334243
3040.849762,0.000000,-10214.842000,-1915.238745
3040.850089,-1110.308913,-9474.636058,-1225.752797
3040.850417,-2442.679609,-8660.409521,-459.657299
3040.850745,-3552.988522,-6291.750507,-995.924147
3040.851072,-3552.988522,-4219.173869,-1302.362347
3040.851400,-2886.803174,-4441.235652,-459.657299
3040.851727,-518.144159,-7105.977043,919.314598
3040.852055,2072.576638,-8660.409521,2987.772442
3040.852383,3701.029710,-8956.491898,3677.258390
3040.852710,4441.235652,-11103.089130,2451.505594
3040.853038,4071.132681,-13915.871710,1302.362347
3040.853365,2960.823768,-13249.686362,0.000000
3040.853693,-592.164754,-11917.315666,-1072.533697
3040.854021,-2294.638420,-13471.748144,-4366.744339
3040.854348,-1110.308913,-13249.686362,-5745.716235
3040.854676,-814.226536,-10807.006753,-4673.182538
3040.855003,-1850.514855,-9548.656652,-842.705048
3040.855331,-1850.514855,-9030.512492,153.219100
3040.855659,-1480.411884,-6291.750507,153.219100
3040.855986,-1258.350101,-4441.235652,842.705048
3040.856314,-148.041188,-5625.565159,919.314598
3040.856641,1406.391290,-7328.038826,2374.896044
3040.856969,2368.659014,-8216.285956,3064.381992
3040.857296,2146.597232,-10807.006753,3140.991542
3040.857624,2886.803174,-13323.706956,995.924147
3040.857952,3701.029710,-14211.954086,-1532.190996
3040.858279,2146.597232,-13323.706956,-2451.505594
3040.858607,740.205942,-13249.686362,-2145.067394
3040.858934,888.247130,-13249.686362,-3217.601092
3040.859262,-370.102971,-9770.718434,-3217.601092
3040.859590,-2442.679609,-7105.977043,-1149.143247
3040.859917,-2368.659014,-6291.750507,153.219100
3040.860245,-1480.411884,-5033.400406,1149.143247
3040.860572,-1776.494261,-4885.359217,2298.286494
3040.860900,-1110.308913,-5847.626942,2757.943793
3040.861228,1628.453072,-7698.141797,995.924147
3040.861555,3627.009116,-10214.842000,1072.533697
3040.861883,3997.112087,-11251.130318,1762.019645
3040.862210,3997.112087,-12583.501014,1455.581446
3040.862538,2960.823768,-14063.912898,0.000000
3040.862866,1036.288319,-12953.603985,-612.876398
3040.863193,962.267725,-12731.542202,-1762.019645
3040.863521,-296.082377,-11029.068536,-2068.457845
3040.863848,-1184.329507,-7994.224174,-2068.457845
3040.864176,-3034.844362,-7476.080014,-1072.533697
3040.864504,-3182.885551,-8364.327145,-1762.019645
3040.864831,-2368.659014,-7254.018232,-1685.410096
3040.865159,-1110.308913,-4737.318029,-229.828649
3040.865486,814.226536,-6439.791695,1072.533697
3040.865814,2442.679609,-11177.109724,2374.896044
3040.866141,4441.235652,-11399.171507,2374.896044
3040.866469,3256.906145,-9992.780217,1838.629195
3040.866797,3478.967927,-13693.809927,612.876398
3040.867124,3330.926739,-14804.118840,-689.485948
3040.867452,1036.288319,-11399.171507,-1532.190996
3040.867779,-1332.370696,-10066.800811,-536.266849
3040.868107,-1554.432478,-11547.212695,-2145.067394
3040.868435,-962.267725,-11177.109724,-2834.553343
3040.868762,-1776.494261,-8882.471304,-1991.848295
3040.869090,-3330.926739,-8068.244768,-1532.190996
3040.869417,-2664.741391,-7846.182985,-1608.800546
3040.869745,-2516.700203,-5921.647536,-536.266849
3040.870073,-2368.659014,-5699.585753,229.828649
3040.870400,-370.102971,-7550.100608,2374.896044
3040.870728,3330.926739,-8956.491898,2911.162892
3040.871055,4219.173869,-9474.636058,3447.429741
3040.871383,3552.988522,-12361.439231,2987.772442
3040.871711,3923.091493,-14434.015869,995.924147
3040.872038,2960.823768,-12287.418637,-3217.601092
3040.872366,-1184.329507,-9474.636058,-2834.553343
3040.872693,-2368.659014,-10807.006753,-3140.991542
3040.873021,-1702.473667,-10807.006753,-3753.867940
3040.873349,-1998.556043,-9252.574275,-2681.334243
3040.873676,-2220.617826,-8216.285956,-536.266849
3040.874004,-2220.617826,-7179.997637,766.095498
3040.874331,-1332.370696,-6957.935855,842.705048
3040.874659,-888.247130,-5329.482782,1532.190996
3040.874986,0.000000,-6291.750507,1838.629195
3040.875314,2368.659014,-8956.491898,1225.752797
3040.875642,3552.988522,-10732.986159,1991.848295
3040.875969,3256.906145,-11843.295072,2987.772442
3040.876297,3034.844362,-13767.830521,919.314598
3040.876624,2960.823768,-14804.118840,-2221.676944
3040.876952,666.185348,-13841.851115,-3064.381992
3040.877280,-518.144159,-11473.192101,-3294.210641
3040.877607,0.000000,-9844.739029,-3983.696590
3040.877935,-296.082377,-9400.615463,-2374.896044
3040.878262,-1554.432478,-8882.471304,306.438199
3040.878590,-1480.411884,-7846.182985,1915.238745
3040.878918,-1554.432478,-5403.503377,842.705048
3040.879245,-1332.370696,-4663.297435,842.705048
3040.879573,-1850.514855,-7179.997637,1072.533697
3040.879900,518.144159,-9400.615463,1838.629195
3040.880228,2294.638420,-9918.759623,1608.800546
3040.880556,3108.864956,-11399.171507,1685.410096
3040.880883,3330.926739,-13767.830521,306.438199
3040.881211,2664.741391,-13989.892304,-1532.190996
3040.881538,1184.329507,-11695.253884,-2221.676944
3040.881866,-592.164754,-9622.677246,-1915.238745
3040.882194,-888.247130,-10362.883188,-2451.505594
3040.882521,-1776.494261,-9474.636058,-1991.848295
3040.882849,-2664.741391,-8142.265362,-689.485948
3040.883176,-1998.556043,-7105.977043,0.000000
3040.883504,-1850.514855,-6217.729913,0.000000
3040.883831,-1628.453072,-5847.626942,1149.143247
3040.884159,-444.123565,-7031.956449,1991.848295
3040.884487,1628.453072,-9400.615463,1455.581446
3040.884814,3034.844362,-9992.780217,1149.143247
3040.885142,3182.885551,-11621.233289,766.095498
3040.885469,4293.194464,-14285.974681,612.876398
3040.885797,3552.988522,-13767.830521,-689.485948
3040.886125,888.247130,-10510.924376,-2068.457845
3040.886452,-962.267725,-10584.944971,-1991.848295
3040.886780,-296.082377,-10807.006753,-2757.943793
3040.887107,666.185348,-10066.800811,-2681.334243
3040.887435,-1332.370696,-8512.368333,-459.657299
3040.887763,-2738.761985,-7624.121203,842.705048
3040.888090,-3552.988522,-6217.729913,0.000000
3040.888418,-2368.659014,-4663.297435,-536.266849
3040.888745,-1628.453072,-5847.626942,1072.533697
3040.889073,888.247130,-8734.430116,3217.601092
3040.889401,4071.132681,-10362.883188,3447.429741
3040.889728,5107.421000,-11769.274478,2145.067394
3040.890056,4441.235652,-14656.077652,459.657299
3040.890383,3701.029710,-13915.871710,-1685.410096
3040.890711,740.205942,-11473.192101,-2681.334243
3040.891038,-814.226536,-10510.924376,-2451.505594
3040.891366,-1184.329507,-10658.965565,-2757.943793
3040.891694,-222.061783,-10584.944971,-2757.943793
3040.892021,-1258.350101,-8364.327145,0.000000
3040.892349,-2516.700203,-7550.100608,1225.752797
3040.892676,-3478.967927,-5847.626942,1302.362347
3040.893004,-4589.276840,-3478.967927,0.000000
3040.893332,-4145.153275,-4589.276840,-612.876398
3040.893659,444.123565,-8290.306550,229.828649
3040.893987,4367.215058,-11177.109724,2221.676944
3040.894314,6957.935855,-12065.356855,3677.258390
3040.894642,6587.832884,-15618.345376,3983.696590
3040.894970,4737.318029,-16062.468941,0.000000
3040.895297,1776.494261,-13175.665768,-3677.258390
3040.895625,-3775.050304,-9178.553681,-3983.696590
3040.895952,-4219.173869,-9030.512492,-4443.353888
3040.896280,-1554.432478,-9918.759623,-4060.306139
3040.896608,-814.226536,-9178.553681,-459.657299
3040.896935,-1258.350101,-8142.265362,2451.505594
3040.897263,-962.267725,-8586.388927,2451.505594
3040.897590,-1850.514855,-5477.523971,766.095498
3040.897918,-1850.514855,-4071.132681,-842.705048
3040.898246,-592.164754,-6661.853478,-383.047749
3040.898573,2072.576638,-10658.965565,1149.143247
3040.898901,4441.235652,-12657.521608,2298.286494
3040.899228,4959.379811,-14804.118840,2298.286494
3040.899556,4737.318029,-15988.448347,612.876398
3040.899883,3256.906145,-14582.057057,-2221.676944
3040.900211,-1110.308913,-10658.965565,-2987.772442
3040.900539,-2368.659014,-9548.656652,-4749.792088
3040.900866,-1110.308913,-9400.615463,-4903.011187
3040.901194,-518.144159,-8660.409521,-1608.800546
3040.901521,-1480.411884,-6587.832884,2681.334243
3040.901849,-2738.761985,-5477.523971,2911.162892
3040.902177,-2812.782580,-5255.462188,1991.848295
3040.902504,-1998.556043,-5403.503377,-536.266849
3040.902832,-370.102971,-7105.977043,-536.266849
3040.903160,2368.659014,-9474.636058,1302.362347
3040.903487,4441.235652,-10807.006753,2451.505594
3040.903815,4441.235652,-13693.809927,3064.381992
3040.904143,4219.173869,-16284.530724,919.314598
3040.904470,2590.720797,-14137.933492,-1225.752797
3040.904798,-444.123565,-9622.677246,-2298.286494
3040.905126,-2664.741391,-9400.615463,-2911.162892
3040.905453,-1924.535449,-10140.821405,-3370.820191
3040.905781,-740.205942,-8290.306550,-2604.724693
3040.906109,-1776.494261,-5995.668130,153.219100
3040.906436,-2294.638420,-7105.977043,1608.800546
3040.906764,-1702.473667,-5255.462188,1225.752797
3040.907092,-444.123565,-5107.421000,0.000000
3040.907419,-148.041188,-8142.265362,1072.533697
3040.907747,1628.453072,-11029.068536,1225.752797
3040.908075,4219.173869,-12139.377449,1991.848295
3040.908402,4885.359217,-13915.871710,1991.848295
3040.908730,4293.194464,-16284.530724,1072.533697
3040.909058,2442.679609,-14804.118840,-2221.676944
3040.909385,-370.102971,-11177.109724,-3064.381992
3040.909713,-3552.988522,-10362.883188,-3600.648841
3040.910041,-2886.803174,-9992.780217,-4749.792088
3040.910368,-2146.597232,-7179.997637,-3600.648841
3040.910696,-3775.050304,-6735.874072,-459.657299
3040.911024,-3330.926739,-7402.059420,1608.800546
3040.911351,-2294.638420,-8290.306550,76.609550
3040.911679,-1110.308913,-5847.626942,229.828649
3040.912007,1036.288319,-5847.626942,0.000000
3040.912334,3182.885551,-9844.739029,1991.848295
3040.912662,5181.441594,-12657.521608,4443.353888
3040.912990,5773.606348,-12139.377449,5132.839837
3040.913317,4811.338623,-13397.727550,2451.505594
3040.913645,2294.638420,-13545.768739,-2145.067394
3040.913973,-444.123565,-12509.480420,-2911.162892
3040.914300,-3701.029710,-9696.697840,-2987.772442
3040.914628,-3256.906145,-8882.471304,-4673.182538
3040.914956,-2516.700203,-9178.553681,-4136.915689
3040.915283,-2294.638420,-7105.977043,-995.924147
3040.915611,-296.082377,-6587.832884,1225.752797
3040.915939,296.082377,-6587.832884,2145.067394
3040.916266,740.205942,-5255.462188,1685.410096
3040.916594,1110.308913,-5921.647536,1762.019645
3040.916922,2442.679609,-7846.182985,2374.896044
3040.917249,3478.967927,-9844.739029,2528.115143
3040.917577,4293.194464,-11991.336260,3600.648841
3040.917905,4219.173869,-14582.057057,2681.334243
3040.918232,2664.741391,-14730.098246,-842.705048
3040.918560,444.123565,-14285.974681,-3677.258390
3040.918888,-1924.535449,-12879.583391,-4290.134789
3040.919215,-2368.659014,-9992.780217,-4443.353888
3040.919543,-1258.350101,-9400.615463,-4290.134789
3040.919871,-1702.473667,-7328.038826,-2068.457845
3040.920198,-1924.535449,-6217.729913,766.095498
3040.920526,-1184.329507,-7031.956449,2451.505594
3040.920854,0.000000,-5329.482782,1762.019645
3040.921181,592.164754,-4441.235652,1838.629195
3040.921509,592.164754,-7994.224174,2221.676944
3040.921837,592.164754,-10658.965565,2451.505594
3040.922164,962.267725,-11473.192101,2221.676944
3040.922492,3478.967927,-13841.851115,306.438199
3040.922820,3478.967927,-14730.098246,-1991.848295
3040.923147,740.205942,-14359.995275,-995.924147
3040.923475,-1258.350101,-12435.459826,-919.314598
3040.923803,-1628.453072,-10436.903782,-2987.772442
3040.924130,-1184.329507,-9918.759623,-4213.525239
3040.924458,-3182.885551,-7254.018232,-2298.286494
3040.924786,-4441.235652,-4441.235652,306.438199
3040.925113,-1924.535449,-5847.626942,919.314598
3040.925441,0.000000,-6661.853478,689.485948
3040.925769,-296.082377,-6069.688724,1149.143247
3040.926096,1332.370696,-7846.182985,2451.505594
3040.926424,4293.194464,-9548.656652,2298.286494
3040.926752,4589.276840,-11325.150913,1762.019645
3040.927079,3552.988522,-11695.253884,1762.019645
3040.927407,3404.947333,-14211.954086,306.438199
3040.927735,1998.556043,-14656.077652,-1225.752797
3040.928062,-592.164754,-12509.480420,-2068.457845
3040.928390,-2294.638420,-11473.192101,-2604.724693
3040.928718,-2368.659014,-10732.986159,-4366.744339
3040.929045,-2516.700203,-8512.368333,-4443.353888
3040.929373,-3034.844362,-6661.853478,-2834.553343
3040.929701,-2368.659014,-7105.977043,-1302.362347
3040.930028,-1110.308913,-6883.915261,229.828649
3040.930356,740.205942,-5107.421000,1378.971896
3040.930684,1628.453072,-6587.832884,2834.553343
3040.931011,3849.070898,-9918.759623,4290.134789
3040.931339,5847.626942,-11029.068536,3677.258390
3040.931667,5403.503377,-11843.295072,2987.772442
3040.931994,4441.235652,-14582.057057,1072.533697
3040.932322,2442.679609,-13989.892304,-1378.971896
3040.932650,-1036.288319,-12213.398043,-2451.505594
3040.932977,-4071.132681,-11325.150913,-3140.991542
3040.933305,-3034.844362,-11325.150913,-4673.182538
3040.933633,-2812.782580,-8586.388927,-4443.353888
3040.933960,-3108.864956,-6809.894666,-919.314598
3040.934288,-2812.782580,-6439.791695,153.219100
3040.934616,148.041188,-5255.462188,306.438199
3040.934943,148.041188,-3256.906145,1838.629195
3040.935271,148.041188,-5625.565159,2604.724693
3040.935599,3182.885551,-8586.388927,2604.724693
3040.935926,5625.565159,-9844.739029,3294.210641
3040.936254,4293.194464,-10658.965565,4060.306139
3040.936582,3923.091493,-14730.098246,1532.190996
3040.936909,3478.967927,-16580.613101,-1991.848295
3040.937237,296.082377,-14063.912898,-2987.772442
3040.937565,-2960.823768,-11029.068536,-2987.772442
3040.937892,-3478.967927,-11103.089130,-3677.258390
3040.938220,-1628.453072,-10362.883188,-4213.525239
3040.938548,-2738.761985,-6809.894666,-2068.457845
3040.938875,-3775.050304,-5033.400406,-1302.362347
3040.939203,-2368.659014,-6069.688724,-306.438199
3040.939531,-1702.473667,-5699.585753,0.000000
3040.939858,-296.082377,-5403.503377,842.705048
3040.940186,962.267725,-8290.306550,1915.238745
3040.940514,2738.761985,-11843.295072,3140.991542
3040.940841,3923.091493,-13397.727550,2145.067394
3040.941169,5033.400406,-16136.489536,0.000000
3040.941497,3775.050304,-15026.180623,-766.095498
3040.941824,1480.411884,-14211.954086,-995.924147
3040.942152,-1036.288319,-12287.418637,-153.219100
3040.942480,-1702.473667,-11103.089130,-1838.629195
3040.942807,-1776.494261,-9548.656652,-3753.867940
3040.943135,-3701.029710,-6143.709319,-2374.896044
3040.943463,-3849.070898,-4441.235652,-1302.362347
3040.943790,-3256.906145,-4959.379811,-536.266849
3040.944118,-2886.803174,-4515.256246,-306.438199
3040.944446,-2812.782580,-4589.276840,383.047749
3040.944773,1184.329507,-8142.265362,1915.238745
3040.945101,5033.400406,-9992.780217,2221.676944
3040.945429,7105.977043,-11251.130318,4213.525239
3040.945756,6143.709319,-12805.562797,4826.401637
3040.946084,4885.359217,-14434.015869,1685.410096
3040.946412,1924.535449,-13323.706956,-1225.752797
3040.946739,-1406.391290,-9622.677246,-2221.676944
3040.947067,-2664.741391,-9400.615463,-2528.115143
3040.947395,-2368.659014,-9622.677246,-2987.772442
3040.947722,-2294.638420,-8882.471304,-2604.724693
3040.948050,-2886.803174,-8586.388927,-2298.286494
3040.948378,-2146.597232,-7624.121203,-2221.676944
3040.948705,-962.267725,-5551.544565,-1915.238745
3040.949033,-1110.308913,-5255.462188,-383.047749
3040.949361,1036.288319,-7920.203579,1762.019645
3040.949688,5329.482782,-9622.677246,2451.505594
3040.950016,7031.956449,-9474.636058,4060.306139
3040.950344,6587.832884,-12065.356855,4366.744339
3040.950671,5551.544565,-14952.160028,3140.991542
3040.950999,2368.659014,-15026.180623,-229.828649
3040.951327,-2664.741391,-11399.171507,-2451.505594
3040.951654,-3849.070898,-11399.171507,-5439.278036
3040.951982,-2072.576638,-12213.398043,-5132.839837
3040.952310,-1332.370696,-11769.274478,-3370.820191
3040.952637,-2146.597232,-8660.409521,-153.219100
3040.952965,-2368.659014,-6513.812290,-459.657299
3040.953293,-1998.556043,-4737.318029,-612.876398
3040.953620,-3182.885551,-3552.988522,0.000000
3040.953948,-1776.494261,-5551.544565,1532.190996
3040.954276,2368.659014,-7846.182985,2298.286494
3040.954603,5255.462188,-10066.800811,3600.648841
3040.954931,5921.647536,-13841.851115,3983.696590
3040.955259,4663.297435,-15766.386565,3447.429741
3040.955586,1406.391290,-13249.686362,229.828649
3040.955914,0.000000,-12213.398043,-2987.772442
3040.956241,-3404.947333,-11029.068536,-4213.525239
3040.956569,-4071.132681,-10362.883188,-4060.306139
3040.956897,-3923.091493,-7920.203579,-2757.943793
3040.957224,-2886.803174,-6439.791695,-689.485948
3040.957552,-3923.091493,-6735.874072,459.657299
3040.957880,-3849.070898,-6069.688724,383.047749
3040.958207,-3108.864956,-4145.153275,-536.266849
3040.958535,-2146.597232,-6587.832884,-1302.362347
3040.958863,2516.700203,-9992.780217,-689.485948
3040.959190,4737.318029,-10881.027347,2145.067394
3040.959518,4737.318029,-11843.295072,4443.353888
3040.959846,4441.235652,-14211.954086,3217.601092
3040.960173,4663.297435,-15026.180623,-612.876398
3040.960501,1776.494261,-13323.706956,-2298.286494
3040.960829,0.000000,-11695.253884,-1838.629195
3040.961156,-518.144159,-11325.150913,-2757.943793
3040.961484,-962.267725,-9474.636058,-3217.601092
3040.961812,-3627.009116,-6809.894666,-2374.896044
3040.962139,-4663.297435,-6513.812290,-1302.362347
3040.962467,-3849.070898,-5625.565159,-1608.800546
3040.962795,-2442.679609,-5255.462188,-1762.019645
3040.963122,-1110.308913,-6809.894666,-306.438199
3040.963450,2368.659014,-9104.533087,1072.533697
3040.963778,6365.771101,-10732.986159,1838.629195
3040.964105,7179.997637,-11843.295072,4290.134789
3040.964433,6365.771101,-13397.727550,4136.915689
3040.964761,5995.668130,-14137.933492,1149.143247
3040.965088,3404.947333,-11843.295072,-1378.971896
3040.965416,0.000000,-10658.965565,-1915.238745
3040.965744,-1406.391290,-10881.027347,-1915.238745
3040.966071,-1332.370696,-10584.944971,-2068.457845
3040.966399,-2590.720797,-8068.244768,-842.705048
3040.966727,-4959.379811,-7105.977043,-995.924147
3040.967054,-3997.112087,-6439.791695,-1608.800546
3040.967382,-2516.700203,-4885.359217,-1455.581446
3040.967710,-2294.638420,-5329.482782,306.438199
3040.968037,1406.391290,-7772.162391,2451.505594
3040.968365,5403.503377,-9104.533087,2987.772442
3040.968693,6291.750507,-9918.759623,3830.477490
3040.969020,5181.441594,-12213.398043,3983.696590
3040.969348,4145.153275,-14434.015869,2145.067394
3040.969676,1850.514855,-13841.851115,-919.314598
3040.970003,-962.267725,-12287.418637,-3294.210641
3040.970331,-2960.823768,-11399.171507,-4903.011187
3040.970659,-2072.576638,-12879.583391,-4596.572988
3040.970986,-1924.535449,-9992.780217,-1532.190996
3040.971314,-1998.556043,-8216.285956,229.828649
3040.971642,-2442.679609,-7105.977043,459.657299
3040.971969,-2146.597232,-5921.647536,76.609550
3040.972297,-3182.885551,-3923.091493,383.047749
3040.972625,222.061783,-6809.894666,383.047749
3040.972952,2294.638420,-9696.697840,1149.143247
3040.973280,2220.617826,-9548.656652,3217.601092
3040.973608,3034.844362,-11843.295072,2528.115143
3040.973935,3404.947333,-14804.118840,153.219100
3040.974263,2738.761985,-15988.448347,-2374.896044
3040.974591,-962.267725,-12731.542202,-1991.848295
3040.974918,-2294.638420,-11103.089130,-2604.724693
3040.975246,-2442.679609,-10288.862594,-2681.334243
3040.975574,-2738.761985,-9030.512492,-1608.800546
3040.975901,-4293.194464,-5477.523971,536.266849
3040.976229,-3923.091493,-5107.421000,995.924147
3040.976557,-2664.741391,-5921.647536,689.485948
3040.976884,-888.247130,-5699.585753,536.266849
3040.977212,-148.041188,-6439.791695,842.705048
3040.977540,2590.720797,-9400.615463,842.705048
3040.977867,4737.318029,-9622.677246,1685.410096
3040.978195,4959.379811,-11695.253884,2145.067394
3040.978523,4367.215058,-13101.645173,1532.190996
3040.978850,4737.318029,-14211.954086,-689.485948
3040.979178,2442.679609,-12361.439231,-766.095498
3040.979506,74.020594,-11029.068536,-383.047749
3040.979833,-222.061783,-10288.862594,-1915.238745
3040.980161,-2294.638420,-7402.059420,-1302.362347
3040.980489,-3997.112087,-7624.121203,-1455.581446
3040.980816,-3478.967927,-7550.100608,-1991.848295
3040.981144,-1850.514855,-6661.853478,-2145.067394
3040.981472,-592.164754,-6661.853478,-536.266849
3040.981799,-296.082377,-8734.430116,1225.752797
3040.982127,2960.823768,-10066.800811,536.266849
3040.982455,4737.318029,-9844.739029,919.314598
3040.982782,3552.988522,-10362.883188,1685.410096
3040.983110,3701.029710,-13397.727550,1455.581446
3040.983438,4441.235652,-15174.221811,-459.657299
3040.983765,3182.885551,-13767.830521,-1072.533697
3040.984093,-518.144159,-11325.150913,-612.876398
3040.984421,-1110.308913,-10881.027347,-1838.629195
3040.984748,-1036.288319,-10362.883188,-3140.991542
3040.985076,-3330.926739,-8808.450710,-2451.505594
3040.985404,-4145.153275,-7624.121203,-1991.848295
3040.985731,-3478.967927,-6365.771101,-1685.410096
3040.986059,-3108.864956,-5477.523971,229.828649
3040.986387,-1702.473667,-6661.853478,2068.457845
3040.986714,1332.370696,-8660.409521,2221.676944
3040.987042,4515.256246,-9992.780217,2987.772442
3040.987370,4811.338623,-9992.780217,2145.067394
3040.987697,5329.482782,-12509.480420,1149.143247
3040.988025,5107.421000,-13915.871710,0.000000
3040.988353,2294.638420,-12509.480420,-612.876398
3040.988680,-1776.494261,-10436.903782,-306.438199
3040.989008,-2590.720797,-10288.862594,-2451.505594
3040.989336,-1554.432478,-10288.862594,-3140.991542
3040.989663,-1406.391290,-8956.491898,-1838.629195
3040.989991,-2664.741391,-7920.203579,536.266849
3040.990319,-2368.659014,-6809.894666,612.876398
3040.990646,-2368.659014,-4811.338623,76.609550
3040.990974,-3330.926739,-4441.235652,612.876398
3040.991302,-1332.370696,-6291.750507,229.828649
3040.991629,1998.556043,-8956.491898,1455.581446
3040.991957,3256.906145,-9474.636058,2298.286494
3040.992285,4885.359217,-13101.645173,1072.533697
3040.992612,4219.173869,-15248.242405,-689.485948
3040.992940,2442.679609,-14434.015869,-1838.629195
3040.993268,148.041188,-11325.150913,-2757.943793
3040.993595,-518.144159,-10658.965565,-2987.772442
3040.993923,-444.123565,-11621.233289,-3217.601092
3040.994251,-1110.308913,-9844.739029,-306.438199
3040.994578,-1998.556043,-7920.203579,1149.143247
3040.994906,-1554.432478,-8512.368333,1225.752797
3040.995234,-2072.576638,-7031.956449,689.485948
3040.995561,-2738.761985,-4737.318029,919.314598
3040.995889,-1850.514855,-5773.606348,995.924147
3040.996217,1776.494261,-9474.636058,-153.219100
3040.996544,3997.112087,-11177.109724,612.876398
3040.996872,4367.215058,-12435.459826,2068.457845
3040.997200,4515.256246,-13323.706956,1072.533697
3040.997527,4811.338623,-14508.036463,-1685.410096
3040.997855,1554.432478,-11917.315666,-2298.286494
3040.998183,-1554.432478,-9178.553681,-1532.190996
3040.998510,-1998.556043,-9178.553681,-2145.067394
3040.998838,-2590.720797,-9104.533087,-995.924147
3040.999166,-3108.864956,-8290.306550,0.000000
3040.999493,-2812.782580,-7031.956449,-536.266849
3040.999821,-2294.638420,-6439.791695,76.609550
3041.000148,-1628.453072,-6513.812290,1378.971896
3041.000476,814.226536,-7846.182985,842.705048
3041.000804,3404.947333,-9030.512492,2221.676944
3041.001131,4959.379811,-10288.862594,1225.752797
3041.001459,6365.771101,-10955.047942,1225.752797
3041.001786,5255.462188,-12879.583391,1225.752797
3041.002114,3552.988522,-12805.562797,-153.219100
3041.002441,518.144159,-10807.006753,-1762.019645
3041.002769,-1628.453072,-9918.759623,-2528.115143
3041.003096,-1258.350101,-11547.212695,-3140.991542
3041.003424,-1554.432478,-10436.903782,-2604.724693
3041.003751,-2664.741391,-9030.512492,-459.657299
3041.004079,-4219.173869,-8586.388927,536.266849
3041.004407,-2960.823768,-7031.956449,0.000000
3041.004734,-2590.720797,-4293.194464,-842.705048
3041.005062,-1924.535449,-5329.482782,995.924147
3041.005389,2960.823768,-9696.697840,3217.601092
3041.005717,5181.441594,-10288.862594,3600.648841
3041.006044,5921.647536,-11843.295072,2757.943793
3041.006372,5181.441594,-14137.933492,766.095498
3041.006699,4737.318029,-13915.871710,-2221.676944
3041.007027,1184.329507,-11251.130318,-3064.381992
3041.007355,-2812.782580,-9770.718434,-2451.505594
3041.007682,-2590.720797,-10732.986159,-4136.915689
3041.008010,-1850.514855,-11769.274478,-2757.943793
3041.008337,-2294.638420,-9252.574275,0.000000
3041.008665,-2442.679609,-7105.977043,1455.581446
3041.008992,-2368.659014,-5921.647536,2221.676944
3041.009320,-2738.761985,-5033.400406,1838.629195
3041.009647,-3330.926739,-5255.462188,1608.800546
3041.009975,-1036.288319,-6957.935855,689.485948
3041.010302,3627.009116,-9474.636058,153.219100
3041.010630,3923.091493,-11325.150913,1455.581446
3041.010958,3849.070898,-13989.892304,1762.019645
3041.011285,4367.215058,-15692.365970,-1302.362347
3041.011613,1998.556043,-13175.665768,-3064.381992
3041.011940,-1184.329507,-10436.903782,-3753.867940
3041.012268,-2442.679609,-9844.739029,-3064.381992
3041.012595,-1850.514855,-10288.862594,-1915.238745
3041.012923,-962.267725,-8438.347739,-153.219100
3041.013250,-1850.514855,-7328.038826,1838.629195
3041.013578,-2220.617826,-7772.162391,1991.848295
3041.013905,-1110.308913,-6291.750507,1455.581446
3041.014233,-666.185348,-4959.379811,689.485948
3041.014561,370.102971,-7772.162391,1302.362347
3041.014888,3108.864956,-10066.800811,842.705048
3041.015216,3701.029710,-10955.047942,383.047749
3041.015543,4367.215058,-13397.727550,459.657299
3041.015871,5033.400406,-15766.386565,-306.438199
3041.016198,3701.029710,-13915.871710,-1225.752797
3041.016526,0.000000,-10436.903782,-1378.971896
3041.016853,-1110.308913,-10214.842000,-2145.067394
3041.017181,-518.144159,-9770.718434,-3524.039291
3041.017508,-1258.350101,-8216.285956,-1915.238745
3041.017836,-3256.906145,-6883.915261,1149.143247
3041.018164,-2368.659014,-6735.874072,842.705048
3041.018491,-1554.432478,-6735.874072,306.438199
3041.018819,148.041188,-7179.997637,1149.143247
3041.019146,814.226536,-7402.059420,1608.800546
3041.019474,2516.700203,-9104.533087,536.266849
3041.019801,3849.070898,-11991.336260,842.705048
3041.020129,3775.050304,-13989.892304,1302.362347
3041.020456,3034.844362,-13397.727550,0.000000
3041.020784,1332.370696,-10807.006753,-1532.190996
3041.021111,-814.226536,-9918.759623,-1838.629195
3041.021439,-1702.473667,-11103.089130,-2145.067394
3041.021767,-1332.370696,-10436.903782,-2604.724693
3041.022094,-1702.473667,-9030.512492,-2374.896044
3041.022422,-2590.720797,-7698.141797,-1225.752797
3041.022749,-2072.576638,-8290.306550,-459.657299
3041.023077,-1850.514855,-7402.059420,536.266849
3041.023404,-888.247130,-5773.606348,1532.190996
3041.023732,444.123565,-7105.977043,2451.505594
3041.024059,3182.885551,-10362.883188,2374.896044
3041.024387,4293.194464,-11103.089130,2681.334243
3041.024715,4145.153275,-11325.150913,2528.115143
3041.025042,2812.782580,-13027.624579,1378.971896
3041.025370,1406.391290,-13027.624579,-1762.019645
3041.025697,-1110.308913,-10732.986159,-2757.943793
3041.026025,-3034.844362,-10288.862594,-3294.210641
3041.026352,-2738.761985,-11251.130318,-3600.648841
3041.026680,-1702.473667,-11325.150913,-3140.991542
3041.027007,-1702.473667,-7994.224174,-1455.581446
3041.027335,-2368.659014,-7105.977043,0.000000
3041.027662,-3256.906145,-6957.935855,995.924147
3041.027990,-3552.988522,-5625.565159,1455.581446
3041.028318,-1776.494261,-5699.585753,689.485948
3041.028645,1628.453072,-8216.285956,842.705048
3041.028973,3034.844362,-10584.944971,1762.019645
3041.029300,4219.173869,-12657.521608,3600.648841
