#time,accel_x,accel_y,accel_z
3378.260962,-148.041188,-8734.430116,459.657299
3378.261289,0.000000,-9326.594869,76.609550
3378.261617,0.000000,-9474.636058,-306.438199
3378.261944,444.123565,-10066.800811,0.000000
3378.262272,518.144159,-10214.842000,-306.438199
3378.262600,740.205942,-10140.821405,0.000000
3378.262927,888.247130,-10066.800811,76.609550
3378.263255,666.185348,-9622.677246,229.828649
3378.263582,370.102971,-9474.636058,153.219100
3378.263910,296.082377,-9474.636058,-459.657299
3378.264237,370.102971,-9326.594869,-612.876398
3378.264565,0.000000,-9696.697840,-766.095498
3378.264893,74.020594,-9844.739029,-842.705048
3378.265220,148.041188,-9992.780217,-919.314598
3378.265548,518.144159,-10510.924376,-306.438199
3378.265875,518.144159,-10510.924376,229.828649
3378.266203,1036.288319,-10510.924376,-612.876398
3378.266531,740.205942,-10288.862594,-153.219100
3378.266858,592.164754,-9918.759623,0.000000
3378.267186,222.061783,-9696.697840,-153.219100
3378.267513,74.020594,-9770.718434,76.609550
3378.267841,0.000000,-9474.636058,0.000000
3378.268168,-592.164754,-9030.512492,-383.047749
3378.268496,-296.082377,-9474.636058,-306.438199
3378.268824,0.000000,-9696.697840,-383.047749
3378.269151,74.020594,-9770.718434,-229.828649
3378.269479,222.061783,-9548.656652,-306.438199
3378.269806,444.123565,-9770.718434,0.000000
3378.270134,740.205942,-9918.759623,153.219100
3378.270461,740.205942,-9326.594869,0.000000
3378.270789,222.061783,-9030.512492,459.657299
3378.271117,148.041188,-9400.615463,459.657299
3378.271444,0.000000,-9178.553681,0.000000
3378.271772,0.000000,-9030.512492,-306.438199
3378.272099,0.000000,-9400.615463,-536.266849
3378.272427,74.020594,-9474.636058,-612.876398
3378.272754,222.061783,-9178.553681,-306.438199
3378.273082,222.061783,-9918.759623,76.609550
3378.273410,518.144159,-10214.842000,0.000000
3378.273737,1110.308913,-10288.862594,0.000000
3378.274065,1406.391290,-9844.739029,-153.219100
3378.274392,1702.473667,-9548.656652,0.000000
3378.274720,2220.617826,-9178.553681,0.000000
3378.275047,3034.844362,-8586.388927,153.219100
3378.275375,3404.947333,-8290.306550,-306.438199
3378.275703,4293.194464,-9400.615463,-536.266849
3378.276030,4959.379811,-10140.821405,-995.924147
3378.276358,5995.668130,-10066.800811,-612.876398
3378.276685,7105.977043,-10214.842000,-612.876398
3378.277013,8364.327145,-10362.883188,-459.657299
3378.277340,9252.574275,-11177.109724,0.000000
3378.277668,8290.306550,-11547.212695,766.095498
3378.277996,8438.347739,-10584.944971,536.266849
3378.278323,9326.594869,-8956.491898,0.000000
3378.278651,8882.471304,-8216.285956,0.000000
3378.278978,9178.553681,-8290.306550,459.657299
3378.279306,9918.759623,-8438.347739,306.438199
3378.279633,11251.130318,-9622.677246,0.000000
3378.279961,11621.233289,-10066.800811,76.609550
3378.280289,11473.192101,-9770.718434,0.000000
3378.280616,10510.924376,-9548.656652,153.219100
3378.280944,11621.233289,-9252.574275,76.609550
3378.281271,12509.480420,-9622.677246,0.000000
3378.281599,13915.871710,-10807.006753,383.047749
3378.281926,15100.201217,-10658.965565,1685.410096
3378.282254,15988.448347,-9400.615463,1149.143247
3378.282582,14211.954086,-7846.182985,842.705048
3378.282909,13323.706956,-9104.533087,995.924147
3378.283237,12583.501014,-9030.512492,76.609550
3378.283564,12509.480420,-9474.636058,-383.047749
3378.283892,12361.439231,-10214.842000,-306.438199
3378.284219,13619.789333,-10584.944971,153.219100
3378.284547,13249.686362,-9326.594869,1685.410096
3378.284875,12287.418637,-9992.780217,2145.067394
3378.285202,12287.418637,-9548.656652,1149.143247
3378.285530,11695.253884,-9770.718434,153.219100
3378.285857,10881.027347,-9918.759623,0.000000
3378.286185,10214.842000,-9622.677246,-536.266849
3378.286512,7772.162391,-8290.306550,-229.828649
3378.286840,6883.915261,-7920.203579,229.828649
3378.287168,8290.306550,-8586.388927,-689.485948
3378.287495,9696.697840,-10362.883188,-919.314598
3378.287823,10288.862594,-11991.336260,0.000000
3378.288150,10066.800811,-11991.336260,306.438199
3378.288478,9770.718434,-10658.965565,76.609550
3378.288805,7994.224174,-8586.388927,0.000000
3378.289133,8808.450710,-8586.388927,76.609550
3378.289461,9252.574275,-8808.450710,766.095498
3378.289788,8956.491898,-10732.986159,1455.581446
3378.290116,8216.285956,-10807.006753,919.314598
3378.290443,7698.141797,-7698.141797,-383.047749
3378.290771,6513.812290,-8512.368333,-1072.533697
3378.291098,4959.379811,-9474.636058,0.000000
3378.291426,5699.585753,-9918.759623,-153.219100
3378.291754,8364.327145,-9770.718434,-1685.410096
3378.292081,11251.130318,-9918.759623,-1455.581446
3378.292409,11325.150913,-9992.780217,612.876398
3378.292736,9400.615463,-8882.471304,3370.820191
3378.293064,7550.100608,-7624.121203,3830.477490
3378.293391,9252.574275,-8956.491898,1762.019645
3378.293719,11029.068536,-9622.677246,-1991.848295
3378.294047,10436.903782,-9104.533087,-2221.676944
3378.294374,9474.636058,-8956.491898,536.266849
3378.294702,9252.574275,-9844.739029,1149.143247
3378.295029,9030.512492,-9770.718434,306.438199
3378.295357,7846.182985,-8808.450710,0.000000
3378.295684,7772.162391,-9474.636058,-1225.752797
3378.296012,10436.903782,-9252.574275,-1915.238745
3378.296340,11325.150913,-9844.739029,-383.047749
3378.296667,11251.130318,-9696.697840,1685.410096
3378.296995,10881.027347,-9178.553681,1762.019645
3378.297322,11251.130318,-7772.162391,842.705048
3378.297650,11029.068536,-8364.327145,-153.219100
3378.297977,12361.439231,-10881.027347,-229.828649
3378.298305,14508.036463,-9326.594869,-1762.019645
3378.298633,14285.974681,-10214.842000,-1378.971896
3378.298960,12509.480420,-12287.418637,536.266849
3378.299288,12583.501014,-11473.192101,1225.752797
3378.299615,13767.830521,-9548.656652,-153.219100
3378.299943,12953.603985,-10510.924376,-919.314598
3378.300271,12583.501014,-11991.336260,-689.485948
3378.300598,10288.862594,-11325.150913,229.828649
3378.300926,9548.656652,-9474.636058,2145.067394
3378.301253,6957.935855,-5699.585753,1685.410096
3378.301581,6439.791695,-9252.574275,-459.657299
3378.301908,2294.638420,-10955.047942,2068.457845
3378.302236,3849.070898,-9844.739029,76.609550
3378.302564,3701.029710,-6291.750507,-2987.772442
3378.302891,3701.029710,-8660.409521,-1532.190996
3378.303219,5403.503377,-11547.212695,306.438199
3378.303546,4737.318029,-9844.739029,1455.581446
3378.303874,4441.235652,-9178.553681,1838.629195
3378.304201,7031.956449,-12731.542202,76.609550
3378.304529,7105.977043,-12287.418637,-1302.362347
3378.304857,6809.894666,-8586.388927,766.095498
3378.305184,4441.235652,-8068.244768,2221.676944
3378.305512,2442.679609,-9474.636058,2451.505594
3378.305839,1110.308913,-9770.718434,1838.629195
3378.306167,0.000000,-8956.491898,0.000000
3378.306494,-2072.576638,-7105.977043,-842.705048
3378.306822,-1332.370696,-7624.121203,-1762.019645
3378.307150,-2072.576638,-9400.615463,0.000000
3378.307477,-1702.473667,-10881.027347,153.219100
3378.307805,-296.082377,-9548.656652,-459.657299
3378.308132,-370.102971,-10510.924376,766.095498
3378.308460,-1258.350101,-10362.883188,1455.581446
3378.308787,-1702.473667,-9844.739029,-306.438199
3378.309115,-2294.638420,-11473.192101,-1915.238745
3378.309443,-3182.885551,-9918.759623,-2528.115143
3378.309770,-2368.659014,-9622.677246,-919.314598
3378.310098,-1554.432478,-8808.450710,76.609550
3378.310425,-2516.700203,-9400.615463,1532.190996
3378.310753,-2664.741391,-9696.697840,229.828649
3378.311080,-4145.153275,-11473.192101,-2221.676944
3378.311408,-3627.009116,-9474.636058,-4826.401637
3378.311736,-1184.329507,-7402.059420,-5362.668486
3378.312063,-444.123565,-10066.800811,-536.266849
3378.312391,0.000000,-11325.150913,2834.553343
3378.312718,2442.679609,-9918.759623,1838.629195
3378.313046,2442.679609,-9474.636058,-842.705048
3378.313373,1036.288319,-11251.130318,-1991.848295
3378.313701,962.267725,-9918.759623,-2451.505594
3378.314029,1036.288319,-9252.574275,-995.924147
3378.314356,1998.556043,-8438.347739,-689.485948
3378.314684,2812.782580,-8734.430116,306.438199
3378.315011,2738.761985,-10436.903782,2834.553343
3378.315339,5181.441594,-9474.636058,1455.581446
3378.315666,4219.173869,-10362.883188,0.000000
3378.315994,1554.432478,-9252.574275,689.485948
3378.316322,-444.123565,-7179.997637,-1225.752797
3378.316649,0.000000,-7105.977043,-1378.971896
3378.316977,444.123565,-9992.780217,-306.438199
3378.317304,1628.453072,-10436.903782,536.266849
3378.317632,1998.556043,-10732.986159,842.705048
3378.317959,2664.741391,-11251.130318,-306.438199
3378.318287,4737.318029,-11473.192101,-2068.457845
3378.318615,3701.029710,-11399.171507,-306.438199
3378.318942,148.041188,-10140.821405,1225.752797
3378.319270,2072.576638,-10066.800811,1225.752797
3378.319597,2368.659014,-8586.388927,-459.657299
3378.319925,1258.350101,-9622.677246,0.000000
3378.320252,962.267725,-9104.533087,1149.143247
3378.320580,-296.082377,-8142.265362,995.924147
3378.320908,0.000000,-9918.759623,0.000000
3378.321235,740.205942,-11991.336260,-1302.362347
3378.321563,-592.164754,-10362.883188,-995.924147
3378.321890,0.000000,-8512.368333,-1149.143247
3378.322218,962.267725,-9400.615463,-1532.190996
3378.322546,666.185348,-10584.944971,-536.266849
3378.322873,296.082377,-11399.171507,1072.533697
3378.323201,0.000000,-8364.327145,1608.800546
3378.323529,-1332.370696,-9178.553681,919.314598
3378.323857,-1554.432478,-9400.615463,0.000000
3378.324184,-1924.535449,-9992.780217,-995.924147
3378.324512,-3849.070898,-9474.636058,-1149.143247
3378.324840,-3256.906145,-8290.306550,-2298.286494
3378.325167,-2590.720797,-8290.306550,-1838.629195
3378.325495,-666.185348,-10214.842000,0.000000
3378.325823,370.102971,-10214.842000,1991.848295
3378.326150,1628.453072,-9474.636058,1762.019645
3378.326478,-222.061783,-10436.903782,1302.362347
3378.326806,-740.205942,-10955.047942,-842.705048
3378.327133,-1332.370696,-9474.636058,-842.705048
3378.327461,-2368.659014,-7550.100608,-766.095498
3378.327789,-1850.514855,-8660.409521,-153.219100
3378.328117,-666.185348,-9326.594869,-2451.505594
3378.328444,296.082377,-9474.636058,-1608.800546
3378.328772,592.164754,-11695.253884,689.485948
3378.329100,-148.041188,-12213.398043,536.266849
3378.329427,444.123565,-11251.130318,-1762.019645
3378.329755,74.020594,-9178.553681,-3140.991542
3378.330083,-148.041188,-10510.924376,-1991.848295
3378.330410,-2368.659014,-8734.430116,229.828649
3378.330738,0.000000,-8512.368333,1378.971896
3378.331066,1036.288319,-7846.182985,-995.924147
3378.331394,1258.350101,-10658.965565,-612.876398
3378.331721,0.000000,-10584.944971,306.438199
3378.332049,1628.453072,-8290.306550,-1762.019645
3378.332377,1702.473667,-9178.553681,-1225.752797
3378.332704,2442.679609,-9474.636058,-1149.143247
3378.333032,3182.885551,-9992.780217,1225.752797
3378.333360,3182.885551,-8956.491898,2451.505594
3378.333687,4071.132681,-10584.944971,2298.286494
3378.334015,3330.926739,-11325.150913,1455.581446
3378.334343,1332.370696,-10140.821405,1532.190996
3378.334671,0.000000,-8290.306550,153.219100
3378.334998,0.000000,-6661.853478,-1991.848295
3378.335326,-1110.308913,-7772.162391,-1532.190996
3378.335654,-888.247130,-9548.656652,-459.657299
3378.335981,296.082377,-8734.430116,76.609550
3378.336309,1406.391290,-8586.388927,0.000000
3378.336637,2146.597232,-11103.089130,0.000000
3378.336964,1406.391290,-11695.253884,536.266849
3378.337292,2220.617826,-12213.398043,842.705048
3378.337620,2220.617826,-9400.615463,-1608.800546
3378.337948,1924.535449,-10214.842000,-919.314598
3378.338275,-222.061783,-10362.883188,383.047749
3378.338603,-222.061783,-9696.697840,383.047749
3378.338931,0.000000,-10140.821405,0.000000
3378.339258,-370.102971,-9918.759623,0.000000
3378.339586,-1776.494261,-10362.883188,536.266849
3378.339914,-814.226536,-8956.491898,-1149.143247
3378.340241,148.041188,-9474.636058,-1378.971896
3378.340569,0.000000,-9918.759623,-919.314598
3378.340897,666.185348,-9178.553681,-153.219100
3378.341225,74.020594,-9030.512492,1838.629195
3378.341552,592.164754,-10140.821405,1072.533697
3378.341880,-1036.288319,-8808.450710,612.876398
3378.342208,-2516.700203,-9474.636058,0.000000
3378.342535,-3701.029710,-9548.656652,-2145.067394
3378.342863,-3775.050304,-9770.718434,-3447.429741
3378.343191,-3997.112087,-9770.718434,-1302.362347
3378.343518,-2146.597232,-8956.491898,-1532.190996
3378.343846,0.000000,-9474.636058,-689.485948
3378.344174,1184.329507,-9770.718434,919.314598
3378.344501,2072.576638,-10066.800811,1838.629195
3378.344829,962.267725,-9844.739029,1762.019645
3378.345157,0.000000,-8068.244768,459.657299
3378.345485,-666.185348,-6809.894666,-689.485948
3378.345812,-888.247130,-8216.285956,229.828649
3378.346140,0.000000,-9918.759623,766.095498
3378.346468,814.226536,-8808.450710,-1378.971896
3378.346795,1702.473667,-11103.089130,383.047749
3378.347123,148.041188,-13915.871710,-536.266849
3378.347451,148.041188,-14137.933492,-1378.971896
3378.347778,-1554.432478,-9918.759623,-2451.505594
3378.348106,-1924.535449,-8438.347739,-3447.429741
3378.348434,-2072.576638,-10214.842000,-1838.629195
3378.348762,-1258.350101,-10362.883188,1455.581446
3378.349089,1184.329507,-8216.285956,1378.971896
3378.349417,1554.432478,-7846.182985,689.485948
3378.349745,814.226536,-9252.574275,536.266849
3378.350072,962.267725,-8142.265362,-459.657299
3378.350400,2072.576638,-9252.574275,-612.876398
3378.350728,1628.453072,-9770.718434,0.000000
3378.351055,2590.720797,-10436.903782,153.219100
3378.351383,2220.617826,-9030.512492,1149.143247
3378.351711,3923.091493,-11399.171507,2221.676944
3378.352039,2886.803174,-11769.274478,1838.629195
3378.352366,1036.288319,-11621.233289,1378.971896
3378.352694,-148.041188,-8660.409521,76.609550
3378.353022,814.226536,-6291.750507,-1762.019645
3378.353349,0.000000,-6439.791695,-612.876398
3378.353677,-2368.659014,-7624.121203,2681.334243
3378.354005,-1480.411884,-7105.977043,2604.724693
3378.354332,1332.370696,-8068.244768,-1072.533697
3378.354660,2072.576638,-12361.439231,-995.924147
3378.354988,1406.391290,-11843.295072,153.219100
3378.355316,1480.411884,-10584.944971,229.828649
3378.355643,3256.906145,-12361.439231,-306.438199
3378.355971,3478.967927,-11695.253884,-995.924147
3378.356299,518.144159,-10140.821405,0.000000
3378.356626,-2146.597232,-7920.203579,1225.752797
3378.356954,-1628.453072,-7698.141797,306.438199
3378.357282,-666.185348,-9548.656652,-1302.362347
3378.357609,-2738.761985,-11251.130318,919.314598
3378.357937,-2516.700203,-9474.636058,-383.047749
3378.358265,222.061783,-8512.368333,-2451.505594
3378.358593,666.185348,-8808.450710,-2604.724693
3378.358920,1850.514855,-12435.459826,-383.047749
3378.359248,1776.494261,-11029.068536,1072.533697
3378.359576,1258.350101,-8364.327145,1378.971896
3378.359903,0.000000,-8290.306550,612.876398
3378.360231,-1036.288319,-10066.800811,766.095498
3378.360559,-1924.535449,-11769.274478,689.485948
3378.360886,-3775.050304,-9844.739029,-919.314598
3378.361214,-2516.700203,-8882.471304,-3677.258390
3378.361542,-2220.617826,-9326.594869,-3753.867940
3378.361869,-1110.308913,-10436.903782,-1302.362347
3378.362197,-222.061783,-8586.388927,1302.362347
3378.362525,814.226536,-7476.080014,1838.629195
3378.362853,666.185348,-8364.327145,1302.362347
3378.363180,1776.494261,-10732.986159,459.657299
3378.363508,1184.329507,-9770.718434,0.000000
3378.363836,1110.308913,-8808.450710,612.876398
3378.364163,814.226536,-9696.697840,383.047749
3378.364491,2368.659014,-10881.027347,-1149.143247
3378.364819,1184.329507,-11473.192101,-919.314598
3378.365146,-740.205942,-10214.842000,229.828649
3378.365474,-962.267725,-9844.739029,-842.705048
3378.365802,-518.144159,-12065.356855,-1991.848295
3378.366130,370.102971,-11473.192101,-2298.286494
3378.366457,592.164754,-8512.368333,-1991.848295
3378.366785,-1184.329507,-8216.285956,995.924147
3378.367113,-444.123565,-10214.842000,1762.019645
3378.367440,1628.453072,-8808.450710,-995.924147
3378.367768,2664.741391,-9104.533087,-995.924147
3378.368096,444.123565,-8438.347739,0.000000
3378.368423,888.247130,-8660.409521,153.219100
3378.368751,296.082377,-8512.368333,0.000000
3378.369079,962.267725,-10732.986159,153.219100
3378.369407,1924.535449,-11547.212695,459.657299
3378.369734,2442.679609,-10732.986159,0.000000
3378.370062,2812.782580,-10288.862594,0.000000
3378.370390,3330.926739,-11695.253884,-153.219100
3378.370717,666.185348,-10066.800811,1838.629195
3378.371045,222.061783,-6735.874072,1455.581446
3378.371373,-962.267725,-4737.318029,153.219100
3378.371700,-3034.844362,-7105.977043,229.828649
3378.372028,-2072.576638,-9400.615463,0.000000
3378.372356,518.144159,-9178.553681,-536.266849
3378.372684,1258.350101,-9992.780217,-919.314598
3378.373011,2220.617826,-13027.624579,-1302.362347
3378.373339,2442.679609,-14137.933492,-383.047749
3378.373667,1628.453072,-11399.171507,459.657299
3378.373994,2368.659014,-9844.739029,-1685.410096
3378.374322,592.164754,-9474.636058,-1302.362347
3378.374650,-1184.329507,-8882.471304,612.876398
3378.374977,-518.144159,-8734.430116,766.095498
3378.375305,-1332.370696,-8438.347739,1149.143247
3378.375633,-1924.535449,-9770.718434,536.266849
3378.375961,0.000000,-10066.800811,-995.924147
3378.376288,740.205942,-9548.656652,-2374.896044
3378.376616,222.061783,-9252.574275,-2451.505594
3378.376944,592.164754,-8808.450710,-842.705048
3378.377271,1258.350101,-10881.027347,612.876398
3378.377599,1554.432478,-12065.356855,689.485948
3378.377927,2072.576638,-9548.656652,0.000000
3378.378254,-370.102971,-8660.409521,459.657299
3378.378582,-1924.535449,-11103.089130,1225.752797
3378.378910,-2368.659014,-10214.842000,-229.828649
3378.379238,-2442.679609,-8808.450710,-2451.505594
3378.379565,-3108.864956,-8438.347739,-2528.115143
3378.379893,-2590.720797,-8586.388927,-1915.238745
3378.380221,-1850.514855,-7772.162391,76.609550
3378.380548,-444.123565,-7254.018232,766.095498
3378.380876,1110.308913,-8660.409521,76.609550
3378.381204,2072.576638,-9178.553681,536.266849
3378.381531,2442.679609,-10066.800811,1302.362347
3378.381859,3849.070898,-11473.192101,536.266849
3378.382187,3997.112087,-12361.439231,229.828649
3378.382514,2664.741391,-10510.924376,459.657299
3378.382842,1406.391290,-10066.800811,76.609550
3378.383170,-1480.411884,-10362.883188,-919.314598
3378.383498,-2368.659014,-10362.883188,-1762.019645
3378.383825,-1480.411884,-8364.327145,-2145.067394
3378.384153,0.000000,-10584.944971,-1991.848295
3378.384481,740.205942,-13027.624579,-383.047749
3378.384808,1258.350101,-9844.739029,306.438199
3378.385136,592.164754,-9104.533087,612.876398
3378.385464,-296.082377,-9696.697840,-1149.143247
3378.385791,-1110.308913,-8586.388927,-1378.971896
3378.386119,-888.247130,-7402.059420,-153.219100
3378.386447,666.185348,-8364.327145,229.828649
3378.386775,1554.432478,-9474.636058,229.828649
3378.387102,1480.411884,-11177.109724,919.314598
3378.387430,2072.576638,-11103.089130,383.047749
3378.387758,3404.947333,-11917.315666,-153.219100
3378.388085,2294.638420,-11029.068536,-306.438199
3378.388413,444.123565,-9252.574275,0.000000
3378.388741,148.041188,-7179.997637,1225.752797
3378.389068,1332.370696,-5995.668130,689.485948
3378.389396,1258.350101,-7105.977043,1762.019645
3378.389724,0.000000,-9178.553681,2528.115143
3378.390052,-148.041188,-8512.368333,1225.752797
3378.390379,1702.473667,-8290.306550,-1762.019645
3378.390707,2146.597232,-9622.677246,-2145.067394
3378.391035,1110.308913,-11843.295072,-459.657299
3378.391362,370.102971,-11769.274478,612.876398
3378.391690,2146.597232,-10658.965565,-689.485948
3378.392018,1776.494261,-10658.965565,-1991.848295
3378.392345,296.082377,-11621.233289,-612.876398
3378.392673,-1776.494261,-9474.636058,1378.971896
3378.393001,-888.247130,-8364.327145,229.828649
3378.393329,-592.164754,-8586.388927,-1378.971896
3378.393656,-1184.329507,-10436.903782,-536.266849
3378.393984,-2368.659014,-10658.965565,612.876398
3378.394312,-1850.514855,-8068.244768,-1225.752797
3378.394639,-592.164754,-8438.347739,-2911.162892
3378.394967,0.000000,-10140.821405,-2451.505594
3378.395295,0.000000,-11769.274478,-612.876398
3378.395622,592.164754,-11991.336260,153.219100
3378.395950,1702.473667,-10658.965565,0.000000
3378.396278,2146.597232,-9770.718434,-919.314598
3378.396606,666.185348,-12361.439231,0.000000
3378.396933,-1702.473667,-10881.027347,1225.752797
3378.397261,-1702.473667,-6809.894666,0.000000
3378.397589,-1702.473667,-7846.182985,-1072.533697
3378.397916,-2516.700203,-8586.388927,-919.314598
3378.398244,-2442.679609,-8290.306550,536.266849
3378.398572,-2220.617826,-5995.668130,1915.238745
3378.398899,-444.123565,-7179.997637,76.609550
3378.399227,592.164754,-9326.594869,-1149.143247
3378.399555,1998.556043,-11399.171507,306.438199
3378.399882,1406.391290,-10658.965565,1608.800546
3378.400210,2072.576638,-10436.903782,842.705048
3378.400538,2072.576638,-10362.883188,-383.047749
3378.400866,814.226536,-11251.130318,536.266849
3378.401193,-740.205942,-10732.986159,1225.752797
3378.401521,-1258.350101,-8660.409521,-842.705048
3378.401849,-740.205942,-8438.347739,-1225.752797
3378.402176,1924.535449,-10436.903782,-2451.505594
3378.402504,2146.597232,-13027.624579,76.609550
3378.402832,0.000000,-9622.677246,2068.457845
3378.403159,0.000000,-6661.853478,0.000000
3378.403487,-592.164754,-9252.574275,-1991.848295
3378.403815,-296.082377,-10584.944971,-1685.410096
3378.404143,148.041188,-8808.450710,0.000000
3378.404470,888.247130,-8216.285956,0.000000
3378.404798,1924.535449,-10288.862594,-536.266849
3378.405126,2886.803174,-12583.501014,-1225.752797
3378.405453,2812.782580,-12509.480420,76.609550
3378.405781,2368.659014,-10881.027347,536.266849
3378.406109,2294.638420,-10658.965565,-842.705048
3378.406436,0.000000,-10140.821405,-612.876398
3378.406764,0.000000,-10510.924376,76.609550
3378.407092,1036.288319,-6883.915261,306.438199
3378.407420,-740.205942,-5329.482782,919.314598
3378.407747,-740.205942,-9474.636058,1685.410096
3378.408075,888.247130,-9400.615463,-536.266849
3378.408403,888.247130,-8808.450710,-919.314598
3378.408730,370.102971,-7550.100608,-229.828649
3378.409058,370.102971,-10732.986159,0.000000
3378.409386,1110.308913,-11695.253884,0.000000
3378.409713,1258.350101,-10584.944971,-842.705048
3378.410041,-222.061783,-10214.842000,-536.266849
3378.410369,-666.185348,-10658.965565,-919.314598
3378.410697,-1184.329507,-9696.697840,-612.876398
3378.411024,888.247130,-9030.512492,-842.705048
3378.411352,-148.041188,-9622.677246,612.876398
3378.411680,-1702.473667,-8956.491898,1149.143247
3378.412007,-1258.350101,-8290.306550,0.000000
3378.412335,-1258.350101,-8586.388927,-1685.410096
3378.412663,-592.164754,-9844.739029,-919.314598
3378.412990,-1332.370696,-8882.471304,306.438199
3378.413318,-370.102971,-9252.574275,229.828649
3378.413646,888.247130,-12139.377449,-1685.410096
3378.413974,1036.288319,-11991.336260,-1225.752797
3378.414301,1406.391290,-11473.192101,-306.438199
3378.414629,740.205942,-11547.212695,76.609550
3378.414957,-148.041188,-10881.027347,-229.828649
3378.415284,-518.144159,-7550.100608,-1685.410096
3378.415612,-1184.329507,-8734.430116,76.609550
3378.415940,-2294.638420,-8364.327145,1532.190996
3378.416267,-1332.370696,-8882.471304,1685.410096
3378.416595,-592.164754,-7772.162391,-229.828649
3378.416923,-444.123565,-8216.285956,-2221.676944
3378.417250,-1702.473667,-8586.388927,-1532.190996
3378.417578,-1258.350101,-8660.409521,153.219100
3378.417906,0.000000,-9030.512492,0.000000
3378.418234,2738.761985,-10362.883188,-995.924147
3378.418561,2590.720797,-11843.295072,153.219100
3378.418889,1184.329507,-12657.521608,1838.629195
3378.419217,1776.494261,-12879.583391,229.828649
3378.419544,666.185348,-9844.739029,-2068.457845
3378.419872,222.061783,-9474.636058,-919.314598
3378.420200,888.247130,-8364.327145,-766.095498
3378.420527,444.123565,-8660.409521,1378.971896
3378.420855,740.205942,-8512.368333,2451.505594
3378.421183,2294.638420,-7772.162391,229.828649
3378.421511,1998.556043,-10510.924376,0.000000
3378.421838,-814.226536,-8882.471304,919.314598
3378.422166,-1184.329507,-7402.059420,-612.876398
3378.422494,-666.185348,-9770.718434,-1991.848295
3378.422821,148.041188,-11177.109724,-995.924147
3378.423149,1776.494261,-9622.677246,-842.705048
3378.423477,2368.659014,-11029.068536,612.876398
3378.423806,1776.494261,-11325.150913,612.876398
3378.424134,1406.391290,-11177.109724,229.828649
3378.424462,0.000000,-10807.006753,-766.095498
3378.424789,-370.102971,-9104.533087,0.000000
3378.425117,1406.391290,-6661.853478,-1225.752797
3378.425445,1036.288319,-6587.832884,0.000000
3378.425773,-370.102971,-10658.965565,2451.505594
3378.426100,0.000000,-8956.491898,2145.067394
3378.426428,1998.556043,-8808.450710,0.000000
3378.426756,1184.329507,-8882.471304,612.876398
3378.427083,962.267725,-11473.192101,-536.266849
3378.427411,444.123565,-11547.212695,-612.876398
3378.427739,148.041188,-9992.780217,-1072.533697
3378.428066,-444.123565,-9548.656652,-1532.190996
3378.428394,-518.144159,-11029.068536,-1149.143247
3378.428722,-1110.308913,-11029.068536,229.828649
3378.429050,-1110.308913,-9474.636058,229.828649
3378.429377,-888.247130,-9622.677246,153.219100
3378.429705,-1480.411884,-9548.656652,-306.438199
3378.430033,-1036.288319,-9474.636058,76.609550
3378.430360,-1110.308913,-8290.306550,-459.657299
3378.430688,-1554.432478,-8068.244768,-229.828649
3378.431016,0.000000,-8438.347739,-459.657299
3378.431344,2220.617826,-9770.718434,-306.438199
3378.431671,370.102971,-11251.130318,919.314598
3378.431999,444.123565,-9252.574275,383.047749
3378.432327,666.185348,-10288.862594,-1685.410096
3378.432654,-370.102971,-12435.459826,-1455.581446
3378.432982,-740.205942,-12361.439231,-612.876398
3378.433310,-444.123565,-8808.450710,-919.314598
3378.433638,0.000000,-7994.224174,306.438199
3378.433965,0.000000,-9474.636058,612.876398
3378.434293,0.000000,-9622.677246,1378.971896
3378.434621,-888.247130,-7772.162391,1225.752797
3378.434948,-1554.432478,-5773.606348,-459.657299
3378.435276,-1554.432478,-7105.977043,-1532.190996
3378.435604,-1036.288319,-9252.574275,-1378.971896
3378.435931,962.267725,-10140.821405,306.438199
3378.436259,2368.659014,-9030.512492,-306.438199
3378.436587,3256.906145,-12139.377449,-383.047749
3378.436915,2442.679609,-13027.624579,612.876398
3378.437242,1480.411884,-13101.645173,536.266849
3378.437570,370.102971,-11621.233289,-1532.190996
3378.437898,0.000000,-9400.615463,-2221.676944
3378.438225,370.102971,-8586.388927,-2834.553343
3378.438553,1258.350101,-8438.347739,153.219100
3378.438881,1258.350101,-9474.636058,3753.867940
3378.439209,1480.411884,-8734.430116,3140.991542
3378.439536,2590.720797,-8882.471304,-306.438199
3378.439864,1406.391290,-9400.615463,-2145.067394
3378.440192,222.061783,-10214.842000,-2298.286494
3378.440519,-1258.350101,-8808.450710,-306.438199
3378.440847,0.000000,-8956.491898,229.828649
3378.441175,888.247130,-9844.739029,-612.876398
3378.441502,1776.494261,-10584.944971,0.000000
3378.441830,1332.370696,-11325.150913,1838.629195
3378.442158,814.226536,-10955.047942,919.314598
3378.442486,2072.576638,-10140.821405,-766.095498
3378.442813,1332.370696,-9844.739029,-689.485948
3378.443141,888.247130,-8734.430116,306.438199
3378.443469,-592.164754,-4737.318029,1302.362347
3378.443796,-1406.391290,-6809.894666,919.314598
3378.444124,-1776.494261,-9326.594869,766.095498
3378.444452,74.020594,-10807.006753,229.828649
3378.444780,444.123565,-10362.883188,0.000000
3378.445107,444.123565,-9326.594869,-842.705048
3378.445435,1110.308913,-11103.089130,-689.485948
3378.445763,740.205942,-11843.295072,-1838.629195
3378.446090,-370.102971,-11917.315666,0.000000
3378.446418,-888.247130,-9104.533087,-612.876398
3378.446746,-1628.453072,-9918.759623,-995.924147
3378.447074,-2368.659014,-9104.533087,-536.266849
3378.447401,-1258.350101,-9104.533087,229.828649
3378.447729,-888.247130,-10066.800811,0.000000
3378.448057,-592.164754,-10214.842000,76.609550
3378.448384,74.020594,-9770.718434,-1762.019645
3378.448712,296.082377,-9844.739029,-2145.067394
3378.449040,0.000000,-9918.759623,0.000000
3378.449367,888.247130,-7920.203579,0.000000
3378.449695,666.185348,-8808.450710,1072.533697
3378.450023,222.061783,-9622.677246,0.000000
3378.450351,740.205942,-11399.171507,-459.657299
3378.450678,-592.164754,-11991.336260,-383.047749
3378.451006,0.000000,-11029.068536,-1532.190996
3378.451334,0.000000,-10732.986159,-2221.676944
3378.451661,0.000000,-9918.759623,-1838.629195
3378.451989,888.247130,-8586.388927,536.266849
3378.452317,962.267725,-7698.141797,1225.752797
3378.452645,518.144159,-8808.450710,2145.067394
3378.452972,74.020594,-7698.141797,1762.019645
3378.453300,0.000000,-7772.162391,919.314598
3378.453628,-1332.370696,-7698.141797,-383.047749
3378.453955,-592.164754,-7994.224174,-766.095498
3378.454283,814.226536,-9400.615463,-1915.238745
3378.454611,2886.803174,-11029.068536,-612.876398
3378.454938,2960.823768,-11177.109724,766.095498
3378.455266,1480.411884,-11547.212695,1455.581446
3378.455594,296.082377,-11695.253884,-306.438199
3378.455922,-370.102971,-10140.821405,-1915.238745
3378.456249,74.020594,-9918.759623,-1532.190996
3378.456577,74.020594,-8512.368333,-1072.533697
3378.456905,1036.288319,-9326.594869,1762.019645
3378.457232,1406.391290,-9252.574275,1455.581446
3378.457560,2812.782580,-8882.471304,153.219100
3378.457888,1036.288319,-10214.842000,459.657299
3378.458216,0.000000,-10288.862594,-612.876398
3378.458543,0.000000,-8734.430116,-2451.505594
3378.458871,0.000000,-9474.636058,-2911.162892
3378.459199,-666.185348,-12509.480420,-919.314598
3378.459526,0.000000,-11769.274478,459.657299
3378.459854,3182.885551,-10807.006753,0.000000
3378.460182,2442.679609,-11473.192101,-383.047749
3378.460509,740.205942,-11917.315666,842.705048
3378.460837,222.061783,-9252.574275,76.609550
3378.461165,0.000000,-7105.977043,459.657299
3378.461493,-370.102971,-4811.338623,-383.047749
3378.461820,-1184.329507,-7920.203579,76.609550
3378.462148,-2368.659014,-9992.780217,2681.334243
3378.462476,0.000000,-7105.977043,612.876398
3378.462803,2368.659014,-9474.636058,-2145.067394
3378.463131,740.205942,-12287.418637,-842.705048
3378.463459,814.226536,-13841.851115,1302.362347
3378.463787,518.144159,-9178.553681,-612.876398
3378.464114,666.185348,-8882.471304,-689.485948
3378.464442,-592.164754,-8660.409521,-459.657299
3378.464770,-1184.329507,-9400.615463,76.609550
3378.465097,-2368.659014,-9474.636058,2068.457845
3378.465425,0.000000,-9474.636058,612.876398
3378.465753,148.041188,-9918.759623,-995.924147
3378.466081,-222.061783,-9992.780217,-306.438199
3378.466408,-666.185348,-9622.677246,-612.876398
3378.466736,-444.123565,-8882.471304,-1378.971896
3378.467064,-666.185348,-8956.491898,-689.485948
3378.467391,1110.308913,-8512.368333,-1225.752797
3378.467719,1850.514855,-11251.130318,-229.828649
3378.468047,518.144159,-11251.130318,766.095498
3378.468374,592.164754,-10510.924376,919.314598
3378.468702,666.185348,-11177.109724,-2221.676944
3378.469030,74.020594,-12361.439231,-2911.162892
3378.469358,-370.102971,-11843.295072,-2298.286494
3378.469685,-666.185348,-9104.533087,-1149.143247
3378.470013,518.144159,-9548.656652,766.095498
3378.470341,2516.700203,-9474.636058,-383.047749
3378.470668,2368.659014,-9326.594869,306.438199
3378.470996,-148.041188,-8512.368333,2681.334243
3378.471324,-888.247130,-7402.059420,1455.581446
3378.471652,296.082377,-8660.409521,-2068.457845
3378.471979,-222.061783,-10436.903782,-1608.800546
3378.472307,148.041188,-10214.842000,-459.657299
3378.472635,666.185348,-8068.244768,0.000000
3378.472962,1480.411884,-9622.677246,153.219100
3378.473290,888.247130,-10436.903782,76.609550
3378.473618,-666.185348,-11843.295072,153.219100
3378.473945,-1480.411884,-10066.800811,-842.705048
3378.474273,-370.102971,-9326.594869,-2298.286494
3378.474601,1554.432478,-9992.780217,-2451.505594
3378.474929,2590.720797,-10362.883188,1149.143247
3378.475256,2072.576638,-10658.965565,3447.429741
3378.475584,1850.514855,-7698.141797,2987.772442
3378.475912,1924.535449,-7031.956449,-459.657299
3378.476239,666.185348,-8882.471304,-1991.848295
3378.476567,-1480.411884,-10732.986159,-536.266849
3378.476895,-296.082377,-8142.265362,-1455.581446
3378.477223,1406.391290,-8956.491898,-1915.238745
3378.477550,518.144159,-11769.274478,-1072.533697
3378.477878,444.123565,-13619.789333,536.266849
3378.478206,1110.308913,-11325.150913,383.047749
3378.478533,1110.308913,-10288.862594,76.609550
3378.478861,814.226536,-9252.574275,-1225.752797
3378.479189,-148.041188,-8882.471304,0.000000
3378.479517,-1480.411884,-6439.791695,1532.190996
3378.479844,-444.123565,-5847.626942,0.000000
3378.480172,-1776.494261,-9326.594869,-459.657299
3378.480500,-666.185348,-10807.006753,-306.438199
3378.480827,814.226536,-10955.047942,-919.314598
3378.481155,1554.432478,-11103.089130,-1225.752797
3378.481483,518.144159,-11769.274478,766.095498
3378.481810,1036.288319,-11325.150913,-2298.286494
3378.482138,74.020594,-10140.821405,-229.828649
3378.482466,-1036.288319,-8660.409521,0.000000
3378.482794,-814.226536,-6883.915261,-459.657299
3378.483121,-1332.370696,-8586.388927,229.828649
3378.483449,-370.102971,-10362.883188,1455.581446
3378.483777,518.144159,-10881.027347,995.924147
3378.484104,-666.185348,-9400.615463,1991.848295
3378.484432,-1480.411884,-7994.224174,76.609550
3378.484760,-1184.329507,-9030.512492,-2221.676944
3378.485088,0.000000,-11251.130318,-2298.286494
3378.485415,-740.205942,-8364.327145,-383.047749
3378.485743,1776.494261,-8438.347739,229.828649
3378.486071,2442.679609,-9992.780217,842.705048
3378.486398,2368.659014,-12213.398043,2221.676944
3378.486726,1776.494261,-12065.356855,1915.238745
3378.487054,0.000000,-9992.780217,-229.828649
3378.487381,-814.226536,-9548.656652,-1838.629195
3378.487709,-444.123565,-8734.430116,-2221.676944
3378.488037,-296.082377,-9844.739029,-383.047749
3378.488365,296.082377,-8586.388927,1838.629195
3378.488692,2368.659014,-9696.697840,1149.143247
3378.489020,1998.556043,-9474.636058,612.876398
3378.489348,1554.432478,-9548.656652,76.609550
3378.489675,-370.102971,-9622.677246,-229.828649
3378.490003,-1480.411884,-9400.615463,-229.828649
3378.490331,-592.164754,-8660.409521,-1149.143247
3378.490659,222.061783,-9178.553681,-1302.362347
3378.490986,1702.473667,-11251.130318,-1225.752797
3378.491314,1480.411884,-9992.780217,1532.190996
3378.491642,666.185348,-10288.862594,612.876398
3378.491969,-148.041188,-11695.253884,-1072.533697
3378.492297,-592.164754,-11251.130318,-3064.381992
3378.492625,-1776.494261,-9326.594869,-2528.115143
3378.492952,74.020594,-8290.306550,-1072.533697
3378.493280,888.247130,-9844.739029,2068.457845
3378.493608,2368.659014,-10436.903782,2681.334243
3378.493936,1036.288319,-8068.244768,1149.143247
3378.494263,666.185348,-7698.141797,-536.266849
3378.494591,222.061783,-9770.718434,-1225.752797
3378.494919,592.164754,-9474.636058,-2145.067394
3378.495246,-148.041188,-9400.615463,-766.095498
3378.495574,-888.247130,-8882.471304,-383.047749
3378.495902,-740.205942,-10288.862594,612.876398
3378.496230,1184.329507,-11991.336260,766.095498
3378.496557,1850.514855,-11399.171507,-229.828649
3378.496885,518.144159,-11769.274478,-383.047749
3378.497213,-296.082377,-9252.574275,-229.828649
3378.497540,222.061783,-5995.668130,-459.657299
3378.497868,888.247130,-4515.256246,-229.828649
3378.498196,-962.267725,-8290.306550,842.705048
3378.498524,-2146.597232,-10436.903782,2451.505594
3378.498851,444.123565,-9622.677246,0.000000
3378.499179,2072.576638,-10288.862594,-2374.896044
3378.499507,1406.391290,-12805.562797,-1685.410096
3378.499834,0.000000,-11991.336260,459.657299
3378.500162,0.000000,-9178.553681,0.000000
3378.500490,1110.308913,-9622.677246,-1685.410096
3378.500817,444.123565,-9770.718434,-1685.410096
3378.501145,-296.082377,-10288.862594,0.000000
3378.501473,-1480.411884,-8068.244768,1685.410096
3378.501801,-1184.329507,-7846.182985,995.924147
3378.502128,-814.226536,-9622.677246,-306.438199
3378.502456,-592.164754,-11029.068536,76.609550
3378.502784,-740.205942,-10881.027347,-1532.190996
3378.503111,370.102971,-8956.491898,-2528.115143
3378.503439,1406.391290,-9474.636058,-3064.381992
3378.503767,2368.659014,-10362.883188,-1378.971896
3378.504095,1776.494261,-11621.233289,1149.143247
3378.504422,518.144159,-9844.739029,2757.943793
3378.504750,1554.432478,-8808.450710,2068.457845
3378.505078,814.226536,-9992.780217,0.000000
3378.505405,296.082377,-12731.542202,-766.095498
3378.505733,-1332.370696,-8808.450710,-689.485948
3378.506061,-296.082377,-7031.956449,-1378.971896
3378.506388,444.123565,-9548.656652,-536.266849
3378.506716,1776.494261,-10658.965565,536.266849
3378.507044,518.144159,-8586.388927,1762.019645
3378.507372,-1184.329507,-7624.121203,1838.629195
3378.507699,-1850.514855,-7402.059420,383.047749
3378.508027,-1258.350101,-9474.636058,-2145.067394
3378.508355,-1776.494261,-11399.171507,-459.657299
3378.508682,-1480.411884,-8808.450710,-536.266849
3378.509010,1258.350101,-8956.491898,-1608.800546
3378.509338,1184.329507,-10066.800811,-842.705048
3378.509666,962.267725,-11917.315666,1149.143247
3378.509993,-740.205942,-11177.109724,995.924147
3378.510321,-1258.350101,-9326.594869,-1378.971896
3378.510649,-1184.329507,-9326.594869,-2451.505594
3378.510976,1184.329507,-10807.006753,-2604.724693
3378.511304,1332.370696,-10658.965565,1072.533697
3378.511632,518.144159,-9770.718434,2451.505594
3378.511960,3034.844362,-8956.491898,0.000000
3378.512287,2442.679609,-8586.388927,-1991.848295
3378.512615,1554.432478,-10214.842000,-1149.143247
3378.512943,222.061783,-9030.512492,0.000000
3378.513270,1036.288319,-7846.182985,383.047749
3378.513598,1480.411884,-8808.450710,-459.657299
3378.513926,1036.288319,-10881.027347,-306.438199
3378.514253,74.020594,-12583.501014,1072.533697
3378.514581,1036.288319,-10881.027347,-383.047749
3378.514909,1110.308913,-10807.006753,-1532.190996
3378.515237,1036.288319,-9770.718434,-1225.752797
3378.515564,592.164754,-9252.574275,766.095498
3378.515892,-296.082377,-4959.379811,1608.800546
3378.516220,-296.082377,-4811.338623,1915.238745
3378.516547,-1776.494261,-8364.327145,1838.629195
3378.516875,-296.082377,-10066.800811,536.266849
3378.517203,592.164754,-10288.862594,-995.924147
3378.517531,444.123565,-11399.171507,-2145.067394
3378.517858,666.185348,-11769.274478,-919.314598
3378.518186,1406.391290,-9844.739029,-1608.800546
3378.518514,1258.350101,-11029.068536,0.000000
3378.518841,-888.247130,-10066.800811,536.266849
3378.519169,-1628.453072,-7994.224174,-536.266849
3378.519497,-666.185348,-8068.244768,-842.705048
3378.519824,-444.123565,-10214.842000,-306.438199
3378.520152,-1184.329507,-10066.800811,1302.362347
3378.520480,-888.247130,-8660.409521,1378.971896
3378.520808,0.000000,-9474.636058,-842.705048
3378.521135,1036.288319,-11029.068536,-3447.429741
3378.521463,74.020594,-11325.150913,-2911.162892
3378.521791,-592.164754,-8586.388927,-842.705048
3378.522118,1628.453072,-9548.656652,153.219100
3378.522446,2220.617826,-11473.192101,459.657299
3378.522774,1184.329507,-12435.459826,1838.629195
3378.523102,740.205942,-9992.780217,459.657299
3378.523429,814.226536,-9696.697840,-536.266849
3378.523757,370.102971,-10436.903782,-2298.286494
3378.524085,148.041188,-9770.718434,-1838.629195
3378.524412,0.000000,-9622.677246,383.047749
3378.524740,148.041188,-8438.347739,1302.362347
3378.525068,1332.370696,-8142.265362,1302.362347
3378.525396,0.000000,-8660.409521,1072.533697
3378.525723,0.000000,-8808.450710,306.438199
3378.526051,-1184.329507,-8216.285956,-919.314598
3378.526379,-1110.308913,-9770.718434,-1608.800546
3378.526706,-222.061783,-9918.759623,-1915.238745
3378.527034,1554.432478,-10436.903782,-459.657299
3378.527362,2590.720797,-10214.842000,612.876398
3378.527689,1776.494261,-9178.553681,2757.943793
3378.528017,444.123565,-10066.800811,1685.410096
3378.528345,-1258.350101,-10214.842000,-766.095498
3378.528673,-2664.741391,-9770.718434,-1915.238745
3378.529000,-1406.391290,-8364.327145,-2528.115143
3378.529328,-518.144159,-8142.265362,-1302.362347
3378.529656,296.082377,-9992.780217,2068.457845
3378.529983,3701.029710,-11029.068536,2604.724693
3378.530311,3108.864956,-10066.800811,842.705048
3378.530639,1258.350101,-8660.409521,0.000000
3378.530967,888.247130,-9474.636058,-306.438199
3378.531294,740.205942,-8438.347739,-1149.143247
3378.531622,1776.494261,-9696.697840,-459.657299
3378.531950,0.000000,-10732.986159,153.219100
3378.532277,740.205942,-12213.398043,0.000000
3378.532605,1628.453072,-10881.027347,-1302.362347
3378.532933,2664.741391,-12435.459826,-766.095498
3378.533260,0.000000,-11103.089130,229.828649
3378.533588,0.000000,-8364.327145,306.438199
3378.533916,-444.123565,-6365.771101,612.876398
3378.534244,1036.288319,-5995.668130,919.314598
3378.534571,-888.247130,-8438.347739,1532.190996
3378.534899,-2886.803174,-9548.656652,2681.334243
3378.535227,0.000000,-10066.800811,-995.924147
3378.535554,2590.720797,-11325.150913,-4060.306139
3378.535882,2220.617826,-13989.892304,-1762.019645
3378.536210,148.041188,-11843.295072,995.924147
3378.536538,740.205942,-9252.574275,1302.362347
3378.536865,148.041188,-8438.347739,-459.657299
3378.537193,-1406.391290,-9622.677246,-995.924147
3378.537521,-2146.597232,-8734.430116,-612.876398
3378.537848,-2590.720797,-7476.080014,229.828649
3378.538176,0.000000,-8586.388927,536.266849
3378.538504,1850.514855,-9992.780217,689.485948
3378.538832,1036.288319,-10955.047942,1608.800546
3378.539159,666.185348,-9918.759623,1149.143247
3378.539487,1110.308913,-7994.224174,-1149.143247
3378.539815,0.000000,-9178.553681,-1225.752797
3378.540142,0.000000,-9918.759623,-1532.190996
3378.540470,444.123565,-9104.533087,-689.485948
3378.540798,1258.350101,-9844.739029,995.924147
3378.541125,2072.576638,-10362.883188,1072.533697
3378.541453,2516.700203,-12953.603985,0.000000
3378.541781,666.185348,-11917.315666,-306.438199
3378.542109,-962.267725,-9030.512492,-842.705048
3378.542436,-1628.453072,-7772.162391,-1225.752797
3378.542764,-592.164754,-8438.347739,-766.095498
3378.543092,-1184.329507,-7846.182985,306.438199
3378.543419,-592.164754,-8734.430116,1532.190996
3378.543747,-518.144159,-8660.409521,2145.067394
3378.544075,1258.350101,-10066.800811,-383.047749
3378.544403,666.185348,-11917.315666,-3064.381992
3378.544730,-444.123565,-11843.295072,-2145.067394
3378.545058,-592.164754,-8882.471304,-1149.143247
3378.545386,296.082377,-8882.471304,-383.047749
3378.545713,2072.576638,-10732.986159,306.438199
3378.546041,2516.700203,-12213.398043,1608.800546
3378.546369,1332.370696,-11177.109724,1915.238745
3378.546697,444.123565,-8438.347739,306.438199
3378.547024,0.000000,-9992.780217,-1072.533697
3378.547352,74.020594,-9844.739029,-1915.238745
3378.547680,-1036.288319,-8068.244768,306.438199
3378.548007,-2442.679609,-5921.647536,2221.676944
3378.548335,-1110.308913,-7031.956449,1608.800546
3378.548663,0.000000,-9844.739029,-1149.143247
3378.548990,1184.329507,-11917.315666,-842.705048
3378.549318,1406.391290,-10214.842000,-919.314598
3378.549646,2368.659014,-9474.636058,-995.924147
3378.549974,2368.659014,-11769.274478,0.000000
3378.550301,1702.473667,-12361.439231,0.000000
3378.550629,370.102971,-10658.965565,842.705048
3378.550957,-962.267725,-8660.409521,-229.828649
3378.551284,-888.247130,-8438.347739,-766.095498
3378.551612,-1258.350101,-8808.450710,-1225.752797
3378.551940,-1036.288319,-8586.388927,0.000000
3378.552268,-1702.473667,-7179.997637,1072.533697
3378.552595,814.226536,-8068.244768,995.924147
3378.552923,2368.659014,-9400.615463,0.000000
3378.553251,2368.659014,-11843.295072,153.219100
3378.553578,888.247130,-10436.903782,995.924147
3378.553906,1332.370696,-9178.553681,0.000000
3378.554234,1110.308913,-8808.450710,-459.657299
3378.554561,1258.350101,-9252.574275,-1149.143247
3378.554889,-2146.597232,-10955.047942,1225.752797
3378.555217,-3701.029710,-10658.965565,1838.629195
3378.555545,-962.267725,-10732.986159,-2757.943793
3378.555872,1258.350101,-11029.068536,-4290.134789
3378.556200,740.205942,-12139.377449,-1532.190996
3378.556528,-666.185348,-10214.842000,2298.286494
3378.556855,0.000000,-7105.977043,2068.457845
3378.557183,740.205942,-7105.977043,-229.828649
3378.557511,148.041188,-8956.491898,-612.876398
3378.557839,-1998.556043,-7994.224174,842.705048
3378.558166,-1036.288319,-7698.141797,229.828649
3378.558494,888.247130,-9992.780217,-995.924147
3378.558822,1776.494261,-11991.336260,-1838.629195
3378.559149,1480.411884,-13175.665768,0.000000
3378.559477,1406.391290,-11177.109724,459.657299
3378.559805,1480.411884,-9770.718434,153.219100
3378.560133,740.205942,-11029.068536,-766.095498
3378.560460,-444.123565,-9622.677246,0.000000
3378.560788,-666.185348,-7920.203579,995.924147
3378.561116,-592.164754,-7772.162391,1455.581446
3378.561443,-370.102971,-9104.533087,1149.143247
3378.561771,-370.102971,-9474.636058,-229.828649
3378.562099,-666.185348,-9178.553681,-459.657299
3378.562426,-444.123565,-9400.615463,-1762.019645
3378.562754,-814.226536,-9400.615463,-1072.533697
3378.563082,740.205942,-9178.553681,-995.924147
3378.563410,1998.556043,-10658.965565,383.047749
3378.563737,1702.473667,-10732.986159,1302.362347
3378.564065,2368.659014,-10658.965565,842.705048
3378.564393,1776.494261,-10807.006753,383.047749
3378.564720,962.267725,-11621.233289,-1302.362347
3378.565048,592.164754,-10955.047942,-919.314598
3378.565376,-740.205942,-8586.388927,-306.438199
3378.565704,-148.041188,-8734.430116,536.266849
3378.566031,74.020594,-7476.080014,153.219100
3378.566359,-222.061783,-9104.533087,1225.752797
3378.566687,-2072.576638,-9548.656652,229.828649
3378.567014,0.000000,-11473.192101,-1991.848295
3378.567342,1332.370696,-10288.862594,-4136.915689
3378.567670,2886.803174,-11029.068536,-2604.724693
3378.567998,2072.576638,-12435.459826,612.876398
3378.568325,1628.453072,-11695.253884,2145.067394
3378.568653,962.267725,-9696.697840,1378.971896
3378.568981,1406.391290,-8216.285956,-1072.533697
3378.569308,-1258.350101,-8808.450710,-229.828649
3378.569636,-2812.782580,-8142.265362,766.095498
3378.569964,-1628.453072,-6883.915261,-459.657299
3378.570291,-296.082377,-7624.121203,-1378.971896
3378.570619,740.205942,-11029.068536,0.000000
3378.570947,1258.350101,-10584.944971,1685.410096
3378.571275,1998.556043,-8956.491898,1762.019645
3378.571602,1480.411884,-10140.821405,1149.143247
3378.571930,2220.617826,-9474.636058,-459.657299
3378.572258,1406.391290,-9030.512492,0.000000
3378.572585,-740.205942,-7254.018232,995.924147
3378.572913,-1258.350101,-9992.780217,689.485948
3378.573241,-1258.350101,-11103.089130,-842.705048
3378.573569,74.020594,-12657.521608,-1685.410096
3378.573896,-148.041188,-11843.295072,-995.924147
3378.574224,-592.164754,-9696.697840,-1378.971896
3378.574552,-444.123565,-8660.409521,-536.266849
3378.574879,518.144159,-9030.512492,-612.876398
3378.575207,0.000000,-10584.944971,1149.143247
3378.575535,-592.164754,-7328.038826,1455.581446
3378.575862,-592.164754,-6513.812290,153.219100
3378.576190,-518.144159,-9844.739029,-153.219100
3378.576518,74.020594,-12065.356855,-1225.752797
3378.576846,-444.123565,-10658.965565,-229.828649
3378.577173,222.061783,-11103.089130,229.828649
3378.577501,962.267725,-10807.006753,-1532.190996
3378.577829,1036.288319,-10881.027347,-2451.505594
3378.578156,-296.082377,-11547.212695,0.000000
3378.578484,-592.164754,-8882.471304,1608.800546
3378.578812,1110.308913,-8142.265362,153.219100
3378.579140,518.144159,-9474.636058,0.000000
3378.579467,-518.144159,-10140.821405,1302.362347
3378.579795,-888.247130,-8290.306550,1072.533697
3378.580123,-296.082377,-8142.265362,-153.219100
3378.580450,-592.164754,-8808.450710,-995.924147
3378.580778,444.123565,-10658.965565,-2374.896044
3378.581106,-518.144159,-8808.450710,0.000000
3378.581434,1480.411884,-9178.553681,842.705048
3378.581761,3627.009116,-10288.862594,0.000000
3378.582089,3108.864956,-11473.192101,229.828649
3378.582417,1406.391290,-11769.274478,1378.971896
3378.582744,1036.288319,-9770.718434,383.047749
3378.583072,740.205942,-8956.491898,0.000000
3378.583400,962.267725,-7624.121203,-689.485948
3378.583727,370.102971,-8956.491898,229.828649
3378.584055,-1258.350101,-8438.347739,2451.505594
3378.584383,-666.185348,-7254.018232,1838.629195
3378.584711,666.185348,-9178.553681,-1685.410096
3378.585038,296.082377,-11843.295072,-3217.601092
3378.585366,1628.453072,-11843.295072,-2604.724693
3378.585694,1480.411884,-9474.636058,-3064.381992
3378.586021,1036.288319,-11399.171507,0.000000
3378.586349,1998.556043,-11695.253884,383.047749
3378.586677,1628.453072,-11399.171507,766.095498
3378.587005,-666.185348,-9844.739029,1685.410096
3378.587332,-222.061783,-8808.450710,0.000000
3378.587660,-740.205942,-7772.162391,-306.438199
3378.587988,0.000000,-8734.430116,-1838.629195
3378.588315,-1702.473667,-8290.306550,-459.657299
3378.588643,-2146.597232,-8142.265362,842.705048
3378.588971,0.000000,-9104.533087,766.095498
3378.589299,2368.659014,-10955.047942,-1225.752797
3378.589626,1184.329507,-12805.562797,0.000000
3378.589954,888.247130,-9030.512492,536.266849
3378.590282,2294.638420,-7402.059420,0.000000
3378.590609,1258.350101,-10066.800811,-689.485948
3378.590937,-148.041188,-11399.171507,229.828649
3378.591265,-1036.288319,-9770.718434,229.828649
3378.591592,-518.144159,-9104.533087,153.219100
3378.591920,0.000000,-9474.636058,-1455.581446
3378.592248,-370.102971,-11029.068536,-919.314598
3378.592576,-1258.350101,-9918.759623,1378.971896
3378.592903,-592.164754,-7550.100608,842.705048
3378.593231,148.041188,-8438.347739,-383.047749
3378.593559,-148.041188,-8364.327145,-919.314598
3378.593886,-444.123565,-8586.388927,-612.876398
3378.594214,0.000000,-8956.491898,0.000000
3378.594542,962.267725,-10881.027347,0.000000
3378.594870,1628.453072,-11769.274478,-536.266849
3378.595197,1332.370696,-11029.068536,-536.266849
3378.595525,74.020594,-11029.068536,-536.266849
3378.595853,-222.061783,-9844.739029,-1149.143247
3378.596180,222.061783,-9770.718434,-1838.629195
3378.596508,-370.102971,-10140.821405,-459.657299
3378.596836,296.082377,-9992.780217,-459.657299
3378.597164,222.061783,-9178.553681,919.314598
3378.597491,148.041188,-9474.636058,1532.190996
3378.597819,370.102971,-9622.677246,459.657299
3378.598147,666.185348,-9474.636058,-1532.190996
3378.598474,-1110.308913,-8734.430116,-1149.143247
3378.598802,0.000000,-8438.347739,-1149.143247
3378.599130,888.247130,-8882.471304,153.219100
3378.599457,2220.617826,-10510.924376,-536.266849
3378.599785,2368.659014,-10214.842000,76.609550
3378.600113,1776.494261,-11547.212695,766.095498
3378.600441,1036.288319,-10510.924376,0.000000
3378.600768,1998.556043,-10510.924376,-1225.752797
3378.601096,370.102971,-10214.842000,-229.828649
3378.601424,666.185348,-9696.697840,-612.876398
3378.601751,0.000000,-6587.832884,459.657299
3378.602079,0.000000,-7328.038826,1685.410096
3378.602407,-1480.411884,-8586.388927,536.266849
3378.602735,-740.205942,-10732.986159,-995.924147
3378.603062,-962.267725,-9844.739029,-1378.971896
3378.603390,1110.308913,-9178.553681,-3140.991542
3378.603718,1776.494261,-9400.615463,-2911.162892
3378.604045,1850.514855,-14137.933492,612.876398
3378.604373,1998.556043,-12583.501014,995.924147
3378.604701,2220.617826,-10436.903782,-306.438199
3378.605028,888.247130,-9474.636058,-383.047749
3378.605356,74.020594,-8512.368333,-689.485948
3378.605684,-1184.329507,-8068.244768,1072.533697
3378.606012,-1998.556043,-7254.018232,1608.800546
3378.606339,-1110.308913,-7772.162391,995.924147
3378.606667,0.000000,-9252.574275,689.485948
3378.606995,666.185348,-10955.047942,-536.266849
3378.607322,0.000000,-10658.965565,-919.314598
3378.607650,222.061783,-9548.656652,-766.095498
3378.607978,1480.411884,-8512.368333,-1608.800546
3378.608306,1628.453072,-9548.656652,-536.266849
3378.608633,0.000000,-10881.027347,1225.752797
3378.608961,-666.185348,-9474.636058,1991.848295
3378.609289,740.205942,-10140.821405,459.657299
3378.609616,1998.556043,-11695.253884,-1455.581446
3378.609944,148.041188,-12583.501014,-766.095498
3378.610272,-1850.514855,-9104.533087,536.266849
3378.610600,-1184.329507,-7031.956449,-459.657299
3378.610927,-148.041188,-8142.265362,-842.705048
3378.611255,0.000000,-9622.677246,-383.047749
3378.611583,-1776.494261,-9104.533087,1302.362347
3378.611910,-1036.288319,-7550.100608,1149.143247
3378.612238,1480.411884,-8142.265362,-1149.143247
3378.612566,1924.535449,-11325.150913,-1378.971896
3378.612893,-148.041188,-12805.562797,1225.752797
3378.613221,962.267725,-8734.430116,-383.047749
3378.613549,1850.514855,-9252.574275,-1991.848295
3378.613877,1924.535449,-11251.130318,-2298.286494
3378.614204,888.247130,-11251.130318,-229.828649
3378.614532,-666.185348,-9474.636058,1455.581446
3378.614860,-296.082377,-8586.388927,1149.143247
3378.615187,814.226536,-9178.553681,-383.047749
3378.615515,74.020594,-11029.068536,-612.876398
3378.615843,-888.247130,-10066.800811,766.095498
3378.616171,-962.267725,-7846.182985,0.000000
3378.616498,888.247130,-8808.450710,-1608.800546
3378.616826,1110.308913,-9844.739029,-1762.019645
3378.617154,1406.391290,-10140.821405,153.219100
3378.617481,370.102971,-7920.203579,995.924147
3378.617809,814.226536,-9622.677246,842.705048
3378.618137,2146.597232,-10658.965565,-1302.362347
3378.618465,1628.453072,-12583.501014,-1225.752797
3378.618792,-296.082377,-11029.068536,306.438199
3378.619120,518.144159,-9770.718434,0.000000
3378.619448,814.226536,-10807.006753,-1072.533697
3378.619775,1924.535449,-10288.862594,-766.095498
3378.620103,814.226536,-8808.450710,689.485948
3378.620431,-1480.411884,-7179.997637,2298.286494
3378.620758,-2368.659014,-7624.121203,2528.115143
3378.621086,-740.205942,-9104.533087,-612.876398
3378.621414,222.061783,-11251.130318,-2298.286494
3378.621742,370.102971,-9474.636058,-2221.676944
3378.622069,1480.411884,-9252.574275,-1149.143247
3378.622397,1628.453072,-11103.089130,76.609550
3378.622725,2442.679609,-11843.295072,-459.657299
3378.623052,1110.308913,-11177.109724,229.828649
3378.623380,0.000000,-9178.553681,995.924147
3378.623708,-666.185348,-8438.347739,766.095498
3378.624035,-222.061783,-8068.244768,536.266849
3378.624363,0.000000,-9178.553681,612.876398
3378.624691,-2442.679609,-7254.018232,1608.800546
3378.625018,-1036.288319,-8068.244768,689.485948
3378.625346,1110.308913,-10140.821405,-2221.676944
3378.625674,1850.514855,-11917.315666,-2374.896044
3378.626001,888.247130,-11325.150913,-1149.143247
3378.626329,666.185348,-8586.388927,766.095498
3378.626657,1924.535449,-7402.059420,536.266849
3378.626985,962.267725,-8290.306550,1302.362347
3378.627312,-888.247130,-11473.192101,2221.676944
3378.627640,-148.041188,-10066.800811,459.657299
3378.627968,1480.411884,-10584.944971,-2987.772442
3378.628295,518.144159,-10955.047942,-3447.429741
3378.628623,0.000000,-11621.233289,-1225.752797
3378.628951,-666.185348,-9400.615463,689.485948
3378.629278,-296.082377,-8586.388927,2221.676944
3378.629606,-148.041188,-7846.182985,153.219100
3378.629934,-444.123565,-9918.759623,-689.485948
3378.630261,-1850.514855,-10214.842000,383.047749
3378.630589,-222.061783,-8142.265362,-1225.752797
3378.630917,518.144159,-10066.800811,-1991.848295
3378.631244,814.226536,-11695.253884,-1532.190996
3378.631572,1924.535449,-11843.295072,-459.657299
3378.631900,1480.411884,-10807.006753,919.314598
3378.632227,1184.329507,-10066.800811,1685.410096
3378.632555,444.123565,-9178.553681,536.266849
3378.632883,814.226536,-9918.759623,0.000000
3378.633210,-592.164754,-9178.553681,612.876398
3378.633538,-592.164754,-7994.224174,-383.047749
3378.633866,-370.102971,-7698.141797,-842.705048
3378.634193,0.000000,-8438.347739,-1225.752797
3378.634521,1036.288319,-10066.800811,-995.924147
3378.634849,0.000000,-9770.718434,766.095498
3378.635176,-296.082377,-9178.553681,1608.800546
3378.635504,1850.514855,-8142.265362,612.876398
3378.635832,1480.411884,-9030.512492,459.657299
3378.636159,-296.082377,-9030.512492,1149.143247
3378.636487,888.247130,-9770.718434,0.000000
3378.636815,814.226536,-10658.965565,-2068.457845
3378.637142,1036.288319,-11473.192101,-2681.334243
3378.637470,370.102971,-12657.521608,-842.705048
3378.637798,740.205942,-11695.253884,76.609550
3378.638125,370.102971,-6883.915261,1685.410096
3378.638453,-962.267725,-8290.306550,2145.067394
3378.638781,-1850.514855,-9992.780217,995.924147
3378.639108,-1554.432478,-8364.327145,-1532.190996
3378.639436,-1332.370696,-8586.388927,-2221.676944
3378.639764,1406.391290,-10584.944971,-3064.381992
3378.640091,2960.823768,-11695.253884,-2604.724693
3378.640419,1702.473667,-13101.645173,1378.971896
3378.640747,740.205942,-10732.986159,1378.971896
3378.641074,1184.329507,-9696.697840,0.000000
3378.641402,222.061783,-11399.171507,-306.438199
3378.641730,-592.164754,-10140.821405,-306.438199
3378.642057,-888.247130,-7105.977043,306.438199
3378.642385,-1110.308913,-6883.915261,383.047749
3378.642713,-592.164754,-8068.244768,-459.657299
3378.643040,814.226536,-9178.553681,0.000000
3378.643368,1110.308913,-10066.800811,-612.876398
3378.643696,-370.102971,-10807.006753,76.609550
3378.644023,0.000000,-8142.265362,-229.828649
3378.644351,1554.432478,-7179.997637,-536.266849
3378.644679,1184.329507,-8882.471304,689.485948
3378.645006,0.000000,-10732.986159,2298.286494
3378.645334,-740.205942,-10214.842000,1455.581446
3378.645662,222.061783,-8882.471304,-1608.800546
3378.645989,2516.700203,-11917.315666,-3677.258390
3378.646317,962.267725,-13027.624579,-995.924147
3378.646645,-1184.329507,-10288.862594,2145.067394
3378.646972,444.123565,-7550.100608,1378.971896
3378.647300,814.226536,-8808.450710,-76.609550
3378.647628,-1406.391290,-9474.636058,689.485948
3378.647955,-3108.864956,-6883.915261,1455.581446
3378.648283,-1628.453072,-5921.647536,-995.924147
3378.648611,1702.473667,-8438.347739,-3600.648841
3378.648938,2294.638420,-13101.645173,-2911.162892
3378.649266,444.123565,-12805.562797,1608.800546
3378.649594,814.226536,-9474.636058,766.095498
3378.649921,2368.659014,-10140.821405,-536.266849
3378.650249,1480.411884,-12065.356855,-842.705048
3378.650577,-222.061783,-10732.986159,306.438199
3378.650904,-1406.391290,-8660.409521,995.924147
3378.651232,370.102971,-7550.100608,-995.924147
3378.651560,1628.453072,-9770.718434,-1532.190996
3378.651887,370.102971,-11621.233289,0.000000
3378.652215,-1184.329507,-10214.842000,1378.971896
3378.652543,0.000000,-7402.059420,-459.657299
3378.652870,740.205942,-7254.018232,-1608.800546
3378.653198,592.164754,-10807.006753,0.000000
3378.653526,814.226536,-11325.150913,2528.115143
3378.653853,370.102971,-8882.471304,2681.334243
3378.654181,1554.432478,-7550.100608,-229.828649
3378.654509,2146.597232,-9992.780217,-2757.943793
3378.654837,-296.082377,-11621.233289,-1225.752797
3378.655164,-2220.617826,-9104.533087,1225.752797
3378.655492,0.000000,-7698.141797,76.609550
3378.655820,1554.432478,-10140.821405,-383.047749
3378.656147,-296.082377,-10955.047942,1685.410096
3378.656475,-2590.720797,-9474.636058,3140.991542
3378.656803,-1850.514855,-8068.244768,-459.657299
3378.657130,-518.144159,-7846.182985,-4519.963438
3378.657458,1628.453072,-9474.636058,-4596.572988
3378.657786,1110.308913,-11251.130318,-459.657299
3378.658113,1406.391290,-10066.800811,3600.648841
3378.658441,3997.112087,-9474.636058,2298.286494
3378.658769,3701.029710,-12435.459826,-612.876398
3378.659096,444.123565,-12361.439231,-689.485948
3378.659424,-962.267725,-10066.800811,-1225.752797
3378.659752,-2368.659014,-6957.935855,-2145.067394
3378.660079,-1110.308913,-8216.285956,-2604.724693
3378.660407,-222.061783,-10807.006753,-919.314598
3378.660735,148.041188,-10732.986159,2528.115143
3378.661062,962.267725,-8956.491898,2681.334243
3378.661390,1702.473667,-9622.677246,153.219100
3378.661718,1332.370696,-10584.944971,-1532.190996
3378.662045,962.267725,-9030.512492,-995.924147
3378.662373,1184.329507,-6069.688724,76.609550
3378.662701,-148.041188,-7105.977043,1302.362347
3378.663028,-444.123565,-9622.677246,995.924147
3378.663356,888.247130,-11621.233289,-1378.971896
3378.663684,1036.288319,-13101.645173,-383.047749
3378.664011,1480.411884,-11695.253884,-1225.752797
3378.664339,1332.370696,-11103.089130,-766.095498
3378.664667,592.164754,-9622.677246,0.000000
3378.664994,-370.102971,-8068.244768,536.266849
3378.665322,-1924.535449,-8216.285956,2834.553343
3378.665650,-2146.597232,-7698.141797,1608.800546
3378.665977,-1184.329507,-7105.977043,-1302.362347
3378.666305,0.000000,-9474.636058,-2834.553343
3378.666633,222.061783,-12213.398043,-1149.143247
3378.666960,1332.370696,-11843.295072,153.219100
3378.667288,1850.514855,-10510.924376,536.266849
3378.667616,1998.556043,-10140.821405,-536.266849
3378.667943,444.123565,-11177.109724,-1455.581446
3378.668271,-370.102971,-10955.047942,0.000000
3378.668599,0.000000,-9178.553681,-306.438199
3378.668926,962.267725,-8882.471304,-459.657299
3378.669254,0.000000,-10066.800811,536.266849
3378.669582,-148.041188,-8512.368333,1072.533697
3378.669909,222.061783,-8660.409521,919.314598
3378.670237,222.061783,-8956.491898,-383.047749
3378.670565,0.000000,-9252.574275,-1455.581446
3378.670892,-814.226536,-8882.471304,-689.485948
3378.671220,370.102971,-9622.677246,-153.219100
3378.671548,444.123565,-9178.553681,536.266849
3378.671875,1258.350101,-9178.553681,689.485948
3378.672203,1258.350101,-11547.212695,0.000000
3378.672531,1110.308913,-10288.862594,-919.314598
3378.672858,592.164754,-9622.677246,-1225.752797
3378.673186,-1184.329507,-9104.533087,383.047749
3378.673514,1480.411884,-9696.697840,0.000000
3378.673841,444.123565,-9104.533087,1532.190996
3378.674169,-2220.617826,-9548.656652,2298.286494
3378.674497,-2590.720797,-9770.718434,0.000000
3378.674824,-1258.350101,-9622.677246,-4749.792088
3378.675152,888.247130,-9918.759623,-4979.620737
3378.675480,370.102971,-9474.636058,-1149.143247
3378.675807,0.000000,-9844.739029,2451.505594
3378.676135,3108.864956,-10510.924376,2374.896044
3378.676463,4663.297435,-10510.924376,0.000000
3378.676790,1406.391290,-11325.150913,689.485948
3378.677118,-592.164754,-9770.718434,-153.219100
3378.677446,-740.205942,-7624.121203,-2604.724693
3378.677773,-518.144159,-8438.347739,-2374.896044
3378.678101,-1850.514855,-10214.842000,-1685.410096
3378.678429,-2220.617826,-9548.656652,1608.800546
3378.678756,-370.102971,-10066.800811,2528.115143
3378.679084,2812.782580,-9030.512492,-612.876398
3378.679412,2664.741391,-11547.212695,-459.657299
3378.679739,814.226536,-9474.636058,689.485948
3378.680067,1776.494261,-5255.462188,306.438199
3378.680395,1406.391290,-5033.400406,-612.876398
3378.680722,-296.082377,-11251.130318,689.485948
3378.681050,-1702.473667,-13249.686362,1225.752797
3378.681378,444.123565,-10807.006753,0.000000
3378.681706,2146.597232,-11029.068536,-1455.581446
3378.682033,1702.473667,-12139.377449,-2145.067394
3378.682361,1184.329507,-11917.315666,0.000000
3378.682689,-370.102971,-8438.347739,1378.971896
3378.683016,148.041188,-7328.038826,229.828649
3378.683344,-666.185348,-7105.977043,-1149.143247
3378.683672,-2368.659014,-9474.636058,459.657299
3378.683999,-2072.576638,-9400.615463,689.485948
3378.684327,-370.102971,-7994.224174,0.000000
3378.684655,814.226536,-9992.780217,-612.876398
3378.684982,1998.556043,-11325.150913,0.000000
3378.685310,1924.535449,-10881.027347,-919.314598
3378.685638,888.247130,-10584.944971,-919.314598
3378.685965,1110.308913,-10807.006753,-1455.581446
3378.686293,666.185348,-8882.471304,-1685.410096
3378.686621,-370.102971,-10732.986159,-306.438199
3378.686948,-1406.391290,-10140.821405,1838.629195
3378.687276,-962.267725,-9474.636058,2451.505594
3378.687604,74.020594,-8734.430116,306.438199
3378.687931,1628.453072,-9252.574275,-2221.676944
3378.688259,-740.205942,-8882.471304,-919.314598
3378.688587,-1036.288319,-6883.915261,0.000000
3378.688914,148.041188,-7698.141797,-689.485948
3378.689242,2220.617826,-9696.697840,-383.047749
3378.689570,1998.556043,-10881.027347,76.609550
3378.689897,888.247130,-10881.027347,2068.457845
3378.690225,296.082377,-10807.006753,1608.800546
3378.690553,1480.411884,-10140.821405,-766.095498
3378.690880,296.082377,-10214.842000,-1455.581446
3378.691208,-296.082377,-9548.656652,0.000000
3378.691536,148.041188,-6809.894666,-995.924147
3378.691863,-1332.370696,-6661.853478,229.828649
3378.692191,-1554.432478,-10140.821405,-383.047749
3378.692519,-2368.659014,-13989.892304,-766.095498
3378.692846,-1480.411884,-10140.821405,-1072.533697
3378.693174,-666.185348,-8364.327145,-1915.238745
3378.693502,222.061783,-9474.636058,-1149.143247
3378.693829,2664.741391,-11991.336260,153.219100
3378.694157,3108.864956,-12139.377449,1302.362347
3378.694485,3330.926739,-9104.533087,536.266849
3378.694812,2590.720797,-8364.327145,-1225.752797
3378.695140,1258.350101,-10732.986159,-766.095498
3378.695468,-1036.288319,-11843.295072,1072.533697
3378.695795,-1850.514855,-9474.636058,1225.752797
3378.696123,-1702.473667,-7476.080014,153.219100
3378.696451,-1184.329507,-9178.553681,-612.876398
3378.696778,222.061783,-12139.377449,-1225.752797
3378.697106,-592.164754,-10066.800811,-383.047749
3378.697434,444.123565,-7254.018232,-229.828649
3378.697761,1406.391290,-6291.750507,-383.047749
3378.698089,2738.761985,-7328.038826,766.095498
3378.698417,1332.370696,-8808.450710,1991.848295
3378.698744,-1554.432478,-9252.574275,3983.696590
3378.699072,-222.061783,-10436.903782,1685.410096
3378.699400,2590.720797,-10881.027347,-2451.505594
3378.699727,2368.659014,-13767.830521,-2528.115143
3378.700055,148.041188,-11843.295072,-536.266849
3378.700383,592.164754,-7994.224174,0.000000
3378.700710,2368.659014,-9030.512492,-1302.362347
3378.701038,148.041188,-10881.027347,0.000000
3378.701366,-3923.091493,-8660.409521,1072.533697
3378.701693,-4515.256246,-5329.482782,919.314598
3378.702021,-2442.679609,-8882.471304,-1455.581446
3378.702349,444.123565,-12435.459826,-1991.848295
3378.702676,666.185348,-11177.109724,0.000000
3378.703004,2220.617826,-9030.512492,-229.828649
3378.703332,3552.988522,-9622.677246,-1225.752797
3378.703659,2886.803174,-13323.706956,-2221.676944
3378.703987,74.020594,-11917.315666,-306.438199
3378.704315,-1184.329507,-8216.285956,76.609550
3378.704642,0.000000,-8068.244768,-459.657299
3378.704970,74.020594,-10214.842000,-383.047749
3378.705298,-1258.350101,-11991.336260,2068.457845
3378.705625,-444.123565,-11103.089130,1455.581446
3378.705953,962.267725,-7920.203579,-1991.848295
3378.706281,222.061783,-8512.368333,-2757.943793
3378.706608,-222.061783,-8142.265362,-995.924147
3378.706936,0.000000,-8216.285956,383.047749
3378.707264,444.123565,-7698.141797,1455.581446
3378.707591,1406.391290,-10288.862594,536.266849
3378.707919,2072.576638,-11695.253884,1149.143247
3378.708247,3108.864956,-11695.253884,842.705048
3378.708575,2368.659014,-9548.656652,229.828649
3378.708902,518.144159,-9474.636058,306.438199
3378.709230,-888.247130,-8290.306550,-1225.752797
3378.709558,148.041188,-9770.718434,-1378.971896
3378.709885,148.041188,-7624.121203,76.609550
3378.710213,-1184.329507,-7772.162391,1838.629195
3378.710541,-4071.132681,-9178.553681,2681.334243
3378.710868,-2738.761985,-9400.615463,-689.485948
3378.711196,-518.144159,-9252.574275,-3600.648841
3378.711524,814.226536,-9104.533087,-3140.991542
3378.711851,740.205942,-9326.594869,-842.705048
3378.712179,3701.029710,-12435.459826,229.828649
3378.712507,5847.626942,-12065.356855,-383.047749
3378.712834,4441.235652,-11917.315666,0.000000
3378.713162,740.205942,-10066.800811,1455.581446
3378.713490,-148.041188,-8512.368333,1532.190996
3378.713817,-888.247130,-7550.100608,0.000000
3378.714145,74.020594,-8956.491898,-995.924147
3378.714473,-2220.617826,-10955.047942,0.000000
3378.714800,-962.267725,-11547.212695,0.000000
3378.715128,1258.350101,-9252.574275,-1378.971896
3378.715456,370.102971,-9326.594869,-2757.943793
3378.715783,-296.082377,-11547.212695,-1302.362347
3378.716111,-740.205942,-9548.656652,612.876398
3378.716439,666.185348,-6735.874072,1072.533697
3378.716766,1776.494261,-6143.709319,1225.752797
3378.717094,74.020594,-10066.800811,1608.800546
3378.717422,-1554.432478,-10881.027347,2374.896044
3378.717749,0.000000,-10732.986159,-689.485948
3378.718077,1850.514855,-10362.883188,-3140.991542
3378.718405,2442.679609,-11547.212695,-3217.601092
3378.718732,-592.164754,-11103.089130,536.266849
3378.719060,-2146.597232,-9918.759623,3217.601092
3378.719388,-1628.453072,-8142.265362,1685.410096
3378.719715,-1258.350101,-7476.080014,-383.047749
3378.720043,-3108.864956,-7105.977043,-229.828649
3378.720371,-2368.659014,-8734.430116,76.609550
3378.720698,814.226536,-8808.450710,-919.314598
3378.721026,2960.823768,-9474.636058,-1302.362347
3378.721354,2738.761985,-12139.377449,76.609550
3378.721681,1480.411884,-11843.295072,766.095498
3378.722009,74.020594,-10510.924376,383.047749
3378.722337,148.041188,-9400.615463,-612.876398
3378.722664,370.102971,-8216.285956,-1915.238745
3378.722992,444.123565,-11177.109724,-1455.581446
3378.723320,-222.061783,-9474.636058,612.876398
3378.723647,-296.082377,-8882.471304,1225.752797
3378.723975,444.123565,-9252.574275,0.000000
3378.724303,666.185348,-10584.944971,-1455.581446
3378.724630,-962.267725,-9992.780217,-689.485948
3378.724958,-666.185348,-8882.471304,0.000000
3378.725286,814.226536,-6883.915261,-995.924147
3378.725613,2886.803174,-8882.471304,-1302.362347
3378.725941,1628.453072,-13027.624579,1149.143247
3378.726268,1036.288319,-12361.439231,1378.971896
3378.726596,1702.473667,-9030.512492,-612.876398
3378.726923,1554.432478,-9030.512492,-1685.410096
3378.727251,740.205942,-11103.089130,-766.095498
3378.727579,-518.144159,-10436.903782,459.657299
3378.727906,-962.267725,-8660.409521,842.705048
3378.728234,148.041188,-7476.080014,0.000000
3378.728561,-148.041188,-9474.636058,0.000000
3378.728889,-2516.700203,-9844.739029,1302.362347
3378.729216,-1998.556043,-7994.224174,76.609550
3378.729544,0.000000,-8216.285956,-2298.286494
3378.729872,2442.679609,-9548.656652,-4060.306139
3378.730199,3330.926739,-13693.809927,-1149.143247
3378.730527,2368.659014,-12731.542202,3294.210641
3378.730854,3404.947333,-8660.409521,1455.581446
3378.731182,3256.906145,-8586.388927,-612.876398
3378.731509,1702.473667,-12065.356855,0.000000
3378.731837,-1110.308913,-9918.759623,612.876398
3378.732165,-666.185348,-5921.647536,1072.533697
3378.732492,370.102971,-6587.832884,0.000000
3378.732820,444.123565,-12361.439231,-153.219100
3378.733147,-444.123565,-11843.295072,459.657299
3378.733475,-1258.350101,-8660.409521,536.266849
3378.733802,-1850.514855,-8216.285956,-842.705048
3378.734130,148.041188,-9326.594869,-2681.334243
3378.734458,1184.329507,-9992.780217,-842.705048
3378.734785,1110.308913,-7105.977043,1991.848295
3378.735113,1036.288319,-7846.182985,1532.190996
3378.735440,444.123565,-11325.150913,0.000000
3378.735768,1554.432478,-13101.645173,-1225.752797
3378.736095,814.226536,-11399.171507,-1302.362347
3378.736423,1702.473667,-10066.800811,-995.924147
3378.736751,0.000000,-9992.780217,383.047749
3378.737078,-592.164754,-10807.006753,1455.581446
3378.737406,-814.226536,-10584.944971,766.095498
3378.737733,-1850.514855,-7476.080014,-229.828649
3378.738061,-2516.700203,-5033.400406,-153.219100
3378.738388,-2960.823768,-7254.018232,-995.924147
3378.738716,-518.144159,-11621.233289,-1455.581446
3378.739044,1036.288319,-11917.315666,-229.828649
3378.739371,814.226536,-10510.924376,995.924147
3378.739699,1776.494261,-8882.471304,536.266849
3378.740026,2294.638420,-11029.068536,-919.314598
3378.740354,370.102971,-12509.480420,76.609550
3378.740681,-1258.350101,-8734.430116,-536.266849
3378.741009,-1110.308913,-7550.100608,-1685.410096
3378.741337,74.020594,-8216.285956,-1915.238745
3378.741664,74.020594,-11251.130318,229.828649
3378.741992,-2146.597232,-10807.006753,3447.429741
3378.742319,-1480.411884,-9104.533087,1149.143247
3378.742647,-888.247130,-7994.224174,-2834.553343
3378.742974,518.144159,-9252.574275,-2911.162892
3378.743302,-148.041188,-9992.780217,-919.314598
3378.743630,370.102971,-7624.121203,1225.752797
3378.743957,2664.741391,-7994.224174,1762.019645
3378.744285,4441.235652,-11251.130318,842.705048
3378.744612,3108.864956,-12805.562797,-153.219100
3378.744940,296.082377,-10436.903782,1378.971896
3378.745267,-592.164754,-8438.347739,842.705048
3378.745595,0.000000,-9252.574275,-1149.143247
3378.745923,-444.123565,-10288.862594,-1915.238745
3378.746250,-814.226536,-9992.780217,-995.924147
3378.746578,-888.247130,-7994.224174,1302.362347
3378.746905,-1332.370696,-8290.306550,1762.019645
3378.747233,370.102971,-10436.903782,-536.266849
3378.747560,0.000000,-10732.986159,-2451.505594
3378.747888,-740.205942,-8364.327145,-1455.581446
3378.748216,888.247130,-8882.471304,-459.657299
3378.748543,2738.761985,-12213.398043,76.609550
3378.748871,4663.297435,-12213.398043,0.000000
3378.749198,2664.741391,-10436.903782,0.000000
3378.749526,1480.411884,-9918.759623,689.485948
3378.749854,1998.556043,-9844.739029,-459.657299
3378.750181,1480.411884,-8734.430116,-1149.143247
3378.750509,1036.288319,-8216.285956,229.828649
3378.750836,-1258.350101,-9474.636058,2298.286494
3378.751164,-1258.350101,-10214.842000,2374.896044
3378.751491,666.185348,-8586.388927,0.000000
3378.751819,666.185348,-9400.615463,-2374.896044
3378.752147,-518.144159,-9844.739029,-2145.067394
3378.752474,-592.164754,-9548.656652,0.000000
3378.752802,222.061783,-7328.038826,689.485948
3378.753129,1184.329507,-7476.080014,-919.314598
3378.753457,0.000000,-10214.842000,0.000000
3378.753784,-444.123565,-10955.047942,536.266849
3378.754112,-296.082377,-10732.986159,1225.752797
3378.754440,3034.844362,-10807.006753,0.000000
3378.754767,2886.803174,-12287.418637,-1455.581446
3378.755095,0.000000,-10214.842000,842.705048
3378.755422,-1184.329507,-7624.121203,1838.629195
3378.755750,-2146.597232,-7624.121203,1072.533697
3378.756077,-1850.514855,-7105.977043,-766.095498
3378.756405,-2368.659014,-9548.656652,-842.705048
3378.756733,-2738.761985,-10140.821405,-536.266849
3378.757060,-1036.288319,-7994.224174,-459.657299
3378.757388,2368.659014,-10510.924376,0.000000
3378.757715,2960.823768,-13175.665768,229.828649
3378.758043,1258.350101,-11177.109724,-383.047749
3378.758370,148.041188,-9844.739029,-612.876398
3378.758698,518.144159,-8586.388927,-1608.800546
3378.759026,1110.308913,-9918.759623,-1455.581446
3378.759353,0.000000,-11251.130318,689.485948
3378.759681,-1702.473667,-8808.450710,1685.410096
3378.760008,-1406.391290,-9104.533087,919.314598
3378.760336,740.205942,-9770.718434,-1302.362347
3378.760663,0.000000,-11473.192101,-1685.410096
3378.760991,-1628.453072,-8216.285956,-689.485948
3378.761319,-444.123565,-7994.224174,-842.705048
3378.761646,1184.329507,-8882.471304,-612.876398
3378.761974,2368.659014,-10436.903782,153.219100
3378.762301,1850.514855,-11177.109724,1762.019645
3378.762629,1406.391290,-9992.780217,1762.019645
3378.762956,814.226536,-7402.059420,153.219100
3378.763284,740.205942,-10584.944971,-1225.752797
3378.763612,-1924.535449,-11251.130318,-459.657299
3378.763939,-2294.638420,-9326.594869,153.219100
3378.764267,-1924.535449,-8142.265362,-689.485948
3378.764594,518.144159,-8808.450710,-2451.505594
3378.764922,222.061783,-9178.553681,-459.657299
3378.765249,-518.144159,-10510.924376,1838.629195
3378.765577,-2294.638420,-9400.615463,1762.019645
3378.765905,1036.288319,-8068.244768,-1378.971896
3378.766232,2812.782580,-10510.924376,-2757.943793
3378.766560,2368.659014,-11251.130318,229.828649
3378.766887,3256.906145,-10881.027347,2298.286494
3378.767215,3552.988522,-8660.409521,459.657299
3378.767542,3997.112087,-10807.006753,-1762.019645
3378.767870,1554.432478,-11843.295072,-1915.238745
3378.768198,-296.082377,-9474.636058,-153.219100
3378.768525,-592.164754,-6587.832884,766.095498
3378.768853,1036.288319,-9104.533087,536.266849
3378.769180,518.144159,-13397.727550,919.314598
3378.769508,-888.247130,-10510.924376,1378.971896
3378.769835,0.000000,-7698.141797,-383.047749
3378.770163,740.205942,-9104.533087,-2757.943793
3378.770491,1036.288319,-10362.883188,-2834.553343
3378.770818,-222.061783,-8586.388927,-383.047749
3378.771146,-370.102971,-7698.141797,1149.143247
3378.771473,0.000000,-8586.388927,153.219100
3378.771801,1036.288319,-10955.047942,1149.143247
3378.772128,666.185348,-12139.377449,1608.800546
3378.772456,2368.659014,-10584.944971,919.314598
3378.772784,2368.659014,-10807.006753,-766.095498
3378.773111,148.041188,-10732.986159,-1532.190996
3378.773439,0.000000,-9326.594869,-2298.286494
3378.773766,-444.123565,-8068.244768,0.000000
3378.774094,-2812.782580,-6291.750507,1225.752797
3378.774421,-3627.009116,-6883.915261,2221.676944
3378.774749,-2294.638420,-9178.553681,612.876398
3378.775077,-1332.370696,-10066.800811,-1149.143247
3378.775404,0.000000,-9548.656652,-612.876398
3378.775732,1480.411884,-10362.883188,-612.876398
3378.776059,2516.700203,-10214.842000,-1302.362347
3378.776387,2368.659014,-11399.171507,-1302.362347
3378.776714,1184.329507,-11251.130318,-842.705048
3378.777042,-740.205942,-9770.718434,536.266849
3378.777370,-592.164754,-8808.450710,919.314598
3378.777697,-814.226536,-8956.491898,842.705048
3378.778025,-814.226536,-10436.903782,1302.362347
3378.778352,-814.226536,-9400.615463,459.657299
3378.778680,-814.226536,-10288.862594,-766.095498
3378.779007,-1258.350101,-9030.512492,-2681.334243
3378.779335,-666.185348,-9400.615463,-3370.820191
3378.779663,-148.041188,-8216.285956,-1378.971896
3378.779990,518.144159,-9104.533087,689.485948
3378.780318,2368.659014,-11769.274478,1991.848295
3378.780645,3923.091493,-11769.274478,1838.629195
3378.780973,2368.659014,-9178.553681,1455.581446
3378.781300,814.226536,-8364.327145,1455.581446
3378.781628,-1776.494261,-8956.491898,229.828649
3378.781956,-3034.844362,-8808.450710,-1608.800546
3378.782283,-3478.967927,-8660.409521,-3524.039291
3378.782611,-2442.679609,-10066.800811,-3370.820191
3378.782938,-814.226536,-9548.656652,-1991.848295
3378.783266,1332.370696,-8734.430116,459.657299
3378.783593,888.247130,-11325.150913,4060.306139
3378.783921,296.082377,-10066.800811,3677.258390
3378.784249,666.185348,-8660.409521,153.219100
3378.784576,1776.494261,-8438.347739,-2757.943793
3378.784904,3478.967927,-7920.203579,-3064.381992
3378.785231,3404.947333,-10807.006753,0.000000
3378.785559,3256.906145,-11843.295072,2451.505594
3378.785886,1924.535449,-11029.068536,1455.581446
3378.786214,1258.350101,-9548.656652,-766.095498
3378.786542,1110.308913,-9696.697840,-1532.190996
3378.786869,592.164754,-11103.089130,229.828649
3378.787197,222.061783,-10881.027347,1149.143247
3378.787524,222.061783,-8586.388927,153.219100
3378.787852,518.144159,-7624.121203,-1608.800546
3378.788179,296.082377,-9918.759623,-2068.457845
3378.788507,148.041188,-11029.068536,-1762.019645
3378.788835,-888.247130,-9252.574275,383.047749
3378.789162,222.061783,-8660.409521,536.266849
3378.789490,666.185348,-10362.883188,-536.266849
3378.789817,74.020594,-9770.718434,919.314598
3378.790145,-370.102971,-9252.574275,1455.581446
3378.790472,888.247130,-8364.327145,842.705048
3378.790800,3108.864956,-9844.739029,-1072.533697
3378.791128,1184.329507,-12509.480420,-1378.971896
3378.791455,-962.267725,-9622.677246,0.000000
3378.791783,-1998.556043,-7698.141797,1149.143247
3378.792110,-962.267725,-7994.224174,383.047749
3378.792438,-1554.432478,-9104.533087,1225.752797
3378.792765,-1850.514855,-9696.697840,306.438199
3378.793093,-1332.370696,-8882.471304,76.609550
3378.793421,814.226536,-7698.141797,-1838.629195
3378.793748,1998.556043,-10658.965565,-2374.896044
3378.794076,1332.370696,-12731.542202,-1225.752797
3378.794403,-518.144159,-10066.800811,1072.533697
3378.794731,-740.205942,-9400.615463,459.657299
3378.795058,0.000000,-8882.471304,-995.924147
3378.795386,296.082377,-11547.212695,-919.314598
3378.795714,-444.123565,-9178.553681,1149.143247
3378.796041,-370.102971,-8808.450710,1838.629195
3378.796369,-592.164754,-8660.409521,1149.143247
3378.796696,888.247130,-9622.677246,-1915.238745
3378.797024,-1702.473667,-10510.924376,-2451.505594
3378.797351,-1776.494261,-9474.636058,-1685.410096
3378.797679,-148.041188,-8660.409521,-1608.800546
3378.798007,1850.514855,-10140.821405,-689.485948
3378.798334,2368.659014,-12139.377449,536.266849
3378.798662,1628.453072,-13249.686362,2451.505594
3378.798989,2368.659014,-9622.677246,1149.143247
3378.799317,2886.803174,-7698.141797,-612.876398
3378.799644,1776.494261,-9844.739029,-1532.190996
3378.799972,-962.267725,-10214.842000,-612.876398
3378.800300,-3478.967927,-9178.553681,383.047749
3378.800627,-2368.659014,-8660.409521,-766.095498
3378.800955,-814.226536,-9400.615463,-1608.800546
3378.801282,0.000000,-10510.924376,-766.095498
3378.801610,0.000000,-9696.697840,2145.067394
3378.801937,1184.329507,-8882.471304,1072.533697
3378.802265,4663.297435,-9770.718434,-383.047749
3378.802593,4071.132681,-11325.150913,-766.095498
3378.802920,1554.432478,-9918.759623,1149.143247
3378.803248,-592.164754,-7254.018232,2145.067394
3378.803575,2146.597232,-8586.388927,0.000000
3378.803903,2220.617826,-9992.780217,-766.095498
3378.804230,0.000000,-11029.068536,919.314598
3378.804558,-1406.391290,-10140.821405,1072.533697
3378.804886,592.164754,-9622.677246,-1455.581446
3378.805213,2368.659014,-11399.171507,-3064.381992
3378.805541,1184.329507,-10955.047942,-2451.505594
3378.805868,-1702.473667,-8808.450710,536.266849
3378.806196,-1036.288319,-7846.182985,689.485948
3378.806523,1184.329507,-9696.697840,-1991.848295
3378.806851,370.102971,-11473.192101,-842.705048
3378.807179,222.061783,-9400.615463,919.314598
3378.807506,814.226536,-8586.388927,842.705048
3378.807834,1702.473667,-7920.203579,-1302.362347
3378.808161,518.144159,-9844.739029,-1608.800546
3378.808489,-1776.494261,-12065.356855,-229.828649
3378.808816,-296.082377,-9918.759623,0.000000
3378.809144,0.000000,-9104.533087,-842.705048
3378.809472,0.000000,-11029.068536,383.047749
3378.809799,-518.144159,-11843.295072,1378.971896
3378.810127,148.041188,-8068.244768,1302.362347
3378.810454,-1184.329507,-5255.462188,1455.581446
3378.810782,-1998.556043,-7105.977043,76.609550
3378.811109,-1480.411884,-8882.471304,-536.266849
3378.811437,-740.205942,-9474.636058,-1378.971896
3378.811765,-592.164754,-9474.636058,-1685.410096
3378.812092,740.205942,-11621.233289,-766.095498
3378.812420,3182.885551,-12139.377449,-689.485948
3378.812747,4071.132681,-11917.315666,919.314598
3378.813075,2146.597232,-9918.759623,1838.629195
3378.813402,814.226536,-8882.471304,383.047749
3378.813730,-518.144159,-7402.059420,0.000000
3378.814058,-666.185348,-8438.347739,-919.314598
3378.814385,-888.247130,-8882.471304,0.000000
3378.814713,-814.226536,-9326.594869,1838.629195
3378.815040,370.102971,-10214.842000,1302.362347
3378.815368,444.123565,-10584.944971,-306.438199
3378.815695,370.102971,-9622.677246,-2757.943793
3378.816023,518.144159,-9178.553681,-2681.334243
3378.816351,444.123565,-10807.006753,-1685.410096
3378.816678,1850.514855,-11251.130318,-919.314598
3378.817006,2368.659014,-10658.965565,229.828649
3378.817333,1406.391290,-10732.986159,1455.581446
3378.817661,0.000000,-9696.697840,2068.457845
3378.817988,-962.267725,-9844.739029,842.705048
3378.818316,-2072.576638,-8734.430116,-1072.533697
3378.818644,-2442.679609,-8438.347739,-2604.724693
3378.818971,-3552.988522,-8216.285956,-1532.190996
3378.819299,-1924.535449,-7476.080014,-1378.971896
3378.819626,666.185348,-8512.368333,-842.705048
3378.819954,2146.597232,-11917.315666,1149.143247
3378.820281,2368.659014,-11917.315666,1762.019645
3378.820609,2294.638420,-10362.883188,995.924147
3378.820937,3108.864956,-9104.533087,-612.876398
3378.821264,2146.597232,-8290.306550,-306.438199
3378.821592,1036.288319,-10066.800811,1149.143247
3378.821919,888.247130,-7920.203579,1838.629195
3378.822247,888.247130,-7994.224174,229.828649
3378.822574,0.000000,-11029.068536,-229.828649
3378.822902,-888.247130,-13175.665768,-1225.752797
3378.823230,-222.061783,-12805.562797,-1302.362347
3378.823557,0.000000,-10584.944971,-1838.629195
3378.823885,-888.247130,-9474.636058,-1072.533697
3378.824212,-666.185348,-8882.471304,-689.485948
3378.824540,740.205942,-8956.491898,-1225.752797
3378.824867,370.102971,-9178.553681,229.828649
3378.825195,444.123565,-7994.224174,1072.533697
3378.825523,1036.288319,-9474.636058,612.876398
3378.825850,-518.144159,-9400.615463,0.000000
3378.826178,-1480.411884,-9030.512492,0.000000
3378.826505,-2368.659014,-10436.903782,459.657299
3378.826833,592.164754,-9844.739029,-536.266849
3378.827161,2294.638420,-9770.718434,-1762.019645
3378.827488,1036.288319,-10955.047942,0.000000
3378.827816,1184.329507,-10510.924376,1762.019645
3378.828143,1628.453072,-7031.956449,842.705048
3378.828471,0.000000,-6513.812290,383.047749
3378.828798,-2294.638420,-8882.471304,842.705048
3378.829126,-1702.473667,-9770.718434,612.876398
3378.829454,444.123565,-8882.471304,-536.266849
3378.829781,2812.782580,-8660.409521,-1072.533697
3378.830109,3182.885551,-11843.295072,-919.314598
3378.830436,2590.720797,-12361.439231,153.219100
3378.830764,1850.514855,-10066.800811,383.047749
3378.831092,1776.494261,-8438.347739,-1072.533697
3378.831419,518.144159,-10658.965565,-766.095498
3378.831747,-740.205942,-9918.759623,536.266849
3378.832074,-2368.659014,-9918.759623,2221.676944
3378.832402,-1480.411884,-9326.594869,1762.019645
3378.832729,1110.308913,-9696.697840,0.000000
3378.833057,0.000000,-9696.697840,-842.705048
3378.833385,-1036.288319,-9252.574275,-1378.971896
3378.833712,-962.267725,-8882.471304,-2987.772442
3378.834040,1480.411884,-8956.491898,-2757.943793
3378.834367,518.144159,-11843.295072,-612.876398
3378.834695,222.061783,-13175.665768,1072.533697
3378.835023,296.082377,-11473.192101,842.705048
3378.835350,962.267725,-9252.574275,766.095498
3378.835678,2442.679609,-10214.842000,-689.485948
3378.836005,0.000000,-10807.006753,76.609550
3378.836333,-2442.679609,-8142.265362,1072.533697
3378.836660,-1998.556043,-6143.709319,-995.924147
3378.836988,-1406.391290,-7402.059420,-1762.019645
3378.837316,-1776.494261,-9770.718434,-766.095498
3378.837643,-1850.514855,-10362.883188,1532.190996
3378.837971,-1628.453072,-9252.574275,1455.581446
3378.838298,1406.391290,-10140.821405,0.000000
3378.838626,4515.256246,-11695.253884,-995.924147
3378.838954,2664.741391,-10807.006753,-153.219100
3378.839281,1258.350101,-8364.327145,842.705048
3378.839609,1110.308913,-8216.285956,76.609550
3378.839936,2590.720797,-8586.388927,-766.095498
3378.840264,296.082377,-10066.800811,612.876398
3378.840591,-1776.494261,-11399.171507,2681.334243
3378.840919,-1628.453072,-10658.965565,919.314598
3378.841247,814.226536,-10807.006753,-2221.676944
3378.841574,2146.597232,-12435.459826,-2987.772442
3378.841902,222.061783,-10362.883188,-1762.019645
3378.842229,-1554.432478,-7994.224174,76.609550
3378.842557,-740.205942,-7254.018232,-1072.533697
3378.842885,1036.288319,-8956.491898,-2528.115143
3378.843212,814.226536,-11029.068536,-612.876398
3378.843540,-666.185348,-9400.615463,2298.286494
3378.843867,888.247130,-8734.430116,1762.019645
3378.844195,2590.720797,-9474.636058,0.000000
3378.844522,1998.556043,-11621.233289,-919.314598
3378.844850,1628.453072,-10584.944971,0.000000
3378.845178,1406.391290,-8734.430116,-306.438199
3378.845505,592.164754,-9474.636058,-306.438199
3378.845833,1924.535449,-10658.965565,-766.095498
3378.846160,666.185348,-9918.759623,-536.266849
3378.846488,-1554.432478,-7846.182985,1685.410096
3378.846816,-1776.494261,-8068.244768,1915.238745
3378.847143,222.061783,-9400.615463,1302.362347
3378.847471,1184.329507,-10288.862594,76.609550
3378.847798,296.082377,-9030.512492,0.000000
3378.848126,-296.082377,-9400.615463,-229.828649
3378.848453,1406.391290,-9844.739029,-1685.410096
3378.848781,3034.844362,-11177.109724,-1378.971896
3378.849109,148.041188,-11029.068536,0.000000
3378.849436,-2368.659014,-9326.594869,1838.629195
3378.849764,-1332.370696,-8290.306550,612.876398
3378.850091,74.020594,-9178.553681,76.609550
3378.850419,-370.102971,-11473.192101,995.924147
3378.850747,-814.226536,-9474.636058,1072.533697
3378.851074,-1850.514855,-7920.203579,153.219100
3378.851402,592.164754,-8364.327145,-2145.067394
3378.851729,1628.453072,-9770.718434,-2911.162892
3378.852057,-370.102971,-9326.594869,-842.705048
3378.852384,-2220.617826,-9252.574275,1608.800546
3378.852712,-814.226536,-11843.295072,689.485948
3378.853040,1628.453072,-11325.150913,-689.485948
3378.853367,2146.597232,-11917.315666,153.219100
3378.853695,370.102971,-9918.759623,995.924147
3378.854022,-888.247130,-9622.677246,0.000000
3378.854350,-1036.288319,-9400.615463,-2145.067394
3378.854678,-518.144159,-8734.430116,-4136.915689
3378.855005,-2960.823768,-7550.100608,-919.314598
3378.855333,-3330.926739,-8068.244768,995.924147
3378.855660,-1924.535449,-9844.739029,1455.581446
3378.855988,1628.453072,-11473.192101,919.314598
3378.856315,2812.782580,-10584.944971,0.000000
3378.856643,1036.288319,-10584.944971,-612.876398
3378.856971,-592.164754,-8290.306550,-919.314598
3378.857298,1184.329507,-8290.306550,-2757.943793
3378.857626,666.185348,-10362.883188,-2145.067394
3378.857953,1184.329507,-9622.677246,-229.828649
3378.858281,222.061783,-9178.553681,2145.067394
3378.858609,148.041188,-9252.574275,2911.162892
3378.858936,1554.432478,-12213.398043,2374.896044
3378.859264,592.164754,-12509.480420,0.000000
3378.859591,-1110.308913,-8142.265362,-1915.238745
3378.859919,-2442.679609,-7031.956449,-3217.601092
3378.860247,-1110.308913,-8512.368333,-2987.772442
3378.860574,370.102971,-9770.718434,-1915.238745
3378.860902,592.164754,-9474.636058,153.219100
3378.861229,-296.082377,-9252.574275,1302.362347
3378.861557,74.020594,-9178.553681,459.657299
3378.861884,2146.597232,-10584.944971,1455.581446
3378.862212,1702.473667,-9548.656652,459.657299
3378.862540,666.185348,-9696.697840,612.876398
3378.862867,1554.432478,-9400.615463,-229.828649
3378.863195,4145.153275,-10658.965565,-2145.067394
3378.863522,2960.823768,-11399.171507,-842.705048
3378.863850,1924.535449,-10288.862594,995.924147
3378.864178,-592.164754,-7772.162391,536.266849
3378.864505,-740.205942,-7476.080014,612.876398
3378.864833,592.164754,-10214.842000,383.047749
3378.865160,518.144159,-10140.821405,1072.533697
3378.865488,666.185348,-8660.409521,1532.190996
3378.865815,1998.556043,-8438.347739,383.047749
3378.866143,4145.153275,-10881.027347,-2604.724693
3378.866471,3478.967927,-12213.398043,-2221.676944
3378.866798,1554.432478,-9104.533087,0.000000
3378.867126,-222.061783,-7698.141797,306.438199
3378.867453,296.082377,-9622.677246,612.876398
3378.867781,962.267725,-12139.377449,1149.143247
3378.868109,-1184.329507,-9992.780217,2298.286494
3378.868436,-1184.329507,-8586.388927,612.876398
3378.868764,222.061783,-8956.491898,-1608.800546
3378.869091,0.000000,-10066.800811,-2604.724693
3378.869419,-666.185348,-9326.594869,-1302.362347
3378.869746,-1184.329507,-7698.141797,-229.828649
3378.870074,-888.247130,-7105.977043,-306.438199
3378.870402,0.000000,-10436.903782,842.705048
3378.870729,518.144159,-13397.727550,1455.581446
3378.871057,296.082377,-9918.759623,766.095498
3378.871384,148.041188,-9178.553681,383.047749
3378.871712,888.247130,-9992.780217,-1608.800546
3378.872040,0.000000,-11325.150913,-2145.067394
3378.872367,-1702.473667,-9696.697840,-1225.752797
3378.872695,-2738.761985,-7624.121203,-1532.190996
3378.873022,-2960.823768,-7846.182985,-1072.533697
3378.873350,-1258.350101,-9696.697840,153.219100
3378.873677,-1258.350101,-10584.944971,1225.752797
3378.874005,-1480.411884,-9178.553681,2911.162892
3378.874333,1628.453072,-9030.512492,689.485948
3378.874660,2590.720797,-10214.842000,-1608.800546
3378.874988,666.185348,-9696.697840,-1991.848295
3378.875315,-592.164754,-7772.162391,-1072.533697
3378.875643,-888.247130,-9770.718434,0.000000
3378.875971,518.144159,-9474.636058,0.000000
3378.876298,888.247130,-10436.903782,383.047749
3378.876626,-740.205942,-11769.274478,1762.019645
3378.876953,-444.123565,-13545.768739,2221.676944
3378.877281,1184.329507,-12509.480420,-1378.971896
3378.877608,1998.556043,-8512.368333,-3983.696590
3378.877936,-740.205942,-6661.853478,-3294.210641
3378.878264,-2368.659014,-8956.491898,0.000000
3378.878591,-3034.844362,-8068.244768,383.047749
3378.878919,-814.226536,-7698.141797,-766.095498
3378.879246,888.247130,-10510.924376,0.000000
3378.879574,1332.370696,-10658.965565,919.314598
3378.879902,592.164754,-8512.368333,1455.581446
3378.880229,2294.638420,-9474.636058,153.219100
3378.880557,3627.009116,-10510.924376,-1378.971896
3378.880884,2368.659014,-10214.842000,-766.095498
3378.881212,666.185348,-9992.780217,1149.143247
3378.881539,1480.411884,-8808.450710,612.876398
3378.881867,2516.700203,-9622.677246,1302.362347
3378.882195,222.061783,-11103.089130,1072.533697
3378.882522,-1628.453072,-9104.533087,459.657299
3378.882850,-1850.514855,-6809.894666,-459.657299
3378.883177,1554.432478,-9104.533087,-459.657299
3378.883505,2368.659014,-9844.739029,-1302.362347
3378.883833,2072.576638,-10732.986159,-459.657299
3378.884160,1110.308913,-9770.718434,0.000000
3378.884488,2294.638420,-8734.430116,-1149.143247
3378.884815,2368.659014,-10807.006753,383.047749
3378.885143,1110.308913,-10362.883188,1072.533697
3378.885470,0.000000,-9400.615463,1149.143247
3378.885798,148.041188,-9918.759623,612.876398
3378.886126,1406.391290,-11029.068536,-1608.800546
3378.886453,666.185348,-10436.903782,-612.876398
3378.886781,0.000000,-7994.224174,-306.438199
3378.887108,-1554.432478,-8290.306550,-536.266849
3378.887436,-814.226536,-10214.842000,-612.876398
3378.887764,592.164754,-10955.047942,-1378.971896
3378.888091,0.000000,-9918.759623,306.438199
3378.888419,0.000000,-8364.327145,1685.410096
3378.888746,888.247130,-10214.842000,1685.410096
3378.889074,1036.288319,-10436.903782,0.000000
3378.889402,1258.350101,-10436.903782,-1225.752797
3378.889729,814.226536,-9992.780217,-1378.971896
3378.890057,-222.061783,-9178.553681,-689.485948
3378.890384,-962.267725,-9400.615463,842.705048
3378.890712,-1776.494261,-9696.697840,1072.533697
3378.891039,-2664.741391,-10066.800811,1532.190996
3378.891367,-3034.844362,-9992.780217,-766.095498
3378.891695,-2294.638420,-8808.450710,-1991.848295
3378.892022,-1480.411884,-7624.121203,-2145.067394
3378.892350,-1036.288319,-8290.306550,-612.876398
3378.892677,-518.144159,-9104.533087,229.828649
3378.893005,296.082377,-9622.677246,-689.485948
3378.893333,592.164754,-8512.368333,-306.438199
3378.893660,1110.308913,-10140.821405,459.657299
3378.893988,592.164754,-9992.780217,306.438199
3378.894315,0.000000,-10881.027347,1378.971896
3378.894643,-444.123565,-11473.192101,-306.438199
3378.894970,0.000000,-9844.739029,-2145.067394
3378.895298,-444.123565,-9474.636058,-2298.286494
3378.895626,962.267725,-8734.430116,-689.485948
3378.895953,666.185348,-10288.862594,229.828649
3378.896281,-296.082377,-11473.192101,2145.067394
3378.896608,1406.391290,-10881.027347,383.047749
3378.896936,444.123565,-9474.636058,-1532.190996
3378.897264,-1184.329507,-9252.574275,-1378.971896
3378.897591,-1554.432478,-9104.533087,-2221.676944
3378.897919,444.123565,-9030.512492,-2757.943793
3378.898246,370.102971,-10658.965565,-1532.190996
3378.898574,148.041188,-10807.006753,306.438199
3378.898901,1184.329507,-9622.677246,766.095498
3378.899229,2812.782580,-8882.471304,919.314598
3378.899557,3552.988522,-11843.295072,919.314598
3378.899884,2368.659014,-9844.739029,383.047749
3378.900212,222.061783,-8586.388927,306.438199
3378.900539,-370.102971,-8808.450710,76.609550
3378.900867,1258.350101,-7846.182985,-1455.581446
3378.901195,1110.308913,-9030.512492,0.000000
3378.901522,1702.473667,-9474.636058,919.314598
3378.901850,592.164754,-9992.780217,536.266849
3378.902177,666.185348,-9622.677246,229.828649
3378.902505,2294.638420,-10066.800811,-1685.410096
3378.902832,1702.473667,-10066.800811,0.000000
3378.903160,740.205942,-9252.574275,0.000000
3378.903488,222.061783,-8438.347739,536.266849
3378.903815,1332.370696,-9992.780217,-383.047749
3378.904143,2220.617826,-11251.130318,-995.924147
3378.904470,1406.391290,-10214.842000,0.000000
3378.904798,-1258.350101,-7179.997637,995.924147
3378.905126,0.000000,-8882.471304,1072.533697
3378.905453,0.000000,-10288.862594,-459.657299
3378.905781,-888.247130,-9326.594869,-1302.362347
3378.906108,-1998.556043,-10288.862594,76.609550
3378.906436,1110.308913,-10288.862594,-1532.190996
3378.906763,2146.597232,-10658.965565,-1532.190996
3378.907091,1702.473667,-11547.212695,-919.314598
3378.907419,-370.102971,-9844.739029,0.000000
3378.907746,-962.267725,-8216.285956,459.657299
3378.908074,1332.370696,-9474.636058,76.609550
3378.908401,888.247130,-11325.150913,689.485948
3378.908729,-740.205942,-10732.986159,1532.190996
3378.909057,-1184.329507,-9178.553681,1762.019645
3378.909384,0.000000,-9252.574275,-1072.533697
3378.909712,-814.226536,-10732.986159,-1072.533697
3378.910039,-2146.597232,-8882.471304,153.219100
3378.910367,-3034.844362,-7105.977043,-612.876398
3378.910694,-1998.556043,-7846.182985,-995.924147
3378.911022,-592.164754,-9992.780217,306.438199
3378.911350,-296.082377,-9474.636058,1072.533697
3378.911677,0.000000,-8438.347739,919.314598
3378.912005,740.205942,-10066.800811,612.876398
3378.912332,370.102971,-11769.274478,-1072.533697
3378.912660,148.041188,-13101.645173,-1225.752797
3378.912988,518.144159,-9474.636058,-1915.238745
3378.913315,518.144159,-7698.141797,-1378.971896
3378.913643,444.123565,-8956.491898,995.924147
3378.913970,1110.308913,-11399.171507,3830.477490
3378.914298,-222.061783,-8808.450710,2298.286494
3378.914625,-1110.308913,-7254.018232,383.047749
3378.914953,148.041188,-10066.800811,-2221.676944
3378.915281,1998.556043,-11621.233289,-3600.648841
3378.915608,1406.391290,-11177.109724,-1608.800546
3378.915936,-592.164754,-8956.491898,0.000000
3378.916263,-1184.329507,-8438.347739,-919.314598
3378.916591,0.000000,-8290.306550,-383.047749
3378.916919,2294.638420,-10140.821405,0.000000
3378.917246,1406.391290,-11177.109724,1072.533697
3378.917574,666.185348,-10955.047942,2068.457845
3378.917901,2294.638420,-9252.574275,-612.876398
3378.918229,2368.659014,-8660.409521,-2604.724693
3378.918556,1406.391290,-9844.739029,-1608.800546
3378.918884,444.123565,-9474.636058,1915.238745
3378.919212,518.144159,-9992.780217,1378.971896
3378.919539,1480.411884,-9474.636058,-459.657299
3378.919867,1702.473667,-8808.450710,-2221.676944
3378.920194,-444.123565,-8660.409521,-306.438199
3378.920522,518.144159,-11177.109724,1991.848295
3378.920850,1924.535449,-10732.986159,-919.314598
3378.921177,1332.370696,-9104.533087,-1991.848295
3378.921505,-296.082377,-9844.739029,-2298.286494
3378.921832,666.185348,-9992.780217,-612.876398
3378.922160,0.000000,-9474.636058,1762.019645
3378.922488,1332.370696,-10288.862594,2681.334243
3378.922815,1776.494261,-10584.944971,1149.143247
3378.923143,222.061783,-8586.388927,536.266849
3378.923470,0.000000,-7994.224174,0.000000
3378.923798,0.000000,-8216.285956,-1225.752797
3378.924125,-962.267725,-9326.594869,-1225.752797
3378.924453,-518.144159,-10510.924376,-1149.143247
3378.924781,0.000000,-9770.718434,-1455.581446
3378.925108,0.000000,-9696.697840,0.000000
3378.925436,1702.473667,-10436.903782,1302.362347
3378.925764,2442.679609,-10658.965565,1149.143247
3378.926091,1036.288319,-9400.615463,1302.362347
3378.926419,-370.102971,-9622.677246,0.000000
3378.926746,-222.061783,-8882.471304,-1685.410096
3378.927074,0.000000,-10510.924376,-1685.410096
3378.927402,592.164754,-11251.130318,-766.095498
3378.927729,296.082377,-9770.718434,-229.828649
3378.928057,-888.247130,-9400.615463,1991.848295
3378.928385,-518.144159,-10362.883188,1685.410096
3378.928712,-1110.308913,-8734.430116,459.657299
3378.929040,-2146.597232,-8216.285956,0.000000
3378.929368,-2146.597232,-8142.265362,-2221.676944
3378.929695,-1628.453072,-7402.059420,-2221.676944
3378.930023,-1480.411884,-10510.924376,0.000000
3378.930351,222.061783,-12879.583391,-995.924147
3378.930678,666.185348,-12435.459826,-1685.410096
3378.931006,2220.617826,-10436.903782,-1762.019645
3378.931333,2442.679609,-10362.883188,76.609550
3378.931661,2072.576638,-10881.027347,3140.991542
3378.931989,1850.514855,-8808.450710,3447.429741
3378.932316,518.144159,-7402.059420,1608.800546
3378.932644,0.000000,-8438.347739,-995.924147
3378.932972,0.000000,-9326.594869,-2451.505594
3378.933299,-888.247130,-8882.471304,-1762.019645
3378.933627,-518.144159,-9474.636058,-1532.190996
3378.933955,0.000000,-11251.130318,-995.924147
3378.934282,1480.411884,-10066.800811,-612.876398
3378.934610,1850.514855,-10362.883188,1072.533697
3378.934937,74.020594,-10658.965565,1225.752797
3378.935265,-592.164754,-9918.759623,-306.438199
3378.935593,-222.061783,-8216.285956,-1838.629195
3378.935920,962.267725,-8068.244768,-1608.800546
3378.936248,-962.267725,-9178.553681,229.828649
3378.936576,-2516.700203,-8956.491898,2451.505594
3378.936903,962.267725,-8882.471304,1685.410096
3378.937231,2368.659014,-8586.388927,0.000000
3378.937559,2442.679609,-11103.089130,229.828649
3378.937886,0.000000,-9770.718434,1302.362347
3378.938214,666.185348,-7476.080014,0.000000
3378.938542,1924.535449,-8808.450710,-1991.848295
3378.938869,666.185348,-11325.150913,-1532.190996
3378.939197,-1184.329507,-10140.821405,76.609550
3378.939524,-1406.391290,-8290.306550,612.876398
3378.939852,1628.453072,-10955.047942,-612.876398
3378.940180,2072.576638,-13175.665768,0.000000
3378.940507,1332.370696,-10510.924376,1608.800546
3378.940835,74.020594,-7920.203579,1378.971896
3378.941163,888.247130,-8660.409521,-383.047749
3378.941490,518.144159,-10066.800811,-1225.752797
3378.941818,-444.123565,-9844.739029,-766.095498
3378.942146,-2146.597232,-7920.203579,0.000000
3378.942473,-222.061783,-8512.368333,-459.657299
3378.942801,1110.308913,-10362.883188,0.000000
3378.943129,1258.350101,-10732.986159,995.924147
3378.943456,888.247130,-9770.718434,1225.752797
3378.943784,518.144159,-9770.718434,153.219100
3378.944111,666.185348,-9622.677246,-1685.410096
3378.944439,1628.453072,-10584.944971,-1302.362347
3378.944767,814.226536,-9918.759623,-306.438199
3378.945094,-666.185348,-8956.491898,1378.971896
3378.945422,1036.288319,-11843.295072,1149.143247
3378.945750,2886.803174,-11177.109724,-459.657299
3378.946077,1110.308913,-8586.388927,306.438199
3378.946405,-1480.411884,-7698.141797,1149.143247
3378.946733,-2442.679609,-8142.265362,-383.047749
3378.947060,-1184.329507,-8438.347739,-1762.019645
3378.947388,0.000000,-8882.471304,-2757.943793
3378.947715,-962.267725,-8290.306550,-1838.629195
3378.948043,-2664.741391,-9474.636058,612.876398
3378.948371,-1480.411884,-11769.274478,0.000000
3378.948698,1036.288319,-12509.480420,-1685.410096
3378.949026,2220.617826,-10584.944971,-2451.505594
3378.949354,1110.308913,-9992.780217,0.000000
3378.949681,592.164754,-11177.109724,2757.943793
3378.950009,3256.906145,-10214.842000,1915.238745
3378.950337,3108.864956,-9474.636058,1072.533697
3378.950664,814.226536,-8956.491898,0.000000
3378.950992,-1110.308913,-9030.512492,76.609550
3378.951320,-1258.350101,-8068.244768,-612.876398
3378.951647,222.061783,-7920.203579,-689.485948
3378.951975,888.247130,-9400.615463,0.000000
3378.952302,74.020594,-13101.645173,1685.410096
3378.952630,2294.638420,-11621.233289,0.000000
3378.952958,2664.741391,-10288.862594,-689.485948
3378.953285,-962.267725,-9474.636058,-1762.019645
3378.953613,-1184.329507,-8882.471304,-2221.676944
3378.953941,-2368.659014,-8734.430116,-1072.533697
3378.954268,0.000000,-8586.388927,-306.438199
3378.954596,0.000000,-9326.594869,1072.533697
3378.954924,-740.205942,-9474.636058,2451.505594
3378.955251,0.000000,-8734.430116,1149.143247
3378.955579,962.267725,-9474.636058,0.000000
3378.955907,2590.720797,-10955.047942,-1455.581446
3378.956234,1332.370696,-9326.594869,-995.924147
3378.956562,1998.556043,-8438.347739,-1225.752797
3378.956889,148.041188,-9844.739029,76.609550
3378.957217,74.020594,-11843.295072,1302.362347
3378.957545,0.000000,-10436.903782,689.485948
3378.957872,0.000000,-8882.471304,-1225.752797
3378.958200,-1628.453072,-9622.677246,-1608.800546
3378.958528,-962.267725,-10214.842000,-995.924147
3378.958855,0.000000,-10881.027347,459.657299
3378.959183,1110.308913,-10140.821405,229.828649
3378.959511,370.102971,-7624.121203,-306.438199
3378.959838,-444.123565,-8956.491898,383.047749
3378.960166,74.020594,-9252.574275,306.438199
3378.960494,1110.308913,-9326.594869,-306.438199
3378.960821,-518.144159,-8438.347739,0.000000
3378.961149,-666.185348,-10807.006753,689.485948
3378.961476,1184.329507,-10955.047942,0.000000
3378.961804,2368.659014,-10881.027347,-995.924147
3378.962132,518.144159,-9918.759623,-1532.190996
3378.962459,0.000000,-10955.047942,0.000000
3378.962787,814.226536,-9696.697840,-536.266849
3378.963115,1850.514855,-8364.327145,459.657299
3378.963442,1036.288319,-9992.780217,2757.943793
3378.963770,1406.391290,-10140.821405,2681.334243
3378.964098,444.123565,-9030.512492,1302.362347
3378.964425,148.041188,-8512.368333,0.000000
3378.964753,-1924.535449,-7994.224174,-689.485948
3378.965080,-2886.803174,-7624.121203,-766.095498
3378.965408,-2368.659014,-8512.368333,-1149.143247
3378.965736,-1998.556043,-8882.471304,-2451.505594
3378.966063,-1258.350101,-10066.800811,-1302.362347
3378.966391,740.205942,-10955.047942,-229.828649
3378.966719,2220.617826,-11473.192101,-766.095498
3378.967046,1258.350101,-11177.109724,1072.533697
3378.967374,1184.329507,-11103.089130,459.657299
3378.967702,1702.473667,-10584.944971,-766.095498
3378.968029,1850.514855,-9178.553681,-1532.190996
3378.968357,518.144159,-8586.388927,0.000000
3378.968685,370.102971,-8660.409521,1685.410096
3378.969012,1110.308913,-9252.574275,1378.971896
3378.969340,2738.761985,-11251.130318,0.000000
3378.969667,962.267725,-9326.594869,-995.924147
3378.969995,222.061783,-9770.718434,-1532.190996
3378.970323,1554.432478,-11473.192101,-919.314598
3378.970650,2664.741391,-11769.274478,-1915.238745
3378.970978,444.123565,-9474.636058,-842.705048
3378.971306,-3108.864956,-9548.656652,459.657299
3378.971633,-1406.391290,-9696.697840,0.000000
3378.971961,592.164754,-9770.718434,-919.314598
3378.972289,222.061783,-9844.739029,-612.876398
3378.972616,-2294.638420,-9474.636058,1225.752797
3378.972944,-1332.370696,-7328.038826,229.828649
3378.973272,1776.494261,-6439.791695,-1838.629195
3378.973599,814.226536,-9696.697840,-689.485948
3378.973927,0.000000,-11473.192101,2451.505594
3378.974254,814.226536,-9400.615463,1762.019645
3378.974582,2516.700203,-8216.285956,0.000000
3378.974910,3478.967927,-9622.677246,-842.705048
3378.975237,1110.308913,-10807.006753,536.266849
3378.975565,-592.164754,-10214.842000,2374.896044
3378.975893,-222.061783,-9548.656652,0.000000
3378.976220,-296.082377,-9844.739029,-2757.943793
3378.976548,-1554.432478,-10214.842000,-2221.676944
3378.976876,-2220.617826,-9030.512492,229.828649
3378.977203,-1184.329507,-9844.739029,919.314598
3378.977531,1776.494261,-10955.047942,766.095498
3378.977859,2146.597232,-9770.718434,995.924147
3378.978186,1850.514855,-7920.203579,766.095498
3378.978514,-888.247130,-7994.224174,536.266849
3378.978841,-444.123565,-8586.388927,-689.485948
3378.979169,-296.082377,-8808.450710,-2374.896044
3378.979497,-1554.432478,-10658.965565,-2068.457845
3378.979824,-962.267725,-12139.377449,-1455.581446
3378.980152,148.041188,-12139.377449,-919.314598
3378.980480,1110.308913,-11399.171507,0.000000
3378.980807,1702.473667,-12435.459826,0.000000
3378.981135,296.082377,-10214.842000,0.000000
3378.981463,-518.144159,-8068.244768,229.828649
3378.981790,1110.308913,-8512.368333,229.828649
3378.982118,2072.576638,-9992.780217,383.047749
3378.982445,740.205942,-8660.409521,1149.143247
3378.982773,-888.247130,-8882.471304,2221.676944
3378.983101,-2072.576638,-7624.121203,612.876398
3378.983428,-1480.411884,-9178.553681,-1302.362347
3378.983756,-1258.350101,-9844.739029,-1915.238745
3378.984084,-1924.535449,-7920.203579,-1991.848295
3378.984411,-1850.514855,-9844.739029,-1225.752797
3378.984739,1184.329507,-10436.903782,-1532.190996
3378.985067,3404.947333,-11917.315666,-919.314598
3378.985394,1406.391290,-10436.903782,1302.362347
3378.985722,0.000000,-11103.089130,2681.334243
3378.986050,1110.308913,-8882.471304,612.876398
3378.986377,2368.659014,-8438.347739,-766.095498
3378.986705,2146.597232,-9474.636058,383.047749
3378.987032,74.020594,-8660.409521,2374.896044
3378.987360,296.082377,-8438.347739,2068.457845
3378.987688,2220.617826,-9400.615463,-1149.143247
3378.988015,1776.494261,-10732.986159,-2834.553343
3378.988343,666.185348,-11177.109724,-2068.457845
3378.988671,222.061783,-11621.233289,689.485948
3378.988998,1776.494261,-9696.697840,0.000000
3378.989326,888.247130,-9326.594869,766.095498
3378.989654,-962.267725,-10140.821405,383.047749
3378.989981,-1480.411884,-8660.409521,229.828649
3378.990309,0.000000,-8142.265362,-842.705048
3378.990637,740.205942,-10362.883188,-2451.505594
3378.990964,-518.144159,-9992.780217,-1072.533697
3378.991292,-1110.308913,-7846.182985,1149.143247
3378.991619,370.102971,-8142.265362,842.705048
3378.991947,1406.391290,-9474.636058,995.924147
3378.992275,2368.659014,-11917.315666,995.924147
3378.992602,1776.494261,-9474.636058,536.266849
3378.992930,1110.308913,-10362.883188,0.000000
3378.993258,2368.659014,-10658.965565,-1302.362347
3378.993585,1258.350101,-9548.656652,-612.876398
3378.993913,-666.185348,-8512.368333,383.047749
3378.994241,-1554.432478,-8882.471304,-306.438199
3378.994568,-3849.070898,-11547.212695,-459.657299
3378.994896,-1332.370696,-10584.944971,-1149.143247
3378.995224,-814.226536,-8512.368333,-1072.533697
3378.995551,0.000000,-9474.636058,459.657299
3378.995879,-518.144159,-9326.594869,1991.848295
3378.996206,1184.329507,-8438.347739,1149.143247
3378.996534,1332.370696,-9400.615463,-1915.238745
3378.996862,518.144159,-9252.574275,-2145.067394
3378.997189,0.000000,-8512.368333,-1149.143247
3378.997517,-1480.411884,-7772.162391,0.000000
3378.997845,-740.205942,-10510.924376,1378.971896
3378.998172,962.267725,-12953.603985,229.828649
3378.998500,592.164754,-11029.068536,-842.705048
3378.998828,74.020594,-10510.924376,-995.924147
3378.999155,1480.411884,-10214.842000,-2145.067394
3378.999483,2072.576638,-9622.677246,-1838.629195
3378.999810,518.144159,-10584.944971,689.485948
3379.000138,74.020594,-9548.656652,842.705048
3379.000466,-296.082377,-8142.265362,612.876398
3379.000793,296.082377,-9696.697840,2528.115143
3379.001121,592.164754,-9178.553681,1762.019645
3379.001449,-1406.391290,-9104.533087,153.219100
3379.001776,-2442.679609,-9918.759623,-1915.238745
3379.002104,-1406.391290,-8364.327145,-4903.011187
3379.002432,-1776.494261,-8290.306550,-4366.744339
3379.002759,-1702.473667,-9770.718434,-1915.238745
3379.003087,-222.061783,-10436.903782,-229.828649
3379.003415,1110.308913,-10436.903782,995.924147
3379.003742,1924.535449,-11917.315666,2298.286494
3379.004070,3404.947333,-11991.336260,1915.238745
3379.004397,2590.720797,-8956.491898,1685.410096
3379.004725,1258.350101,-6661.853478,153.219100
3379.005053,1554.432478,-7994.224174,-919.314598
3379.005380,1406.391290,-10214.842000,-842.705048
3379.005708,1036.288319,-8808.450710,-689.485948
3379.006036,-370.102971,-8808.450710,-612.876398
3379.006363,962.267725,-10881.027347,-842.705048
3379.006691,2886.803174,-14137.933492,-383.047749
3379.007019,3552.988522,-13619.789333,1378.971896
3379.007346,1110.308913,-8364.327145,1225.752797
3379.007674,-1628.453072,-7105.977043,383.047749
3379.008002,0.000000,-8882.471304,-1838.629195
3379.008329,666.185348,-9474.636058,-2834.553343
3379.008657,-888.247130,-9104.533087,-689.485948
3379.008984,-2738.761985,-9844.739029,1149.143247
3379.009312,-1258.350101,-9104.533087,536.266849
3379.009640,2368.659014,-8364.327145,0.000000
3379.009967,814.226536,-9770.718434,1225.752797
3379.010295,-1184.329507,-10955.047942,2068.457845
3379.010623,1776.494261,-9030.512492,-919.314598
3379.010950,3701.029710,-9030.512492,-2757.943793
3379.011278,2442.679609,-10807.006753,-2451.505594
3379.011606,-370.102971,-9844.739029,1225.752797
3379.011933,-888.247130,-8290.306550,2451.505594
3379.012261,222.061783,-9252.574275,1149.143247
3379.012588,0.000000,-12879.583391,-229.828649
3379.012916,-1480.411884,-11103.089130,-919.314598
3379.013244,-2812.782580,-8438.347739,76.609550
3379.013571,-814.226536,-7920.203579,-1991.848295
3379.013899,740.205942,-9400.615463,-2374.896044
3379.014227,-444.123565,-9918.759623,76.609550
3379.014554,-1258.350101,-8882.471304,536.266849
3379.014882,0.000000,-9030.512492,-1149.143247
3379.015210,1702.473667,-9992.780217,-689.485948
3379.015537,740.205942,-11843.295072,1915.238745
3379.015865,-962.267725,-8808.450710,2374.896044
3379.016193,-962.267725,-8882.471304,1149.143247
3379.016520,888.247130,-9992.780217,-1302.362347
3379.016848,2442.679609,-11473.192101,-2528.115143
3379.017175,-518.144159,-9844.739029,-1532.190996
3379.017503,-1850.514855,-8808.450710,0.000000
3379.017831,-888.247130,-10066.800811,306.438199
3379.018158,1258.350101,-11621.233289,842.705048
3379.018486,1924.535449,-11029.068536,1838.629195
3379.018814,814.226536,-7624.121203,2451.505594
3379.019141,518.144159,-8142.265362,1991.848295
3379.019469,148.041188,-8882.471304,306.438199
3379.019797,148.041188,-8586.388927,-1991.848295
3379.020124,-1628.453072,-7550.100608,-3447.429741
3379.020452,-3034.844362,-9104.533087,-1532.190996
3379.020780,-1554.432478,-10436.903782,-1532.190996
3379.021107,1110.308913,-11621.233289,-689.485948
3379.021435,2738.761985,-13323.706956,842.705048
3379.021762,3256.906145,-11547.212695,1378.971896
3379.022090,2812.782580,-9992.780217,1149.143247
3379.022418,1554.432478,-7698.141797,1302.362347
3379.022745,1036.288319,-7624.121203,-1915.238745
3379.023073,-592.164754,-7772.162391,-1608.800546
3379.023401,-1776.494261,-8586.388927,459.657299
3379.023728,222.061783,-9474.636058,153.219100
3379.024056,2294.638420,-11177.109724,1225.752797
3379.024384,2886.803174,-12139.377449,-459.657299
3379.024711,2146.597232,-13619.789333,-995.924147
3379.025039,2590.720797,-12139.377449,-2068.457845
3379.025367,2368.659014,-9030.512492,-2911.162892
3379.025694,-1036.288319,-7254.018232,-1838.629195
3379.026022,-2220.617826,-8216.285956,0.000000
3379.026349,-2146.597232,-8808.450710,383.047749
3379.026677,74.020594,-9992.780217,1225.752797
3379.027005,1628.453072,-11769.274478,919.314598
3379.027333,962.267725,-9696.697840,459.657299
3379.027660,0.000000,-7994.224174,306.438199
3379.027988,-74.020594,-8290.306550,306.438199
3379.028316,1628.453072,-8290.306550,-1072.533697
3379.028643,592.164754,-9474.636058,-1608.800546
3379.028971,-962.267725,-8586.388927,0.000000
3379.029299,-370.102971,-9104.533087,536.266849
3379.029626,1628.453072,-12287.418637,995.924147
3379.029954,1998.556043,-13101.645173,995.924147
3379.030282,370.102971,-9474.636058,229.828649
3379.030609,-1850.514855,-8660.409521,-689.485948
3379.030937,-444.123565,-9474.636058,-536.266849
3379.031265,1036.288319,-8586.388927,-2374.896044
3379.031592,-1184.329507,-8142.265362,-459.657299
3379.031920,-2664.741391,-9844.739029,1455.581446
3379.032248,-1628.453072,-9696.697840,229.828649
3379.032576,74.020594,-9918.759623,-842.705048
3379.032903,1184.329507,-11103.089130,-536.266849
3379.033231,1480.411884,-9992.780217,-766.095498
3379.033559,370.102971,-9844.739029,995.924147
3379.033886,1332.370696,-9400.615463,-229.828649
3379.034214,1924.535449,-8808.450710,-1762.019645
3379.034542,0.000000,-9474.636058,-459.657299
3379.034869,-962.267725,-10214.842000,766.095498
3379.035197,-1554.432478,-10658.965565,153.219100
3379.035525,-1036.288319,-11399.171507,-689.485948
3379.035852,-296.082377,-10288.862594,-1302.362347
3379.036180,296.082377,-8808.450710,-1608.800546
3379.036508,296.082377,-10881.027347,459.657299
3379.036836,2072.576638,-10214.842000,766.095498
3379.037163,1998.556043,-8512.368333,536.266849
3379.037491,0.000000,-7772.162391,459.657299
3379.037819,-666.185348,-8808.450710,229.828649
3379.038146,-1036.288319,-8364.327145,0.000000
3379.038474,-962.267725,-8734.430116,842.705048
3379.038802,-148.041188,-10732.986159,-612.876398
3379.039129,296.082377,-10066.800811,-1608.800546
3379.039457,-148.041188,-9548.656652,-536.266849
3379.039785,1850.514855,-9474.636058,-919.314598
3379.040112,2368.659014,-10362.883188,-536.266849
3379.040440,888.247130,-10510.924376,1838.629195
3379.040768,814.226536,-10140.821405,1608.800546
3379.041096,444.123565,-7402.059420,995.924147
3379.041423,1850.514855,-7772.162391,1072.533697
3379.041751,2738.761985,-9770.718434,0.000000
3379.042079,592.164754,-10436.903782,842.705048
3379.042406,-888.247130,-10066.800811,-919.314598
3379.042734,2146.597232,-9474.636058,-4213.525239
3379.043062,2146.597232,-11621.233289,-3830.477490
3379.043389,1554.432478,-13101.645173,-1532.190996
3379.043717,0.000000,-11103.089130,1225.752797
3379.044045,-740.205942,-9252.574275,1991.848295
3379.044372,1702.473667,-11251.130318,-842.705048
3379.044700,-370.102971,-11251.130318,-689.485948
3379.045028,-1258.350101,-9326.594869,0.000000
3379.045355,-1628.453072,-7994.224174,612.876398
3379.045683,-296.082377,-8216.285956,-1225.752797
3379.046011,-666.185348,-8956.491898,-612.876398
3379.046339,-962.267725,-8808.450710,1072.533697
3379.046666,0.000000,-10066.800811,1455.581446
3379.046994,2220.617826,-11029.068536,0.000000
3379.047322,2220.617826,-10658.965565,-842.705048
3379.047649,814.226536,-9400.615463,76.609550
3379.047977,74.020594,-7994.224174,919.314598
3379.048305,962.267725,-8586.388927,0.000000
3379.048632,0.000000,-8882.471304,-153.219100
3379.048960,-814.226536,-10881.027347,383.047749
3379.049288,-1258.350101,-10214.842000,306.438199
3379.049615,-1998.556043,-8512.368333,0.000000
3379.049943,-1850.514855,-8290.306550,229.828649
3379.050271,-518.144159,-10436.903782,0.000000
3379.050599,-1184.329507,-9622.677246,76.609550
3379.050926,-444.123565,-8882.471304,76.609550
3379.051254,1110.308913,-8068.244768,-1685.410096
3379.051582,1628.453072,-9622.677246,-995.924147
3379.051909,1480.411884,-10955.047942,229.828649
3379.052237,296.082377,-10214.842000,536.266849
3379.052565,-370.102971,-8882.471304,306.438199
3379.052892,2072.576638,-9548.656652,-459.657299
3379.053220,1184.329507,-10955.047942,-153.219100
3379.053548,148.041188,-11843.295072,0.000000
3379.053875,0.000000,-10214.842000,-1225.752797
3379.054203,1480.411884,-9104.533087,-2451.505594
3379.054531,1406.391290,-11251.130318,-2451.505594
3379.054859,444.123565,-13471.748144,229.828649
3379.055186,-740.205942,-9178.553681,1378.971896
3379.055514,-296.082377,-7476.080014,919.314598
3379.055842,1850.514855,-10584.944971,0.000000
3379.056169,1702.473667,-10881.027347,0.000000
3379.056497,0.000000,-7624.121203,612.876398
3379.056825,-814.226536,-7846.182985,-536.266849
3379.057152,518.144159,-9622.677246,-3064.381992
3379.057480,666.185348,-11399.171507,-2221.676944
3379.057808,592.164754,-10362.883188,-306.438199
3379.058135,74.020594,-9400.615463,1149.143247
3379.058463,1406.391290,-10214.842000,1608.800546
3379.058791,3256.906145,-9622.677246,1378.971896
3379.059118,2368.659014,-9178.553681,306.438199
3379.059446,0.000000,-6883.915261,766.095498
3379.059774,444.123565,-8438.347739,153.219100
3379.060102,1110.308913,-8364.327145,-1225.752797
3379.060429,0.000000,-9992.780217,-459.657299
3379.060757,-444.123565,-9178.553681,842.705048
3379.061085,370.102971,-10584.944971,0.000000
3379.061412,1110.308913,-11473.192101,-689.485948
3379.061740,2220.617826,-11177.109724,-536.266849
3379.062068,-148.041188,-8808.450710,0.000000
3379.062395,-444.123565,-8586.388927,0.000000
3379.062723,-592.164754,-9474.636058,-1838.629195
3379.063051,-666.185348,-9918.759623,-1608.800546
3379.063378,-1480.411884,-9548.656652,-229.828649
3379.063706,-1776.494261,-8586.388927,306.438199
3379.064034,-1702.473667,-8068.244768,689.485948
3379.064362,-370.102971,-9844.739029,536.266849
3379.064689,1258.350101,-11029.068536,0.000000
3379.065017,1702.473667,-10362.883188,-842.705048
3379.065345,1036.288319,-10658.965565,-1685.410096
3379.065672,518.144159,-9326.594869,-1685.410096
3379.066000,518.144159,-8734.430116,0.000000
3379.066328,444.123565,-10436.903782,612.876398
