#time,accel_x,accel_y,accel_z
3404.928248,-296.082377,-8956.491898,-536.266849
3404.928576,148.041188,-9400.615463,-153.219100
3404.928903,444.123565,-9622.677246,-689.485948
3404.929231,518.144159,-10066.800811,0.000000
3404.929558,814.226536,-9992.780217,0.000000
3404.929886,814.226536,-9992.780217,76.609550
3404.930213,666.185348,-9400.615463,153.219100
3404.930541,1036.288319,-9548.656652,-459.657299
3404.930868,74.020594,-9400.615463,-842.705048
3404.931196,0.000000,-9474.636058,229.828649
3404.931523,0.000000,-9474.636058,0.000000
3404.931851,-222.061783,-9622.677246,-536.266849
3404.932178,-148.041188,-10066.800811,-612.876398
3404.932506,0.000000,-10288.862594,-612.876398
3404.932833,370.102971,-10288.862594,-306.438199
3404.933161,592.164754,-10436.903782,-1072.533697
3404.933488,518.144159,-10584.944971,0.000000
3404.933816,592.164754,-9918.759623,0.000000
3404.934144,296.082377,-9474.636058,0.000000
3404.934471,148.041188,-9770.718434,-459.657299
3404.934799,296.082377,-9844.739029,-1072.533697
3404.935126,-296.082377,-9104.533087,-306.438199
3404.935454,-148.041188,-9548.656652,-536.266849
3404.935781,-370.102971,-9474.636058,-306.438199
3404.936109,0.000000,-9844.739029,-383.047749
3404.936436,222.061783,-9918.759623,-459.657299
3404.936764,444.123565,-10140.821405,-153.219100
3404.937091,740.205942,-10362.883188,0.000000
3404.937419,1184.329507,-10066.800811,76.609550
3404.937746,962.267725,-9622.677246,459.657299
3404.938074,518.144159,-9548.656652,0.000000
3404.938401,222.061783,-9252.574275,0.000000
3404.938729,74.020594,-9178.553681,0.000000
3404.939056,0.000000,-8882.471304,-306.438199
3404.939384,296.082377,-9030.512492,-536.266849
3404.939711,74.020594,-9474.636058,-306.438199
3404.940039,814.226536,-10066.800811,-1455.581446
3404.940366,518.144159,-9844.739029,-229.828649
3404.940694,888.247130,-10140.821405,-229.828649
3404.941021,740.205942,-10066.800811,-153.219100
3404.941349,592.164754,-9844.739029,0.000000
3404.941676,666.185348,-9474.636058,76.609550
3404.942004,666.185348,-9252.574275,-229.828649
3404.942331,888.247130,-9178.553681,0.000000
3404.942659,962.267725,-9178.553681,0.000000
3404.942986,1998.556043,-9104.533087,-229.828649
3404.943314,3182.885551,-9030.512492,-536.266849
3404.943641,4145.153275,-9400.615463,-536.266849
3404.943969,5403.503377,-10066.800811,0.000000
3404.944296,6439.791695,-10732.986159,153.219100
3404.944624,7105.977043,-9696.697840,-153.219100
3404.944951,7328.038826,-9474.636058,536.266849
3404.945279,8290.306550,-10214.842000,76.609550
3404.945606,8216.285956,-10436.903782,229.828649
3404.945934,7624.121203,-10584.944971,459.657299
3404.946261,7624.121203,-8808.450710,153.219100
3404.946589,8438.347739,-8808.450710,-383.047749
3404.946916,8290.306550,-8438.347739,0.000000
3404.947244,9622.677246,-8734.430116,-306.438199
3404.947571,11029.068536,-9326.594869,0.000000
3404.947899,11769.274478,-9844.739029,229.828649
3404.948226,11473.192101,-10510.924376,306.438199
3404.948554,11621.233289,-8882.471304,459.657299
3404.948881,11325.150913,-8808.450710,612.876398
3404.949209,12435.459826,-10214.842000,229.828649
3404.949536,12657.521608,-10584.944971,0.000000
3404.949864,13249.686362,-9918.759623,-229.828649
3404.950191,13841.851115,-9474.636058,76.609550
3404.950519,13545.768739,-9252.574275,459.657299
3404.950846,13175.665768,-8364.327145,459.657299
3404.951174,13249.686362,-9178.553681,459.657299
3404.951501,12509.480420,-9844.739029,229.828649
3404.951829,13471.748144,-10436.903782,-536.266849
3404.952156,13027.624579,-9992.780217,153.219100
3404.952484,12953.603985,-9178.553681,1378.971896
3404.952811,12361.439231,-8882.471304,2068.457845
3404.953139,12287.418637,-9178.553681,919.314598
3404.953466,11917.315666,-9992.780217,153.219100
3404.953794,11251.130318,-10510.924376,0.000000
3404.954121,9548.656652,-9474.636058,0.000000
3404.954449,8808.450710,-9030.512492,0.000000
3404.954776,7105.977043,-9030.512492,76.609550
3404.955104,7105.977043,-8512.368333,-766.095498
3404.955431,9030.512492,-9178.553681,-919.314598
3404.955759,10584.944971,-10881.027347,-306.438199
3404.956086,11473.192101,-11769.274478,689.485948
3404.956414,10436.903782,-10658.965565,1532.190996
3404.956741,9104.533087,-9030.512492,919.314598
3404.957069,7624.121203,-7624.121203,383.047749
3404.957396,7624.121203,-8142.265362,0.000000
3404.957724,8364.327145,-9622.677246,459.657299
3404.958051,8956.491898,-10807.006753,153.219100
3404.958379,8956.491898,-10288.862594,0.000000
3404.958706,8512.368333,-8882.471304,-306.438199
3404.959034,7179.997637,-10066.800811,0.000000
3404.959361,6957.935855,-11103.089130,0.000000
3404.959689,7179.997637,-10214.842000,-1302.362347
3404.960017,8882.471304,-8438.347739,-2068.457845
3404.960344,11325.150913,-8956.491898,-995.924147
3404.960672,10066.800811,-8586.388927,1762.019645
3404.960999,7624.121203,-7476.080014,2911.162892
3404.961327,7254.018232,-8438.347739,2528.115143
3404.961654,9844.739029,-10066.800811,-995.924147
3404.961982,11399.171507,-10658.965565,-3217.601092
3404.962309,10881.027347,-9918.759623,-1302.362347
3404.962637,10584.944971,-9918.759623,153.219100
3404.962964,10807.006753,-10732.986159,766.095498
3404.963292,9696.697840,-10510.924376,1072.533697
3404.963619,8438.347739,-8956.491898,536.266849
3404.963947,8216.285956,-8586.388927,-612.876398
3404.964274,8956.491898,-9326.594869,-1685.410096
3404.964602,8882.471304,-8734.430116,-1072.533697
3404.964929,8734.430116,-9326.594869,153.219100
3404.965257,8808.450710,-8956.491898,459.657299
3404.965584,10214.842000,-7698.141797,-306.438199
3404.965912,10955.047942,-8586.388927,-689.485948
3404.966239,13101.645173,-10807.006753,-995.924147
3404.966567,16210.510130,-10658.965565,-1455.581446
3404.966894,16210.510130,-10140.821405,76.609550
3404.967222,14508.036463,-11029.068536,2068.457845
3404.967549,13767.830521,-10510.924376,2298.286494
3404.967877,13545.768739,-9474.636058,995.924147
3404.968204,13323.706956,-10584.944971,0.000000
3404.968532,12953.603985,-10732.986159,-1072.533697
3404.968859,11251.130318,-10214.842000,-229.828649
3404.969187,8512.368333,-9622.677246,2374.896044
3404.969514,8068.244768,-7328.038826,1149.143247
3404.969842,5921.647536,-7179.997637,-153.219100
3404.970169,4367.215058,-9548.656652,842.705048
3404.970497,6143.709319,-9770.718434,306.438199
3404.970824,6661.853478,-8808.450710,-766.095498
3404.971152,7179.997637,-8512.368333,-459.657299
3404.971479,7328.038826,-9622.677246,0.000000
3404.971807,7105.977043,-11103.089130,1149.143247
3404.972134,5995.668130,-9770.718434,995.924147
3404.972462,7328.038826,-10066.800811,-1149.143247
3404.972789,6217.729913,-9622.677246,-2451.505594
3404.973117,3923.091493,-11843.295072,-689.485948
3404.973444,3182.885551,-11547.212695,766.095498
3404.973772,4515.256246,-9696.697840,919.314598
3404.974099,2886.803174,-10732.986159,1225.752797
3404.974427,222.061783,-10140.821405,2451.505594
3404.974754,-1554.432478,-8142.265362,1685.410096
3404.975082,-1258.350101,-7772.162391,-536.266849
3404.975409,-2812.782580,-6957.935855,-1225.752797
3404.975737,-3701.029710,-6661.853478,-536.266849
3404.976064,-3701.029710,-7550.100608,0.000000
3404.976392,-3330.926739,-9104.533087,1072.533697
3404.976719,-2072.576638,-9104.533087,0.000000
3404.977047,-740.205942,-11473.192101,-1685.410096
3404.977374,888.247130,-12361.439231,-2451.505594
3404.977702,2960.823768,-11843.295072,-2451.505594
3404.978029,1628.453072,-11547.212695,459.657299
3404.978357,1036.288319,-11991.336260,1762.019645
3404.978684,888.247130,-10066.800811,995.924147
3404.979012,-592.164754,-9252.574275,-306.438199
3404.979339,-3256.906145,-7772.162391,383.047749
3404.979667,-4515.256246,-7624.121203,-383.047749
3404.979994,-5033.400406,-7994.224174,-919.314598
3404.980322,-3256.906145,-7920.203579,-2451.505594
3404.980649,-1998.556043,-8956.491898,-2145.067394
3404.980977,-2294.638420,-8512.368333,76.609550
3404.981304,-1184.329507,-8882.471304,76.609550
3404.981632,1258.350101,-9474.636058,-2068.457845
3404.981959,2146.597232,-12287.418637,-2145.067394
3404.982287,2368.659014,-12361.439231,-995.924147
3404.982614,4367.215058,-10066.800811,-383.047749
3404.982942,2590.720797,-10066.800811,1991.848295
3404.983269,3256.906145,-11473.192101,919.314598
3404.983597,1036.288319,-12139.377449,-153.219100
3404.983924,1110.308913,-9474.636058,-2987.772442
3404.984252,962.267725,-6661.853478,-3294.210641
3404.984579,0.000000,-7402.059420,-1302.362347
3404.984907,-296.082377,-9400.615463,1532.190996
3404.985234,1776.494261,-9104.533087,842.705048
3404.985562,4811.338623,-8068.244768,-1302.362347
3404.985890,6735.874072,-10807.006753,0.000000
3404.986217,5995.668130,-12731.542202,1991.848295
3404.986545,3627.009116,-11695.253884,2145.067394
3404.986872,2738.761985,-9622.677246,76.609550
3404.987200,2738.761985,-11177.109724,-1915.238745
3404.987527,1998.556043,-11695.253884,-1455.581446
3404.987855,1036.288319,-9918.759623,229.828649
3404.988182,888.247130,-7328.038826,766.095498
3404.988510,888.247130,-8586.388927,153.219100
3404.988837,74.020594,-10362.883188,-306.438199
3404.989165,-1554.432478,-9992.780217,1302.362347
3404.989492,-740.205942,-6809.894666,1762.019645
3404.989820,1406.391290,-6513.812290,612.876398
3404.990148,1480.411884,-7550.100608,153.219100
3404.990476,666.185348,-8586.388927,0.000000
3404.990804,148.041188,-9622.677246,153.219100
3404.991132,666.185348,-11103.089130,306.438199
3404.991459,1776.494261,-11769.274478,536.266849
3404.991787,1702.473667,-12435.459826,0.000000
3404.992115,-1332.370696,-10881.027347,383.047749
3404.992443,-444.123565,-10066.800811,-919.314598
3404.992771,-740.205942,-10510.924376,-919.314598
3404.993098,-2146.597232,-10214.842000,-306.438199
3404.993426,-3034.844362,-7179.997637,1149.143247
3404.993754,-2886.803174,-5181.441594,689.485948
3404.994082,-2664.741391,-6883.915261,842.705048
3404.994410,-1480.411884,-8290.306550,0.000000
3404.994738,-1110.308913,-9326.594869,153.219100
3404.995065,-2294.638420,-9252.574275,766.095498
3404.995393,-814.226536,-9474.636058,-1455.581446
3404.995721,-962.267725,-12139.377449,-2681.334243
3404.996049,-1554.432478,-13545.768739,-2221.676944
3404.996377,-740.205942,-11843.295072,-2145.067394
3404.996705,-592.164754,-10732.986159,-2528.115143
3404.997032,-962.267725,-10955.047942,-1225.752797
3404.997360,-592.164754,-11399.171507,536.266849
3404.997688,-1998.556043,-9400.615463,536.266849
3404.998016,-2368.659014,-6365.771101,-995.924147
3404.998344,-1702.473667,-6587.832884,-1838.629195
3404.998672,-1480.411884,-8216.285956,-1378.971896
3404.998999,444.123565,-8882.471304,842.705048
3404.999327,3108.864956,-9474.636058,919.314598
3404.999655,4071.132681,-9844.739029,1302.362347
3404.999983,4737.318029,-11621.233289,0.000000
3405.000311,2146.597232,-11843.295072,842.705048
3405.000639,-370.102971,-10436.903782,0.000000
3405.000966,-1036.288319,-10288.862594,-1838.629195
3405.001294,-1184.329507,-12731.542202,-2681.334243
3405.001622,-1924.535449,-10362.883188,-2604.724693
3405.001950,-2220.617826,-7105.977043,76.609550
3405.002278,-1332.370696,-7698.141797,842.705048
3405.002605,74.020594,-8734.430116,153.219100
3405.002933,1998.556043,-8660.409521,-995.924147
3405.003261,3034.844362,-7254.018232,-459.657299
3405.003589,4441.235652,-7698.141797,153.219100
3405.003917,4219.173869,-10510.924376,2451.505594
3405.004245,3034.844362,-11177.109724,3140.991542
3405.004572,4737.318029,-11251.130318,766.095498
3405.004900,4663.297435,-10362.883188,-1532.190996
3405.005228,2664.741391,-10807.006753,-1378.971896
3405.005556,2368.659014,-11843.295072,-689.485948
3405.005884,2146.597232,-11917.315666,-383.047749
3405.006212,-1184.329507,-9326.594869,229.828649
3405.006539,-888.247130,-7846.182985,-306.438199
3405.006867,-1998.556043,-8068.244768,-153.219100
3405.007195,-1406.391290,-9474.636058,919.314598
3405.007523,1110.308913,-6069.688724,0.000000
3405.007851,1702.473667,-5921.647536,-766.095498
3405.008179,-1036.288319,-9770.718434,1915.238745
3405.008506,-592.164754,-11621.233289,1838.629195
3405.008834,1924.535449,-9252.574275,76.609550
3405.009162,1258.350101,-9474.636058,-612.876398
3405.009490,222.061783,-12509.480420,-1072.533697
3405.009818,-1184.329507,-12805.562797,-1455.581446
3405.010146,-888.247130,-11621.233289,-842.705048
3405.010473,0.000000,-9918.759623,-1838.629195
3405.010801,-1776.494261,-10584.944971,-153.219100
3405.011129,-2886.803174,-8142.265362,1532.190996
3405.011457,-2294.638420,-6735.874072,383.047749
3405.011785,-3034.844362,-5921.647536,-229.828649
3405.012112,-2294.638420,-7179.997637,383.047749
3405.012440,-1332.370696,-8290.306550,919.314598
3405.012768,-666.185348,-10066.800811,2068.457845
3405.013096,0.000000,-8882.471304,153.219100
3405.013424,1184.329507,-10436.903782,-1378.971896
3405.013752,888.247130,-11917.315666,-1991.848295
3405.014079,814.226536,-12657.521608,-2757.943793
3405.014407,-1776.494261,-11325.150913,-1225.752797
3405.014735,-2516.700203,-9696.697840,229.828649
3405.015063,-1554.432478,-10066.800811,-153.219100
3405.015391,-1258.350101,-10066.800811,-229.828649
3405.015719,-1332.370696,-9252.574275,153.219100
3405.016046,74.020594,-7179.997637,-766.095498
3405.016374,1184.329507,-7550.100608,0.000000
3405.016702,1628.453072,-8660.409521,689.485948
3405.017030,1850.514855,-9622.677246,919.314598
3405.017358,1776.494261,-8882.471304,1532.190996
3405.017686,1036.288319,-9178.553681,1149.143247
3405.018013,2368.659014,-10510.924376,-612.876398
3405.018341,1406.391290,-12361.439231,-459.657299
3405.018669,0.000000,-12435.459826,0.000000
3405.018997,370.102971,-10732.986159,-2374.896044
3405.019325,0.000000,-9474.636058,-2374.896044
3405.019653,-370.102971,-10732.986159,-612.876398
3405.019980,-222.061783,-10510.924376,766.095498
3405.020308,148.041188,-6291.750507,-229.828649
3405.020636,814.226536,-5995.668130,-306.438199
3405.020964,2072.576638,-9104.533087,0.000000
3405.021292,1998.556043,-11917.315666,2298.286494
3405.021619,1702.473667,-9252.574275,2451.505594
3405.021947,3552.988522,-9252.574275,-383.047749
3405.022275,3627.009116,-11621.233289,-1149.143247
3405.022603,3701.029710,-13545.768739,-1072.533697
3405.022931,1850.514855,-9474.636058,229.828649
3405.023259,1924.535449,-7105.977043,536.266849
3405.023586,-296.082377,-11843.295072,919.314598
3405.023914,74.020594,-11991.336260,383.047749
3405.024242,-1332.370696,-8216.285956,-459.657299
3405.024570,-1332.370696,-7328.038826,-995.924147
3405.024898,-888.247130,-8808.450710,0.000000
3405.025226,-296.082377,-7031.956449,-1532.190996
3405.025553,-666.185348,-8808.450710,-612.876398
3405.025881,-3108.864956,-8734.430116,612.876398
3405.026209,-814.226536,-9178.553681,-536.266849
3405.026537,1998.556043,-9844.739029,-1378.971896
3405.026865,2072.576638,-12139.377449,1685.410096
3405.027193,1184.329507,-11177.109724,1225.752797
3405.027520,1628.453072,-10584.944971,-229.828649
3405.027848,2368.659014,-11399.171507,-536.266849
3405.028176,1036.288319,-10658.965565,-1455.581446
3405.028504,-2738.761985,-9400.615463,612.876398
3405.028832,-4515.256246,-5699.585753,1225.752797
3405.029160,-2146.597232,-7105.977043,-1608.800546
3405.029487,-1554.432478,-8956.491898,-1685.410096
3405.029815,-1110.308913,-9844.739029,995.924147
3405.030143,74.020594,-8290.306550,1838.629195
3405.030471,1702.473667,-9622.677246,995.924147
3405.030799,1110.308913,-11029.068536,-1455.581446
3405.031126,296.082377,-12731.542202,-1378.971896
3405.031454,-962.267725,-9548.656652,-766.095498
3405.031782,-888.247130,-8290.306550,-842.705048
3405.032110,-888.247130,-9992.780217,0.000000
3405.032438,-666.185348,-12139.377449,919.314598
3405.032766,-888.247130,-11103.089130,612.876398
3405.033093,-370.102971,-9326.594869,-689.485948
3405.033421,148.041188,-8808.450710,-2145.067394
3405.033749,148.041188,-10140.821405,-2298.286494
3405.034077,222.061783,-8660.409521,919.314598
3405.034405,1776.494261,-6069.688724,1685.410096
3405.034733,2294.638420,-7920.203579,2068.457845
3405.035060,2812.782580,-9918.759623,1915.238745
3405.035388,1998.556043,-9548.656652,2374.896044
3405.035716,1554.432478,-9178.553681,229.828649
3405.036044,0.000000,-10066.800811,-536.266849
3405.036372,-296.082377,-11325.150913,-3064.381992
3405.036700,-1628.453072,-11251.130318,-2528.115143
3405.037027,-2368.659014,-9696.697840,-1762.019645
3405.037355,-1702.473667,-9178.553681,-1608.800546
3405.037683,-370.102971,-9992.780217,-1608.800546
3405.038011,1850.514855,-10881.027347,0.000000
3405.038339,2886.803174,-8586.388927,995.924147
3405.038667,3849.070898,-9548.656652,1608.800546
3405.038994,3330.926739,-11325.150913,2757.943793
3405.039322,3182.885551,-10066.800811,383.047749
3405.039650,2146.597232,-9104.533087,-306.438199
3405.039978,1258.350101,-8586.388927,-1685.410096
3405.040306,1110.308913,-10362.883188,-1455.581446
3405.040634,1332.370696,-10066.800811,-766.095498
3405.040961,2294.638420,-11103.089130,612.876398
3405.041289,1776.494261,-12805.562797,1762.019645
3405.041617,1998.556043,-11325.150913,689.485948
3405.041945,1480.411884,-9104.533087,-1838.629195
3405.042273,-518.144159,-9548.656652,0.000000
3405.042600,-1998.556043,-6439.791695,-383.047749
3405.042928,-2368.659014,-5477.523971,-306.438199
3405.043256,-4219.173869,-9548.656652,459.657299
3405.043584,-1406.391290,-9770.718434,-612.876398
3405.043912,888.247130,-9178.553681,-995.924147
3405.044240,1628.453072,-10288.862594,689.485948
3405.044567,962.267725,-11769.274478,459.657299
3405.044895,2368.659014,-12287.418637,-919.314598
3405.045223,2294.638420,-11251.130318,-766.095498
3405.045551,1110.308913,-9178.553681,-459.657299
3405.045879,-740.205942,-8808.450710,306.438199
3405.046207,-2294.638420,-7550.100608,1149.143247
3405.046534,-1850.514855,-8142.265362,919.314598
3405.046862,-1110.308913,-8882.471304,-689.485948
3405.047190,-2220.617826,-9474.636058,-229.828649
3405.047518,-888.247130,-9252.574275,-842.705048
3405.047846,666.185348,-10362.883188,-1302.362347
3405.048174,-296.082377,-11399.171507,-1225.752797
3405.048501,-370.102971,-10955.047942,-612.876398
3405.048829,370.102971,-10140.821405,-1072.533697
3405.049157,1924.535449,-11473.192101,-1225.752797
3405.049485,814.226536,-11473.192101,766.095498
3405.049813,74.020594,-9548.656652,1762.019645
3405.050141,-370.102971,-10288.862594,1685.410096
3405.050468,0.000000,-10510.924376,-1455.581446
3405.050796,-1332.370696,-10066.800811,-2528.115143
3405.051124,-2368.659014,-7994.224174,-1762.019645
3405.051452,-888.247130,-7994.224174,-612.876398
3405.051780,222.061783,-9326.594869,229.828649
3405.052107,1998.556043,-10066.800811,1762.019645
3405.052435,2220.617826,-9548.656652,1532.190996
3405.052763,2442.679609,-8438.347739,1149.143247
3405.053091,2220.617826,-8660.409521,76.609550
3405.053419,518.144159,-10436.903782,766.095498
3405.053747,222.061783,-10362.883188,-229.828649
3405.054074,-592.164754,-9104.533087,-689.485948
3405.054402,-2368.659014,-9326.594869,-842.705048
3405.054730,-1776.494261,-10362.883188,-1149.143247
3405.055058,-1258.350101,-9400.615463,-1378.971896
3405.055386,1036.288319,-8216.285956,-1685.410096
3405.055714,2590.720797,-8882.471304,-766.095498
3405.056041,2738.761985,-10288.862594,1685.410096
3405.056369,1924.535449,-11325.150913,4136.915689
3405.056697,2146.597232,-8808.450710,1149.143247
3405.057025,2664.741391,-8364.327145,-383.047749
3405.057353,962.267725,-9770.718434,0.000000
3405.057681,1110.308913,-10510.924376,-306.438199
3405.058008,1776.494261,-9252.574275,-306.438199
3405.058336,2294.638420,-10066.800811,0.000000
3405.058664,1702.473667,-11325.150913,383.047749
3405.058992,2072.576638,-14211.954086,919.314598
3405.059320,518.144159,-10510.924376,-689.485948
3405.059648,-1554.432478,-7402.059420,-1532.190996
3405.059975,-1776.494261,-7179.997637,-2145.067394
3405.060303,-1184.329507,-9770.718434,-2068.457845
3405.060631,-2368.659014,-9622.677246,919.314598
3405.060959,-296.082377,-7402.059420,383.047749
3405.061287,888.247130,-8142.265362,76.609550
3405.061614,814.226536,-11325.150913,229.828649
3405.061942,1184.329507,-12287.418637,-919.314598
3405.062270,592.164754,-10436.903782,-842.705048
3405.062598,962.267725,-9474.636058,-153.219100
3405.062926,1702.473667,-11251.130318,-1225.752797
3405.063254,222.061783,-11473.192101,229.828649
3405.063581,-814.226536,-8660.409521,1608.800546
3405.063909,74.020594,-7624.121203,-229.828649
3405.064237,74.020594,-9696.697840,689.485948
3405.064565,-2738.761985,-10881.027347,1532.190996
3405.064893,-2294.638420,-6883.915261,0.000000
3405.065221,-1258.350101,-5033.400406,-995.924147
3405.065548,-1554.432478,-9326.594869,-536.266849
3405.065876,-962.267725,-12509.480420,-1072.533697
3405.066204,-666.185348,-10584.944971,-459.657299
3405.066532,-148.041188,-9326.594869,-1608.800546
3405.066860,518.144159,-11325.150913,-1532.190996
3405.067188,370.102971,-11547.212695,536.266849
3405.067515,370.102971,-10584.944971,1838.629195
3405.067843,814.226536,-9178.553681,229.828649
3405.068171,962.267725,-9400.615463,-1455.581446
3405.068499,296.082377,-9992.780217,-1378.971896
3405.068827,0.000000,-9326.594869,459.657299
3405.069155,-666.185348,-7772.162391,766.095498
3405.069482,-962.267725,-7994.224174,153.219100
3405.069810,518.144159,-9252.574275,-1225.752797
3405.070138,1924.535449,-11843.295072,-1378.971896
3405.070466,2442.679609,-10362.883188,-536.266849
3405.070794,1776.494261,-9030.512492,919.314598
3405.071121,2368.659014,-11917.315666,0.000000
3405.071449,1184.329507,-11251.130318,-383.047749
3405.071777,-1258.350101,-10066.800811,766.095498
3405.072105,-2146.597232,-8956.491898,-612.876398
3405.072433,-1184.329507,-8956.491898,-3064.381992
3405.072761,740.205942,-11177.109724,-2681.334243
3405.073088,962.267725,-10362.883188,-1532.190996
3405.073416,-518.144159,-8882.471304,1608.800546
3405.073744,-1332.370696,-8364.327145,2298.286494
3405.074072,518.144159,-8882.471304,-1378.971896
3405.074400,1998.556043,-9992.780217,-2145.067394
3405.074728,1702.473667,-9252.574275,76.609550
3405.075055,2886.803174,-9770.718434,459.657299
3405.075383,2886.803174,-10436.903782,1991.848295
3405.075711,3330.926739,-11695.253884,919.314598
3405.076039,1258.350101,-9622.677246,1302.362347
3405.076367,-444.123565,-8586.388927,995.924147
3405.076695,-444.123565,-8660.409521,-1302.362347
3405.077022,74.020594,-10362.883188,-2145.067394
3405.077350,1628.453072,-8364.327145,-766.095498
3405.077678,1480.411884,-9178.553681,229.828649
3405.078006,0.000000,-9844.739029,1991.848295
3405.078334,814.226536,-9918.759623,0.000000
3405.078662,-666.185348,-9770.718434,-689.485948
3405.078989,-1554.432478,-9474.636058,-1072.533697
3405.079317,-1406.391290,-8438.347739,-1915.238745
3405.079645,-518.144159,-9548.656652,-1302.362347
3405.079973,0.000000,-10288.862594,689.485948
3405.080301,666.185348,-9770.718434,1532.190996
3405.080628,1110.308913,-10510.924376,0.000000
3405.080956,222.061783,-10288.862594,-229.828649
3405.081284,1184.329507,-9770.718434,-1762.019645
3405.081612,148.041188,-9992.780217,-766.095498
3405.081940,-666.185348,-8216.285956,1225.752797
3405.082268,0.000000,-8290.306550,1915.238745
3405.082595,-222.061783,-9326.594869,229.828649
3405.082923,-740.205942,-10362.883188,536.266849
3405.083251,0.000000,-10140.821405,-1455.581446
3405.083579,-370.102971,-9252.574275,-2145.067394
3405.083907,-1332.370696,-9696.697840,-1762.019645
3405.084235,-1036.288319,-10288.862594,-612.876398
3405.084562,-2294.638420,-9622.677246,1072.533697
3405.084890,-1702.473667,-8882.471304,153.219100
3405.085218,740.205942,-10362.883188,-1455.581446
3405.085546,222.061783,-11029.068536,-1532.190996
3405.085874,222.061783,-10436.903782,153.219100
3405.086202,592.164754,-8734.430116,459.657299
3405.086529,370.102971,-9104.533087,1608.800546
3405.086857,222.061783,-9030.512492,536.266849
3405.087185,518.144159,-8438.347739,0.000000
3405.087513,-370.102971,-8364.327145,0.000000
3405.087841,1036.288319,-9622.677246,-459.657299
3405.088169,518.144159,-9474.636058,-612.876398
3405.088496,370.102971,-10288.862594,0.000000
3405.088824,74.020594,-9992.780217,229.828649
3405.089152,-518.144159,-10807.006753,306.438199
3405.089480,518.144159,-10881.027347,-689.485948
3405.089808,962.267725,-11399.171507,-2528.115143
3405.090135,-370.102971,-8956.491898,-1532.190996
3405.090463,148.041188,-7846.182985,-536.266849
3405.090791,-1036.288319,-9400.615463,1455.581446
3405.091119,0.000000,-10436.903782,1762.019645
3405.091446,0.000000,-8068.244768,0.000000
3405.091774,888.247130,-8290.306550,-2451.505594
3405.092102,592.164754,-9622.677246,-1378.971896
3405.092429,2294.638420,-11177.109724,-842.705048
3405.092757,1480.411884,-11399.171507,1225.752797
3405.093085,444.123565,-9770.718434,1608.800546
3405.093412,1628.453072,-8734.430116,383.047749
3405.093740,2368.659014,-10807.006753,-689.485948
3405.094068,2072.576638,-11769.274478,383.047749
3405.094395,2072.576638,-8956.491898,842.705048
3405.094723,2590.720797,-7698.141797,1149.143247
3405.095051,2072.576638,-8660.409521,0.000000
3405.095378,518.144159,-9918.759623,0.000000
3405.095706,-1850.514855,-8364.327145,-229.828649
3405.096033,-1998.556043,-7550.100608,-1685.410096
3405.096361,-370.102971,-10658.965565,-2451.505594
3405.096689,888.247130,-11843.295072,-2451.505594
3405.097016,148.041188,-10732.986159,842.705048
3405.097344,1480.411884,-9326.594869,1072.533697
3405.097672,1702.473667,-10881.027347,153.219100
3405.097999,1554.432478,-11177.109724,-766.095498
3405.098327,0.000000,-8290.306550,-1072.533697
3405.098655,-1702.473667,-6661.853478,0.000000
3405.098982,-1110.308913,-8438.347739,766.095498
3405.099310,-518.144159,-9474.636058,689.485948
3405.099638,74.020594,-10436.903782,1225.752797
3405.099965,222.061783,-11103.089130,766.095498
3405.100293,1110.308913,-10066.800811,-1378.971896
3405.100621,370.102971,-10658.965565,-3600.648841
3405.100948,-370.102971,-10732.986159,-2451.505594
3405.101276,-740.205942,-8734.430116,-306.438199
3405.101603,-148.041188,-7624.121203,0.000000
3405.101931,-1184.329507,-9474.636058,1608.800546
3405.102259,-1110.308913,-10658.965565,919.314598
3405.102586,-962.267725,-10436.903782,536.266849
3405.102914,-1184.329507,-8956.491898,-2221.676944
3405.103242,0.000000,-9400.615463,-2451.505594
3405.103569,666.185348,-11399.171507,-1532.190996
3405.103897,74.020594,-9844.739029,612.876398
3405.104225,444.123565,-9104.533087,1225.752797
3405.104552,888.247130,-8290.306550,153.219100
3405.104880,296.082377,-9326.594869,229.828649
3405.105208,1184.329507,-9918.759623,842.705048
3405.105535,592.164754,-8734.430116,612.876398
3405.105863,518.144159,-10066.800811,766.095498
3405.106190,1776.494261,-11547.212695,-612.876398
3405.106518,74.020594,-10066.800811,-842.705048
3405.106846,-1702.473667,-8734.430116,689.485948
3405.107173,-1776.494261,-8956.491898,-766.095498
3405.107501,-2072.576638,-10510.924376,-1378.971896
3405.107829,-222.061783,-10140.821405,-1608.800546
3405.108156,740.205942,-8068.244768,-1455.581446
3405.108484,740.205942,-9326.594869,1072.533697
3405.108812,518.144159,-9844.739029,2374.896044
3405.109139,2146.597232,-9548.656652,-612.876398
3405.109467,1702.473667,-9844.739029,-612.876398
3405.109795,1258.350101,-9178.553681,-995.924147
3405.110122,1776.494261,-9104.533087,-306.438199
3405.110450,666.185348,-9474.636058,995.924147
3405.110778,592.164754,-10140.821405,766.095498
3405.111105,814.226536,-10510.924376,306.438199
3405.111433,1036.288319,-11103.089130,-1072.533697
3405.111760,1406.391290,-11029.068536,-1838.629195
3405.112088,2590.720797,-10732.986159,-1225.752797
3405.112416,2294.638420,-9104.533087,76.609550
3405.112743,1628.453072,-7772.162391,1685.410096
3405.113071,666.185348,-8956.491898,536.266849
3405.113399,-962.267725,-9844.739029,229.828649
3405.113726,-1036.288319,-9844.739029,0.000000
3405.114054,74.020594,-9474.636058,-1915.238745
3405.114382,0.000000,-9918.759623,-2911.162892
3405.114709,666.185348,-10732.986159,-1762.019645
3405.115037,888.247130,-11177.109724,0.000000
3405.115365,962.267725,-10732.986159,612.876398
3405.115692,1332.370696,-9252.574275,-689.485948
3405.116020,-370.102971,-8068.244768,-229.828649
3405.116348,-592.164754,-9178.553681,842.705048
3405.116675,-296.082377,-7920.203579,766.095498
3405.117003,0.000000,-8142.265362,1532.190996
3405.117330,592.164754,-10066.800811,1302.362347
3405.117658,296.082377,-11547.212695,-306.438199
3405.117986,-1184.329507,-9770.718434,-1072.533697
3405.118313,-962.267725,-8808.450710,-2834.553343
3405.118641,-1776.494261,-10288.862594,-1838.629195
3405.118969,-1924.535449,-9992.780217,0.000000
3405.119296,-1036.288319,-8956.491898,766.095498
3405.119624,-296.082377,-9178.553681,1455.581446
3405.119952,296.082377,-10066.800811,995.924147
3405.120279,1332.370696,-10288.862594,0.000000
3405.120607,444.123565,-10288.862594,-612.876398
3405.120935,-1332.370696,-8438.347739,0.000000
3405.121262,-740.205942,-7328.038826,-459.657299
3405.121590,-296.082377,-8364.327145,-459.657299
3405.121918,-518.144159,-9252.574275,0.000000
3405.122245,148.041188,-9548.656652,0.000000
3405.122573,1036.288319,-9844.739029,0.000000
3405.122900,1628.453072,-10881.027347,76.609550
3405.123228,2220.617826,-11473.192101,-1072.533697
3405.123556,666.185348,-11325.150913,0.000000
3405.123883,0.000000,-9178.553681,-995.924147
3405.124211,-1110.308913,-9178.553681,459.657299
3405.124539,-1554.432478,-11177.109724,-689.485948
3405.124866,-666.185348,-10584.944971,-2221.676944
3405.125194,-222.061783,-8586.388927,-1685.410096
3405.125522,1110.308913,-8512.368333,-612.876398
3405.125849,1332.370696,-10436.903782,842.705048
3405.126177,814.226536,-11843.295072,1455.581446
3405.126505,1110.308913,-8290.306550,-612.876398
3405.126832,444.123565,-8068.244768,-1838.629195
3405.127160,888.247130,-10288.862594,-766.095498
3405.127487,2294.638420,-9548.656652,0.000000
3405.127815,1776.494261,-9104.533087,2298.286494
3405.128143,1332.370696,-8290.306550,2451.505594
3405.128470,1924.535449,-10288.862594,1072.533697
3405.128798,1998.556043,-10955.047942,0.000000
3405.129126,592.164754,-10658.965565,-306.438199
3405.129453,666.185348,-9252.574275,-995.924147
3405.129781,1184.329507,-7772.162391,-306.438199
3405.130109,1924.535449,-7402.059420,229.828649
3405.130436,1406.391290,-9918.759623,1685.410096
3405.130764,-666.185348,-9474.636058,1455.581446
3405.131092,-444.123565,-8882.471304,76.609550
3405.131419,1702.473667,-10140.821405,-2451.505594
3405.131747,740.205942,-12435.459826,-2374.896044
3405.132075,-1628.453072,-11103.089130,383.047749
3405.132402,0.000000,-8290.306550,459.657299
3405.132730,222.061783,-9770.718434,0.000000
3405.133057,666.185348,-10584.944971,-919.314598
3405.133385,-1258.350101,-7476.080014,-766.095498
3405.133713,-1110.308913,-8142.265362,-306.438199
3405.134040,222.061783,-10066.800811,153.219100
3405.134368,1776.494261,-11029.068536,-459.657299
3405.134696,296.082377,-10881.027347,1762.019645
3405.135023,-296.082377,-9400.615463,1685.410096
3405.135351,0.000000,-9030.512492,-306.438199
3405.135679,-592.164754,-10066.800811,-2145.067394
3405.136006,-1628.453072,-11029.068536,-2451.505594
3405.136334,-1480.411884,-9992.780217,-1762.019645
3405.136662,0.000000,-8882.471304,-1072.533697
3405.136989,444.123565,-9844.739029,689.485948
3405.137317,-592.164754,-11325.150913,536.266849
3405.137645,-962.267725,-10214.842000,919.314598
3405.137972,74.020594,-8216.285956,-995.924147
3405.138300,0.000000,-8734.430116,-1455.581446
3405.138627,222.061783,-9474.636058,-689.485948
3405.138955,74.020594,-9030.512492,1302.362347
3405.139283,-666.185348,-8216.285956,2604.724693
3405.139610,1258.350101,-9178.553681,536.266849
3405.139938,1480.411884,-9770.718434,-1532.190996
3405.140266,-592.164754,-9400.615463,0.000000
3405.140593,-814.226536,-8808.450710,-229.828649
3405.140921,74.020594,-9918.759623,0.000000
3405.141249,1776.494261,-10732.986159,-919.314598
3405.141576,1184.329507,-10807.006753,842.705048
3405.141904,-888.247130,-9400.615463,1302.362347
3405.142232,444.123565,-9474.636058,-689.485948
3405.142559,-148.041188,-9474.636058,-2374.896044
3405.142887,0.000000,-9696.697840,-1991.848295
3405.143215,222.061783,-9474.636058,0.000000
3405.143542,-296.082377,-9252.574275,1915.238745
3405.143870,0.000000,-9326.594869,1378.971896
3405.144197,1850.514855,-9474.636058,-1455.581446
3405.144525,814.226536,-10584.944971,-2374.896044
3405.144853,1110.308913,-9548.656652,-1762.019645
3405.145180,3478.967927,-9178.553681,-1378.971896
3405.145508,4219.173869,-11177.109724,459.657299
3405.145836,2220.617826,-11843.295072,2987.772442
3405.146163,1406.391290,-9400.615463,3294.210641
3405.146491,592.164754,-7920.203579,1455.581446
3405.146819,1036.288319,-9474.636058,-536.266849
3405.147146,1702.473667,-10436.903782,-2374.896044
3405.147474,444.123565,-7994.224174,-612.876398
3405.147802,962.267725,-6439.791695,459.657299
3405.148129,1406.391290,-9178.553681,76.609550
3405.148457,74.020594,-11473.192101,459.657299
3405.148784,-592.164754,-10732.986159,383.047749
3405.149112,0.000000,-8734.430116,-1378.971896
3405.149440,-518.144159,-11399.171507,-1149.143247
3405.149767,0.000000,-11695.253884,-536.266849
3405.150095,962.267725,-10658.965565,76.609550
3405.150423,444.123565,-8586.388927,766.095498
3405.150750,592.164754,-8142.265362,383.047749
3405.151078,-666.185348,-8438.347739,459.657299
3405.151406,-1110.308913,-9030.512492,919.314598
3405.151733,-1702.473667,-7402.059420,842.705048
3405.152061,-222.061783,-8660.409521,76.609550
3405.152389,0.000000,-11399.171507,1455.581446
3405.152716,888.247130,-12213.398043,153.219100
3405.153044,74.020594,-10807.006753,-1225.752797
3405.153372,962.267725,-10584.944971,-1915.238745
3405.153699,222.061783,-10436.903782,-2681.334243
3405.154027,-592.164754,-9696.697840,-1225.752797
3405.154354,-1554.432478,-9252.574275,1378.971896
3405.154682,-1036.288319,-8438.347739,1838.629195
3405.155010,-1628.453072,-9104.533087,1532.190996
3405.155337,-1184.329507,-9400.615463,-536.266849
3405.155665,0.000000,-10214.842000,-1838.629195
3405.155993,-148.041188,-9548.656652,-2221.676944
3405.156320,222.061783,-9178.553681,-1915.238745
3405.156648,518.144159,-9400.615463,-536.266849
3405.156976,1258.350101,-10807.006753,1685.410096
3405.157303,1184.329507,-9400.615463,1838.629195
3405.157631,666.185348,-8882.471304,995.924147
3405.157959,518.144159,-9474.636058,0.000000
3405.158286,666.185348,-10436.903782,-919.314598
3405.158614,-888.247130,-10288.862594,306.438199
3405.158942,1332.370696,-9474.636058,-842.705048
3405.159269,1258.350101,-8660.409521,-995.924147
3405.159597,814.226536,-10807.006753,0.000000
3405.159924,-592.164754,-10288.862594,306.438199
3405.160252,-814.226536,-9252.574275,-1455.581446
3405.160580,-1406.391290,-7698.141797,-995.924147
3405.160907,-370.102971,-7846.182985,-1072.533697
3405.161235,-296.082377,-10807.006753,0.000000
3405.161563,-592.164754,-11177.109724,1838.629195
3405.161890,1110.308913,-8216.285956,-766.095498
3405.162218,3404.947333,-9844.739029,-3140.991542
3405.162546,1184.329507,-11103.089130,-1149.143247
3405.162873,1184.329507,-10436.903782,612.876398
3405.163201,74.020594,-6957.935855,1455.581446
3405.163529,296.082377,-8882.471304,1149.143247
3405.163856,444.123565,-10955.047942,76.609550
3405.164184,888.247130,-10881.027347,383.047749
3405.164512,1850.514855,-9770.718434,0.000000
3405.164839,3404.947333,-9474.636058,-1302.362347
3405.165167,3330.926739,-10436.903782,306.438199
3405.165494,2146.597232,-8586.388927,1302.362347
3405.165822,0.000000,-6661.853478,1302.362347
3405.166150,-2516.700203,-7550.100608,306.438199
3405.166477,-2146.597232,-10214.842000,-1225.752797
3405.166805,-370.102971,-12287.418637,-2221.676944
3405.167133,-296.082377,-11769.274478,-1915.238745
3405.167460,1184.329507,-10807.006753,-1532.190996
3405.167788,2442.679609,-11473.192101,-842.705048
3405.168116,1480.411884,-12583.501014,842.705048
3405.168443,444.123565,-8882.471304,459.657299
3405.168771,-1480.411884,-5551.544565,0.000000
3405.169099,-1998.556043,-7105.977043,536.266849
3405.169426,-148.041188,-9474.636058,383.047749
3405.169754,370.102971,-10066.800811,1225.752797
3405.170081,0.000000,-10288.862594,1225.752797
3405.170409,1406.391290,-10510.924376,-612.876398
3405.170737,1776.494261,-11843.295072,-2221.676944
3405.171064,-296.082377,-11843.295072,-1991.848295
3405.171392,-1184.329507,-9474.636058,-842.705048
3405.171720,-962.267725,-6439.791695,-306.438199
3405.172047,148.041188,-8956.491898,0.000000
3405.172375,-370.102971,-10658.965565,2604.724693
3405.172703,-962.267725,-9474.636058,3217.601092
3405.173030,296.082377,-7624.121203,383.047749
3405.173358,962.267725,-9844.739029,-2911.162892
3405.173686,-814.226536,-11769.274478,-2757.943793
3405.174013,-2072.576638,-8068.244768,-689.485948
3405.174341,-518.144159,-6883.915261,536.266849
3405.174669,962.267725,-9104.533087,842.705048
3405.174996,1480.411884,-11843.295072,766.095498
3405.175324,370.102971,-10955.047942,1455.581446
3405.175651,592.164754,-8956.491898,536.266849
3405.175979,2294.638420,-9252.574275,-1838.629195
3405.176307,2368.659014,-11177.109724,-1685.410096
3405.176634,1184.329507,-12731.542202,842.705048
3405.176962,-296.082377,-8808.450710,1685.410096
3405.177290,-962.267725,-6661.853478,536.266849
3405.177617,-1628.453072,-9844.739029,-1149.143247
3405.177945,-2368.659014,-11843.295072,-2451.505594
3405.178273,-2072.576638,-9178.553681,-2145.067394
3405.178600,0.000000,-7179.997637,-1991.848295
3405.178928,1702.473667,-10732.986159,-612.876398
3405.179256,1184.329507,-13545.768739,919.314598
3405.179583,1480.411884,-9844.739029,536.266849
3405.179911,2146.597232,-7476.080014,-1149.143247
3405.180239,1110.308913,-8956.491898,-536.266849
3405.180566,666.185348,-10955.047942,-229.828649
3405.180894,0.000000,-9770.718434,2068.457845
3405.181221,444.123565,-6439.791695,1762.019645
3405.181549,962.267725,-7550.100608,-229.828649
3405.181877,740.205942,-12139.377449,842.705048
3405.182204,740.205942,-10584.944971,0.000000
3405.182532,2294.638420,-8512.368333,-842.705048
3405.182860,1406.391290,-8068.244768,383.047749
3405.183187,2368.659014,-8512.368333,919.314598
3405.183515,1184.329507,-8808.450710,459.657299
3405.183843,-1924.535449,-8882.471304,2528.115143
3405.184170,-2072.576638,-9104.533087,76.609550
3405.184498,296.082377,-10362.883188,-2604.724693
3405.184826,814.226536,-13619.789333,-2834.553343
3405.185153,0.000000,-11769.274478,-612.876398
3405.185481,370.102971,-8734.430116,766.095498
3405.185809,666.185348,-9030.512492,383.047749
3405.186136,1036.288319,-10584.944971,-459.657299
3405.186464,0.000000,-9474.636058,0.000000
3405.186791,-1924.535449,-6809.894666,306.438199
3405.187119,-666.185348,-7105.977043,153.219100
3405.187447,2146.597232,-11029.068536,-536.266849
3405.187774,1480.411884,-12213.398043,229.828649
3405.188102,592.164754,-10807.006753,1762.019645
3405.188430,1332.370696,-8882.471304,-842.705048
3405.188757,0.000000,-10807.006753,-2757.943793
3405.189085,-962.267725,-11843.295072,-2451.505594
3405.189413,-666.185348,-8364.327145,-1302.362347
3405.189741,-740.205942,-7994.224174,0.000000
3405.190068,518.144159,-9622.677246,1225.752797
3405.190396,962.267725,-10732.986159,1455.581446
3405.190724,888.247130,-10510.924376,919.314598
3405.191052,-222.061783,-8882.471304,-536.266849
3405.191379,-1554.432478,-8660.409521,-1149.143247
3405.191707,-1332.370696,-8216.285956,-1915.238745
3405.192035,-592.164754,-9696.697840,-459.657299
3405.192363,-370.102971,-9178.553681,766.095498
3405.192691,814.226536,-8216.285956,995.924147
3405.193018,1258.350101,-10214.842000,1302.362347
3405.193346,2368.659014,-11843.295072,0.000000
3405.193674,888.247130,-10140.821405,-536.266849
3405.194002,962.267725,-9622.677246,-153.219100
3405.194329,296.082377,-9474.636058,689.485948
3405.194657,-962.267725,-9474.636058,1149.143247
3405.194985,-1702.473667,-9252.574275,306.438199
3405.195313,-2146.597232,-8290.306550,-1532.190996
3405.195640,-1850.514855,-8364.327145,-1685.410096
3405.195968,0.000000,-10362.883188,-2221.676944
3405.196296,-888.247130,-11177.109724,-459.657299
3405.196624,-1554.432478,-9844.739029,612.876398
3405.196952,0.000000,-9178.553681,459.657299
3405.197279,2368.659014,-11547.212695,-2145.067394
3405.197607,1406.391290,-12213.398043,-842.705048
3405.197935,1110.308913,-10140.821405,0.000000
3405.198263,1110.308913,-8586.388927,306.438199
3405.198590,1480.411884,-10140.821405,0.000000
3405.198918,888.247130,-10214.842000,766.095498
3405.199246,-148.041188,-8512.368333,2374.896044
3405.199574,370.102971,-7920.203579,153.219100
3405.199902,1702.473667,-9770.718434,-842.705048
3405.200229,2886.803174,-10732.986159,-2068.457845
3405.200557,2294.638420,-9622.677246,229.828649
3405.200885,2368.659014,-6735.874072,383.047749
3405.201213,1184.329507,-8734.430116,153.219100
3405.201540,-962.267725,-11399.171507,0.000000
3405.201868,74.020594,-11843.295072,-995.924147
3405.202196,1924.535449,-8882.471304,-2374.896044
3405.202524,1850.514855,-9770.718434,-459.657299
3405.202852,1258.350101,-10732.986159,766.095498
3405.203179,962.267725,-10881.027347,536.266849
3405.203507,296.082377,-8512.368333,-229.828649
3405.203835,666.185348,-6661.853478,-1762.019645
3405.204163,-296.082377,-7031.956449,-1532.190996
3405.204490,-370.102971,-9770.718434,383.047749
3405.204818,296.082377,-9548.656652,2068.457845
3405.205146,1184.329507,-9252.574275,1838.629195
3405.205474,1480.411884,-11473.192101,1532.190996
3405.205802,1998.556043,-11843.295072,-459.657299
3405.206129,1406.391290,-11029.068536,-1762.019645
3405.206457,-888.247130,-10510.924376,-2221.676944
3405.206785,-1258.350101,-9326.594869,-1838.629195
3405.207113,-666.185348,-9252.574275,-1378.971896
3405.207440,-1850.514855,-10732.986159,1608.800546
3405.207768,-2368.659014,-8586.388927,2374.896044
3405.208096,-1702.473667,-8586.388927,306.438199
3405.208424,0.000000,-10807.006753,-2221.676944
3405.208752,222.061783,-11769.274478,-3447.429741
3405.209079,-1776.494261,-9326.594869,-1378.971896
3405.209407,-666.185348,-7105.977043,76.609550
3405.209735,370.102971,-8882.471304,459.657299
3405.210063,592.164754,-11917.315666,1302.362347
3405.210390,-814.226536,-10140.821405,1991.848295
3405.210718,-296.082377,-7846.182985,536.266849
3405.211046,296.082377,-8586.388927,-1072.533697
3405.211374,444.123565,-11843.295072,-919.314598
3405.211702,0.000000,-12805.562797,842.705048
3405.212029,-962.267725,-8882.471304,229.828649
3405.212357,-296.082377,-8068.244768,-766.095498
3405.212685,592.164754,-9474.636058,-766.095498
3405.213013,-666.185348,-9770.718434,1149.143247
3405.213340,-518.144159,-7772.162391,1149.143247
3405.213668,-962.267725,-6069.688724,0.000000
3405.213996,-2442.679609,-8808.450710,383.047749
3405.214324,-2812.782580,-11621.233289,-1149.143247
3405.214652,-1406.391290,-10658.965565,-2757.943793
3405.214979,1036.288319,-7994.224174,-2987.772442
3405.215307,3849.070898,-10510.924376,-1762.019645
3405.215635,3775.050304,-14730.098246,1072.533697
3405.215963,2368.659014,-13693.809927,4136.915689
3405.216290,2368.659014,-7254.018232,459.657299
3405.216618,888.247130,-7772.162391,-842.705048
3405.216946,-1480.411884,-10066.800811,-1302.362347
3405.217274,-962.267725,-9030.512492,-612.876398
3405.217602,740.205942,-7105.977043,0.000000
3405.217929,2294.638420,-8364.327145,0.000000
3405.218257,2368.659014,-10732.986159,612.876398
3405.218585,2368.659014,-11843.295072,1455.581446
3405.218913,1184.329507,-9918.759623,0.000000
3405.219240,296.082377,-9918.759623,-1532.190996
3405.219568,74.020594,-9252.574275,-1915.238745
3405.219896,1924.535449,-8660.409521,-1302.362347
3405.220224,1628.453072,-8512.368333,1378.971896
3405.220552,814.226536,-9474.636058,2145.067394
3405.220879,74.020594,-10658.965565,919.314598
3405.221207,1628.453072,-12287.418637,-995.924147
3405.221535,1850.514855,-11769.274478,-1838.629195
3405.221863,0.000000,-8068.244768,-1685.410096
3405.222190,-592.164754,-7550.100608,1072.533697
3405.222518,0.000000,-8660.409521,1608.800546
3405.222846,2368.659014,-9844.739029,229.828649
3405.223174,-296.082377,-8364.327145,1302.362347
3405.223502,-740.205942,-8586.388927,612.876398
3405.223829,444.123565,-10807.006753,-1532.190996
3405.224157,814.226536,-12065.356855,-1302.362347
3405.224485,-888.247130,-9844.739029,536.266849
3405.224813,-888.247130,-8956.491898,2221.676944
3405.225140,0.000000,-9030.512492,1149.143247
3405.225468,888.247130,-10066.800811,-1608.800546
3405.225796,-1036.288319,-11177.109724,-842.705048
3405.226124,-1258.350101,-8512.368333,-1915.238745
3405.226451,-1110.308913,-8438.347739,-1762.019645
3405.226779,-666.185348,-11103.089130,-842.705048
3405.227107,-740.205942,-10436.903782,1532.190996
3405.227435,0.000000,-7846.182985,1149.143247
3405.227763,-518.144159,-9178.553681,459.657299
3405.228090,74.020594,-11103.089130,-1762.019645
3405.228418,740.205942,-10658.965565,-1149.143247
3405.228746,740.205942,-8808.450710,0.000000
3405.229074,-222.061783,-8068.244768,766.095498
3405.229401,1628.453072,-10288.862594,-459.657299
3405.229729,0.000000,-10807.006753,0.000000
3405.230057,-1850.514855,-10066.800811,229.828649
3405.230385,-2072.576638,-7402.059420,-536.266849
3405.230713,-962.267725,-9548.656652,-1378.971896
3405.231040,-2516.700203,-9770.718434,-459.657299
3405.231368,-2294.638420,-9918.759623,459.657299
3405.231696,-2220.617826,-9252.574275,-1149.143247
3405.232024,370.102971,-9696.697840,-2681.334243
3405.232351,2442.679609,-11029.068536,-3064.381992
3405.232679,1776.494261,-11917.315666,0.000000
3405.233007,74.020594,-11177.109724,2604.724693
3405.233335,1702.473667,-9992.780217,1762.019645
3405.233663,1924.535449,-9178.553681,-1302.362347
3405.233990,962.267725,-10732.986159,-306.438199
3405.234318,592.164754,-9474.636058,459.657299
3405.234646,1332.370696,-5995.668130,0.000000
3405.234974,2442.679609,-8290.306550,-306.438199
3405.235301,2220.617826,-11917.315666,612.876398
3405.235629,666.185348,-10362.883188,2374.896044
3405.235957,1776.494261,-7179.997637,1378.971896
3405.236285,1406.391290,-8660.409521,-995.924147
3405.236613,444.123565,-12139.377449,-1149.143247
3405.236940,-148.041188,-8364.327145,0.000000
3405.237268,222.061783,-6513.812290,-689.485948
3405.237596,666.185348,-9326.594869,-306.438199
3405.237924,1850.514855,-11473.192101,-536.266849
3405.238251,1480.411884,-11843.295072,1072.533697
3405.238579,1332.370696,-10214.842000,1838.629195
3405.238907,2590.720797,-9474.636058,-689.485948
3405.239235,2146.597232,-9622.677246,-1838.629195
3405.239563,592.164754,-9770.718434,612.876398
3405.239890,-296.082377,-9548.656652,1685.410096
3405.240218,444.123565,-7846.182985,229.828649
3405.240546,814.226536,-8586.388927,-1072.533697
3405.240874,74.020594,-10658.965565,-766.095498
3405.241201,-740.205942,-10955.047942,76.609550
3405.241529,0.000000,-9252.574275,-383.047749
3405.241857,0.000000,-9696.697840,-459.657299
3405.242185,-148.041188,-11991.336260,-1072.533697
3405.242513,-592.164754,-11473.192101,0.000000
3405.242840,-222.061783,-9326.594869,153.219100
3405.243168,666.185348,-9474.636058,0.000000
3405.243496,1406.391290,-10288.862594,-1302.362347
3405.243824,-888.247130,-10288.862594,995.924147
3405.244151,-1850.514855,-8586.388927,1378.971896
3405.244479,-1480.411884,-7476.080014,76.609550
3405.244807,-1036.288319,-8808.450710,-1149.143247
3405.245135,-1258.350101,-10955.047942,-919.314598
3405.245463,0.000000,-10066.800811,0.000000
3405.245790,666.185348,-7846.182985,0.000000
3405.246118,2294.638420,-9770.718434,1532.190996
3405.246446,518.144159,-11621.233289,1225.752797
3405.246774,-962.267725,-9992.780217,1302.362347
3405.247101,-1406.391290,-7254.018232,-612.876398
3405.247429,-1110.308913,-8586.388927,-1302.362347
3405.247757,-1480.411884,-9992.780217,-76.609550
3405.248085,-1554.432478,-9696.697840,1608.800546
3405.248413,-2368.659014,-7772.162391,1302.362347
3405.248740,-2368.659014,-8734.430116,-995.924147
3405.249068,-1776.494261,-11029.068536,-3753.867940
3405.249396,-1554.432478,-11103.089130,-3064.381992
3405.249724,666.185348,-8956.491898,-2221.676944
3405.250051,2516.700203,-9696.697840,229.828649
3405.250379,2590.720797,-12213.398043,3370.820191
3405.250707,3108.864956,-12583.501014,2604.724693
3405.251035,2146.597232,-10362.883188,689.485948
3405.251363,444.123565,-7772.162391,-1149.143247
3405.251690,222.061783,-9178.553681,-2757.943793
3405.252018,148.041188,-9400.615463,-3064.381992
3405.252346,-370.102971,-8512.368333,-842.705048
3405.252674,444.123565,-8734.430116,766.095498
3405.253001,1924.535449,-10510.924376,1991.848295
3405.253329,2738.761985,-10807.006753,536.266849
3405.253657,1998.556043,-11769.274478,-689.485948
3405.253985,222.061783,-9844.739029,-1532.190996
3405.254313,1480.411884,-7031.956449,-2757.943793
3405.254640,1480.411884,-9252.574275,-1991.848295
3405.254968,222.061783,-10732.986159,842.705048
3405.255296,888.247130,-9474.636058,2757.943793
3405.255624,2294.638420,-8808.450710,1455.581446
3405.255951,3034.844362,-11029.068536,-459.657299
3405.256279,1850.514855,-11695.253884,-1608.800546
3405.256607,0.000000,-9622.677246,-842.705048
3405.256935,222.061783,-6661.853478,-459.657299
3405.257262,2072.576638,-8956.491898,-766.095498
3405.257590,2146.597232,-10732.986159,-229.828649
3405.257918,0.000000,-8734.430116,2145.067394
3405.258246,222.061783,-7846.182985,1608.800546
3405.258574,296.082377,-9326.594869,-306.438199
3405.258901,-296.082377,-10658.965565,-383.047749
3405.259229,-1258.350101,-10214.842000,-153.219100
3405.259557,-1332.370696,-8956.491898,-612.876398
3405.259885,666.185348,-9992.780217,-1302.362347
3405.260212,2146.597232,-11547.212695,-1149.143247
3405.260540,666.185348,-11991.336260,306.438199
3405.260868,-592.164754,-10214.842000,1072.533697
3405.261196,-888.247130,-8068.244768,0.000000
3405.261524,-1480.411884,-8512.368333,76.609550
3405.261851,-666.185348,-9844.739029,-459.657299
3405.262179,-592.164754,-10140.821405,229.828649
3405.262507,-592.164754,-7772.162391,-459.657299
3405.262835,592.164754,-8882.471304,-842.705048
3405.263162,518.144159,-11251.130318,0.000000
3405.263490,-592.164754,-10362.883188,1149.143247
3405.263818,-962.267725,-8068.244768,76.609550
3405.264146,-1258.350101,-8734.430116,-689.485948
3405.264474,-296.082377,-10955.047942,-1532.190996
3405.264801,0.000000,-11621.233289,-383.047749
3405.265129,-666.185348,-10436.903782,995.924147
3405.265457,0.000000,-7328.038826,229.828649
3405.265785,-962.267725,-8808.450710,0.000000
3405.266112,-2812.782580,-11473.192101,0.000000
3405.266440,-3849.070898,-8364.327145,-1991.848295
3405.266768,-1850.514855,-6513.812290,-2911.162892
3405.267096,666.185348,-9326.594869,-1762.019645
3405.267424,2368.659014,-12065.356855,-153.219100
3405.267751,1628.453072,-12953.603985,3370.820191
3405.268079,1924.535449,-9252.574275,1685.410096
3405.268407,2516.700203,-9030.512492,-1915.238745
3405.268735,1332.370696,-10881.027347,-1915.238745
3405.269062,-666.185348,-9918.759623,-383.047749
3405.269390,-740.205942,-6661.853478,995.924147
3405.269718,1036.288319,-6809.894666,689.485948
3405.270046,1924.535449,-10066.800811,306.438199
3405.270374,1258.350101,-11843.295072,1378.971896
3405.270701,1184.329507,-9548.656652,766.095498
3405.271029,1332.370696,-8882.471304,-2451.505594
3405.271357,1332.370696,-10732.986159,-2911.162892
3405.271685,1480.411884,-10066.800811,-2451.505594
3405.272012,740.205942,-8512.368333,306.438199
3405.272340,-296.082377,-9030.512492,2528.115143
3405.272668,2146.597232,-9696.697840,2221.676944
3405.272996,3404.947333,-10732.986159,229.828649
3405.273324,2442.679609,-11843.295072,153.219100
3405.273651,962.267725,-9770.718434,-689.485948
3405.273979,1406.391290,-9178.553681,-1149.143247
3405.274307,1924.535449,-9548.656652,-1685.410096
3405.274635,592.164754,-9844.739029,76.609550
3405.274962,-814.226536,-8660.409521,1608.800546
3405.275290,-296.082377,-8216.285956,1072.533697
3405.275618,74.020594,-9918.759623,-229.828649
3405.275946,1628.453072,-11695.253884,-689.485948
3405.276274,-814.226536,-9918.759623,612.876398
3405.276601,0.000000,-8734.430116,919.314598
3405.276929,1924.535449,-9326.594869,-1378.971896
3405.277257,666.185348,-11843.295072,-1302.362347
3405.277585,-1036.288319,-9770.718434,1378.971896
3405.277912,370.102971,-7476.080014,536.266849
3405.278240,740.205942,-9030.512492,536.266849
3405.278568,222.061783,-11621.233289,306.438199
3405.278896,-1554.432478,-10955.047942,995.924147
3405.279224,-1332.370696,-7994.224174,-1455.581446
3405.279551,74.020594,-8660.409521,-3294.210641
3405.279879,444.123565,-11103.089130,-2145.067394
3405.280207,0.000000,-10066.800811,306.438199
3405.280535,-666.185348,-8660.409521,2681.334243
3405.280862,222.061783,-8956.491898,2145.067394
3405.281190,1110.308913,-10510.924376,995.924147
3405.281518,-888.247130,-11473.192101,229.828649
3405.281846,-2072.576638,-8660.409521,-689.485948
3405.282174,-1480.411884,-6883.915261,-2374.896044
3405.282501,-1184.329507,-9696.697840,-2145.067394
3405.282829,-666.185348,-12435.459826,-1685.410096
3405.283157,-222.061783,-10140.821405,919.314598
3405.283485,-666.185348,-7994.224174,1991.848295
3405.283812,-1480.411884,-8808.450710,1532.190996
3405.284140,-1702.473667,-10362.883188,-1225.752797
3405.284468,-2294.638420,-10066.800811,-1915.238745
3405.284796,-370.102971,-8068.244768,-2681.334243
3405.285124,1850.514855,-7994.224174,-1455.581446
3405.285451,2590.720797,-12879.583391,1838.629195
3405.285779,1924.535449,-12731.542202,2528.115143
3405.286107,1110.308913,-10140.821405,1072.533697
3405.286435,0.000000,-9252.574275,-459.657299
3405.286762,-740.205942,-8956.491898,-1149.143247
3405.287090,-740.205942,-7846.182985,-995.924147
3405.287418,0.000000,-6661.853478,0.000000
3405.287746,0.000000,-8216.285956,1149.143247
3405.288073,2294.638420,-10510.924376,612.876398
3405.288401,3182.885551,-11473.192101,-919.314598
3405.288729,888.247130,-11399.171507,-689.485948
3405.289057,0.000000,-10436.903782,-306.438199
3405.289385,740.205942,-7476.080014,-842.705048
3405.289712,2220.617826,-8142.265362,-306.438199
3405.290040,222.061783,-10362.883188,536.266849
3405.290368,592.164754,-9844.739029,1072.533697
3405.290696,3034.844362,-9474.636058,-919.314598
3405.291023,4145.153275,-11991.336260,-1685.410096
3405.291351,1406.391290,-11325.150913,-1149.143247
3405.291678,518.144159,-9622.677246,612.876398
3405.292006,370.102971,-8364.327145,536.266849
3405.292334,1184.329507,-8364.327145,612.876398
3405.292661,740.205942,-9622.677246,459.657299
3405.292989,-1406.391290,-7698.141797,842.705048
3405.293316,-592.164754,-7772.162391,-689.485948
3405.293644,1850.514855,-9622.677246,-4136.915689
3405.293972,962.267725,-13397.727550,-1762.019645
3405.294299,0.000000,-11621.233289,0.000000
3405.294627,666.185348,-9992.780217,306.438199
3405.294954,1406.391290,-11177.109724,229.828649
3405.295282,1702.473667,-10881.027347,459.657299
3405.295609,-444.123565,-9030.512492,459.657299
3405.295937,-1258.350101,-8068.244768,0.000000
3405.296265,-518.144159,-8586.388927,-2221.676944
3405.296592,0.000000,-9474.636058,-1915.238745
3405.296920,-1850.514855,-10510.924376,-842.705048
3405.297247,-1554.432478,-9918.759623,459.657299
3405.297575,0.000000,-8734.430116,-842.705048
3405.297903,518.144159,-9844.739029,0.000000
3405.298230,518.144159,-11325.150913,766.095498
3405.298558,814.226536,-8808.450710,2221.676944
3405.298885,592.164754,-8512.368333,995.924147
3405.299213,-370.102971,-8438.347739,-306.438199
3405.299540,74.020594,-10288.862594,-1838.629195
3405.299868,0.000000,-9474.636058,-919.314598
3405.300196,0.000000,-9400.615463,229.828649
3405.300523,-592.164754,-8512.368333,1762.019645
3405.300851,-1258.350101,-9104.533087,1991.848295
3405.301178,-2812.782580,-10807.006753,766.095498
3405.301506,-3256.906145,-9104.533087,-2298.286494
3405.301834,-1702.473667,-7105.977043,-3830.477490
3405.302161,740.205942,-9770.718434,-3064.381992
3405.302489,666.185348,-12509.480420,-995.924147
3405.302816,888.247130,-11769.274478,1608.800546
3405.303144,1998.556043,-9770.718434,1378.971896
3405.303471,1628.453072,-10214.842000,-153.219100
3405.303799,74.020594,-11695.253884,76.609550
3405.304127,-666.185348,-9770.718434,-229.828649
3405.304454,-1332.370696,-7624.121203,-766.095498
3405.304782,370.102971,-7031.956449,-2528.115143
3405.305109,2146.597232,-9770.718434,-1302.362347
3405.305437,1258.350101,-12657.521608,1685.410096
3405.305764,1406.391290,-9918.759623,1762.019645
3405.306092,1480.411884,-9474.636058,536.266849
3405.306420,1628.453072,-10510.924376,-766.095498
3405.306747,1776.494261,-9178.553681,-1072.533697
3405.307075,-740.205942,-7105.977043,459.657299
3405.307402,-1332.370696,-7772.162391,229.828649
3405.307730,666.185348,-10362.883188,-1149.143247
3405.308058,1184.329507,-13545.768739,-1225.752797
3405.308385,592.164754,-12065.356855,-1225.752797
3405.308713,518.144159,-9474.636058,-1149.143247
3405.309040,1258.350101,-8660.409521,153.219100
3405.309368,2368.659014,-9622.677246,459.657299
3405.309695,888.247130,-9326.594869,2221.676944
3405.310023,888.247130,-6661.853478,2451.505594
3405.310351,1184.329507,-6661.853478,383.047749
3405.310678,2072.576638,-10584.944971,-1225.752797
3405.311006,740.205942,-11177.109724,-536.266849
3405.311333,-370.102971,-9178.553681,76.609550
3405.311661,0.000000,-9622.677246,536.266849
3405.311989,1110.308913,-10807.006753,-1072.533697
3405.312316,370.102971,-12065.356855,-612.876398
3405.312644,-296.082377,-10214.842000,612.876398
3405.312971,740.205942,-7846.182985,-1225.752797
3405.313299,518.144159,-9326.594869,-1762.019645
3405.313626,-370.102971,-11177.109724,76.609550
3405.313954,-1850.514855,-8808.450710,842.705048
3405.314282,-814.226536,-7698.141797,-306.438199
3405.314609,370.102971,-9252.574275,-995.924147
3405.314937,1110.308913,-11251.130318,-766.095498
3405.315264,444.123565,-10140.821405,-459.657299
3405.315592,222.061783,-9326.594869,0.000000
3405.315920,74.020594,-10362.883188,-306.438199
3405.316247,518.144159,-11547.212695,-1149.143247
3405.316575,-370.102971,-11177.109724,-766.095498
3405.316902,-814.226536,-9104.533087,-383.047749
3405.317230,74.020594,-9030.512492,-689.485948
3405.317557,888.247130,-9992.780217,153.219100
3405.317885,296.082377,-10584.944971,2145.067394
3405.318213,-1998.556043,-9252.574275,2145.067394
3405.318540,-2590.720797,-8290.306550,-383.047749
3405.318868,-1924.535449,-8290.306550,-3370.820191
3405.319195,-370.102971,-9770.718434,-4443.353888
3405.319523,-814.226536,-10362.883188,0.000000
3405.319851,-888.247130,-9918.759623,2757.943793
3405.320178,1480.411884,-9844.739029,1608.800546
3405.320506,2072.576638,-10955.047942,-689.485948
3405.320833,-296.082377,-10362.883188,0.000000
3405.321161,-740.205942,-7105.977043,306.438199
3405.321488,-296.082377,-5995.668130,842.705048
3405.321816,962.267725,-8660.409521,-919.314598
3405.322144,0.000000,-10362.883188,459.657299
3405.322471,0.000000,-9030.512492,2221.676944
3405.322799,1998.556043,-9326.594869,1378.971896
3405.323126,2516.700203,-11473.192101,-766.095498
3405.323454,1332.370696,-11399.171507,-1378.971896
3405.323782,666.185348,-7328.038826,-612.876398
3405.324109,1850.514855,-6587.832884,-1685.410096
3405.324437,888.247130,-10288.862594,-306.438199
3405.324764,148.041188,-11843.295072,919.314598
3405.325092,740.205942,-11547.212695,1302.362347
3405.325419,2294.638420,-10955.047942,-1225.752797
3405.325747,1406.391290,-11399.171507,-1915.238745
3405.326075,666.185348,-10288.862594,-1072.533697
3405.326402,222.061783,-8956.491898,76.609550
3405.326730,148.041188,-7920.203579,-229.828649
3405.327057,370.102971,-7846.182985,-459.657299
3405.327385,148.041188,-9770.718434,-536.266849
3405.327713,0.000000,-10881.027347,229.828649
3405.328040,1628.453072,-9844.739029,-612.876398
3405.328368,666.185348,-10066.800811,-612.876398
3405.328695,1110.308913,-10510.924376,1149.143247
3405.329023,2294.638420,-11325.150913,459.657299
3405.329350,814.226536,-10214.842000,-229.828649
3405.329678,296.082377,-9326.594869,-612.876398
3405.330006,814.226536,-9548.656652,-1149.143247
3405.330333,0.000000,-10214.842000,-766.095498
3405.330661,-1332.370696,-9474.636058,842.705048
3405.330988,-2146.597232,-7254.018232,1455.581446
3405.331316,-1184.329507,-8068.244768,383.047749
3405.331644,0.000000,-9400.615463,-995.924147
3405.331971,666.185348,-10140.821405,-1149.143247
3405.332299,148.041188,-9400.615463,-306.438199
3405.332626,1184.329507,-8142.265362,306.438199
3405.332954,2442.679609,-8882.471304,612.876398
3405.333281,74.020594,-9770.718434,1302.362347
3405.333609,-1628.453072,-9770.718434,1685.410096
3405.333937,-1998.556043,-9252.574275,-306.438199
3405.334264,-518.144159,-9474.636058,-1915.238745
3405.334592,962.267725,-10436.903782,-2451.505594
3405.334919,962.267725,-9622.677246,-153.219100
3405.335247,-370.102971,-8586.388927,2374.896044
3405.335574,-666.185348,-10066.800811,1685.410096
3405.335902,-888.247130,-11251.130318,-1072.533697
3405.336230,-1924.535449,-10066.800811,-2528.115143
3405.336557,-1554.432478,-8660.409521,-2528.115143
3405.336885,-666.185348,-9844.739029,-612.876398
3405.337212,296.082377,-12139.377449,1225.752797
3405.337540,2368.659014,-12139.377449,229.828649
3405.337868,888.247130,-9104.533087,-1302.362347
3405.338195,0.000000,-8734.430116,-2221.676944
3405.338523,-148.041188,-9992.780217,-2451.505594
3405.338850,-296.082377,-10732.986159,-995.924147
3405.339178,0.000000,-8660.409521,383.047749
3405.339505,-222.061783,-7328.038826,1532.190996
3405.339833,2368.659014,-9400.615463,2834.553343
3405.340161,5107.421000,-10584.944971,1149.143247
3405.340488,2220.617826,-11177.109724,1455.581446
3405.340816,518.144159,-8438.347739,306.438199
3405.341143,1998.556043,-4885.359217,-2145.067394
3405.341471,222.061783,-8216.285956,-1685.410096
3405.341799,-1554.432478,-11399.171507,76.609550
3405.342126,-1998.556043,-10362.883188,2221.676944
3405.342454,814.226536,-9918.759623,766.095498
3405.342781,3478.967927,-13619.789333,-1762.019645
3405.343109,1554.432478,-12953.603985,-2145.067394
3405.343436,0.000000,-9030.512492,-229.828649
3405.343764,888.247130,-6365.771101,0.000000
3405.344092,1702.473667,-8438.347739,383.047749
3405.344419,-296.082377,-8660.409521,919.314598
3405.344747,-1776.494261,-7550.100608,1915.238745
3405.345074,-370.102971,-6439.791695,919.314598
3405.345402,1628.453072,-8956.491898,-766.095498
3405.345730,1184.329507,-14211.954086,-536.266849
3405.346057,74.020594,-12509.480420,842.705048
3405.346385,1258.350101,-8438.347739,-1532.190996
3405.346712,2220.617826,-10658.965565,-2298.286494
3405.347040,518.144159,-12583.501014,-1149.143247
3405.347367,-1110.308913,-9178.553681,-153.219100
3405.347695,-2146.597232,-6661.853478,842.705048
3405.348023,-1406.391290,-8512.368333,536.266849
3405.348350,444.123565,-11399.171507,229.828649
3405.348678,-1406.391290,-10140.821405,383.047749
3405.349005,-1628.453072,-9178.553681,0.000000
3405.349333,222.061783,-8808.450710,-3447.429741
3405.349661,1036.288319,-8364.327145,-2834.553343
3405.349988,962.267725,-10807.006753,-153.219100
3405.350316,0.000000,-10362.883188,2145.067394
3405.350643,814.226536,-9696.697840,2068.457845
3405.350971,1628.453072,-10732.986159,536.266849
3405.351298,222.061783,-12139.377449,229.828649
3405.351626,-1480.411884,-9474.636058,612.876398
3405.351954,-222.061783,-7328.038826,-1225.752797
3405.352281,222.061783,-7105.977043,-2221.676944
3405.352609,-518.144159,-9844.739029,-1302.362347
3405.352936,-2368.659014,-10066.800811,689.485948
3405.353264,-2072.576638,-9844.739029,229.828649
3405.353592,-296.082377,-8290.306550,-1838.629195
3405.353919,1998.556043,-10066.800811,-2681.334243
3405.354247,-296.082377,-10066.800811,919.314598
3405.354574,1110.308913,-10436.903782,2681.334243
3405.354902,1850.514855,-8586.388927,612.876398
3405.355229,2220.617826,-10066.800811,0.000000
3405.355557,666.185348,-9770.718434,-1378.971896
3405.355885,-1184.329507,-8660.409521,-1072.533697
3405.356212,-2442.679609,-7105.977043,536.266849
3405.356540,-1110.308913,-7846.182985,-995.924147
3405.356867,-592.164754,-10436.903782,-229.828649
3405.357195,296.082377,-11621.233289,1991.848295
3405.357523,2368.659014,-10658.965565,612.876398
3405.357850,4219.173869,-11399.171507,-689.485948
3405.358178,3256.906145,-10066.800811,-1378.971896
3405.358505,2368.659014,-9252.574275,-995.924147
3405.358833,1554.432478,-5995.668130,1225.752797
3405.359160,592.164754,-6069.688724,1532.190996
3405.359488,-1110.308913,-10584.944971,2451.505594
3405.359816,296.082377,-13249.686362,1455.581446
3405.360143,1110.308913,-13767.830521,-1225.752797
3405.360471,2738.761985,-11917.315666,-3677.258390
3405.360798,1258.350101,-9622.677246,-3830.477490
3405.361126,296.082377,-10807.006753,-2451.505594
3405.361454,-962.267725,-9252.574275,0.000000
3405.361781,-370.102971,-8068.244768,766.095498
3405.362109,-666.185348,-7846.182985,1915.238745
3405.362436,-148.041188,-8956.491898,2221.676944
3405.362764,-592.164754,-8216.285956,842.705048
3405.363091,592.164754,-9400.615463,383.047749
3405.363419,1554.432478,-10955.047942,-1302.362347
3405.363747,2590.720797,-11621.233289,-2145.067394
3405.364074,962.267725,-10214.842000,-1225.752797
3405.364402,0.000000,-10510.924376,689.485948
3405.364729,-296.082377,-10066.800811,76.609550
3405.365057,0.000000,-8142.265362,153.219100
3405.365384,-1258.350101,-8142.265362,689.485948
3405.365712,-1480.411884,-9474.636058,1149.143247
3405.366040,-888.247130,-8956.491898,306.438199
3405.366367,74.020594,-7179.997637,-1762.019645
3405.366695,0.000000,-9992.780217,-3064.381992
3405.367022,-962.267725,-10066.800811,-459.657299
3405.367350,962.267725,-8660.409521,0.000000
3405.367678,1554.432478,-8808.450710,459.657299
3405.368005,1702.473667,-10436.903782,306.438199
3405.368333,1628.453072,-11695.253884,-689.485948
3405.368660,0.000000,-12213.398043,153.219100
3405.368988,-1110.308913,-9030.512492,76.609550
3405.369315,592.164754,-8586.388927,-2451.505594
3405.369643,-962.267725,-10214.842000,-1378.971896
3405.369971,148.041188,-9770.718434,76.609550
3405.370298,814.226536,-8068.244768,919.314598
3405.370626,370.102971,-8438.347739,1991.848295
3405.370953,-1036.288319,-11251.130318,536.266849
3405.371281,-2590.720797,-12435.459826,-1225.752797
3405.371609,-1480.411884,-7624.121203,-3830.477490
3405.371936,222.061783,-7179.997637,-3753.867940
3405.372264,2886.803174,-13175.665768,306.438199
3405.372591,2294.638420,-13101.645173,2681.334243
3405.372919,1702.473667,-10140.821405,2987.772442
3405.373246,2146.597232,-8438.347739,459.657299
3405.373574,0.000000,-8882.471304,-1915.238745
3405.373902,-2738.761985,-8216.285956,0.000000
3405.374229,-2442.679609,-5847.626942,76.609550
3405.374557,-1480.411884,-5477.523971,153.219100
3405.374884,1850.514855,-10362.883188,153.219100
3405.375212,2886.803174,-13545.768739,995.924147
3405.375540,1850.514855,-11621.233289,1608.800546
3405.375867,2368.659014,-7846.182985,-306.438199
3405.376195,2294.638420,-8438.347739,-1225.752797
3405.376522,2368.659014,-8512.368333,0.000000
3405.376850,1110.308913,-7994.224174,1225.752797
3405.377177,-444.123565,-8660.409521,1838.629195
3405.377505,1406.391290,-11769.274478,1762.019645
3405.377833,3849.070898,-15322.262999,-1149.143247
3405.378160,1628.453072,-12213.398043,-919.314598
3405.378488,-1184.329507,-8956.491898,-1455.581446
3405.378815,-1702.473667,-9252.574275,-2451.505594
3405.379143,74.020594,-9400.615463,-2757.943793
3405.379471,-296.082377,-9770.718434,-536.266849
3405.379798,-2812.782580,-7698.141797,2221.676944
3405.380126,-2368.659014,-7920.203579,1608.800546
3405.380453,1776.494261,-10214.842000,-1991.848295
3405.380781,1924.535449,-11843.295072,-2604.724693
3405.381108,296.082377,-11177.109724,919.314598
3405.381436,1184.329507,-8734.430116,1072.533697
3405.381764,2220.617826,-9622.677246,1149.143247
3405.382091,1110.308913,-12361.439231,-919.314598
3405.382419,-1480.411884,-10288.862594,-612.876398
3405.382746,-2146.597232,-6069.688724,-383.047749
3405.383074,-1332.370696,-7254.018232,-919.314598
3405.383402,-1036.288319,-12435.459826,0.000000
3405.383729,-1110.308913,-11325.150913,689.485948
3405.384057,-1258.350101,-7698.141797,0.000000
3405.384384,0.000000,-8660.409521,-766.095498
3405.384712,1184.329507,-9992.780217,-842.705048
3405.385039,888.247130,-9474.636058,842.705048
3405.385367,296.082377,-8068.244768,1915.238745
3405.385695,1480.411884,-7846.182985,-612.876398
3405.386022,2072.576638,-9918.759623,-612.876398
3405.386350,666.185348,-11177.109724,229.828649
3405.386677,-1332.370696,-9400.615463,1838.629195
3405.387005,-370.102971,-8068.244768,0.000000
3405.387333,74.020594,-9992.780217,-1838.629195
3405.387660,1480.411884,-10732.986159,-2145.067394
3405.387988,740.205942,-8734.430116,689.485948
3405.388315,74.020594,-8512.368333,2298.286494
3405.388643,-666.185348,-10510.924376,1225.752797
3405.388970,296.082377,-11621.233289,-2221.676944
3405.389298,-1406.391290,-9104.533087,-2681.334243
3405.389626,-1332.370696,-9326.594869,-1225.752797
3405.389953,444.123565,-11103.089130,383.047749
3405.390281,2072.576638,-12435.459826,76.609550
3405.390608,1480.411884,-11177.109724,229.828649
3405.390936,814.226536,-9696.697840,-689.485948
3405.391264,-740.205942,-7698.141797,-1225.752797
3405.391591,-1110.308913,-8660.409521,-842.705048
3405.391919,-592.164754,-9326.594869,-229.828649
3405.392246,0.000000,-9178.553681,1149.143247
3405.392576,518.144159,-9844.739029,1455.581446
3405.392904,2368.659014,-10807.006753,1762.019645
3405.393231,2812.782580,-10584.944971,-459.657299
3405.393559,1776.494261,-10807.006753,-459.657299
3405.393886,74.020594,-8734.430116,-153.219100
3405.394214,592.164754,-5181.441594,-1149.143247
3405.394542,1036.288319,-7994.224174,-459.657299
3405.394869,888.247130,-11991.336260,1072.533697
3405.395197,888.247130,-13249.686362,2451.505594
3405.395524,2738.761985,-10214.842000,536.266849
3405.395852,3256.906145,-9696.697840,-1149.143247
3405.396180,814.226536,-10436.903782,-1302.362347
3405.396507,-888.247130,-9326.594869,-306.438199
3405.396835,-1184.329507,-7105.977043,-766.095498
3405.397162,222.061783,-8734.430116,-995.924147
3405.397490,222.061783,-10066.800811,-1225.752797
3405.397817,-666.185348,-7254.018232,1072.533697
3405.398145,-666.185348,-9030.512492,1302.362347
3405.398473,1184.329507,-11251.130318,0.000000
3405.398800,2590.720797,-12361.439231,-995.924147
3405.399128,1702.473667,-10214.842000,-383.047749
3405.399455,740.205942,-9696.697840,0.000000
3405.399783,1332.370696,-9918.759623,306.438199
3405.400110,1258.350101,-10362.883188,-612.876398
3405.400438,-296.082377,-9474.636058,-612.876398
3405.400766,-1776.494261,-9474.636058,383.047749
3405.401093,-1776.494261,-8512.368333,-383.047749
3405.401421,-1776.494261,-9770.718434,-689.485948
3405.401748,-1258.350101,-11251.130318,-2221.676944
3405.402076,-740.205942,-11177.109724,-1991.848295
3405.402403,-222.061783,-9696.697840,-1532.190996
3405.402731,2294.638420,-9326.594869,-689.485948
3405.403059,1776.494261,-10658.965565,229.828649
3405.403386,592.164754,-9918.759623,1455.581446
3405.403714,-666.185348,-9326.594869,1532.190996
3405.404041,-1332.370696,-8142.265362,919.314598
3405.404369,-592.164754,-8734.430116,-612.876398
3405.404696,0.000000,-9992.780217,-842.705048
3405.405024,-888.247130,-10066.800811,612.876398
3405.405352,1554.432478,-7698.141797,-842.705048
3405.405679,2516.700203,-8586.388927,-842.705048
3405.406007,0.000000,-11621.233289,1762.019645
3405.406334,-2072.576638,-11547.212695,1302.362347
3405.406662,-2072.576638,-7994.224174,-1608.800546
3405.406989,-222.061783,-7402.059420,-2451.505594
3405.407317,370.102971,-10214.842000,-1302.362347
3405.407645,296.082377,-11843.295072,2451.505594
3405.407972,888.247130,-9474.636058,1915.238745
3405.408300,1406.391290,-8586.388927,-1225.752797
3405.408627,444.123565,-9918.759623,-2451.505594
3405.408955,-1184.329507,-9844.739029,-995.924147
3405.409283,-1998.556043,-7402.059420,0.000000
3405.409610,-296.082377,-7105.977043,459.657299
3405.409938,1850.514855,-10140.821405,383.047749
3405.410265,2368.659014,-13619.789333,1455.581446
3405.410593,2886.803174,-11399.171507,1685.410096
3405.410920,2812.782580,-9030.512492,-383.047749
3405.411248,1776.494261,-10362.883188,-1302.362347
3405.411576,2072.576638,-9992.780217,-1455.581446
3405.411903,-296.082377,-6735.874072,-612.876398
3405.412231,-1184.329507,-7328.038826,995.924147
3405.412558,0.000000,-11325.150913,1225.752797
3405.412886,1702.473667,-13619.789333,0.000000
3405.413213,962.267725,-11843.295072,0.000000
3405.413541,74.020594,-9474.636058,-2451.505594
3405.413869,-444.123565,-9622.677246,-3140.991542
3405.414196,740.205942,-9474.636058,-2068.457845
3405.414524,518.144159,-9474.636058,0.000000
3405.414851,-222.061783,-8216.285956,1378.971896
3405.415179,-592.164754,-6513.812290,1608.800546
3405.415506,148.041188,-9030.512492,1532.190996
3405.415834,962.267725,-11399.171507,459.657299
3405.416162,518.144159,-9770.718434,-1915.238745
3405.416489,148.041188,-9178.553681,-612.876398
3405.416817,2294.638420,-10584.944971,-1532.190996
3405.417144,1036.288319,-12213.398043,-995.924147
3405.417472,370.102971,-9474.636058,0.000000
3405.417799,-518.144159,-7402.059420,1149.143247
3405.418127,-1406.391290,-7476.080014,1685.410096
3405.418455,-666.185348,-10362.883188,459.657299
3405.418782,-1406.391290,-8586.388927,459.657299
3405.419110,-1480.411884,-7402.059420,-766.095498
3405.419437,-518.144159,-9400.615463,-1608.800546
3405.419765,888.247130,-10658.965565,-2528.115143
3405.420092,0.000000,-10807.006753,-306.438199
3405.420420,-592.164754,-10140.821405,229.828649
3405.420748,814.226536,-9178.553681,-153.219100
3405.421075,1628.453072,-10658.965565,995.924147
3405.421403,148.041188,-11103.089130,995.924147
3405.421730,-592.164754,-9030.512492,1608.800546
3405.422058,-518.144159,-8142.265362,383.047749
3405.422386,814.226536,-9178.553681,-1608.800546
3405.422713,666.185348,-10881.027347,-1915.238745
3405.423041,1702.473667,-7994.224174,-1225.752797
3405.423368,1776.494261,-9030.512492,612.876398
3405.423696,0.000000,-11473.192101,2221.676944
3405.424023,-1110.308913,-12583.501014,612.876398
3405.424351,-1850.514855,-11251.130318,-1302.362347
3405.424679,-1702.473667,-7105.977043,-2604.724693
3405.425006,-888.247130,-7846.182985,-2145.067394
3405.425334,888.247130,-11769.274478,0.000000
3405.425661,962.267725,-10955.047942,766.095498
3405.425989,666.185348,-8438.347739,0.000000
3405.426316,-296.082377,-7254.018232,0.000000
3405.426644,-222.061783,-9252.574275,0.000000
3405.426972,740.205942,-10955.047942,995.924147
3405.427299,148.041188,-8956.491898,1685.410096
3405.427627,592.164754,-8438.347739,0.000000
3405.427954,2664.741391,-9474.636058,-306.438199
3405.428282,3849.070898,-10288.862594,-766.095498
3405.428609,1998.556043,-9992.780217,842.705048
3405.428937,814.226536,-9696.697840,1762.019645
3405.429265,1332.370696,-6439.791695,0.000000
3405.429592,2368.659014,-7476.080014,-919.314598
3405.429920,370.102971,-11769.274478,1378.971896
3405.430247,370.102971,-10955.047942,1762.019645
3405.430575,1480.411884,-10066.800811,0.000000
3405.430902,1924.535449,-10362.883188,-2681.334243
3405.431230,-592.164754,-11695.253884,-3983.696590
3405.431558,-1554.432478,-10362.883188,-3140.991542
3405.431885,-444.123565,-8216.285956,-612.876398
3405.432213,1628.453072,-10066.800811,1608.800546
3405.432540,1110.308913,-10955.047942,1762.019645
3405.432868,-518.144159,-8660.409521,2145.067394
3405.433195,-666.185348,-8882.471304,842.705048
3405.433523,1184.329507,-9770.718434,-1378.971896
3405.433851,1406.391290,-10658.965565,-2298.286494
3405.434178,-814.226536,-10510.924376,-919.314598
3405.434506,-1332.370696,-9622.677246,153.219100
3405.434833,-444.123565,-9992.780217,459.657299
3405.435161,814.226536,-10658.965565,229.828649
3405.435489,-1258.350101,-9326.594869,1072.533697
3405.435816,-2812.782580,-8142.265362,536.266849
3405.436144,-1924.535449,-6291.750507,-612.876398
3405.436471,-592.164754,-9178.553681,76.609550
3405.436799,-592.164754,-10362.883188,-689.485948
3405.437126,-592.164754,-9326.594869,-229.828649
3405.437454,-962.267725,-8660.409521,76.609550
3405.437782,518.144159,-11251.130318,153.219100
3405.438109,-370.102971,-12361.439231,0.000000
3405.438437,-814.226536,-9104.533087,383.047749
3405.438764,-1628.453072,-6513.812290,-306.438199
3405.439092,666.185348,-8438.347739,-383.047749
3405.439419,962.267725,-11547.212695,1072.533697
3405.439747,-296.082377,-11029.068536,1072.533697
3405.440075,-740.205942,-7105.977043,-459.657299
3405.440402,1332.370696,-7846.182985,-2451.505594
3405.440730,1998.556043,-11843.295072,-1762.019645
3405.441057,1998.556043,-11843.295072,1838.629195
3405.441385,222.061783,-8290.306550,2298.286494
3405.441712,1406.391290,-8660.409521,383.047749
3405.442040,2368.659014,-10955.047942,-2374.896044
3405.442368,74.020594,-11547.212695,-995.924147
3405.442695,-740.205942,-9030.512492,-766.095498
3405.443023,-2368.659014,-7328.038826,-995.924147
3405.443350,-2368.659014,-10510.924376,-689.485948
3405.443678,-444.123565,-11843.295072,-2681.334243
3405.444005,592.164754,-10807.006753,-842.705048
3405.444333,1850.514855,-9104.533087,229.828649
3405.444661,3552.988522,-10436.903782,842.705048
3405.444988,4219.173869,-12583.501014,459.657299
3405.445316,3330.926739,-10214.842000,-919.314598
3405.445643,0.000000,-6883.915261,-536.266849
3405.445971,0.000000,-8438.347739,689.485948
3405.446298,1628.453072,-11325.150913,-536.266849
3405.446626,2220.617826,-11769.274478,-306.438199
3405.446954,888.247130,-8586.388927,459.657299
3405.447281,1184.329507,-8216.285956,1072.533697
3405.447609,3108.864956,-12509.480420,1455.581446
3405.447936,2664.741391,-10955.047942,-383.047749
3405.448264,-370.102971,-7254.018232,-919.314598
3405.448592,-2146.597232,-7031.956449,0.000000
3405.448919,0.000000,-8512.368333,-995.924147
3405.449247,518.144159,-8808.450710,0.000000
3405.449574,-1332.370696,-9474.636058,1915.238745
3405.449902,-2442.679609,-8364.327145,459.657299
3405.450229,1184.329507,-8882.471304,-766.095498
3405.450557,2220.617826,-11621.233289,-1302.362347
3405.450885,1406.391290,-11621.233289,766.095498
3405.451212,518.144159,-8956.491898,766.095498
3405.451540,1184.329507,-9252.574275,766.095498
3405.451867,740.205942,-11325.150913,383.047749
3405.452195,1258.350101,-11991.336260,1685.410096
3405.452522,-1628.453072,-7994.224174,1915.238745
3405.452850,-1776.494261,-6809.894666,306.438199
3405.453178,-1110.308913,-9992.780217,-1838.629195
3405.453505,-1332.370696,-10732.986159,-1991.848295
3405.453833,-2146.597232,-9400.615463,-306.438199
3405.454160,-2368.659014,-8438.347739,0.000000
3405.454488,0.000000,-10881.027347,-1072.533697
3405.454815,1406.391290,-12583.501014,-1072.533697
3405.455143,1258.350101,-11695.253884,536.266849
3405.455471,0.000000,-9178.553681,153.219100
3405.455798,0.000000,-9622.677246,0.000000
3405.456126,444.123565,-10881.027347,-1149.143247
3405.456453,-740.205942,-11103.089130,0.000000
3405.456781,-2146.597232,-8660.409521,229.828649
3405.457108,-1998.556043,-7920.203579,-995.924147
3405.457436,-1332.370696,-10288.862594,-1149.143247
3405.457764,888.247130,-9622.677246,-1378.971896
3405.458091,1554.432478,-9474.636058,306.438199
3405.458419,962.267725,-9326.594869,1608.800546
3405.458746,2220.617826,-10288.862594,919.314598
3405.459074,1258.350101,-10732.986159,0.000000
3405.459401,518.144159,-9252.574275,-306.438199
3405.459729,-1554.432478,-6883.915261,383.047749
3405.460057,-1850.514855,-9178.553681,842.705048
3405.460384,-222.061783,-9548.656652,-1378.971896
3405.460712,148.041188,-10732.986159,-1532.190996
3405.461039,-1998.556043,-9622.677246,-689.485948
3405.461367,-1480.411884,-9400.615463,-1762.019645
3405.461695,444.123565,-9474.636058,-1608.800546
3405.462022,2220.617826,-10658.965565,-1455.581446
3405.462350,2294.638420,-11103.089130,612.876398
3405.462677,2442.679609,-9770.718434,2068.457845
3405.463005,4737.318029,-9326.594869,1149.143247
3405.463332,4663.297435,-9622.677246,536.266849
3405.463660,3034.844362,-9178.553681,766.095498
3405.463988,666.185348,-7476.080014,229.828649
3405.464315,888.247130,-7994.224174,-1072.533697
3405.464643,1036.288319,-9622.677246,-995.924147
3405.464970,1258.350101,-14211.954086,76.609550
3405.465298,2072.576638,-12213.398043,-306.438199
3405.465625,1184.329507,-9770.718434,-229.828649
3405.465953,0.000000,-10881.027347,-536.266849
3405.466281,0.000000,-9030.512492,-1685.410096
3405.466608,-518.144159,-7179.997637,-536.266849
3405.466936,-1850.514855,-5995.668130,0.000000
3405.467263,-814.226536,-9326.594869,459.657299
3405.467591,666.185348,-10214.842000,383.047749
3405.467918,1702.473667,-10140.821405,1225.752797
3405.468246,814.226536,-11843.295072,919.314598
3405.468574,1480.411884,-11029.068536,-919.314598
3405.468901,-518.144159,-9474.636058,-1149.143247
3405.469229,0.000000,-9326.594869,0.000000
3405.469556,0.000000,-9252.574275,229.828649
3405.469884,-666.185348,-7772.162391,1149.143247
3405.470211,-888.247130,-9030.512492,1608.800546
3405.470539,-1258.350101,-9992.780217,1149.143247
3405.470867,-1628.453072,-9178.553681,76.609550
3405.471194,-2442.679609,-6513.812290,-306.438199
3405.471522,-1702.473667,-8142.265362,-1225.752797
3405.471849,-1110.308913,-9918.759623,-1455.581446
3405.472177,0.000000,-10881.027347,-842.705048
3405.472504,592.164754,-10066.800811,0.000000
3405.472832,1258.350101,-11177.109724,0.000000
3405.473160,1258.350101,-11843.295072,0.000000
3405.473487,-1258.350101,-10066.800811,689.485948
3405.473815,-2146.597232,-8808.450710,919.314598
3405.474142,-1480.411884,-8068.244768,-1378.971896
3405.474470,-518.144159,-11029.068536,-1608.800546
3405.474798,-592.164754,-10732.986159,76.609550
3405.475125,666.185348,-8808.450710,383.047749
3405.475453,1628.453072,-8956.491898,459.657299
3405.475780,1776.494261,-11843.295072,-536.266849
3405.476108,148.041188,-9770.718434,-1225.752797
3405.476435,-1850.514855,-8660.409521,-153.219100
3405.476763,-370.102971,-9474.636058,-383.047749
3405.477091,1110.308913,-10288.862594,-306.438199
3405.477418,1924.535449,-11251.130318,0.000000
3405.477746,370.102971,-9992.780217,459.657299
3405.478073,0.000000,-7476.080014,76.609550
3405.478401,-666.185348,-9178.553681,-766.095498
3405.478728,-1850.514855,-10807.006753,-1762.019645
3405.479056,-1998.556043,-9326.594869,-1915.238745
3405.479384,-222.061783,-7994.224174,-995.924147
3405.479711,2590.720797,-10584.944971,919.314598
3405.480039,3627.009116,-11843.295072,1455.581446
3405.480366,4071.132681,-10288.862594,1225.752797
3405.480694,2590.720797,-8512.368333,1149.143247
3405.481021,2220.617826,-8068.244768,76.609550
3405.481349,2516.700203,-9104.533087,-1532.190996
3405.481677,370.102971,-8660.409521,612.876398
3405.482004,666.185348,-8586.388927,1762.019645
3405.482332,2146.597232,-10807.006753,2145.067394
3405.482659,4145.153275,-13915.871710,689.485948
3405.482987,3182.885551,-11843.295072,-1225.752797
3405.483314,-1924.535449,-7994.224174,-459.657299
3405.483642,-2220.617826,-6883.915261,-2298.286494
3405.483970,-814.226536,-8808.450710,-3600.648841
3405.484297,-2442.679609,-10732.986159,-1378.971896
3405.484625,-1554.432478,-9252.574275,1532.190996
3405.484952,370.102971,-8290.306550,1072.533697
3405.485280,3997.112087,-9400.615463,383.047749
3405.485607,3256.906145,-11843.295072,0.000000
3405.485935,1406.391290,-11399.171507,612.876398
3405.486263,888.247130,-8216.285956,-383.047749
3405.486590,1184.329507,-9326.594869,-1915.238745
3405.486918,0.000000,-11769.274478,-1225.752797
3405.487245,-1702.473667,-9474.636058,1225.752797
3405.487573,-2072.576638,-7994.224174,1685.410096
3405.487901,-1480.411884,-9474.636058,0.000000
3405.488228,-1036.288319,-11695.253884,-995.924147
3405.488556,-962.267725,-9622.677246,-459.657299
3405.488883,-1480.411884,-5921.647536,-383.047749
3405.489211,-370.102971,-7179.997637,-153.219100
3405.489538,222.061783,-10288.862594,-229.828649
3405.489866,888.247130,-12139.377449,0.000000
3405.490194,-1480.411884,-10510.924376,1608.800546
3405.490521,-222.061783,-9400.615463,0.000000
3405.490849,222.061783,-10214.842000,-612.876398
3405.491176,0.000000,-11325.150913,0.000000
3405.491504,-814.226536,-8882.471304,536.266849
3405.491831,-518.144159,-7994.224174,0.000000
3405.492159,-962.267725,-7846.182985,-1532.190996
3405.492487,518.144159,-10066.800811,-1378.971896
3405.492814,518.144159,-9474.636058,689.485948
3405.493142,444.123565,-9474.636058,1915.238745
3405.493469,74.020594,-9844.739029,1302.362347
3405.493797,962.267725,-9548.656652,-383.047749
3405.494124,370.102971,-9770.718434,0.000000
3405.494452,-814.226536,-8290.306550,-383.047749
3405.494780,-1184.329507,-7698.141797,-1455.581446
3405.495107,0.000000,-9400.615463,-2298.286494
3405.495435,222.061783,-11473.192101,-1991.848295
3405.495762,-1702.473667,-11843.295072,306.438199
3405.496090,-2146.597232,-10510.924376,689.485948
3405.496417,-518.144159,-9918.759623,-689.485948
3405.496745,1332.370696,-11251.130318,-1532.190996
3405.497072,1850.514855,-11177.109724,153.219100
3405.497400,1258.350101,-9400.615463,1838.629195
3405.497728,3256.906145,-7920.203579,76.609550
3405.498055,4219.173869,-9178.553681,-1378.971896
3405.498383,1480.411884,-10436.903782,-612.876398
3405.498710,-740.205942,-10140.821405,1225.752797
3405.499038,-1036.288319,-7994.224174,919.314598
3405.499365,1258.350101,-9844.739029,0.000000
3405.499693,3404.947333,-12805.562797,-536.266849
3405.500021,2886.803174,-12879.583391,1378.971896
3405.500348,2294.638420,-9104.533087,1072.533697
3405.500676,2220.617826,-8512.368333,-459.657299
3405.501003,-962.267725,-9474.636058,-1991.848295
3405.501331,-2812.782580,-8660.409521,-1915.238745
3405.501658,-3849.070898,-6661.853478,-459.657299
3405.501986,-2146.597232,-6957.935855,1072.533697
3405.502314,1406.391290,-10362.883188,1302.362347
3405.502641,2590.720797,-10807.006753,1225.752797
3405.502969,2220.617826,-10214.842000,1149.143247
3405.503296,1776.494261,-9622.677246,-459.657299
3405.503624,3034.844362,-9770.718434,-2911.162892
3405.503951,962.267725,-9252.574275,-1838.629195
3405.504279,-1036.288319,-9400.615463,842.705048
3405.504607,-1036.288319,-9030.512492,1838.629195
3405.504934,-148.041188,-9844.739029,2374.896044
3405.505262,814.226536,-12139.377449,612.876398
3405.505589,-296.082377,-11399.171507,-1072.533697
3405.505917,-2368.659014,-7624.121203,-1532.190996
3405.506244,-1480.411884,-6809.894666,-3217.601092
3405.506572,-888.247130,-9770.718434,-3370.820191
3405.506900,-296.082377,-10362.883188,-1532.190996
3405.507227,-518.144159,-9844.739029,383.047749
3405.507555,444.123565,-10881.027347,2145.067394
3405.507882,2220.617826,-12065.356855,76.609550
3405.508210,1036.288319,-10732.986159,842.705048
3405.508537,-740.205942,-9474.636058,229.828649
3405.508865,-1110.308913,-6809.894666,-1838.629195
3405.509193,74.020594,-9400.615463,-2451.505594
3405.509520,-296.082377,-11473.192101,-1838.629195
3405.509848,-666.185348,-10807.006753,-153.219100
3405.510175,-1036.288319,-8734.430116,919.314598
3405.510503,0.000000,-10066.800811,0.000000
3405.510830,0.000000,-11917.315666,-229.828649
3405.511158,0.000000,-9474.636058,229.828649
3405.511485,-592.164754,-7476.080014,689.485948
3405.511813,740.205942,-8364.327145,0.000000
3405.512141,1554.432478,-11103.089130,-1072.533697
3405.512468,-814.226536,-9474.636058,-612.876398
3405.512796,-2368.659014,-7476.080014,-766.095498
3405.513123,-3182.885551,-8142.265362,-842.705048
3405.513451,-2368.659014,-11177.109724,-995.924147
3405.513778,-296.082377,-11843.295072,-1072.533697
3405.514106,962.267725,-10140.821405,0.000000
3405.514434,2812.782580,-9992.780217,536.266849
3405.514761,4515.256246,-11325.150913,842.705048
3405.515089,3034.844362,-10584.944971,229.828649
3405.515416,814.226536,-7624.121203,0.000000
3405.515744,0.000000,-7105.977043,-536.266849
3405.516071,222.061783,-8364.327145,-612.876398
3405.516399,1406.391290,-10436.903782,229.828649
3405.516727,1850.514855,-10066.800811,2068.457845
3405.517054,2294.638420,-11325.150913,1378.971896
3405.517382,3404.947333,-11843.295072,-459.657299
3405.517709,3404.947333,-11325.150913,-2451.505594
3405.518037,592.164754,-8438.347739,-2145.067394
3405.518364,-1406.391290,-7846.182985,-1072.533697
3405.518692,-1184.329507,-8364.327145,-1378.971896
3405.519020,-518.144159,-9696.697840,612.876398
3405.519347,74.020594,-10510.924376,2757.943793
3405.519675,2294.638420,-9918.759623,2298.286494
3405.520002,2886.803174,-8660.409521,0.000000
3405.520330,2146.597232,-9992.780217,-1225.752797
3405.520657,1036.288319,-10658.965565,-1532.190996
3405.520985,-148.041188,-9326.594869,-383.047749
3405.521313,1036.288319,-8660.409521,-1072.533697
3405.521640,1036.288319,-9326.594869,536.266849
3405.521968,0.000000,-13027.624579,2451.505594
3405.522295,-740.205942,-10436.903782,2221.676944
3405.522623,-1036.288319,-8068.244768,1302.362347
3405.522950,0.000000,-8586.388927,-1149.143247
3405.523278,148.041188,-9696.697840,-1838.629195
3405.523606,-1554.432478,-8586.388927,842.705048
3405.523933,-1554.432478,-6883.915261,536.266849
3405.524261,-1332.370696,-8290.306550,-1455.581446
3405.524588,-888.247130,-11769.274478,-229.828649
3405.524916,-1776.494261,-11103.089130,459.657299
3405.525243,-1776.494261,-9918.759623,1302.362347
3405.525571,1554.432478,-9622.677246,-306.438199
3405.525899,2664.741391,-10881.027347,-1072.533697
3405.526226,74.020594,-9992.780217,-153.219100
3405.526554,-1776.494261,-7550.100608,1685.410096
3405.526881,-1036.288319,-8068.244768,-995.924147
3405.527209,-370.102971,-9400.615463,-766.095498
3405.527536,-370.102971,-10807.006753,-766.095498
3405.527864,-1480.411884,-10881.027347,612.876398
3405.528191,-592.164754,-9844.739029,919.314598
3405.528519,1850.514855,-10140.821405,-1149.143247
3405.528847,1924.535449,-11621.233289,-1532.190996
3405.529174,-1184.329507,-9770.718434,-995.924147
3405.529502,-370.102971,-8586.388927,-1072.533697
3405.529829,370.102971,-7624.121203,-612.876398
3405.530157,888.247130,-9918.759623,1762.019645
3405.530484,-592.164754,-12731.542202,3140.991542
3405.530812,-2738.761985,-11473.192101,1762.019645
3405.531140,-2072.576638,-9252.574275,-2528.115143
3405.531467,148.041188,-9104.533087,-4673.182538
3405.531795,-518.144159,-8956.491898,-2834.553343
3405.532122,-1110.308913,-8438.347739,842.705048
3405.532450,814.226536,-9770.718434,689.485948
3405.532777,3256.906145,-10732.986159,229.828649
3405.533105,3701.029710,-11991.336260,0.000000
3405.533433,1776.494261,-9178.553681,1685.410096
3405.533760,1110.308913,-6883.915261,1455.581446
3405.534088,1406.391290,-7772.162391,306.438199
3405.534415,2812.782580,-11547.212695,76.609550
3405.534743,2442.679609,-9178.553681,306.438199
3405.535070,3034.844362,-7994.224174,0.000000
3405.535398,2812.782580,-9178.553681,459.657299
3405.535726,2072.576638,-11843.295072,1149.143247
3405.536053,962.267725,-10066.800811,-1225.752797
3405.536381,-740.205942,-8142.265362,-1608.800546
3405.536708,-1480.411884,-8808.450710,-919.314598
3405.537036,1258.350101,-10214.842000,-306.438199
3405.537363,2886.803174,-10881.027347,842.705048
3405.537691,1998.556043,-9474.636058,766.095498
3405.538019,222.061783,-8956.491898,-383.047749
3405.538346,0.000000,-7772.162391,-919.314598
3405.538674,962.267725,-9918.759623,-689.485948
3405.539001,-518.144159,-10214.842000,0.000000
3405.539329,-962.267725,-10807.006753,1225.752797
3405.539656,0.000000,-10362.883188,76.609550
3405.539984,2442.679609,-11547.212695,-1838.629195
3405.540312,814.226536,-9992.780217,-995.924147
3405.540639,-518.144159,-9252.574275,383.047749
3405.540967,-1480.411884,-8512.368333,689.485948
3405.541294,-888.247130,-8364.327145,-689.485948
3405.541622,-592.164754,-10288.862594,-612.876398
3405.541949,-1110.308913,-9770.718434,1072.533697
3405.542277,-962.267725,-10881.027347,919.314598
3405.542604,370.102971,-9918.759623,-842.705048
3405.542932,-148.041188,-10214.842000,-2451.505594
3405.543260,-1406.391290,-10362.883188,-1302.362347
3405.543587,-2664.741391,-8438.347739,-612.876398
3405.543915,-1776.494261,-7328.038826,-612.876398
3405.544242,518.144159,-10362.883188,-306.438199
3405.544570,1480.411884,-10955.047942,0.000000
3405.544897,-666.185348,-8734.430116,2374.896044
3405.545225,-1332.370696,-8216.285956,995.924147
3405.545553,0.000000,-10066.800811,-842.705048
3405.545880,518.144159,-10066.800811,-2298.286494
3405.546208,0.000000,-8956.491898,-1608.800546
3405.546535,-1110.308913,-8586.388927,0.000000
3405.546863,148.041188,-9918.759623,306.438199
3405.547190,1702.473667,-12361.439231,-842.705048
3405.547518,222.061783,-10584.944971,689.485948
3405.547846,-1406.391290,-9992.780217,459.657299
3405.548173,148.041188,-9548.656652,-1608.800546
3405.548501,1776.494261,-9622.677246,-2451.505594
3405.548828,888.247130,-9030.512492,-459.657299
3405.549156,-518.144159,-8882.471304,1532.190996
3405.549483,-296.082377,-8660.409521,2987.772442
3405.549811,1406.391290,-10288.862594,-459.657299
3405.550139,1036.288319,-9918.759623,-2221.676944
3405.550466,-2146.597232,-8882.471304,-995.924147
3405.550794,-1036.288319,-8882.471304,-1762.019645
3405.551121,2664.741391,-11843.295072,-1608.800546
3405.551449,3701.029710,-12583.501014,-383.047749
3405.551776,2960.823768,-10955.047942,1838.629195
3405.552104,2294.638420,-9104.533087,2298.286494
3405.552432,4885.359217,-9400.615463,1455.581446
3405.552759,4367.215058,-9622.677246,0.000000
3405.553087,296.082377,-8734.430116,1991.848295
3405.553414,-1480.411884,-6809.894666,919.314598
3405.553742,0.000000,-7402.059420,-1532.190996
3405.554069,2294.638420,-12361.439231,-2145.067394
3405.554397,2590.720797,-12805.562797,-1455.581446
3405.554725,1480.411884,-10436.903782,995.924147
3405.555052,1184.329507,-8068.244768,0.000000
3405.555380,1110.308913,-10807.006753,-1149.143247
3405.555707,0.000000,-10362.883188,-689.485948
3405.556035,-592.164754,-8512.368333,536.266849
3405.556362,222.061783,-7772.162391,383.047749
3405.556690,1110.308913,-10658.965565,383.047749
3405.557017,0.000000,-9992.780217,0.000000
3405.557345,-962.267725,-9178.553681,919.314598
3405.557673,0.000000,-8956.491898,153.219100
3405.558000,1258.350101,-9844.739029,-689.485948
3405.558328,592.164754,-10066.800811,-766.095498
3405.558655,0.000000,-7698.141797,-306.438199
3405.558983,-1110.308913,-9992.780217,153.219100
3405.559310,-888.247130,-10807.006753,76.609550
3405.559638,-222.061783,-10732.986159,-383.047749
3405.559966,-1258.350101,-9326.594869,-689.485948
3405.560293,-1184.329507,-9844.739029,-766.095498
3405.560621,-814.226536,-9474.636058,-612.876398
3405.560948,296.082377,-9918.759623,0.000000
3405.561276,-814.226536,-9992.780217,306.438199
3405.561603,-1554.432478,-9030.512492,383.047749
3405.561931,-1406.391290,-8586.388927,-1149.143247
3405.562259,-1110.308913,-11103.089130,-1072.533697
3405.562586,-814.226536,-9622.677246,-1149.143247
3405.562914,-814.226536,-8734.430116,306.438199
3405.563241,-1776.494261,-8364.327145,689.485948
3405.563569,1480.411884,-9326.594869,76.609550
3405.563896,592.164754,-10732.986159,229.828649
3405.564224,-444.123565,-9918.759623,1455.581446
3405.564552,888.247130,-9548.656652,-919.314598
3405.564879,1184.329507,-9918.759623,-1378.971896
3405.565207,0.000000,-12509.480420,76.609550
3405.565534,-962.267725,-11325.150913,-1149.143247
3405.565862,-888.247130,-7994.224174,-2068.457845
3405.566189,0.000000,-8808.450710,-1302.362347
3405.566517,370.102971,-10362.883188,383.047749
3405.566845,0.000000,-9770.718434,2221.676944
3405.567172,222.061783,-8512.368333,1225.752797
3405.567500,814.226536,-8512.368333,-2145.067394
3405.567827,-370.102971,-9474.636058,-2451.505594
3405.568155,-1110.308913,-9844.739029,-1838.629195
3405.568482,222.061783,-8882.471304,-1149.143247
3405.568810,1628.453072,-9178.553681,-995.924147
3405.569138,3182.885551,-11547.212695,766.095498
3405.569465,4367.215058,-12065.356855,1762.019645
3405.569793,4219.173869,-10066.800811,2221.676944
3405.570120,2886.803174,-8808.450710,1149.143247
3405.570448,3182.885551,-7550.100608,0.000000
3405.570775,2368.659014,-8364.327145,-995.924147
3405.571103,0.000000,-8512.368333,-689.485948
3405.571431,-518.144159,-8956.491898,229.828649
3405.571758,962.267725,-10214.842000,919.314598
3405.572086,4737.318029,-12731.542202,76.609550
3405.572413,3330.926739,-11621.233289,-306.438199
3405.572741,518.144159,-10066.800811,-842.705048
3405.573068,-444.123565,-9178.553681,-1762.019645
3405.573396,666.185348,-9474.636058,-2451.505594
3405.573723,666.185348,-10214.842000,-1915.238745
3405.574051,-962.267725,-9178.553681,153.219100
3405.574379,-2146.597232,-8734.430116,2757.943793
3405.574706,1776.494261,-8660.409521,766.095498
3405.575034,2664.741391,-11843.295072,919.314598
3405.575361,1184.329507,-10732.986159,1302.362347
3405.575689,-592.164754,-7920.203579,1072.533697
3405.576016,-666.185348,-7105.977043,-689.485948
3405.576344,74.020594,-10362.883188,-1991.848295
3405.576672,-740.205942,-11843.295072,-919.314598
3405.576999,-2664.741391,-9030.512492,0.000000
3405.577327,-2960.823768,-7772.162391,-612.876398
3405.577654,222.061783,-11547.212695,-306.438199
3405.577982,740.205942,-12139.377449,0.000000
3405.578309,-814.226536,-9030.512492,1302.362347
3405.578637,-1332.370696,-8290.306550,459.657299
3405.578965,-222.061783,-8734.430116,-1149.143247
3405.579292,148.041188,-10584.944971,-1378.971896
3405.579620,-1628.453072,-8956.491898,0.000000
3405.579947,-2886.803174,-7994.224174,76.609550
3405.580275,-1258.350101,-8512.368333,-229.828649
3405.580602,666.185348,-10658.965565,-1302.362347
3405.580930,-814.226536,-9696.697840,76.609550
3405.581258,-1702.473667,-9548.656652,153.219100
3405.581585,-1332.370696,-9770.718434,-1072.533697
3405.581913,1258.350101,-11769.274478,-1915.238745
3405.582240,814.226536,-11029.068536,-1685.410096
3405.582568,-1628.453072,-9844.739029,612.876398
3405.582895,-2072.576638,-10732.986159,842.705048
3405.583223,962.267725,-11325.150913,-1149.143247
3405.583551,2146.597232,-10066.800811,-2834.553343
3405.583878,-1036.288319,-7476.080014,919.314598
3405.584206,-1036.288319,-9030.512492,2298.286494
3405.584533,-296.082377,-8956.491898,995.924147
3405.584861,1036.288319,-10214.842000,-1991.848295
3405.585188,-962.267725,-9400.615463,-2451.505594
3405.585516,-3256.906145,-8586.388927,-995.924147
3405.585844,-1998.556043,-7179.997637,-1149.143247
3405.586171,1702.473667,-10436.903782,-919.314598
3405.586499,2220.617826,-11103.089130,306.438199
3405.586826,2812.782580,-11325.150913,2987.772442
3405.587154,4441.235652,-9770.718434,2298.286494
3405.587481,6365.771101,-10436.903782,536.266849
3405.587809,4885.359217,-8808.450710,-1072.533697
3405.588136,1776.494261,-7105.977043,1072.533697
3405.588464,-962.267725,-6291.750507,689.485948
3405.588792,888.247130,-9252.574275,0.000000
3405.589119,2812.782580,-10955.047942,-689.485948
3405.589447,2960.823768,-11547.212695,766.095498
3405.589774,3034.844362,-12953.603985,536.266849
3405.590102,3775.050304,-10436.903782,-919.314598
3405.590429,3182.885551,-10362.883188,-1532.190996
3405.590757,0.000000,-8882.471304,-1455.581446
3405.591085,-2516.700203,-7105.977043,-306.438199
3405.591412,-2442.679609,-7179.997637,-919.314598
3405.591740,222.061783,-10732.986159,153.219100
3405.592067,370.102971,-10436.903782,306.438199
3405.592395,444.123565,-10140.821405,1302.362347
3405.592722,1184.329507,-10214.842000,459.657299
3405.593050,3775.050304,-9844.739029,-919.314598
3405.593378,2738.761985,-9400.615463,-766.095498
3405.593705,0.000000,-9104.533087,766.095498
3405.594033,-592.164754,-8068.244768,76.609550
3405.594360,0.000000,-9770.718434,0.000000
3405.594688,-222.061783,-11843.295072,76.609550
3405.595016,-1184.329507,-9918.759623,995.924147
3405.595343,-2072.576638,-9918.759623,1072.533697
3405.595671,-1480.411884,-9030.512492,-1225.752797
3405.595998,-1036.288319,-11621.233289,-2834.553343
3405.596326,-2146.597232,-9326.594869,-2451.505594
3405.596653,-2960.823768,-8290.306550,536.266849
3405.596981,-2368.659014,-7105.977043,612.876398
3405.597309,518.144159,-10140.821405,842.705048
3405.597636,-148.041188,-10510.924376,1685.410096
3405.597964,-222.061783,-9104.533087,1455.581446
3405.598291,-518.144159,-8216.285956,306.438199
3405.598619,-370.102971,-9400.615463,-842.705048
3405.598947,-1702.473667,-9696.697840,-1455.581446
3405.599274,-2072.576638,-9696.697840,-919.314598
3405.599602,0.000000,-9400.615463,-1838.629195
3405.599929,444.123565,-10140.821405,-995.924147
3405.600257,0.000000,-13619.789333,919.314598
3405.600585,-962.267725,-12139.377449,1532.190996
3405.600912,1332.370696,-10214.842000,-2068.457845
3405.601240,148.041188,-6513.812290,-2451.505594
3405.601567,-370.102971,-9400.615463,0.000000
3405.601895,-1184.329507,-9770.718434,2451.505594
3405.602222,-1258.350101,-9030.512492,1532.190996
3405.602550,-370.102971,-8734.430116,-2068.457845
3405.602878,-740.205942,-9770.718434,-2987.772442
3405.603205,-2220.617826,-9918.759623,-2221.676944
3405.603533,-962.267725,-9252.574275,-1072.533697
3405.603860,1628.453072,-9178.553681,-1915.238745
3405.604188,3182.885551,-11695.253884,1225.752797
3405.604516,5329.482782,-13323.706956,1762.019645
3405.604843,4367.215058,-9548.656652,2987.772442
3405.605171,4589.276840,-7476.080014,1532.190996
3405.605498,2812.782580,-7994.224174,995.924147
3405.605826,1628.453072,-9030.512492,919.314598
3405.606153,1406.391290,-6291.750507,-229.828649
3405.606481,1258.350101,-7772.162391,-612.876398
3405.606809,1332.370696,-11621.233289,-612.876398
3405.607136,2738.761985,-15914.427753,0.000000
3405.607464,1628.453072,-12139.377449,-1149.143247
3405.607791,888.247130,-7402.059420,-2374.896044
3405.608119,-740.205942,-7031.956449,-1608.800546
3405.608447,-148.041188,-10362.883188,306.438199
3405.608774,444.123565,-9992.780217,689.485948
3405.609102,74.020594,-9104.533087,1685.410096
3405.609429,-1184.329507,-7846.182985,1685.410096
3405.609757,222.061783,-8512.368333,76.609550
3405.610084,370.102971,-10066.800811,-842.705048
3405.610412,518.144159,-9770.718434,-153.219100
3405.610740,1406.391290,-10066.800811,0.000000
3405.611067,3627.009116,-10066.800811,-459.657299
3405.611395,3256.906145,-10955.047942,-229.828649
3405.611722,1184.329507,-11473.192101,1378.971896
3405.612050,-1480.411884,-9030.512492,1608.800546
3405.612378,-1850.514855,-8216.285956,-383.047749
3405.612705,0.000000,-10732.986159,-2374.896044
3405.613033,-1702.473667,-10066.800811,-1915.238745
3405.613360,-2664.741391,-10066.800811,0.000000
3405.613688,-1702.473667,-8808.450710,-842.705048
3405.614015,-222.061783,-10807.006753,-1685.410096
3405.614343,-1184.329507,-10436.903782,-1608.800546
3405.614671,-2516.700203,-8808.450710,536.266849
3405.614998,-1110.308913,-9030.512492,153.219100
3405.615326,1406.391290,-9844.739029,-995.924147
3405.615653,1406.391290,-11103.089130,-842.705048
3405.615981,-962.267725,-9252.574275,919.314598
3405.616309,-1850.514855,-7846.182985,689.485948
3405.616636,-1332.370696,-8512.368333,-306.438199
3405.616964,-222.061783,-11325.150913,-1302.362347
3405.617291,0.000000,-10288.862594,-1378.971896
3405.617619,0.000000,-10066.800811,-229.828649
3405.617946,666.185348,-11029.068536,612.876398
3405.618274,1554.432478,-11473.192101,0.000000
3405.618602,-1184.329507,-9696.697840,76.609550
3405.618929,-3701.029710,-8364.327145,612.876398
3405.619257,-2812.782580,-6439.791695,-1915.238745
3405.619584,-370.102971,-7994.224174,-1685.410096
3405.619912,370.102971,-10362.883188,-612.876398
3405.620240,0.000000,-10066.800811,1149.143247
3405.620567,-740.205942,-9474.636058,459.657299
3405.620895,740.205942,-10066.800811,-1915.238745
3405.621222,1110.308913,-12213.398043,-3524.039291
3405.621550,0.000000,-10288.862594,-1455.581446
3405.621877,666.185348,-9548.656652,842.705048
3405.622205,3034.844362,-9548.656652,1455.581446
3405.622533,4663.297435,-11029.068536,1455.581446
3405.622860,3775.050304,-10066.800811,2911.162892
3405.623188,1998.556043,-8364.327145,2528.115143
3405.623515,1406.391290,-7254.018232,0.000000
3405.623843,2442.679609,-8956.491898,-919.314598
3405.624171,2294.638420,-8956.491898,0.000000
3405.624498,1332.370696,-9992.780217,1378.971896
3405.624826,888.247130,-11473.192101,1225.752797
3405.625153,1776.494261,-11473.192101,-1225.752797
3405.625481,444.123565,-11103.089130,-2068.457845
3405.625809,-1110.308913,-10658.965565,-1991.848295
3405.626136,-1036.288319,-8586.388927,-2145.067394
3405.626464,222.061783,-9474.636058,-1149.143247
3405.626791,740.205942,-11769.274478,689.485948
3405.627119,-296.082377,-9030.512492,2221.676944
3405.627446,-814.226536,-6365.771101,2068.457845
3405.627774,444.123565,-7698.141797,1225.752797
3405.628102,1776.494261,-10436.903782,459.657299
3405.628429,1554.432478,-9326.594869,-229.828649
3405.628757,740.205942,-8512.368333,76.609550
3405.629084,1406.391290,-9622.677246,306.438199
3405.629412,3256.906145,-10732.986159,-766.095498
3405.629740,592.164754,-10881.027347,-459.657299
3405.630067,-1776.494261,-10214.842000,919.314598
3405.630395,-1702.473667,-9474.636058,-1378.971896
3405.630722,-814.226536,-9030.512492,-1455.581446
3405.631050,74.020594,-10214.842000,-459.657299
3405.631377,-962.267725,-9770.718434,1225.752797
3405.631705,-1036.288319,-9178.553681,1149.143247
3405.632033,222.061783,-8956.491898,-1685.410096
3405.632360,962.267725,-10288.862594,-3064.381992
3405.632688,-1184.329507,-9104.533087,-1149.143247
3405.633015,-1702.473667,-7402.059420,919.314598
3405.633343,-666.185348,-8290.306550,766.095498
3405.633671,74.020594,-11325.150913,1225.752797
3405.633998,592.164754,-11769.274478,536.266849
3405.634326,0.000000,-8586.388927,153.219100
3405.634653,444.123565,-9030.512492,-1532.190996
3405.634981,2442.679609,-11325.150913,-1378.971896
3405.635308,1332.370696,-12953.603985,0.000000
3405.635636,-370.102971,-9548.656652,766.095498
3405.635964,-1332.370696,-7328.038826,306.438199
3405.636291,-2442.679609,-9548.656652,1072.533697
3405.636619,-2294.638420,-11769.274478,1532.190996
3405.636946,-1702.473667,-8586.388927,0.000000
3405.637274,-2146.597232,-8068.244768,-1915.238745
3405.637602,-888.247130,-9178.553681,-3370.820191
3405.637929,-370.102971,-10955.047942,-2068.457845
3405.638257,-1110.308913,-9400.615463,-229.828649
3405.638584,-370.102971,-9104.533087,919.314598
3405.638912,370.102971,-9474.636058,-689.485948
3405.639239,1998.556043,-11843.295072,459.657299
3405.639567,2812.782580,-11547.212695,1762.019645
3405.639895,2072.576638,-8142.265362,2068.457845
3405.640222,1258.350101,-7476.080014,1149.143247
3405.640550,1480.411884,-9548.656652,0.000000
3405.640877,1258.350101,-10140.821405,-1991.848295
3405.641205,-740.205942,-7476.080014,-1455.581446
3405.641533,-222.061783,-7772.162391,383.047749
3405.641860,2516.700203,-9622.677246,842.705048
3405.642188,4441.235652,-13323.706956,2374.896044
3405.642515,2664.741391,-11399.171507,1915.238745
3405.642843,-296.082377,-8734.430116,229.828649
3405.643170,-296.082377,-8882.471304,-3294.210641
3405.643498,962.267725,-9992.780217,-5286.058936
3405.643826,-888.247130,-9474.636058,-3753.867940
3405.644153,-2368.659014,-9252.574275,76.609550
3405.644481,-1554.432478,-9474.636058,919.314598
3405.644808,1110.308913,-11251.130318,1455.581446
3405.645136,2294.638420,-11399.171507,536.266849
3405.645464,2146.597232,-9844.739029,612.876398
3405.645791,1258.350101,-8364.327145,306.438199
3405.646119,1702.473667,-8290.306550,-689.485948
3405.646446,1184.329507,-10436.903782,-1149.143247
3405.646774,666.185348,-8734.430116,0.000000
3405.647101,-518.144159,-8068.244768,842.705048
3405.647429,-666.185348,-9992.780217,919.314598
3405.647757,-296.082377,-12361.439231,689.485948
3405.648084,-962.267725,-9918.759623,-1149.143247
3405.648412,-1110.308913,-9252.574275,-1225.752797
3405.648739,-962.267725,-9548.656652,-1302.362347
3405.649067,666.185348,-10362.883188,-536.266849
3405.649395,0.000000,-9030.512492,-306.438199
3405.649722,-1258.350101,-9400.615463,459.657299
3405.650050,-1110.308913,-8364.327145,-383.047749
3405.650377,-148.041188,-8142.265362,-306.438199
3405.650705,296.082377,-10066.800811,1608.800546
3405.651033,-666.185348,-8660.409521,2374.896044
3405.651360,-740.205942,-8586.388927,1072.533697
3405.651688,666.185348,-9548.656652,-1608.800546
3405.652015,1110.308913,-11029.068536,-3064.381992
3405.652343,-444.123565,-9326.594869,-1685.410096
3405.652670,-888.247130,-9326.594869,229.828649
3405.652998,666.185348,-9770.718434,0.000000
3405.653326,2812.782580,-11547.212695,612.876398
3405.653653,296.082377,-9844.739029,2604.724693
3405.653981,-1776.494261,-10066.800811,3677.258390
3405.654308,-888.247130,-8512.368333,-459.657299
3405.654636,74.020594,-8438.347739,-4290.134789
3405.654964,-1258.350101,-8660.409521,-4903.011187
3405.655291,-3552.988522,-8512.368333,-1455.581446
3405.655619,-2294.638420,-9918.759623,-383.047749
3405.655946,1776.494261,-11103.089130,-689.485948
3405.656274,3627.009116,-12953.603985,-1225.752797
3405.656601,2590.720797,-12879.583391,1991.848295
3405.656929,2738.761985,-9992.780217,2451.505594
3405.657257,3478.967927,-8364.327145,536.266849
3405.657584,3256.906145,-8216.285956,-1455.581446
3405.657912,-592.164754,-7550.100608,306.438199
3405.658239,-1406.391290,-8660.409521,1225.752797
3405.658567,666.185348,-8068.244768,-306.438199
3405.658895,2442.679609,-11251.130318,-459.657299
3405.659222,2368.659014,-13397.727550,1149.143247
3405.659550,2220.617826,-11621.233289,1685.410096
3405.659877,2516.700203,-6735.874072,76.609550
3405.660205,1480.411884,-8586.388927,-995.924147
3405.660532,-2368.659014,-10807.006753,-1225.752797
3405.660860,-2664.741391,-8512.368333,-1455.581446
3405.661188,-1110.308913,-6217.729913,-1838.629195
3405.661515,814.226536,-9400.615463,-536.266849
3405.661843,148.041188,-12139.377449,1455.581446
3405.662170,74.020594,-9918.759623,3294.210641
3405.662498,2220.617826,-8586.388927,306.438199
3405.662826,2812.782580,-9992.780217,-1455.581446
3405.663153,1036.288319,-10288.862594,-1072.533697
3405.663481,-1110.308913,-7402.059420,459.657299
3405.663808,-148.041188,-7476.080014,0.000000
3405.664136,370.102971,-11103.089130,0.000000
3405.664463,1480.411884,-12509.480420,1762.019645
3405.664791,592.164754,-9030.512492,689.485948
3405.665119,-666.185348,-9400.615463,612.876398
3405.665446,-370.102971,-10732.986159,-1762.019645
3405.665774,-148.041188,-11103.089130,-2374.896044
3405.666101,-1998.556043,-8438.347739,-1991.848295
3405.666429,-3034.844362,-7624.121203,-536.266849
3405.666757,-3256.906145,-10214.842000,-612.876398
3405.667084,0.000000,-11399.171507,-766.095498
3405.667412,666.185348,-11325.150913,-842.705048
3405.667739,1036.288319,-10510.924376,-383.047749
3405.668067,0.000000,-8882.471304,612.876398
3405.668394,740.205942,-9030.512492,842.705048
3405.668722,666.185348,-7846.182985,-306.438199
3405.669050,-1258.350101,-7550.100608,-153.219100
3405.669377,-1110.308913,-8290.306550,-842.705048
3405.669705,-296.082377,-10066.800811,-1225.752797
3405.670032,1036.288319,-12139.377449,-612.876398
3405.670360,1332.370696,-12139.377449,0.000000
3405.670688,444.123565,-9770.718434,766.095498
3405.671015,888.247130,-7846.182985,919.314598
3405.671343,148.041188,-8290.306550,-229.828649
3405.671670,-1480.411884,-9326.594869,536.266849
3405.671998,-1628.453072,-7994.224174,-306.438199
3405.672325,-1702.473667,-7698.141797,-1838.629195
3405.672653,-444.123565,-9844.739029,-1915.238745
3405.672981,-370.102971,-11029.068536,0.000000
3405.673308,-962.267725,-9548.656652,1685.410096
3405.673636,0.000000,-9696.697840,-1302.362347
3405.673963,2886.803174,-10658.965565,-3294.210641
3405.674291,3330.926739,-11769.274478,-1991.848295
3405.674619,2960.823768,-9400.615463,842.705048
3405.674946,2368.659014,-8660.409521,2145.067394
3405.675274,2516.700203,-9918.759623,2451.505594
3405.675601,2590.720797,-10362.883188,1072.533697
3405.675929,1184.329507,-9696.697840,0.000000
3405.676257,666.185348,-8660.409521,-1685.410096
3405.676584,1998.556043,-9918.759623,-1225.752797
3405.676912,2664.741391,-12287.418637,-1532.190996
3405.677239,1850.514855,-11103.089130,-536.266849
3405.677567,1628.453072,-9622.677246,-1378.971896
3405.677894,1184.329507,-8734.430116,-689.485948
3405.678222,0.000000,-11029.068536,-1302.362347
3405.678550,0.000000,-9992.780217,-842.705048
3405.678877,666.185348,-8734.430116,-536.266849
3405.679205,-888.247130,-8660.409521,229.828649
3405.679532,962.267725,-9178.553681,0.000000
3405.679860,1110.308913,-9992.780217,1149.143247
3405.680188,1480.411884,-10362.883188,1915.238745
3405.680515,1258.350101,-9474.636058,536.266849
3405.680843,-222.061783,-8734.430116,0.000000
3405.681170,-222.061783,-9474.636058,-689.485948
3405.681498,0.000000,-11103.089130,-612.876398
3405.681825,-1110.308913,-10214.842000,1302.362347
3405.682153,-814.226536,-8364.327145,459.657299
3405.682481,296.082377,-9030.512492,-766.095498
3405.682808,-518.144159,-9844.739029,0.000000
3405.683136,-962.267725,-9252.574275,0.000000
3405.683463,-1702.473667,-8734.430116,0.000000
3405.683791,-1406.391290,-8586.388927,0.000000
3405.684119,-222.061783,-9474.636058,-383.047749
3405.684446,-1480.411884,-9918.759623,919.314598
3405.684774,-1554.432478,-9992.780217,76.609550
3405.685101,296.082377,-10140.821405,-1302.362347
3405.685429,888.247130,-11621.233289,-2068.457845
3405.685756,-1480.411884,-9474.636058,-1225.752797
3405.686084,-1850.514855,-8216.285956,306.438199
3405.686412,-888.247130,-8586.388927,0.000000
3405.686739,1554.432478,-11843.295072,0.000000
3405.687067,1554.432478,-12065.356855,-689.485948
3405.687394,-148.041188,-9918.759623,536.266849
3405.687722,222.061783,-8364.327145,0.000000
3405.688050,1406.391290,-9696.697840,-1225.752797
3405.688377,592.164754,-11399.171507,-306.438199
3405.688705,-814.226536,-9252.574275,0.000000
3405.689032,-1480.411884,-8068.244768,-689.485948
3405.689360,-148.041188,-8438.347739,-689.485948
3405.689687,740.205942,-11473.192101,-689.485948
3405.690015,0.000000,-10214.842000,0.000000
3405.690343,-1184.329507,-9252.574275,459.657299
3405.690670,-962.267725,-8438.347739,-1608.800546
3405.690998,222.061783,-11547.212695,-2068.457845
3405.691325,888.247130,-10140.821405,-1915.238745
3405.691653,1702.473667,-8068.244768,689.485948
3405.691981,1702.473667,-8512.368333,1455.581446
3405.692308,3330.926739,-11325.150913,2221.676944
3405.692636,3108.864956,-10955.047942,842.705048
3405.692963,740.205942,-8364.327145,306.438199
3405.693291,0.000000,-8068.244768,-612.876398
3405.693618,1036.288319,-8956.491898,-1455.581446
3405.693946,2294.638420,-9918.759623,0.000000
3405.694274,1850.514855,-9178.553681,-229.828649
3405.694602,888.247130,-10732.986159,1149.143247
3405.694929,2590.720797,-9992.780217,459.657299
3405.695257,4885.359217,-10214.842000,-919.314598
3405.695585,888.247130,-9326.594869,-229.828649
3405.695912,-2072.576638,-8956.491898,995.924147
3405.696240,-666.185348,-7105.977043,-1608.800546
3405.696568,666.185348,-8586.388927,-2834.553343
3405.696896,-666.185348,-10807.006753,-536.266849
3405.697223,-592.164754,-9918.759623,1072.533697
3405.697551,1036.288319,-9030.512492,1072.533697
3405.697879,4071.132681,-11325.150913,459.657299
3405.698206,3034.844362,-11991.336260,-229.828649
3405.698534,296.082377,-8660.409521,766.095498
3405.698862,0.000000,-6661.853478,1149.143247
3405.699189,1406.391290,-9252.574275,-383.047749
3405.699517,-444.123565,-13323.706956,-536.266849
3405.699845,-2146.597232,-9696.697840,-229.828649
3405.700173,-2590.720797,-7105.977043,-1532.190996
3405.700500,-1924.535449,-9992.780217,-1685.410096
3405.700828,592.164754,-13693.809927,-612.876398
3405.701156,-666.185348,-10066.800811,689.485948
3405.701483,-1480.411884,-8142.265362,1302.362347
3405.701811,-740.205942,-9252.574275,-1225.752797
3405.702139,592.164754,-11399.171507,-1149.143247
3405.702467,222.061783,-9548.656652,0.000000
3405.702794,-1036.288319,-8216.285956,612.876398
3405.703122,-1258.350101,-8068.244768,76.609550
3405.703450,0.000000,-8660.409521,0.000000
3405.703777,370.102971,-9918.759623,-306.438199
3405.704105,-1480.411884,-9548.656652,536.266849
3405.704433,-1258.350101,-10214.842000,-306.438199
3405.704760,148.041188,-9696.697840,-2298.286494
3405.705088,592.164754,-11325.150913,-1608.800546
3405.705416,-296.082377,-9400.615463,-153.219100
3405.705744,-370.102971,-8660.409521,229.828649
3405.706071,-666.185348,-7994.224174,1455.581446
3405.706399,2146.597232,-11103.089130,-536.266849
3405.706727,444.123565,-8660.409521,-306.438199
3405.707054,-1184.329507,-8438.347739,1455.581446
3405.707382,-444.123565,-8808.450710,-1225.752797
3405.707710,-666.185348,-11325.150913,-536.266849
3405.708037,-2368.659014,-11991.336260,-1838.629195
3405.708365,-1480.411884,-9252.574275,-2451.505594
3405.708693,-1850.514855,-8808.450710,-2528.115143
3405.709021,1036.288319,-10066.800811,-1608.800546
3405.709348,3849.070898,-11843.295072,0.000000
3405.709676,3478.967927,-11103.089130,3217.601092
3405.710004,4071.132681,-9326.594869,2681.334243
3405.710331,3182.885551,-9104.533087,0.000000
3405.710659,1406.391290,-9622.677246,-1455.581446
3405.710987,74.020594,-8734.430116,-1225.752797
3405.711315,0.000000,-8882.471304,-1302.362347
3405.711642,370.102971,-8438.347739,-995.924147
3405.711970,2664.741391,-11843.295072,0.000000
3405.712298,2590.720797,-12509.480420,1225.752797
3405.712625,3256.906145,-11917.315666,1455.581446
3405.712953,2886.803174,-9178.553681,-919.314598
3405.713281,666.185348,-7772.162391,-766.095498
3405.713608,-444.123565,-8290.306550,-842.705048
3405.713936,-1554.432478,-8734.430116,0.000000
3405.714264,-2368.659014,-8956.491898,536.266849
3405.714592,666.185348,-9548.656652,76.609550
3405.714919,2368.659014,-10214.842000,76.609550
3405.715247,518.144159,-9326.594869,1685.410096
3405.715575,74.020594,-9030.512492,536.266849
3405.715902,814.226536,-9844.739029,-1149.143247
3405.716230,2294.638420,-10362.883188,-1225.752797
3405.716558,2368.659014,-9474.636058,-689.485948
3405.716886,-148.041188,-8660.409521,1225.752797
3405.717213,-1258.350101,-7994.224174,3983.696590
3405.717541,666.185348,-9770.718434,1685.410096
3405.717869,222.061783,-9918.759623,-536.266849
3405.718196,-1258.350101,-9696.697840,0.000000
3405.718524,-1554.432478,-8734.430116,-1072.533697
3405.718852,-814.226536,-10066.800811,-766.095498
3405.719179,-1480.411884,-11695.253884,-1838.629195
3405.719507,-1184.329507,-9992.780217,-1838.629195
3405.719835,-2220.617826,-8438.347739,0.000000
3405.720163,-444.123565,-9992.780217,0.000000
3405.720490,1776.494261,-11547.212695,76.609550
3405.720818,666.185348,-10510.924376,995.924147
3405.721146,-518.144159,-9178.553681,459.657299
3405.721473,-444.123565,-8068.244768,-842.705048
3405.721801,-296.082377,-9326.594869,-1302.362347
3405.722129,-1110.308913,-11029.068536,-536.266849
3405.722457,-1184.329507,-10288.862594,0.000000
3405.722784,-962.267725,-9622.677246,-995.924147
3405.723112,888.247130,-10362.883188,-459.657299
3405.723440,962.267725,-10510.924376,842.705048
3405.723767,74.020594,-9474.636058,1685.410096
3405.724095,0.000000,-7920.203579,766.095498
3405.724423,0.000000,-8660.409521,-1149.143247
3405.724750,222.061783,-8660.409521,-1532.190996
3405.725078,-1332.370696,-9474.636058,536.266849
3405.725406,-3701.029710,-9622.677246,1838.629195
3405.725734,-1332.370696,-9548.656652,-1915.238745
3405.726061,296.082377,-10732.986159,-3983.696590
3405.726389,-296.082377,-10140.821405,-3064.381992
3405.726717,962.267725,-9326.594869,0.000000
3405.727044,2220.617826,-10288.862594,2298.286494
3405.727372,4145.153275,-11177.109724,1608.800546
3405.727700,3330.926739,-10658.965565,76.609550
3405.728027,222.061783,-8142.265362,1149.143247
3405.728355,0.000000,-6587.832884,459.657299
3405.728683,1924.535449,-8808.450710,-306.438199
3405.729011,962.267725,-10807.006753,0.000000
3405.729338,148.041188,-9474.636058,0.000000
3405.729666,2590.720797,-10066.800811,-766.095498
3405.729994,4663.297435,-12065.356855,-1532.190996
3405.730321,3849.070898,-13323.706956,-995.924147
3405.730649,666.185348,-9178.553681,0.000000
3405.730977,-1850.514855,-6291.750507,-383.047749
3405.731305,-222.061783,-8364.327145,-842.705048
3405.731632,1850.514855,-10881.027347,-995.924147
3405.731960,740.205942,-10214.842000,1915.238745
3405.732288,222.061783,-9474.636058,3447.429741
