#time,accel_x,accel_y,accel_z
2445.842129,518.144159,-9918.759623,-306.438199
2445.842457,740.205942,-10214.842000,-229.828649
2445.842784,888.247130,-10436.903782,-306.438199
2445.843111,814.226536,-10066.800811,-229.828649
2445.843439,740.205942,-9844.739029,-153.219100
2445.843766,592.164754,-9844.739029,229.828649
2445.844093,-148.041188,-8956.491898,-306.438199
2445.844421,148.041188,-9770.718434,-919.314598
2445.844748,-296.082377,-10066.800811,-1072.533697
2445.845075,-222.061783,-10288.862594,-919.314598
2445.845403,0.000000,-10658.965565,-1225.752797
2445.845730,296.082377,-10436.903782,-842.705048
2445.846057,222.061783,-10807.006753,-536.266849
2445.846385,518.144159,-10436.903782,153.219100
2445.846712,1036.288319,-9992.780217,-229.828649
2445.847039,888.247130,-9400.615463,-229.828649
2445.847367,518.144159,-9622.677246,0.000000
2445.847694,74.020594,-9400.615463,0.000000
2445.848022,0.000000,-9178.553681,0.000000
2445.848349,0.000000,-8734.430116,-306.438199
2445.848676,0.000000,-9178.553681,153.219100
2445.849004,0.000000,-9400.615463,-229.828649
2445.849331,222.061783,-9474.636058,0.000000
2445.849658,296.082377,-9770.718434,153.219100
2445.849986,444.123565,-9696.697840,306.438199
2445.850313,518.144159,-9474.636058,459.657299
2445.850640,592.164754,-8956.491898,919.314598
2445.850968,814.226536,-8882.471304,536.266849
2445.851295,296.082377,-8660.409521,0.000000
2445.851622,296.082377,-9030.512492,-766.095498
2445.851950,0.000000,-9178.553681,-229.828649
2445.852277,0.000000,-9400.615463,-612.876398
2445.852604,0.000000,-9622.677246,-383.047749
2445.852932,148.041188,-9844.739029,-919.314598
2445.853259,666.185348,-10066.800811,-383.047749
2445.853586,518.144159,-10214.842000,-383.047749
2445.853914,666.185348,-10362.883188,-536.266849
2445.854241,444.123565,-9992.780217,-229.828649
2445.854569,444.123565,-9622.677246,0.000000
2445.854896,370.102971,-9770.718434,-306.438199
2445.855223,0.000000,-9622.677246,-536.266849
2445.855551,0.000000,-9400.615463,-306.438199
2445.855878,74.020594,-9400.615463,-536.266849
2445.856205,592.164754,-9622.677246,-766.095498
2445.856533,1258.350101,-10584.944971,-919.314598
2445.856860,2294.638420,-10066.800811,-766.095498
2445.857187,3108.864956,-9474.636058,-383.047749
2445.857515,4663.297435,-9992.780217,0.000000
2445.857842,4737.318029,-10214.842000,536.266849
2445.858169,5181.441594,-9252.574275,536.266849
2445.858497,5921.647536,-8882.471304,-459.657299
2445.858824,5773.606348,-9474.636058,-153.219100
2445.859151,6217.729913,-9622.677246,0.000000
2445.859479,6883.915261,-9844.739029,0.000000
2445.859806,7031.956449,-10066.800811,459.657299
2445.860133,8068.244768,-8956.491898,0.000000
2445.860461,9252.574275,-9104.533087,-612.876398
2445.860788,9696.697840,-9252.574275,76.609550
2445.861116,10288.862594,-8882.471304,995.924147
2445.861443,11251.130318,-8956.491898,689.485948
2445.861770,10510.924376,-9400.615463,842.705048
2445.862098,9992.780217,-9400.615463,612.876398
2445.862425,8956.491898,-8068.244768,1225.752797
2445.862752,8512.368333,-9104.533087,-383.047749
2445.863080,8660.409521,-10658.965565,229.828649
2445.863407,8512.368333,-11177.109724,-459.657299
2445.863734,8068.244768,-10362.883188,-153.219100
2445.864062,7994.224174,-9770.718434,-229.828649
2445.864389,8438.347739,-9104.533087,-383.047749
2445.864716,7772.162391,-7994.224174,-612.876398
2445.865044,8438.347739,-8512.368333,536.266849
2445.865371,8956.491898,-8586.388927,1072.533697
2445.865698,9474.636058,-9474.636058,306.438199
2445.866026,9030.512492,-10584.944971,383.047749
2445.866353,7179.997637,-11251.130318,383.047749
2445.866680,5033.400406,-11843.295072,0.000000
2445.867008,3701.029710,-11029.068536,-306.438199
2445.867335,2664.741391,-11103.089130,-1149.143247
2445.867663,2072.576638,-10955.047942,-1149.143247
2445.867990,2220.617826,-10214.842000,-306.438199
2445.868317,1332.370696,-9400.615463,689.485948
2445.868645,444.123565,-8438.347739,1149.143247
2445.868972,74.020594,-7254.018232,459.657299
2445.869299,-592.164754,-7476.080014,76.609550
2445.869627,-1036.288319,-8512.368333,0.000000
2445.869954,-1036.288319,-9252.574275,-229.828649
2445.870281,-962.267725,-10436.903782,-459.657299
2445.870609,-1554.432478,-10510.924376,-306.438199
2445.870936,-1554.432478,-11029.068536,0.000000
2445.871263,-1998.556043,-10584.944971,0.000000
2445.871591,-1850.514855,-11103.089130,-995.924147
2445.871918,-3256.906145,-11177.109724,-383.047749
2445.872245,-4515.256246,-9178.553681,-1378.971896
2445.872573,-5773.606348,-7846.182985,-689.485948
2445.872900,-6143.709319,-6809.894666,0.000000
2445.873227,-5403.503377,-7254.018232,-459.657299
2445.873555,-4145.153275,-7846.182985,0.000000
2445.873882,-1184.329507,-8438.347739,0.000000
2445.874210,1702.473667,-10140.821405,-1072.533697
2445.874537,1110.308913,-10288.862594,0.000000
2445.874864,148.041188,-11621.233289,612.876398
2445.875192,-962.267725,-11843.295072,0.000000
2445.875519,-2146.597232,-12509.480420,-1455.581446
2445.875846,-2886.803174,-11991.336260,-1762.019645
2445.876174,-3404.947333,-10214.842000,-1915.238745
2445.876501,-2146.597232,-8956.491898,-383.047749
2445.876828,-1776.494261,-8882.471304,459.657299
2445.877156,-1850.514855,-8290.306550,306.438199
2445.877483,-1554.432478,-6883.915261,0.000000
2445.877810,-814.226536,-5921.647536,-995.924147
2445.878138,666.185348,-6883.915261,-1225.752797
2445.878465,2590.720797,-7772.162391,-1149.143247
2445.878792,5255.462188,-10584.944971,153.219100
2445.879120,5995.668130,-11473.192101,1455.581446
2445.879447,7105.977043,-11621.233289,1532.190996
2445.879774,7105.977043,-13619.789333,689.485948
2445.880102,6143.709319,-15026.180623,-306.438199
2445.880429,4145.153275,-13249.686362,-1532.190996
2445.880757,2368.659014,-10881.027347,-2298.286494
2445.881084,888.247130,-8216.285956,-842.705048
2445.881411,0.000000,-6217.729913,-306.438199
2445.881739,-296.082377,-6143.709319,1302.362347
2445.882066,0.000000,-5995.668130,1762.019645
2445.882393,2294.638420,-6069.688724,919.314598
2445.882721,4145.153275,-7179.997637,0.000000
2445.883048,4811.338623,-9326.594869,766.095498
2445.883375,5181.441594,-10436.903782,1455.581446
2445.883703,5773.606348,-11917.315666,1302.362347
2445.884030,4071.132681,-12953.603985,383.047749
2445.884357,2960.823768,-13693.809927,-766.095498
2445.884685,1332.370696,-12805.562797,-1225.752797
2445.885012,-666.185348,-11473.192101,-1532.190996
2445.885339,-740.205942,-11473.192101,-1225.752797
2445.885667,-1776.494261,-10510.924376,0.000000
2445.885994,-1776.494261,-8216.285956,0.000000
2445.886321,-1850.514855,-7254.018232,842.705048
2445.886649,-1332.370696,-6291.750507,1072.533697
2445.886976,-888.247130,-6735.874072,1072.533697
2445.887304,-666.185348,-7698.141797,1762.019645
2445.887631,-444.123565,-8364.327145,1838.629195
2445.887958,-1110.308913,-9770.718434,1149.143247
2445.888286,74.020594,-11621.233289,459.657299
2445.888613,-592.164754,-12287.418637,-689.485948
2445.888940,-1776.494261,-12805.562797,-2145.067394
2445.889268,-3775.050304,-12953.603985,-2834.553343
2445.889595,-4663.297435,-11769.274478,-3140.991542
2445.889922,-5107.421000,-10288.862594,-3140.991542
2445.890250,-5033.400406,-7994.224174,-536.266849
2445.890577,-4071.132681,-6069.688724,383.047749
2445.890904,-1998.556043,-6809.894666,1149.143247
2445.891232,-296.082377,-7476.080014,1991.848295
2445.891559,1628.453072,-7254.018232,2145.067394
2445.891886,1776.494261,-7624.121203,1532.190996
2445.892214,518.144159,-8882.471304,1685.410096
2445.892541,-592.164754,-10510.924376,306.438199
2445.892868,-1850.514855,-11251.130318,-1608.800546
2445.893196,-2368.659014,-11621.233289,-2451.505594
2445.893523,-1998.556043,-11769.274478,-2987.772442
2445.893851,-1258.350101,-11843.295072,-2987.772442
2445.894178,-740.205942,-11473.192101,-2374.896044
2445.894505,-1110.308913,-10510.924376,-383.047749
2445.894833,-592.164754,-8956.491898,-919.314598
2445.895160,0.000000,-7105.977043,-689.485948
2445.895487,888.247130,-6365.771101,-153.219100
2445.895815,1702.473667,-6957.935855,919.314598
2445.896142,3256.906145,-8068.244768,1915.238745
2445.896469,4367.215058,-8882.471304,2221.676944
2445.896797,5255.462188,-11029.068536,842.705048
2445.897124,5033.400406,-12287.418637,383.047749
2445.897451,3775.050304,-13101.645173,-536.266849
2445.897779,2886.803174,-13767.830521,-2068.457845
2445.898106,1332.370696,-12361.439231,-1991.848295
2445.898433,74.020594,-10584.944971,-1991.848295
2445.898761,0.000000,-10436.903782,-689.485948
2445.899088,296.082377,-9400.615463,689.485948
2445.899415,962.267725,-7031.956449,1532.190996
2445.899743,1628.453072,-7254.018232,1685.410096
2445.900070,2886.803174,-7698.141797,995.924147
2445.900398,2590.720797,-7846.182985,459.657299
2445.900725,2294.638420,-8142.265362,612.876398
2445.901052,2368.659014,-8660.409521,919.314598
2445.901380,2960.823768,-9918.759623,383.047749
2445.901707,2442.679609,-11547.212695,0.000000
2445.902034,1776.494261,-11029.068536,1225.752797
2445.902362,1702.473667,-11769.274478,-153.219100
2445.902689,1554.432478,-12065.356855,-766.095498
2445.903016,666.185348,-11399.171507,-689.485948
2445.903344,0.000000,-9400.615463,-612.876398
2445.903671,-1480.411884,-7624.121203,229.828649
2445.903998,-1480.411884,-7624.121203,153.219100
2445.904326,-1628.453072,-7105.977043,842.705048
2445.904653,-1776.494261,-7402.059420,766.095498
2445.904980,-1924.535449,-7698.141797,1072.533697
2445.905308,-666.185348,-8438.347739,383.047749
2445.905635,222.061783,-9770.718434,-459.657299
2445.905963,-592.164754,-10807.006753,0.000000
2445.906290,-1554.432478,-11103.089130,-1225.752797
2445.906617,-2812.782580,-10807.006753,-1991.848295
2445.906945,-3330.926739,-11177.109724,-2451.505594
2445.907272,-3256.906145,-10436.903782,-2298.286494
2445.907599,-2664.741391,-9400.615463,-1378.971896
2445.907927,-2072.576638,-9326.594869,-229.828649
2445.908254,-666.185348,-9918.759623,0.000000
2445.908581,814.226536,-10510.924376,0.000000
2445.908909,0.000000,-8882.471304,536.266849
2445.909236,-296.082377,-8586.388927,383.047749
2445.909564,-1036.288319,-9030.512492,0.000000
2445.909891,-1184.329507,-10066.800811,-306.438199
2445.910218,-1036.288319,-9992.780217,-306.438199
2445.910546,-962.267725,-9400.615463,-459.657299
2445.910873,-814.226536,-9770.718434,-689.485948
2445.911200,-592.164754,-10214.842000,-1149.143247
2445.911528,-222.061783,-11103.089130,-1302.362347
2445.911855,-962.267725,-11325.150913,-1608.800546
2445.912182,-962.267725,-9918.759623,-1608.800546
2445.912510,74.020594,-9178.553681,-1225.752797
2445.912837,740.205942,-9400.615463,459.657299
2445.913165,1554.432478,-8438.347739,2528.115143
2445.913492,3182.885551,-7846.182985,1608.800546
2445.913819,3256.906145,-8068.244768,2068.457845
2445.914147,3552.988522,-9178.553681,2221.676944
2445.914474,3627.009116,-9474.636058,1225.752797
2445.914801,2368.659014,-9696.697840,76.609550
2445.915129,1184.329507,-10584.944971,-1149.143247
2445.915456,1110.308913,-10658.965565,-1838.629195
2445.915783,518.144159,-10214.842000,-1072.533697
2445.916111,74.020594,-10436.903782,-766.095498
2445.916438,1406.391290,-10732.986159,-612.876398
2445.916766,2220.617826,-10362.883188,-612.876398
2445.917093,2220.617826,-9770.718434,0.000000
2445.917420,2368.659014,-9474.636058,536.266849
2445.917748,2886.803174,-9770.718434,842.705048
2445.918075,2294.638420,-8734.430116,306.438199
2445.918402,814.226536,-9030.512492,536.266849
2445.918730,1036.288319,-9030.512492,0.000000
2445.919057,888.247130,-9622.677246,306.438199
2445.919385,0.000000,-9696.697840,612.876398
2445.919712,296.082377,-11991.336260,-306.438199
2445.920039,1258.350101,-12213.398043,-1225.752797
2445.920367,518.144159,-11103.089130,-1225.752797
2445.920694,-1258.350101,-10881.027347,-612.876398
2445.921021,-1554.432478,-10214.842000,-689.485948
2445.921349,-1406.391290,-9400.615463,-919.314598
2445.921676,-1480.411884,-8290.306550,0.000000
2445.922003,-1184.329507,-7772.162391,995.924147
2445.922331,-296.082377,-8142.265362,766.095498
2445.922658,-592.164754,-9252.574275,612.876398
2445.922986,-222.061783,-9474.636058,0.000000
2445.923313,-1480.411884,-9474.636058,0.000000
2445.923640,-1776.494261,-10066.800811,-766.095498
2445.923968,-1924.535449,-9770.718434,-1378.971896
2445.924295,-1776.494261,-9844.739029,-919.314598
2445.924622,-1110.308913,-9474.636058,-1838.629195
2445.924950,-222.061783,-8956.491898,0.000000
2445.925277,296.082377,-9474.636058,383.047749
2445.925604,296.082377,-9770.718434,229.828649
2445.925932,518.144159,-9622.677246,0.000000
2445.926259,0.000000,-9548.656652,-459.657299
2445.926587,-518.144159,-9474.636058,-995.924147
2445.926914,-888.247130,-8660.409521,-1378.971896
2445.927241,-1258.350101,-9326.594869,0.000000
2445.927569,-962.267725,-9696.697840,76.609550
2445.927896,222.061783,-9252.574275,0.000000
2445.928223,1258.350101,-9030.512492,-306.438199
2445.928551,1406.391290,-9918.759623,-229.828649
2445.928878,1110.308913,-10066.800811,0.000000
2445.929206,592.164754,-9770.718434,-536.266849
2445.929533,-296.082377,-8734.430116,0.000000
2445.929860,444.123565,-9326.594869,-995.924147
2445.930188,74.020594,-9326.594869,-306.438199
2445.930515,444.123565,-9400.615463,383.047749
2445.930842,1332.370696,-9992.780217,306.438199
2445.931170,2220.617826,-11103.089130,0.000000
2445.931497,2072.576638,-11547.212695,-229.828649
2445.931824,2220.617826,-11029.068536,-459.657299
2445.932152,1406.391290,-10214.842000,-306.438199
2445.932479,370.102971,-9992.780217,0.000000
2445.932807,592.164754,-10214.842000,0.000000
2445.933134,370.102971,-9548.656652,306.438199
2445.933461,740.205942,-8438.347739,612.876398
2445.933789,1258.350101,-9474.636058,383.047749
2445.934116,1406.391290,-10066.800811,153.219100
2445.934443,1258.350101,-9918.759623,-229.828649
2445.934771,814.226536,-9474.636058,-229.828649
2445.935098,1480.411884,-9474.636058,-229.828649
2445.935425,1776.494261,-9696.697840,-229.828649
2445.935753,1332.370696,-10066.800811,383.047749
2445.936080,1332.370696,-9548.656652,0.000000
2445.936408,1702.473667,-9104.533087,306.438199
2445.936735,1702.473667,-9622.677246,76.609550
2445.937062,1480.411884,-10214.842000,0.000000
2445.937390,1480.411884,-9918.759623,-306.438199
2445.937717,592.164754,-9770.718434,-306.438199
2445.938044,148.041188,-9918.759623,-306.438199
2445.938372,74.020594,-9770.718434,-1302.362347
2445.938699,-296.082377,-9474.636058,0.000000
2445.939026,-888.247130,-9252.574275,229.828649
2445.939354,-518.144159,-9104.533087,153.219100
2445.939681,-296.082377,-9400.615463,-229.828649
2445.940009,296.082377,-9770.718434,-536.266849
2445.940336,0.000000,-9992.780217,-383.047749
2445.940663,-1332.370696,-9770.718434,-459.657299
2445.940991,-1998.556043,-10214.842000,-766.095498
2445.941318,-1924.535449,-10066.800811,-1302.362347
2445.941645,-2072.576638,-9178.553681,-1072.533697
2445.941973,-1406.391290,-9104.533087,-766.095498
2445.942300,-444.123565,-10066.800811,-153.219100
2445.942628,0.000000,-11029.068536,536.266849
2445.942955,1258.350101,-10510.924376,383.047749
2445.943282,666.185348,-10288.862594,76.609550
2445.943610,-1258.350101,-10288.862594,383.047749
2445.943937,-1702.473667,-9696.697840,-459.657299
2445.944264,-2220.617826,-9474.636058,-459.657299
2445.944592,-2220.617826,-8882.471304,-612.876398
2445.944919,-888.247130,-8586.388927,-995.924147
2445.945246,0.000000,-8956.491898,0.000000
2445.945574,0.000000,-9326.594869,383.047749
2445.945901,444.123565,-10214.842000,76.609550
2445.946229,148.041188,-10214.842000,-536.266849
2445.946556,148.041188,-9918.759623,-766.095498
2445.946883,592.164754,-9474.636058,-919.314598
2445.947211,666.185348,-9252.574275,0.000000
2445.947538,962.267725,-9030.512492,919.314598
2445.947865,1924.535449,-8364.327145,1302.362347
2445.948193,2146.597232,-9474.636058,306.438199
2445.948520,2072.576638,-10362.883188,229.828649
2445.948847,2146.597232,-10140.821405,-153.219100
2445.949175,1702.473667,-10584.944971,-459.657299
2445.949502,1406.391290,-10658.965565,-612.876398
2445.949830,1480.411884,-9548.656652,0.000000
2445.950157,1110.308913,-9696.697840,229.828649
2445.950484,962.267725,-9474.636058,229.828649
2445.950812,1406.391290,-9918.759623,0.000000
2445.951139,1850.514855,-10066.800811,-383.047749
2445.951466,2072.576638,-9992.780217,-383.047749
2445.951794,1258.350101,-9918.759623,-229.828649
2445.952121,0.000000,-9178.553681,0.000000
2445.952448,-518.144159,-8808.450710,153.219100
2445.952776,-592.164754,-8734.430116,-1225.752797
2445.953103,0.000000,-8734.430116,-919.314598
2445.953431,444.123565,-9104.533087,0.000000
2445.953758,1258.350101,-10140.821405,536.266849
2445.954085,1850.514855,-10436.903782,919.314598
2445.954413,2146.597232,-10807.006753,0.000000
2445.954740,1184.329507,-10658.965565,-995.924147
2445.955067,148.041188,-9770.718434,-612.876398
2445.955395,-518.144159,-9474.636058,-766.095498
2445.955722,-1184.329507,-9474.636058,-229.828649
2445.956050,-1406.391290,-8956.491898,0.000000
2445.956377,-888.247130,-8660.409521,153.219100
2445.956704,-666.185348,-9178.553681,0.000000
2445.957032,-740.205942,-9992.780217,0.000000
2445.957359,-666.185348,-9548.656652,-306.438199
2445.957686,-962.267725,-9474.636058,-842.705048
2445.958014,-814.226536,-9326.594869,-612.876398
2445.958341,-518.144159,-9030.512492,-612.876398
2445.958668,-222.061783,-9474.636058,0.000000
2445.958996,-148.041188,-9548.656652,-229.828649
2445.959323,1036.288319,-9548.656652,-153.219100
2445.959651,1554.432478,-10288.862594,-229.828649
2445.959978,1628.453072,-10807.006753,0.000000
2445.960305,1036.288319,-10807.006753,0.000000
2445.960633,296.082377,-11399.171507,-459.657299
2445.960960,-296.082377,-11103.089130,153.219100
2445.961287,-888.247130,-10140.821405,-766.095498
2445.961615,-1332.370696,-9400.615463,0.000000
2445.961942,-1406.391290,-8512.368333,0.000000
2445.962269,-370.102971,-8586.388927,0.000000
2445.962597,148.041188,-9030.512492,76.609550
2445.962924,222.061783,-9326.594869,383.047749
2445.963252,518.144159,-9474.636058,0.000000
2445.963579,-222.061783,-9474.636058,-383.047749
2445.963906,-814.226536,-9474.636058,-842.705048
2445.964234,-518.144159,-9474.636058,-766.095498
2445.964561,0.000000,-9474.636058,-459.657299
2445.964888,592.164754,-9548.656652,229.828649
2445.965216,1628.453072,-10214.842000,612.876398
2445.965543,2146.597232,-10436.903782,766.095498
2445.965870,2368.659014,-10288.862594,612.876398
2445.966198,1406.391290,-9622.677246,0.000000
2445.966525,666.185348,-9474.636058,0.000000
2445.966853,0.000000,-8956.491898,-536.266849
2445.967180,0.000000,-9030.512492,-229.828649
2445.967507,0.000000,-8586.388927,459.657299
2445.967835,666.185348,-8808.450710,0.000000
2445.968162,1184.329507,-9474.636058,0.000000
2445.968489,1850.514855,-10510.924376,229.828649
2445.968817,1554.432478,-10881.027347,-459.657299
2445.969144,962.267725,-10584.944971,-1072.533697
2445.969472,666.185348,-10214.842000,-1225.752797
2445.969799,740.205942,-9622.677246,-1532.190996
2445.970126,0.000000,-9474.636058,-689.485948
2445.970454,74.020594,-8512.368333,153.219100
2445.970781,1924.535449,-9400.615463,0.000000
2445.971108,2368.659014,-10732.986159,-153.219100
2445.971436,2664.741391,-10510.924376,0.000000
2445.971763,2590.720797,-10732.986159,0.000000
2445.972090,1332.370696,-11177.109724,383.047749
2445.972418,814.226536,-10955.047942,536.266849
2445.972745,74.020594,-9992.780217,76.609550
2445.973073,-888.247130,-10140.821405,-383.047749
2445.973400,-1258.350101,-10288.862594,0.000000
2445.973727,-1110.308913,-9548.656652,-689.485948
2445.974055,-962.267725,-9474.636058,-536.266849
2445.974382,-1258.350101,-9400.615463,-612.876398
2445.974709,-1332.370696,-9326.594869,-459.657299
2445.975037,-2146.597232,-8734.430116,0.000000
2445.975364,-1850.514855,-8438.347739,-383.047749
2445.975691,-962.267725,-8586.388927,-459.657299
2445.976019,-222.061783,-8660.409521,76.609550
2445.976346,592.164754,-9178.553681,995.924147
2445.976674,1406.391290,-10362.883188,1532.190996
2445.977001,1480.411884,-10732.986159,1302.362347
2445.977328,962.267725,-10288.862594,-766.095498
2445.977656,-296.082377,-10066.800811,-766.095498
2445.977983,-1258.350101,-9844.739029,-1225.752797
2445.978310,-1628.453072,-9548.656652,-919.314598
2445.978638,-1850.514855,-9030.512492,-536.266849
2445.978965,-1554.432478,-8660.409521,0.000000
2445.979292,-1110.308913,-8660.409521,0.000000
2445.979620,222.061783,-9400.615463,306.438199
2445.979947,444.123565,-9178.553681,383.047749
2445.980275,296.082377,-9104.533087,-306.438199
2445.980602,0.000000,-9400.615463,-919.314598
2445.980929,0.000000,-9696.697840,-1225.752797
2445.981257,814.226536,-10214.842000,-1149.143247
2445.981584,814.226536,-10288.862594,-229.828649
2445.981911,1480.411884,-9992.780217,-536.266849
2445.982239,2368.659014,-10288.862594,-919.314598
2445.982566,2738.761985,-11547.212695,-842.705048
2445.982894,2812.782580,-11177.109724,-306.438199
2445.983221,2442.679609,-10732.986159,0.000000
2445.983548,1776.494261,-10214.842000,536.266849
2445.983876,592.164754,-9918.759623,306.438199
2445.984203,888.247130,-9474.636058,459.657299
2445.984530,-296.082377,-8512.368333,689.485948
2445.984858,-444.123565,-8734.430116,306.438199
2445.985185,-222.061783,-8290.306550,-383.047749
2445.985512,0.000000,-9252.574275,-689.485948
2445.985840,-148.041188,-9770.718434,-612.876398
2445.986167,-296.082377,-9844.739029,-995.924147
2445.986495,-814.226536,-9622.677246,-689.485948
2445.986822,0.000000,-9696.697840,-919.314598
2445.987149,222.061783,-9252.574275,-766.095498
2445.987477,444.123565,-9400.615463,536.266849
2445.987804,1406.391290,-9326.594869,995.924147
2445.988131,2294.638420,-9400.615463,1225.752797
2445.988459,3034.844362,-9992.780217,1072.533697
2445.988786,2442.679609,-10066.800811,689.485948
2445.989113,888.247130,-9326.594869,229.828649
2445.989441,-518.144159,-9178.553681,383.047749
2445.989768,-666.185348,-9622.677246,-383.047749
2445.990096,-1924.535449,-9548.656652,-459.657299
2445.990423,-1924.535449,-9622.677246,-536.266849
2445.990750,-1480.411884,-9252.574275,-995.924147
2445.991078,-1332.370696,-9844.739029,-842.705048
2445.991405,-1036.288319,-10510.924376,-1225.752797
2445.991732,-814.226536,-9992.780217,-1991.848295
2445.992060,-1258.350101,-9548.656652,-1455.581446
2445.992387,-740.205942,-9696.697840,-1225.752797
2445.992714,370.102971,-9770.718434,-919.314598
2445.993042,518.144159,-9326.594869,-919.314598
2445.993369,1332.370696,-9030.512492,76.609550
2445.993697,1998.556043,-10214.842000,0.000000
2445.994024,2368.659014,-11177.109724,-153.219100
2445.994351,2664.741391,-11029.068536,76.609550
2445.994679,1554.432478,-10807.006753,76.609550
2445.995006,0.000000,-10658.965565,229.828649
2445.995333,-1036.288319,-10436.903782,153.219100
2445.995661,-1628.453072,-9104.533087,0.000000
2445.995988,-2146.597232,-8734.430116,-153.219100
2445.996316,-2368.659014,-7846.182985,0.000000
2445.996643,-1628.453072,-8290.306550,-689.485948
2445.996970,-962.267725,-8734.430116,-229.828649
2445.997298,-148.041188,-9252.574275,-459.657299
2445.997625,0.000000,-9474.636058,-995.924147
2445.997952,370.102971,-10288.862594,153.219100
2445.998280,1110.308913,-9770.718434,-459.657299
2445.998607,1332.370696,-9770.718434,-229.828649
2445.998934,1702.473667,-9548.656652,612.876398
2445.999262,2368.659014,-9400.615463,1225.752797
2445.999589,3182.885551,-9844.739029,1149.143247
2445.999917,3108.864956,-10658.965565,995.924147
2446.000244,2664.741391,-10436.903782,0.000000
2446.000571,1110.308913,-8956.491898,229.828649
2446.000899,-222.061783,-8660.409521,306.438199
2446.001226,-296.082377,-9252.574275,-689.485948
2446.001553,-592.164754,-9548.656652,0.000000
2446.001881,-222.061783,-9326.594869,153.219100
2446.002208,0.000000,-9474.636058,0.000000
2446.002535,370.102971,-10658.965565,383.047749
2446.002863,74.020594,-10658.965565,-689.485948
2446.003190,-296.082377,-10584.944971,-1608.800546
2446.003518,-666.185348,-10436.903782,-1762.019645
2446.003845,74.020594,-10362.883188,-1838.629195
2446.004172,222.061783,-10066.800811,-1378.971896
2446.004500,74.020594,-9622.677246,-229.828649
2446.004827,1184.329507,-9104.533087,306.438199
2446.005154,2442.679609,-9474.636058,612.876398
2446.005482,2664.741391,-10881.027347,919.314598
2446.005809,2590.720797,-10658.965565,995.924147
2446.006136,2294.638420,-10214.842000,995.924147
2446.006464,962.267725,-10066.800811,919.314598
2446.006791,-592.164754,-9400.615463,306.438199
2446.007119,-1036.288319,-9622.677246,-153.219100
2446.007446,-2368.659014,-9178.553681,-689.485948
2446.007774,-2960.823768,-8734.430116,-383.047749
2446.008101,-1924.535449,-8660.409521,-1302.362347
2446.008429,-1480.411884,-9474.636058,-1455.581446
2446.008756,-888.247130,-9474.636058,-689.485948
2446.009084,-592.164754,-9474.636058,-459.657299
2446.009411,-148.041188,-8956.491898,0.000000
2446.009738,444.123565,-8734.430116,459.657299
2446.010066,1184.329507,-8882.471304,383.047749
2446.010393,1406.391290,-9178.553681,1072.533697
2446.010721,1628.453072,-9104.533087,1532.190996
2446.011048,1998.556043,-9844.739029,1225.752797
2446.011376,1628.453072,-10732.986159,0.000000
2446.011703,222.061783,-10584.944971,-383.047749
2446.012031,-592.164754,-10436.903782,-1302.362347
2446.012358,-1628.453072,-10584.944971,-1455.581446
2446.012686,-1332.370696,-10214.842000,-1149.143247
2446.013013,-962.267725,-9770.718434,-459.657299
2446.013340,-814.226536,-9474.636058,-229.828649
2446.013668,-518.144159,-9326.594869,0.000000
2446.013995,296.082377,-9770.718434,306.438199
2446.014323,740.205942,-10214.842000,766.095498
2446.014650,518.144159,-9918.759623,-1149.143247
2446.014978,-296.082377,-9770.718434,-1532.190996
2446.015305,-518.144159,-9992.780217,-689.485948
2446.015633,74.020594,-10140.821405,-1302.362347
2446.015960,74.020594,-9622.677246,-459.657299
2446.016288,1332.370696,-9104.533087,0.000000
2446.016615,2442.679609,-9918.759623,229.828649
2446.016942,2368.659014,-10510.924376,229.828649
2446.017270,3256.906145,-10362.883188,995.924147
2446.017597,2442.679609,-9696.697840,1378.971896
2446.017925,1258.350101,-9400.615463,1302.362347
2446.018252,592.164754,-9326.594869,459.657299
2446.018580,-888.247130,-8586.388927,153.219100
2446.018907,-1776.494261,-8216.285956,0.000000
2446.019235,-1332.370696,-8660.409521,-1072.533697
2446.019562,-296.082377,-8734.430116,-1455.581446
2446.019889,0.000000,-9252.574275,-995.924147
2446.020217,666.185348,-10066.800811,-612.876398
2446.020544,962.267725,-9992.780217,-306.438199
2446.020872,1036.288319,-9474.636058,153.219100
2446.021199,1184.329507,-9252.574275,76.609550
2446.021527,1036.288319,-9030.512492,-306.438199
2446.021854,666.185348,-9030.512492,766.095498
2446.022182,1776.494261,-9918.759623,766.095498
2446.022509,2146.597232,-10658.965565,229.828649
2446.022837,2294.638420,-10955.047942,-383.047749
2446.023164,1110.308913,-10955.047942,-1072.533697
2446.023491,-518.144159,-10510.924376,-919.314598
2446.023819,-1480.411884,-10584.944971,-1225.752797
2446.024146,-1776.494261,-10288.862594,-1532.190996
2446.024474,-1924.535449,-9770.718434,-1072.533697
2446.024801,-1332.370696,-9030.512492,-459.657299
2446.025129,-592.164754,-9400.615463,153.219100
2446.025456,444.123565,-9992.780217,306.438199
2446.025784,1036.288319,-10288.862594,-612.876398
2446.026111,370.102971,-9474.636058,-229.828649
2446.026439,-666.185348,-9474.636058,-689.485948
2446.026766,-592.164754,-9770.718434,-1302.362347
2446.027093,-222.061783,-9474.636058,-995.924147
2446.027421,148.041188,-9474.636058,0.000000
2446.027748,1628.453072,-9104.533087,689.485948
2446.028076,1924.535449,-9918.759623,689.485948
2446.028403,1850.514855,-10881.027347,919.314598
2446.028731,1702.473667,-10140.821405,612.876398
2446.029058,370.102971,-8956.491898,842.705048
2446.029386,-518.144159,-8364.327145,229.828649
2446.029713,-1258.350101,-8660.409521,229.828649
2446.030041,-1776.494261,-8882.471304,0.000000
2446.030368,-1702.473667,-8808.450710,-306.438199
2446.030695,-666.185348,-9030.512492,-612.876398
2446.031023,-666.185348,-8734.430116,-612.876398
2446.031350,222.061783,-9696.697840,-919.314598
2446.031678,370.102971,-10510.924376,-383.047749
2446.032005,296.082377,-10362.883188,-229.828649
2446.032333,666.185348,-10140.821405,76.609550
2446.032660,592.164754,-9992.780217,-153.219100
2446.032988,370.102971,-8586.388927,0.000000
2446.033315,814.226536,-8882.471304,153.219100
2446.033642,1036.288319,-10140.821405,536.266849
2446.033970,1702.473667,-10510.924376,0.000000
2446.034297,1702.473667,-10140.821405,-459.657299
2446.034625,888.247130,-10140.821405,-459.657299
2446.034952,-518.144159,-10066.800811,-1608.800546
2446.035280,-666.185348,-10807.006753,-1608.800546
2446.035607,-814.226536,-10066.800811,-766.095498
2446.035935,-370.102971,-10288.862594,-459.657299
2446.036262,0.000000,-10066.800811,-306.438199
2446.036590,222.061783,-10066.800811,0.000000
2446.036917,592.164754,-10140.821405,76.609550
2446.037244,888.247130,-9918.759623,-689.485948
2446.037572,74.020594,-9400.615463,-1225.752797
2446.037899,0.000000,-9104.533087,-842.705048
2446.038227,592.164754,-8956.491898,-612.876398
2446.038554,814.226536,-9252.574275,-766.095498
2446.038882,1258.350101,-9474.636058,153.219100
2446.039209,2146.597232,-9252.574275,612.876398
2446.039537,2516.700203,-9474.636058,459.657299
2446.039864,2738.761985,-10362.883188,1685.410096
2446.040192,2590.720797,-9696.697840,1455.581446
2446.040519,1332.370696,-9400.615463,842.705048
2446.040846,-444.123565,-9474.636058,229.828649
2446.041174,-1110.308913,-8882.471304,-536.266849
2446.041501,-1776.494261,-8364.327145,-842.705048
2446.041829,-1924.535449,-9030.512492,-1225.752797
2446.042156,-962.267725,-8438.347739,-1378.971896
2446.042484,296.082377,-8956.491898,-459.657299
2446.042811,1110.308913,-9622.677246,-383.047749
2446.043139,1110.308913,-10288.862594,76.609550
2446.043466,592.164754,-10066.800811,76.609550
2446.043794,296.082377,-9770.718434,0.000000
2446.044121,0.000000,-9400.615463,-536.266849
2446.044448,0.000000,-9548.656652,0.000000
2446.044776,0.000000,-9474.636058,229.828649
2446.045103,296.082377,-10140.821405,0.000000
2446.045431,148.041188,-10658.965565,-383.047749
2446.045758,148.041188,-10584.944971,-1302.362347
2446.046086,-296.082377,-10288.862594,-1225.752797
2446.046413,-1110.308913,-10362.883188,-1378.971896
2446.046741,-1110.308913,-9622.677246,-1072.533697
2446.047068,-592.164754,-9696.697840,0.000000
2446.047396,-518.144159,-9844.739029,76.609550
2446.047723,0.000000,-9400.615463,842.705048
2446.048050,74.020594,-9400.615463,153.219100
2446.048378,296.082377,-9622.677246,-842.705048
2446.048705,296.082377,-10362.883188,-689.485948
2446.049033,-296.082377,-10066.800811,-1149.143247
2446.049360,-370.102971,-9548.656652,-995.924147
2446.049688,148.041188,-9474.636058,-1149.143247
2446.050015,592.164754,-10140.821405,-536.266849
2446.050343,962.267725,-9696.697840,229.828649
2446.050670,1776.494261,-8956.491898,919.314598
2446.050997,1998.556043,-9104.533087,842.705048
2446.051325,2072.576638,-9844.739029,766.095498
2446.051652,1776.494261,-9252.574275,842.705048
2446.051980,740.205942,-9326.594869,612.876398
2446.052307,0.000000,-8882.471304,0.000000
2446.052635,-296.082377,-9326.594869,-536.266849
2446.052962,-962.267725,-9474.636058,-1302.362347
2446.053290,-666.185348,-9326.594869,0.000000
2446.053617,740.205942,-9400.615463,-919.314598
2446.053945,1480.411884,-10066.800811,-1072.533697
2446.054272,1258.350101,-10214.842000,0.000000
2446.054599,1628.453072,-10066.800811,76.609550
2446.054927,888.247130,-9696.697840,306.438199
2446.055254,444.123565,-9400.615463,0.000000
2446.055582,518.144159,-9252.574275,612.876398
2446.055909,0.000000,-9104.533087,766.095498
2446.056237,-370.102971,-8512.368333,459.657299
2446.056564,74.020594,-9474.636058,-459.657299
2446.056892,666.185348,-10955.047942,-1072.533697
2446.057219,740.205942,-10881.027347,-919.314598
2446.057547,814.226536,-10584.944971,-1072.533697
2446.057874,148.041188,-10584.944971,-842.705048
2446.058201,-592.164754,-10066.800811,-612.876398
2446.058529,-666.185348,-10362.883188,-459.657299
2446.058856,-666.185348,-9696.697840,153.219100
2446.059184,0.000000,-8956.491898,153.219100
2446.059511,666.185348,-9474.636058,-229.828649
2446.059839,1258.350101,-10436.903782,0.000000
2446.060166,592.164754,-9770.718434,-383.047749
2446.060494,74.020594,-9844.739029,-536.266849
2446.060821,-888.247130,-9844.739029,-459.657299
2446.061149,-518.144159,-9622.677246,-766.095498
2446.061476,-444.123565,-9400.615463,-612.876398
2446.061803,0.000000,-9400.615463,0.000000
2446.062131,296.082377,-9252.574275,689.485948
2446.062458,814.226536,-9326.594869,842.705048
2446.062786,296.082377,-9844.739029,612.876398
2446.063113,444.123565,-9770.718434,0.000000
2446.063441,-222.061783,-9474.636058,-383.047749
2446.063768,-370.102971,-9326.594869,-766.095498
2446.064096,0.000000,-9844.739029,-689.485948
2446.064423,0.000000,-9770.718434,306.438199
2446.064750,-296.082377,-9326.594869,153.219100
2446.065078,888.247130,-9474.636058,536.266849
2446.065405,1184.329507,-9622.677246,-459.657299
2446.065733,1628.453072,-10140.821405,-229.828649
2446.066060,1554.432478,-10140.821405,383.047749
2446.066388,740.205942,-9622.677246,612.876398
2446.066715,0.000000,-9400.615463,1149.143247
2446.067043,-740.205942,-8660.409521,0.000000
2446.067370,-1332.370696,-8586.388927,-689.485948
2446.067698,-962.267725,-9030.512492,-689.485948
2446.068025,0.000000,-9252.574275,-919.314598
2446.068352,814.226536,-10732.986159,-689.485948
2446.068680,1998.556043,-11251.130318,-689.485948
2446.069007,1850.514855,-11029.068536,-306.438199
2446.069335,814.226536,-10584.944971,-459.657299
2446.069662,888.247130,-10807.006753,-842.705048
2446.069990,148.041188,-9770.718434,-689.485948
2446.070317,0.000000,-8882.471304,-459.657299
2446.070645,370.102971,-9326.594869,0.000000
2446.070972,1036.288319,-9252.574275,383.047749
2446.071300,1776.494261,-9400.615463,995.924147
2446.071627,1258.350101,-9178.553681,383.047749
2446.071954,296.082377,-9474.636058,-536.266849
2446.072282,222.061783,-9770.718434,-1378.971896
2446.072609,296.082377,-9992.780217,-1608.800546
2446.072937,0.000000,-9770.718434,-612.876398
2446.073264,888.247130,-9030.512492,306.438199
2446.073592,1406.391290,-8882.471304,689.485948
2446.073919,2146.597232,-10214.842000,842.705048
2446.074247,2220.617826,-10955.047942,383.047749
2446.074574,1110.308913,-10140.821405,-536.266849
2446.074902,-592.164754,-9844.739029,-536.266849
2446.075229,-1184.329507,-9770.718434,-919.314598
2446.075556,-1110.308913,-9474.636058,-1072.533697
2446.075884,-1554.432478,-9326.594869,-612.876398
2446.076211,-740.205942,-9474.636058,0.000000
2446.076539,370.102971,-9252.574275,0.000000
2446.076866,814.226536,-9474.636058,-229.828649
2446.077194,888.247130,-9770.718434,459.657299
2446.077521,444.123565,-9918.759623,536.266849
2446.077849,-444.123565,-9548.656652,689.485948
2446.078176,-666.185348,-9104.533087,0.000000
2446.078503,-666.185348,-8882.471304,-689.485948
2446.078831,-592.164754,-9326.594869,-1608.800546
2446.079158,-740.205942,-9030.512492,0.000000
2446.079486,-222.061783,-9844.739029,-612.876398
2446.079813,222.061783,-10732.986159,-612.876398
2446.080141,740.205942,-10510.924376,-689.485948
2446.080468,888.247130,-9844.739029,-689.485948
2446.080796,-148.041188,-9770.718434,-153.219100
2446.081123,-592.164754,-9326.594869,0.000000
2446.081451,0.000000,-9104.533087,306.438199
2446.081778,74.020594,-9030.512492,229.828649
2446.082105,0.000000,-8512.368333,842.705048
2446.082433,370.102971,-9400.615463,0.000000
2446.082760,444.123565,-10510.924376,-306.438199
2446.083088,0.000000,-9696.697840,-306.438199
2446.083415,-518.144159,-9622.677246,-1532.190996
2446.083743,-296.082377,-9844.739029,-1762.019645
2446.084070,0.000000,-10510.924376,-1225.752797
2446.084398,518.144159,-10066.800811,0.000000
2446.084725,1184.329507,-9474.636058,459.657299
2446.085053,1776.494261,-9178.553681,459.657299
2446.085380,2590.720797,-10140.821405,1072.533697
2446.085707,2442.679609,-9992.780217,306.438199
2446.086035,888.247130,-9918.759623,919.314598
2446.086362,370.102971,-10214.842000,0.000000
2446.086690,-296.082377,-9770.718434,-842.705048
2446.087017,-1036.288319,-10140.821405,-1302.362347
2446.087345,-962.267725,-10732.986159,-612.876398
2446.087672,-296.082377,-9992.780217,-1072.533697
2446.088000,444.123565,-9104.533087,-229.828649
2446.088327,666.185348,-9178.553681,0.000000
2446.088655,1184.329507,-9622.677246,689.485948
2446.088982,888.247130,-8956.491898,1149.143247
2446.089309,518.144159,-8512.368333,919.314598
2446.089637,518.144159,-8808.450710,459.657299
2446.089964,0.000000,-8734.430116,306.438199
2446.090292,0.000000,-8512.368333,689.485948
2446.090619,296.082377,-8660.409521,689.485948
2446.090947,1036.288319,-9992.780217,-383.047749
2446.091274,1702.473667,-10584.944971,-459.657299
2446.091602,1776.494261,-10436.903782,-306.438199
2446.091929,1332.370696,-10436.903782,-306.438199
2446.092256,592.164754,-9474.636058,-1072.533697
2446.092584,0.000000,-9992.780217,0.000000
2446.092911,-370.102971,-9030.512492,0.000000
2446.093239,-370.102971,-8956.491898,0.000000
2446.093566,222.061783,-9400.615463,0.000000
2446.093894,222.061783,-9844.739029,-229.828649
2446.094221,666.185348,-10584.944971,-766.095498
2446.094549,0.000000,-9918.759623,-842.705048
2446.094876,-666.185348,-9844.739029,-1762.019645
2446.095204,-1258.350101,-9770.718434,-1532.190996
2446.095531,-592.164754,-10288.862594,-1608.800546
2446.095858,74.020594,-9918.759623,-689.485948
2446.096186,888.247130,-9844.739029,0.000000
2446.096513,1332.370696,-10066.800811,689.485948
2446.096841,1850.514855,-9992.780217,919.314598
2446.097168,1776.494261,-10140.821405,919.314598
2446.097496,814.226536,-9770.718434,0.000000
2446.097823,-370.102971,-9992.780217,-766.095498
2446.098151,-444.123565,-9918.759623,-995.924147
2446.098478,-444.123565,-10288.862594,-766.095498
2446.098806,-888.247130,-9992.780217,229.828649
2446.099133,-592.164754,-9400.615463,153.219100
2446.099460,-296.082377,-8882.471304,153.219100
2446.099788,222.061783,-8734.430116,459.657299
2446.100115,222.061783,-9252.574275,689.485948
2446.100443,-222.061783,-8882.471304,919.314598
2446.100770,-370.102971,-8068.244768,306.438199
2446.101098,-370.102971,-8142.265362,459.657299
2446.101425,-814.226536,-8882.471304,0.000000
2446.101753,0.000000,-9252.574275,689.485948
2446.102080,1406.391290,-9326.594869,0.000000
2446.102408,1554.432478,-10140.821405,-536.266849
2446.102735,2072.576638,-11177.109724,-306.438199
2446.103062,2072.576638,-10955.047942,0.000000
2446.103390,1258.350101,-9992.780217,153.219100
2446.103717,592.164754,-9622.677246,153.219100
2446.104045,-148.041188,-9474.636058,-153.219100
2446.104372,-1110.308913,-9474.636058,-536.266849
2446.104700,-1184.329507,-9104.533087,-383.047749
2446.105027,-444.123565,-9252.574275,-766.095498
2446.105355,444.123565,-10140.821405,-995.924147
2446.105682,444.123565,-10362.883188,-766.095498
2446.106010,444.123565,-10066.800811,-842.705048
2446.106337,814.226536,-9992.780217,-1149.143247
2446.106664,518.144159,-10732.986159,-1608.800546
2446.106992,518.144159,-10510.924376,-766.095498
2446.107319,444.123565,-9622.677246,-306.438199
2446.107647,888.247130,-9400.615463,0.000000
2446.107974,1332.370696,-10066.800811,536.266849
2446.108302,2146.597232,-10955.047942,536.266849
2446.108629,2072.576638,-10658.965565,76.609550
2446.108957,1258.350101,-9696.697840,-306.438199
2446.109284,444.123565,-9326.594869,-229.828649
2446.109612,0.000000,-9844.739029,-536.266849
2446.109939,0.000000,-9844.739029,0.000000
2446.110267,-222.061783,-8882.471304,383.047749
2446.110594,148.041188,-8438.347739,459.657299
2446.110922,740.205942,-8956.491898,383.047749
2446.111249,1258.350101,-8660.409521,1072.533697
2446.111577,296.082377,-9326.594869,1149.143247
2446.111904,-370.102971,-9030.512492,766.095498
2446.112231,-888.247130,-8586.388927,-229.828649
2446.112559,-1036.288319,-8808.450710,-689.485948
2446.112886,-1332.370696,-8364.327145,-842.705048
2446.113214,-296.082377,-7846.182985,153.219100
2446.113541,1036.288319,-9622.677246,76.609550
2446.113869,2146.597232,-10362.883188,306.438199
2446.114196,2294.638420,-10584.944971,229.828649
2446.114524,1776.494261,-10288.862594,76.609550
2446.114851,740.205942,-10362.883188,0.000000
2446.115179,-444.123565,-9918.759623,-536.266849
2446.115506,-1850.514855,-9548.656652,-153.219100
2446.115834,-1554.432478,-9548.656652,-536.266849
2446.116161,-1332.370696,-9992.780217,-842.705048
2446.116489,-1184.329507,-10066.800811,-995.924147
2446.116816,-888.247130,-10214.842000,-995.924147
2446.117143,-222.061783,-10362.883188,-1149.143247
2446.117471,-296.082377,-10066.800811,-842.705048
2446.117798,-814.226536,-9622.677246,-1302.362347
2446.118126,-296.082377,-9548.656652,-306.438199
2446.118453,0.000000,-9474.636058,-459.657299
2446.118781,592.164754,-9622.677246,0.000000
2446.119108,888.247130,-9770.718434,229.828649
2446.119436,1480.411884,-10510.924376,306.438199
2446.119763,2220.617826,-10881.027347,-766.095498
2446.120091,1776.494261,-11029.068536,-842.705048
2446.120418,1184.329507,-10436.903782,-612.876398
2446.120746,518.144159,-10288.862594,-306.438199
2446.121073,0.000000,-9992.780217,-229.828649
2446.121401,-444.123565,-9622.677246,306.438199
2446.121728,-592.164754,-8808.450710,842.705048
2446.122055,148.041188,-7550.100608,919.314598
2446.122383,0.000000,-7254.018232,766.095498
2446.122710,296.082377,-7624.121203,842.705048
2446.123038,0.000000,-8290.306550,1455.581446
2446.123365,-148.041188,-8660.409521,383.047749
2446.123693,0.000000,-8808.450710,-383.047749
2446.124020,444.123565,-9178.553681,-842.705048
2446.124348,592.164754,-9400.615463,-459.657299
2446.124675,814.226536,-9770.718434,536.266849
2446.125003,1702.473667,-10436.903782,0.000000
2446.125330,2516.700203,-10732.986159,-306.438199
2446.125658,2368.659014,-10362.883188,76.609550
2446.125985,1776.494261,-10214.842000,459.657299
2446.126313,814.226536,-10214.842000,306.438199
2446.126640,0.000000,-9770.718434,383.047749
2446.126967,-1258.350101,-8734.430116,-1149.143247
2446.127295,-1776.494261,-8660.409521,-536.266849
2446.127622,-1406.391290,-9104.533087,-919.314598
2446.127950,-1036.288319,-9770.718434,-1225.752797
2446.128277,0.000000,-10584.944971,-995.924147
2446.128605,666.185348,-10955.047942,-1378.971896
2446.128932,222.061783,-10807.006753,-919.314598
2446.129260,0.000000,-10362.883188,-536.266849
2446.129587,444.123565,-10362.883188,-306.438199
2446.129915,222.061783,-9770.718434,-612.876398
2446.130242,296.082377,-9844.739029,-383.047749
2446.130570,666.185348,-9474.636058,0.000000
2446.130897,1554.432478,-9770.718434,76.609550
2446.131225,1628.453072,-10436.903782,536.266849
2446.131552,2072.576638,-10807.006753,536.266849
2446.131880,1184.329507,-10214.842000,0.000000
2446.132207,74.020594,-9844.739029,-153.219100
2446.132534,0.000000,-9474.636058,0.000000
2446.132862,-518.144159,-9622.677246,766.095498
2446.133189,-1258.350101,-8956.491898,1302.362347
2446.133517,-1332.370696,-8290.306550,1072.533697
2446.133844,-666.185348,-7402.059420,0.000000
2446.134172,-1184.329507,-8364.327145,153.219100
2446.134499,-1480.411884,-9252.574275,-383.047749
2446.134827,-1776.494261,-8734.430116,-459.657299
2446.135154,-1258.350101,-8586.388927,-1225.752797
2446.135482,-518.144159,-9104.533087,-766.095498
2446.135809,370.102971,-9252.574275,0.000000
2446.136137,1554.432478,-9696.697840,842.705048
2446.136464,2072.576638,-10066.800811,612.876398
2446.136792,2664.741391,-10066.800811,689.485948
2446.137119,2590.720797,-10732.986159,383.047749
2446.137446,1702.473667,-10658.965565,459.657299
2446.137774,518.144159,-10436.903782,-229.828649
2446.138101,-370.102971,-9992.780217,-1302.362347
2446.138429,-1480.411884,-10066.800811,-1532.190996
2446.138756,-1924.535449,-9918.759623,-1072.533697
2446.139084,-1776.494261,-9030.512492,-1225.752797
2446.139411,-962.267725,-9548.656652,-1532.190996
2446.139739,222.061783,-10807.006753,-1225.752797
2446.140066,1258.350101,-10584.944971,-995.924147
2446.140394,1184.329507,-10436.903782,-1072.533697
2446.140721,1110.308913,-10510.924376,-153.219100
2446.141049,1480.411884,-10288.862594,0.000000
2446.141376,1776.494261,-9992.780217,-229.828649
2446.141704,1406.391290,-9326.594869,153.219100
2446.142031,1406.391290,-9326.594869,229.828649
2446.142358,2516.700203,-10066.800811,0.000000
2446.142686,2664.741391,-11029.068536,689.485948
2446.143013,2442.679609,-10288.862594,229.828649
2446.143341,1406.391290,-9474.636058,766.095498
2446.143668,518.144159,-9178.553681,229.828649
2446.143996,0.000000,-9178.553681,536.266849
2446.144323,-888.247130,-8512.368333,842.705048
2446.144651,-1184.329507,-8068.244768,995.924147
2446.144978,-888.247130,-7624.121203,1455.581446
2446.145306,0.000000,-8142.265362,76.609550
2446.145633,-444.123565,-9252.574275,-1149.143247
2446.145961,-518.144159,-10510.924376,0.000000
2446.146288,-888.247130,-9696.697840,-689.485948
2446.146616,-1036.288319,-9252.574275,-1225.752797
2446.146943,-740.205942,-9918.759623,-995.924147
2446.147270,148.041188,-10288.862594,-536.266849
2446.147598,814.226536,-9696.697840,536.266849
2446.147925,1406.391290,-9918.759623,536.266849
2446.148253,1924.535449,-10510.924376,229.828649
2446.148580,2220.617826,-10584.944971,153.219100
2446.148908,1036.288319,-10288.862594,306.438199
2446.149235,-518.144159,-10214.842000,0.000000
2446.149563,-1184.329507,-10214.842000,-766.095498
2446.149890,-1850.514855,-10066.800811,-1991.848295
2446.150218,-1998.556043,-10066.800811,-1762.019645
2446.150545,-2072.576638,-9622.677246,-995.924147
2446.150873,-1258.350101,-9844.739029,-1149.143247
2446.151200,-148.041188,-10732.986159,-1072.533697
2446.151528,370.102971,-10584.944971,-842.705048
2446.151855,1036.288319,-10066.800811,-1302.362347
2446.152182,518.144159,-9622.677246,-459.657299
2446.152510,1554.432478,-9252.574275,0.000000
2446.152837,1036.288319,-8660.409521,689.485948
2446.153165,740.205942,-8734.430116,459.657299
2446.153492,1554.432478,-9326.594869,383.047749
2446.153820,2368.659014,-9918.759623,229.828649
2446.154147,2516.700203,-10510.924376,229.828649
2446.154475,1998.556043,-10955.047942,229.828649
2446.154802,1776.494261,-10436.903782,-153.219100
2446.155130,666.185348,-9030.512492,-306.438199
2446.155457,0.000000,-9548.656652,229.828649
2446.155785,-518.144159,-9104.533087,689.485948
2446.156112,-814.226536,-7920.203579,1072.533697
2446.156440,-370.102971,-7328.038826,1072.533697
2446.156767,74.020594,-8290.306550,-229.828649
2446.157095,74.020594,-9326.594869,0.000000
2446.157422,370.102971,-10214.842000,229.828649
2446.157749,0.000000,-10066.800811,-612.876398
2446.158077,0.000000,-10288.862594,-842.705048
2446.158404,296.082377,-10288.862594,-689.485948
2446.158732,518.144159,-9548.656652,-153.219100
2446.159059,740.205942,-9104.533087,459.657299
2446.159387,1184.329507,-9992.780217,1072.533697
2446.159714,1554.432478,-10510.924376,0.000000
2446.160042,962.267725,-10140.821405,0.000000
2446.160369,0.000000,-9622.677246,0.000000
2446.160697,-814.226536,-9474.636058,-306.438199
2446.161024,-666.185348,-9918.759623,-536.266849
2446.161352,-666.185348,-9474.636058,-842.705048
2446.161679,-1036.288319,-9622.677246,-383.047749
2446.162007,-222.061783,-9696.697840,306.438199
2446.162334,0.000000,-9622.677246,-536.266849
2446.162661,592.164754,-10510.924376,-153.219100
2446.162989,592.164754,-10066.800811,-383.047749
2446.163316,296.082377,-9696.697840,-459.657299
2446.163644,148.041188,-10066.800811,-459.657299
2446.163971,74.020594,-9622.677246,-536.266849
2446.164299,370.102971,-9474.636058,-612.876398
2446.164626,148.041188,-9252.574275,0.000000
2446.164954,1036.288319,-9474.636058,0.000000
2446.165281,2146.597232,-10140.821405,-306.438199
2446.165609,2220.617826,-10658.965565,536.266849
2446.165936,1776.494261,-9844.739029,536.266849
2446.166264,888.247130,-9474.636058,229.828649
2446.166591,0.000000,-9400.615463,0.000000
2446.166919,-1110.308913,-9548.656652,0.000000
2446.167246,-1850.514855,-9252.574275,0.000000
2446.167573,-1850.514855,-8956.491898,0.000000
2446.167901,-962.267725,-8660.409521,-842.705048
2446.168228,-518.144159,-8734.430116,-1149.143247
2446.168556,370.102971,-9844.739029,0.000000
2446.168883,740.205942,-10362.883188,306.438199
2446.169211,814.226536,-9770.718434,-229.828649
2446.169538,592.164754,-9770.718434,-766.095498
2446.169866,666.185348,-9770.718434,-306.438199
2446.170193,666.185348,-9474.636058,229.828649
2446.170521,1110.308913,-8882.471304,1225.752797
2446.170848,1184.329507,-9770.718434,689.485948
2446.171176,1554.432478,-10658.965565,-306.438199
2446.171503,1184.329507,-10658.965565,0.000000
2446.171831,444.123565,-9918.759623,0.000000
2446.172158,-666.185348,-9622.677246,-459.657299
2446.172485,-1184.329507,-9326.594869,-1302.362347
2446.172813,-1184.329507,-9474.636058,-689.485948
2446.173140,-444.123565,-9252.574275,-842.705048
2446.173468,0.000000,-9252.574275,-153.219100
2446.173795,666.185348,-9622.677246,0.000000
2446.174123,1480.411884,-10510.924376,76.609550
2446.174450,1332.370696,-10658.965565,-306.438199
2446.174778,814.226536,-10807.006753,-153.219100
2446.175105,296.082377,-10140.821405,-536.266849
2446.175433,0.000000,-9400.615463,-995.924147
2446.175760,0.000000,-9474.636058,-536.266849
2446.176088,0.000000,-8808.450710,-383.047749
2446.176415,1110.308913,-9622.677246,-229.828649
2446.176743,2072.576638,-10807.006753,0.000000
2446.177070,2368.659014,-10955.047942,766.095498
2446.177397,1702.473667,-9548.656652,459.657299
2446.177725,296.082377,-9474.636058,0.000000
2446.178052,0.000000,-9252.574275,-306.438199
2446.178380,-1036.288319,-9178.553681,-229.828649
2446.178707,-1702.473667,-9104.533087,76.609550
2446.179035,-1258.350101,-8956.491898,76.609550
2446.179362,-148.041188,-9326.594869,-689.485948
2446.179690,296.082377,-9844.739029,-919.314598
2446.180017,74.020594,-10510.924376,-612.876398
2446.180345,296.082377,-9548.656652,-689.485948
2446.180672,296.082377,-9474.636058,-766.095498
2446.181000,518.144159,-9770.718434,-536.266849
2446.181327,888.247130,-9696.697840,229.828649
2446.181655,814.226536,-8808.450710,919.314598
2446.181982,1036.288319,-8734.430116,1302.362347
2446.182310,1184.329507,-9474.636058,1149.143247
2446.182637,1406.391290,-10658.965565,229.828649
2446.182964,962.267725,-10214.842000,76.609550
2446.183292,296.082377,-9844.739029,-383.047749
2446.183619,-740.205942,-9548.656652,-1302.362347
2446.183947,-1332.370696,-9548.656652,-1455.581446
2446.184274,-1184.329507,-10140.821405,-766.095498
2446.184602,-1702.473667,-8808.450710,0.000000
2446.184929,-296.082377,-9178.553681,0.000000
2446.185257,518.144159,-9622.677246,-536.266849
2446.185584,1258.350101,-9844.739029,-229.828649
2446.185912,1332.370696,-9770.718434,153.219100
2446.186239,370.102971,-9622.677246,229.828649
2446.186567,0.000000,-9252.574275,0.000000
2446.186894,0.000000,-9326.594869,-1149.143247
2446.187222,-518.144159,-9622.677246,-995.924147
2446.187549,444.123565,-9918.759623,-766.095498
2446.187876,1628.453072,-10214.842000,-383.047749
2446.188204,1702.473667,-10955.047942,153.219100
2446.188531,1554.432478,-10807.006753,306.438199
2446.188859,1036.288319,-9696.697840,-459.657299
2446.189186,222.061783,-9326.594869,459.657299
2446.189514,-296.082377,-9474.636058,-383.047749
2446.189841,-666.185348,-8882.471304,153.219100
2446.190169,-1184.329507,-8882.471304,229.828649
2446.190496,-1110.308913,-8956.491898,229.828649
2446.190824,0.000000,-9400.615463,306.438199
2446.191151,444.123565,-9992.780217,-1072.533697
2446.191479,1110.308913,-11103.089130,-383.047749
2446.191806,1332.370696,-10732.986159,-1685.410096
2446.192134,1036.288319,-10066.800811,-689.485948
2446.192461,888.247130,-10362.883188,0.000000
2446.192788,814.226536,-9474.636058,842.705048
2446.193116,296.082377,-8512.368333,995.924147
2446.193443,592.164754,-8882.471304,1455.581446
2446.193771,1628.453072,-9474.636058,153.219100
2446.194098,1036.288319,-9474.636058,536.266849
2446.194426,814.226536,-9474.636058,229.828649
2446.194753,222.061783,-9548.656652,0.000000
2446.195081,-518.144159,-9474.636058,-612.876398
2446.195408,-814.226536,-9918.759623,-1149.143247
2446.195736,-814.226536,-9992.780217,-766.095498
2446.196063,-740.205942,-9844.739029,-153.219100
2446.196391,0.000000,-9548.656652,153.219100
2446.196718,814.226536,-9548.656652,-306.438199
2446.197046,1184.329507,-9918.759623,0.000000
2446.197373,666.185348,-9992.780217,153.219100
2446.197700,74.020594,-9844.739029,-229.828649
2446.198028,74.020594,-9474.636058,-383.047749
2446.198355,74.020594,-9252.574275,-1455.581446
2446.198683,-370.102971,-8882.471304,-229.828649
2446.199010,74.020594,-9474.636058,153.219100
2446.199338,814.226536,-9918.759623,0.000000
2446.199665,1628.453072,-10288.862594,0.000000
2446.199993,1850.514855,-10362.883188,-383.047749
2446.200320,1184.329507,-10288.862594,0.000000
2446.200648,74.020594,-9918.759623,-612.876398
2446.200975,-666.185348,-9622.677246,0.000000
2446.201303,-1036.288319,-9844.739029,-689.485948
2446.201630,-1036.288319,-9474.636058,-459.657299
2446.201958,-888.247130,-9252.574275,-536.266849
2446.202285,0.000000,-9474.636058,-766.095498
2446.202613,1036.288319,-10510.924376,-536.266849
2446.202940,1480.411884,-10658.965565,-383.047749
2446.203267,1406.391290,-9474.636058,689.485948
2446.203595,740.205942,-9326.594869,536.266849
2446.203922,0.000000,-9474.636058,612.876398
2446.204250,-296.082377,-8734.430116,459.657299
2446.204577,-740.205942,-8364.327145,383.047749
2446.204905,-592.164754,-8290.306550,995.924147
2446.205232,0.000000,-9474.636058,383.047749
2446.205560,370.102971,-10066.800811,-229.828649
2446.205887,148.041188,-10362.883188,-689.485948
2446.206215,-370.102971,-10140.821405,-1149.143247
2446.206542,-592.164754,-9696.697840,-1378.971896
2446.206870,-370.102971,-9844.739029,-1302.362347
2446.207197,0.000000,-9844.739029,0.000000
2446.207525,814.226536,-9844.739029,153.219100
2446.207852,1258.350101,-9400.615463,1149.143247
2446.208180,1332.370696,-9770.718434,536.266849
2446.208508,888.247130,-9770.718434,306.438199
2446.208835,518.144159,-9770.718434,-306.438199
2446.209163,222.061783,-9992.780217,-689.485948
2446.209490,0.000000,-9770.718434,-766.095498
2446.209818,-222.061783,-9992.780217,-1225.752797
2446.210145,0.000000,-9474.636058,-459.657299
2446.210473,518.144159,-9474.636058,-229.828649
2446.210800,1110.308913,-9992.780217,-229.828649
2446.211128,1776.494261,-10436.903782,0.000000
2446.211455,2072.576638,-9992.780217,-459.657299
2446.211783,1702.473667,-10066.800811,-536.266849
2446.212111,888.247130,-10362.883188,689.485948
2446.212438,370.102971,-10140.821405,76.609550
2446.212766,-296.082377,-9622.677246,-459.657299
2446.213093,-518.144159,-9474.636058,-383.047749
2446.213421,0.000000,-9104.533087,-612.876398
2446.213748,592.164754,-9622.677246,-383.047749
2446.214076,1110.308913,-9474.636058,76.609550
2446.214403,1110.308913,-9400.615463,536.266849
2446.214731,666.185348,-9252.574275,536.266849
2446.215059,0.000000,-9104.533087,459.657299
2446.215386,-444.123565,-8364.327145,306.438199
2446.215714,-518.144159,-8734.430116,76.609550
2446.216041,-740.205942,-8808.450710,306.438199
2446.216369,-444.123565,-8956.491898,766.095498
2446.216696,592.164754,-10732.986159,383.047749
2446.217024,148.041188,-10510.924376,-536.266849
2446.217351,74.020594,-10658.965565,-995.924147
2446.217679,-444.123565,-10362.883188,-995.924147
2446.218006,-518.144159,-9844.739029,-1072.533697
2446.218334,-296.082377,-10066.800811,-383.047749
2446.218662,0.000000,-10362.883188,842.705048
2446.218989,-518.144159,-9770.718434,766.095498
2446.219317,0.000000,-9030.512492,76.609550
2446.219644,444.123565,-9178.553681,-306.438199
2446.219972,0.000000,-9770.718434,-229.828649
2446.220299,0.000000,-10214.842000,0.000000
2446.220627,0.000000,-9770.718434,-995.924147
2446.220954,0.000000,-9918.759623,-919.314598
2446.221282,296.082377,-9992.780217,-306.438199
2446.221609,444.123565,-10510.924376,-459.657299
2446.221937,518.144159,-9844.739029,0.000000
2446.222265,1332.370696,-10214.842000,-689.485948
2446.222592,1628.453072,-10584.944971,-612.876398
2446.222920,2146.597232,-9844.739029,0.000000
2446.223247,1924.535449,-9400.615463,536.266849
2446.223575,962.267725,-9548.656652,689.485948
2446.223902,518.144159,-9770.718434,-536.266849
2446.224230,148.041188,-9770.718434,-229.828649
2446.224557,-370.102971,-9326.594869,-612.876398
2446.224885,-148.041188,-9030.512492,-229.828649
2446.225212,666.185348,-9252.574275,0.000000
2446.225540,1184.329507,-9844.739029,-536.266849
2446.225868,1332.370696,-10140.821405,919.314598
2446.226195,1036.288319,-9474.636058,1149.143247
2446.226523,74.020594,-8882.471304,0.000000
2446.226850,-74.020594,-9474.636058,-229.828649
2446.227178,-518.144159,-9326.594869,0.000000
2446.227505,-592.164754,-8512.368333,229.828649
2446.227833,74.020594,-8660.409521,-229.828649
2446.228160,1036.288319,-9474.636058,919.314598
2446.228488,1850.514855,-10510.924376,229.828649
2446.228816,1110.308913,-10732.986159,0.000000
2446.229143,444.123565,-10732.986159,-536.266849
2446.229471,0.000000,-10955.047942,-1149.143247
2446.229798,-814.226536,-10584.944971,-1149.143247
2446.230126,-1480.411884,-9104.533087,0.000000
2446.230453,-1776.494261,-8734.430116,0.000000
2446.230781,-1184.329507,-8734.430116,-306.438199
2446.231108,-1036.288319,-9696.697840,-229.828649
2446.231436,-888.247130,-9770.718434,-229.828649
2446.231763,-962.267725,-9474.636058,-459.657299
2446.232091,-1036.288319,-9622.677246,-536.266849
2446.232419,-814.226536,-9696.697840,-1072.533697
2446.232746,74.020594,-10658.965565,-766.095498
2446.233074,296.082377,-9400.615463,-229.828649
2446.233401,1554.432478,-9400.615463,536.266849
2446.233729,2294.638420,-9770.718434,842.705048
2446.234056,2516.700203,-10288.862594,689.485948
2446.234384,2590.720797,-10214.842000,612.876398
2446.234711,1184.329507,-9622.677246,76.609550
2446.235039,-444.123565,-10288.862594,-229.828649
2446.235366,-962.267725,-10732.986159,-919.314598
2446.235694,-370.102971,-9622.677246,-919.314598
2446.236022,-592.164754,-9548.656652,-383.047749
2446.236349,0.000000,-9474.636058,153.219100
2446.236677,814.226536,-9252.574275,153.219100
2446.237004,1184.329507,-9474.636058,0.000000
2446.237332,1406.391290,-9844.739029,-766.095498
2446.237659,222.061783,-8586.388927,229.828649
2446.237987,-296.082377,-8438.347739,-383.047749
2446.238314,-370.102971,-8956.491898,-612.876398
2446.238642,0.000000,-9252.574275,-612.876398
2446.238969,444.123565,-9548.656652,0.000000
2446.239297,888.247130,-9770.718434,0.000000
2446.239625,2072.576638,-10807.006753,-689.485948
2446.239952,2294.638420,-11029.068536,-229.828649
2446.240280,1258.350101,-10288.862594,-306.438199
2446.240607,1110.308913,-9992.780217,-306.438199
2446.240935,518.144159,-9474.636058,-459.657299
2446.241262,0.000000,-9474.636058,0.000000
2446.241590,-296.082377,-9252.574275,0.000000
2446.241917,-296.082377,-8956.491898,0.000000
2446.242245,0.000000,-9548.656652,-536.266849
2446.242573,0.000000,-10214.842000,-766.095498
2446.242900,0.000000,-10362.883188,-1072.533697
2446.243228,0.000000,-10214.842000,-995.924147
2446.243555,-222.061783,-9844.739029,-766.095498
2446.243883,148.041188,-10066.800811,-766.095498
2446.244210,74.020594,-9770.718434,-919.314598
2446.244538,444.123565,-9548.656652,536.266849
2446.244865,1110.308913,-9696.697840,689.485948
2446.245193,1998.556043,-9992.780217,612.876398
2446.245520,2072.576638,-9992.780217,383.047749
2446.245848,1998.556043,-9770.718434,0.000000
2446.246176,1036.288319,-9844.739029,0.000000
2446.246503,-222.061783,-9992.780217,153.219100
2446.246831,-518.144159,-10584.944971,-229.828649
2446.247158,-666.185348,-10140.821405,-766.095498
2446.247486,-1258.350101,-9844.739029,0.000000
2446.247813,-1110.308913,-8882.471304,0.000000
2446.248141,-592.164754,-8512.368333,-153.219100
2446.248468,148.041188,-9548.656652,229.828649
2446.248796,296.082377,-9178.553681,1225.752797
2446.249123,0.000000,-8882.471304,229.828649
2446.249451,-740.205942,-8512.368333,229.828649
2446.249779,-814.226536,-8660.409521,0.000000
2446.250106,-1036.288319,-8956.491898,0.000000
2446.250434,-740.205942,-9178.553681,229.828649
2446.250761,148.041188,-9400.615463,-459.657299
2446.251089,2072.576638,-10658.965565,-2221.676944
2446.251416,1776.494261,-10584.944971,-766.095498
2446.251744,1554.432478,-10955.047942,-536.266849
2446.252071,1036.288319,-10436.903782,-306.438199
2446.252399,444.123565,-9622.677246,-612.876398
2446.252726,-222.061783,-9400.615463,-536.266849
2446.253054,-814.226536,-8882.471304,0.000000
2446.253382,0.000000,-9104.533087,-612.876398
2446.253709,592.164754,-9474.636058,-306.438199
2446.254037,444.123565,-9844.739029,-459.657299
2446.254364,74.020594,-10288.862594,-536.266849
2446.254692,444.123565,-10214.842000,-612.876398
2446.255019,222.061783,-9992.780217,-1225.752797
2446.255347,518.144159,-9844.739029,-766.095498
2446.255674,888.247130,-9844.739029,-612.876398
2446.256002,1258.350101,-9474.636058,0.000000
2446.256330,1480.411884,-8956.491898,689.485948
2446.256657,1998.556043,-9548.656652,612.876398
2446.256985,2590.720797,-10732.986159,229.828649
2446.257312,2220.617826,-9918.759623,306.438199
2446.257640,1554.432478,-9770.718434,0.000000
2446.257967,518.144159,-10066.800811,153.219100
2446.258295,-592.164754,-10066.800811,612.876398
2446.258622,-518.144159,-9844.739029,229.828649
2446.258950,-1110.308913,-9400.615463,0.000000
2446.259277,-1036.288319,-9326.594869,0.000000
2446.259605,-148.041188,-8882.471304,-229.828649
2446.259933,222.061783,-8956.491898,0.000000
2446.260260,0.000000,-8364.327145,306.438199
2446.260588,-518.144159,-8586.388927,0.000000
2446.260915,-1110.308913,-8586.388927,0.000000
2446.261243,-1036.288319,-9030.512492,-153.219100
2446.261570,-962.267725,-9252.574275,-153.219100
2446.261898,0.000000,-9696.697840,0.000000
2446.262225,888.247130,-10510.924376,-612.876398
2446.262553,1628.453072,-11251.130318,-612.876398
2446.262880,2220.617826,-11251.130318,-536.266849
2446.263208,1258.350101,-10510.924376,-153.219100
2446.263536,444.123565,-9992.780217,-229.828649
2446.263863,-370.102971,-9474.636058,-612.876398
2446.264191,-1332.370696,-9252.574275,-612.876398
2446.264518,-1554.432478,-8586.388927,-229.828649
2446.264846,-1332.370696,-8068.244768,-383.047749
2446.265173,-296.082377,-9104.533087,-536.266849
2446.265501,296.082377,-10140.821405,-612.876398
2446.265828,370.102971,-10436.903782,-536.266849
2446.266156,222.061783,-10584.944971,-842.705048
2446.266483,0.000000,-9992.780217,-1072.533697
2446.266811,148.041188,-9622.677246,-1149.143247
2446.267139,370.102971,-9104.533087,-689.485948
2446.267466,1184.329507,-9474.636058,306.438199
2446.267794,1702.473667,-9770.718434,459.657299
2446.268121,2516.700203,-10140.821405,229.828649
2446.268449,2738.761985,-10436.903782,76.609550
2446.268776,1998.556043,-10288.862594,153.219100
2446.269104,370.102971,-9548.656652,229.828649
2446.269431,-296.082377,-9252.574275,0.000000
2446.269759,-814.226536,-9252.574275,0.000000
2446.270087,-1110.308913,-9400.615463,76.609550
2446.270414,-1036.288319,-9178.553681,383.047749
2446.270742,-888.247130,-8438.347739,76.609550
2446.271069,-370.102971,-8660.409521,0.000000
2446.271397,0.000000,-9104.533087,-612.876398
2446.271724,0.000000,-9474.636058,-689.485948
2446.272052,-370.102971,-9030.512492,-919.314598
2446.272379,296.082377,-9770.718434,-459.657299
2446.272707,222.061783,-9918.759623,-153.219100
2446.273034,518.144159,-9770.718434,0.000000
2446.273362,962.267725,-10066.800811,76.609550
2446.273690,2072.576638,-10510.924376,459.657299
2446.274017,2590.720797,-10584.944971,0.000000
2446.274345,2738.761985,-10807.006753,76.609550
2446.274672,1776.494261,-10732.986159,76.609550
2446.275000,962.267725,-9844.739029,-153.219100
2446.275327,-296.082377,-9252.574275,-306.438199
2446.275655,-1554.432478,-9178.553681,-229.828649
2446.275982,-1554.432478,-9030.512492,0.000000
2446.276310,-1258.350101,-9770.718434,-689.485948
2446.276637,-888.247130,-9770.718434,-1225.752797
2446.276965,-370.102971,-10140.821405,-536.266849
2446.277293,-222.061783,-10584.944971,-689.485948
2446.277620,-370.102971,-10288.862594,-612.876398
2446.277948,-370.102971,-9696.697840,-842.705048
2446.278275,222.061783,-9622.677246,-766.095498
2446.278603,592.164754,-9400.615463,-229.828649
2446.278930,1036.288319,-8808.450710,1149.143247
2446.279258,1110.308913,-8512.368333,1149.143247
2446.279585,1924.535449,-9696.697840,383.047749
2446.279913,2220.617826,-10510.924376,0.000000
2446.280240,1702.473667,-10881.027347,-229.828649
2446.280568,74.020594,-10436.903782,0.000000
2446.280896,222.061783,-10584.944971,0.000000
2446.281223,0.000000,-9474.636058,0.000000
2446.281551,-518.144159,-9548.656652,-153.219100
2446.281878,-962.267725,-9252.574275,383.047749
2446.282206,-888.247130,-8364.327145,0.000000
2446.282533,-296.082377,-8734.430116,-995.924147
2446.282861,-222.061783,-9030.512492,-1149.143247
2446.283188,0.000000,-8956.491898,-612.876398
2446.283516,-666.185348,-9030.512492,-383.047749
2446.283844,0.000000,-9474.636058,-306.438199
2446.284171,518.144159,-9622.677246,-383.047749
2446.284499,1184.329507,-9770.718434,76.609550
2446.284826,1702.473667,-10140.821405,153.219100
2446.285154,2442.679609,-10362.883188,76.609550
2446.285481,3330.926739,-11251.130318,459.657299
2446.285809,2738.761985,-10955.047942,612.876398
2446.286136,2072.576638,-9844.739029,-153.219100
2446.286464,444.123565,-9326.594869,-459.657299
2446.286791,-518.144159,-9770.718434,-842.705048
2446.287119,-1258.350101,-9770.718434,-689.485948
2446.287447,-1628.453072,-8586.388927,-842.705048
2446.287774,-1480.411884,-8586.388927,-1302.362347
2446.288102,-666.185348,-9622.677246,-995.924147
2446.288429,0.000000,-10510.924376,-612.876398
2446.288757,222.061783,-10732.986159,-612.876398
2446.289084,0.000000,-10214.842000,-383.047749
2446.289412,518.144159,-9918.759623,-766.095498
2446.289739,666.185348,-9770.718434,-1225.752797
2446.290067,888.247130,-9400.615463,919.314598
2446.290394,740.205942,-9030.512492,919.314598
2446.290722,1480.411884,-9252.574275,612.876398
2446.291050,1776.494261,-10066.800811,0.000000
2446.291377,1702.473667,-10066.800811,229.828649
2446.291705,1184.329507,-9770.718434,153.219100
2446.292032,740.205942,-10362.883188,536.266849
2446.292360,222.061783,-9918.759623,-229.828649
2446.292687,-888.247130,-9992.780217,76.609550
2446.293015,-1480.411884,-9178.553681,0.000000
2446.293342,-1628.453072,-8882.471304,0.000000
2446.293670,-1258.350101,-8512.368333,-383.047749
2446.293997,-518.144159,-8808.450710,-1149.143247
2446.294325,0.000000,-9474.636058,-1302.362347
2446.294653,-1036.288319,-9400.615463,-766.095498
2446.294980,-296.082377,-9548.656652,306.438199
2446.295308,592.164754,-9770.718434,-306.438199
2446.295635,740.205942,-9770.718434,-536.266849
2446.295963,1110.308913,-9622.677246,0.000000
2446.296290,1406.391290,-9992.780217,383.047749
2446.296618,1850.514855,-10436.903782,919.314598
2446.296945,2886.803174,-11029.068536,0.000000
2446.297273,2516.700203,-10436.903782,76.609550
2446.297601,1406.391290,-10288.862594,-1072.533697
2446.297928,0.000000,-9548.656652,-919.314598
2446.298256,-1036.288319,-9548.656652,-1302.362347
2446.298583,-1332.370696,-9844.739029,-1225.752797
2446.298911,-1406.391290,-9104.533087,-1149.143247
2446.299238,-592.164754,-9400.615463,-1378.971896
2446.299566,74.020594,-9178.553681,-842.705048
2446.299893,1480.411884,-10140.821405,-842.705048
2446.300221,1258.350101,-10732.986159,0.000000
2446.300548,592.164754,-10436.903782,153.219100
2446.300876,592.164754,-9696.697840,-229.828649
2446.301204,370.102971,-9104.533087,-766.095498
2446.301531,148.041188,-8882.471304,-612.876398
2446.301859,-148.041188,-8512.368333,229.828649
2446.302186,1036.288319,-9326.594869,0.000000
2446.302514,1184.329507,-10140.821405,76.609550
2446.302841,1480.411884,-9918.759623,229.828649
2446.303169,1258.350101,-9992.780217,383.047749
2446.303496,444.123565,-9844.739029,689.485948
2446.303824,0.000000,-9474.636058,1149.143247
2446.304151,0.000000,-9178.553681,459.657299
2446.304479,-1184.329507,-9104.533087,229.828649
2446.304807,-1480.411884,-8734.430116,766.095498
2446.305134,-1258.350101,-8364.327145,76.609550
2446.305462,-666.185348,-9030.512492,-612.876398
2446.305789,0.000000,-9844.739029,-459.657299
2446.306117,0.000000,-10288.862594,-842.705048
2446.306444,74.020594,-9474.636058,-612.876398
2446.306772,222.061783,-9770.718434,-919.314598
2446.307099,518.144159,-9918.759623,-459.657299
2446.307427,592.164754,-10066.800811,0.000000
2446.307755,1036.288319,-10066.800811,306.438199
2446.308082,1184.329507,-10288.862594,689.485948
2446.308410,2442.679609,-10584.944971,-153.219100
2446.308737,2146.597232,-10584.944971,-919.314598
2446.309065,518.144159,-9918.759623,-459.657299
2446.309392,-666.185348,-9252.574275,-689.485948
2446.309720,-1480.411884,-9844.739029,-1532.190996
2446.310048,-1998.556043,-9770.718434,-1532.190996
2446.310375,-1554.432478,-9696.697840,-995.924147
2446.310703,-1184.329507,-8882.471304,-919.314598
2446.311030,370.102971,-9104.533087,-766.095498
2446.311358,1258.350101,-10066.800811,-229.828649
2446.311686,962.267725,-10140.821405,153.219100
2446.312013,888.247130,-9770.718434,0.000000
2446.312341,888.247130,-9326.594869,-842.705048
2446.312668,444.123565,-8586.388927,-612.876398
2446.312996,0.000000,-8142.265362,153.219100
2446.313323,0.000000,-8734.430116,459.657299
2446.313651,1258.350101,-9548.656652,306.438199
2446.313979,2368.659014,-10584.944971,153.219100
2446.314306,2294.638420,-10881.027347,383.047749
2446.314634,1406.391290,-10066.800811,612.876398
2446.314961,296.082377,-9474.636058,229.828649
2446.315289,-888.247130,-8808.450710,306.438199
2446.315617,-1554.432478,-9030.512492,-229.828649
2446.315944,-1332.370696,-9030.512492,76.609550
2446.316272,-962.267725,-8734.430116,0.000000
2446.316599,-296.082377,-9326.594869,-459.657299
2446.316927,666.185348,-10066.800811,-842.705048
2446.317254,666.185348,-10362.883188,-229.828649
2446.317582,518.144159,-10881.027347,-536.266849
2446.317910,222.061783,-10140.821405,-995.924147
2446.318237,148.041188,-9844.739029,-306.438199
2446.318565,518.144159,-9622.677246,0.000000
2446.318892,592.164754,-9622.677246,536.266849
2446.319220,814.226536,-9696.697840,995.924147
2446.319548,1554.432478,-10584.944971,306.438199
2446.319875,1850.514855,-10584.944971,-383.047749
2446.320203,1406.391290,-9622.677246,-919.314598
2446.320530,296.082377,-9474.636058,-1455.581446
2446.320858,-962.267725,-9326.594869,-1225.752797
2446.321186,-1850.514855,-9696.697840,-842.705048
2446.321513,-1628.453072,-10066.800811,-612.876398
2446.321841,-962.267725,-9474.636058,-383.047749
2446.322168,0.000000,-9622.677246,-536.266849
2446.322496,0.000000,-9696.697840,-383.047749
2446.322823,296.082377,-9992.780217,-536.266849
2446.323151,592.164754,-9918.759623,-383.047749
2446.323479,296.082377,-9178.553681,-306.438199
2446.323806,592.164754,-8882.471304,-229.828649
2446.324134,666.185348,-8882.471304,-383.047749
2446.324461,740.205942,-9326.594869,0.000000
2446.324789,1184.329507,-9400.615463,153.219100
2446.325117,1924.535449,-9622.677246,76.609550
2446.325444,2294.638420,-10436.903782,229.828649
2446.325772,1850.514855,-10658.965565,306.438199
2446.326099,1332.370696,-10288.862594,383.047749
2446.326427,592.164754,-9844.739029,0.000000
2446.326754,0.000000,-9474.636058,-153.219100
2446.327082,-1184.329507,-8956.491898,-229.828649
2446.327410,-1924.535449,-8216.285956,0.000000
2446.327737,-1850.514855,-8290.306550,-536.266849
2446.328065,-740.205942,-8956.491898,-1149.143247
2446.328392,444.123565,-9770.718434,-1149.143247
2446.328720,962.267725,-9474.636058,-306.438199
2446.329048,1332.370696,-9992.780217,0.000000
2446.329375,1184.329507,-10288.862594,306.438199
2446.329703,518.144159,-10140.821405,459.657299
2446.330030,222.061783,-9696.697840,0.000000
2446.330358,296.082377,-9400.615463,76.609550
2446.330686,370.102971,-9474.636058,459.657299
2446.331013,1036.288319,-10288.862594,229.828649
2446.331341,1184.329507,-10436.903782,0.000000
2446.331668,444.123565,-10214.842000,-459.657299
2446.331996,0.000000,-9696.697840,-689.485948
2446.332323,-1184.329507,-8882.471304,-1149.143247
2446.332651,-1406.391290,-9548.656652,-536.266849
2446.332979,-962.267725,-9696.697840,-383.047749
2446.333306,-222.061783,-9548.656652,76.609550
2446.333634,-296.082377,-9474.636058,0.000000
2446.333961,370.102971,-9992.780217,383.047749
2446.334289,1110.308913,-10510.924376,-1302.362347
2446.334617,740.205942,-10510.924376,-689.485948
2446.334944,444.123565,-9844.739029,-995.924147
2446.335272,444.123565,-9474.636058,-1225.752797
2446.335599,518.144159,-9474.636058,-612.876398
2446.335927,370.102971,-8882.471304,0.000000
2446.336254,740.205942,-8882.471304,766.095498
2446.336582,1628.453072,-9474.636058,689.485948
2446.336910,2294.638420,-10214.842000,612.876398
2446.337237,1998.556043,-9918.759623,229.828649
2446.337565,1184.329507,-9992.780217,536.266849
2446.337892,296.082377,-9696.697840,306.438199
2446.338220,-296.082377,-9770.718434,0.000000
2446.338548,-1110.308913,-8956.491898,-306.438199
2446.338875,-1554.432478,-9474.636058,-919.314598
2446.339203,-1110.308913,-9474.636058,-995.924147
2446.339530,-518.144159,-9474.636058,-919.314598
2446.339858,592.164754,-9622.677246,-919.314598
2446.340185,740.205942,-9992.780217,0.000000
2446.340513,222.061783,-9622.677246,0.000000
2446.340841,222.061783,-9474.636058,995.924147
2446.341168,74.020594,-9696.697840,0.000000
2446.341496,0.000000,-8882.471304,229.828649
2446.341823,-148.041188,-8290.306550,919.314598
2446.342151,222.061783,-9030.512492,1072.533697
2446.342479,666.185348,-10066.800811,459.657299
2446.342806,962.267725,-10140.821405,-306.438199
2446.343134,666.185348,-10140.821405,-995.924147
2446.343461,-222.061783,-10214.842000,-1455.581446
2446.343789,-296.082377,-10288.862594,-1455.581446
2446.344117,-814.226536,-10362.883188,-689.485948
2446.344444,-814.226536,-9992.780217,0.000000
2446.344772,0.000000,-9474.636058,0.000000
2446.345099,370.102971,-8512.368333,0.000000
2446.345427,888.247130,-9252.574275,0.000000
2446.345754,1184.329507,-9622.677246,-229.828649
2446.346082,74.020594,-9474.636058,-229.828649
2446.346410,296.082377,-9770.718434,-842.705048
2446.346737,74.020594,-9918.759623,-1225.752797
2446.347065,0.000000,-9474.636058,-766.095498
2446.347392,370.102971,-9844.739029,-306.438199
2446.347720,1258.350101,-9770.718434,383.047749
2446.348048,1480.411884,-10658.965565,76.609550
2446.348375,1628.453072,-10732.986159,229.828649
2446.348703,1110.308913,-10214.842000,0.000000
2446.349030,74.020594,-9844.739029,0.000000
2446.349358,-444.123565,-9622.677246,76.609550
2446.349685,-1332.370696,-9252.574275,-306.438199
2446.350013,-1184.329507,-9252.574275,-536.266849
2446.350341,-1406.391290,-9474.636058,0.000000
2446.350668,-814.226536,-9474.636058,-766.095498
2446.350996,0.000000,-9326.594869,-1225.752797
2446.351323,592.164754,-9770.718434,-1072.533697
2446.351651,666.185348,-10214.842000,0.000000
2446.351979,666.185348,-9844.739029,76.609550
2446.352306,1036.288319,-9400.615463,689.485948
2446.352634,370.102971,-8956.491898,1302.362347
2446.352961,666.185348,-8808.450710,612.876398
2446.353289,148.041188,-8808.450710,689.485948
2446.353616,0.000000,-8882.471304,306.438199
2446.353944,370.102971,-9548.656652,0.000000
2446.354272,1036.288319,-10066.800811,-459.657299
2446.354599,1036.288319,-9548.656652,-612.876398
2446.354927,1110.308913,-9992.780217,-995.924147
2446.355254,666.185348,-10066.800811,-536.266849
2446.355582,444.123565,-10732.986159,0.000000
2446.355910,370.102971,-10658.965565,-229.828649
2446.356237,222.061783,-9770.718434,76.609550
2446.356565,1036.288319,-9474.636058,-229.828649
2446.356892,1258.350101,-9622.677246,-153.219100
2446.357220,814.226536,-9474.636058,536.266849
2446.357548,296.082377,-9474.636058,0.000000
2446.357875,0.000000,-9844.739029,-919.314598
2446.358203,370.102971,-9992.780217,-1685.410096
2446.358530,148.041188,-9918.759623,-1302.362347
2446.358858,0.000000,-9474.636058,-536.266849
2446.359185,814.226536,-9104.533087,459.657299
2446.359513,1776.494261,-10066.800811,229.828649
2446.359841,1850.514855,-10658.965565,229.828649
2446.360168,1628.453072,-10584.944971,229.828649
2446.360496,740.205942,-10362.883188,306.438199
2446.360823,0.000000,-10436.903782,-153.219100
2446.361151,-1110.308913,-9622.677246,-153.219100
2446.361479,-1554.432478,-10140.821405,0.000000
2446.361806,-1776.494261,-8956.491898,-689.485948
2446.362134,-962.267725,-8882.471304,-459.657299
2446.362461,-296.082377,-8956.491898,-689.485948
2446.362789,370.102971,-9474.636058,0.000000
2446.363116,148.041188,-9326.594869,689.485948
2446.363444,0.000000,-8882.471304,919.314598
2446.363772,-370.102971,-9178.553681,1378.971896
2446.364099,0.000000,-9252.574275,459.657299
2446.364427,-666.185348,-8586.388927,306.438199
2446.364754,-740.205942,-8808.450710,383.047749
2446.365082,-222.061783,-9548.656652,0.000000
2446.365410,518.144159,-10214.842000,-689.485948
2446.365737,888.247130,-9992.780217,-459.657299
2446.366065,1184.329507,-10214.842000,-689.485948
2446.366392,370.102971,-10066.800811,0.000000
2446.366720,518.144159,-10436.903782,-459.657299
2446.367047,222.061783,-10362.883188,0.000000
2446.367375,148.041188,-9696.697840,0.000000
2446.367703,222.061783,-9178.553681,-229.828649
2446.368030,444.123565,-9696.697840,-842.705048
2446.368358,1258.350101,-9548.656652,-383.047749
2446.368685,1036.288319,-9696.697840,-459.657299
2446.369013,222.061783,-10140.821405,-919.314598
2446.369341,148.041188,-10140.821405,-1762.019645
2446.369668,222.061783,-10436.903782,-1608.800546
2446.369996,518.144159,-10584.944971,-1149.143247
2446.370323,1110.308913,-9770.718434,-306.438199
2446.370651,2072.576638,-9474.636058,0.000000
2446.370979,2516.700203,-10214.842000,842.705048
2446.371306,3034.844362,-10288.862594,1225.752797
2446.371634,2442.679609,-10140.821405,995.924147
2446.371961,1110.308913,-10436.903782,612.876398
2446.372289,0.000000,-9622.677246,0.000000
2446.372616,-592.164754,-9400.615463,-766.095498
2446.372944,-1702.473667,-8882.471304,-842.705048
2446.373272,-1924.535449,-8438.347739,76.609550
2446.373599,-666.185348,-8956.491898,0.000000
2446.373927,74.020594,-8808.450710,-383.047749
2446.374254,518.144159,-8956.491898,76.609550
2446.374582,370.102971,-9178.553681,995.924147
2446.374910,222.061783,-8660.409521,1149.143247
2446.375237,444.123565,-9326.594869,1455.581446
2446.375565,-592.164754,-8438.347739,1225.752797
2446.375892,-1036.288319,-8364.327145,536.266849
2446.376220,-1184.329507,-8660.409521,229.828649
2446.376547,-518.144159,-9696.697840,-459.657299
2446.376875,0.000000,-10732.986159,-1149.143247
2446.377203,592.164754,-11103.089130,-995.924147
2446.377530,814.226536,-11843.295072,-612.876398
2446.377858,962.267725,-10955.047942,-1072.533697
2446.378185,444.123565,-10732.986159,-995.924147
2446.378513,-370.102971,-10658.965565,-229.828649
2446.378841,-814.226536,-9696.697840,-229.828649
2446.379168,-666.185348,-9252.574275,-612.876398
2446.379496,-592.164754,-9178.553681,-1225.752797
2446.379823,0.000000,-10214.842000,-766.095498
2446.380151,-222.061783,-10584.944971,-536.266849
2446.380479,0.000000,-10658.965565,-1302.362347
2446.380806,-370.102971,-10584.944971,-1991.848295
2446.381134,-518.144159,-10807.006753,-2145.067394
2446.381461,148.041188,-10436.903782,-1608.800546
2446.381789,1258.350101,-9326.594869,0.000000
2446.382116,962.267725,-8956.491898,842.705048
2446.382444,1332.370696,-9326.594869,1378.971896
2446.382772,2590.720797,-10066.800811,919.314598
2446.383099,1998.556043,-10140.821405,842.705048
2446.383427,666.185348,-9992.780217,306.438199
2446.383754,-296.082377,-9326.594869,0.000000
2446.384082,-592.164754,-8808.450710,-229.828649
2446.384410,-666.185348,-9474.636058,153.219100
2446.384737,-740.205942,-9326.594869,0.000000
2446.385065,-592.164754,-8512.368333,612.876398
2446.385392,370.102971,-8364.327145,383.047749
2446.385720,370.102971,-8586.388927,536.266849
2446.386047,74.020594,-8512.368333,842.705048
2446.386375,74.020594,-8364.327145,536.266849
2446.386703,148.041188,-7920.203579,229.828649
2446.387030,-148.041188,-7920.203579,536.266849
2446.387358,0.000000,-8882.471304,459.657299
2446.387685,518.144159,-9548.656652,229.828649
2446.388013,1554.432478,-10436.903782,-383.047749
2446.388341,2146.597232,-11473.192101,-842.705048
2446.388668,2220.617826,-11769.274478,-766.095498
2446.388996,2072.576638,-11769.274478,-842.705048
2446.389323,1332.370696,-10732.986159,-995.924147
2446.389651,222.061783,-10510.924376,-612.876398
2446.389978,0.000000,-10214.842000,-306.438199
2446.390306,-518.144159,-9548.656652,-306.438199
2446.390634,-592.164754,-9474.636058,-689.485948
2446.390961,74.020594,-9844.739029,-1225.752797
2446.391289,740.205942,-10584.944971,-1302.362347
2446.391616,296.082377,-10807.006753,-1225.752797
2446.391944,148.041188,-10362.883188,-1455.581446
2446.392272,0.000000,-10436.903782,-1915.238745
2446.392599,-296.082377,-10436.903782,-1378.971896
2446.392927,74.020594,-10362.883188,-612.876398
2446.393254,740.205942,-9548.656652,76.609550
2446.393582,888.247130,-9252.574275,536.266849
2446.393910,1702.473667,-9548.656652,383.047749
2446.394237,1924.535449,-10288.862594,306.438199
2446.394565,814.226536,-9548.656652,1225.752797
2446.394892,296.082377,-9252.574275,536.266849
2446.395220,0.000000,-8956.491898,0.000000
2446.395547,-444.123565,-9474.636058,0.000000
2446.395875,-740.205942,-9252.574275,919.314598
2446.396203,-518.144159,-8956.491898,1225.752797
2446.396530,-148.041188,-8364.327145,229.828649
2446.396858,0.000000,-8290.306550,153.219100
2446.397185,0.000000,-8660.409521,536.266849
2446.397513,0.000000,-8956.491898,766.095498
2446.397841,0.000000,-8734.430116,306.438199
2446.398168,-666.185348,-8586.388927,-229.828649
2446.398496,-740.205942,-8808.450710,-689.485948
2446.398823,-1036.288319,-8290.306550,0.000000
2446.399151,-444.123565,-8956.491898,306.438199
2446.399478,888.247130,-10214.842000,-153.219100
2446.399806,2072.576638,-11399.171507,-612.876398
2446.400134,2294.638420,-10881.027347,-459.657299
2446.400461,2294.638420,-10732.986159,-689.485948
2446.400789,1110.308913,-10881.027347,-306.438199
2446.401116,-740.205942,-10658.965565,-612.876398
2446.401444,-962.267725,-10658.965565,-919.314598
2446.401772,-1406.391290,-9992.780217,-1225.752797
2446.402099,-1258.350101,-9770.718434,-1225.752797
2446.402427,-1184.329507,-9992.780217,-1072.533697
2446.402754,0.000000,-10510.924376,-1149.143247
2446.403082,-444.123565,-10362.883188,-919.314598
2446.403409,-370.102971,-10288.862594,-1532.190996
2446.403737,-296.082377,-9844.739029,-1378.971896
2446.404065,370.102971,-9696.697840,-842.705048
2446.404392,888.247130,-9844.739029,-153.219100
2446.404720,1110.308913,-9622.677246,1149.143247
2446.405047,1998.556043,-9400.615463,919.314598
2446.405375,2368.659014,-9992.780217,689.485948
2446.405703,2146.597232,-10510.924376,383.047749
2446.406030,1406.391290,-10362.883188,0.000000
2446.406358,370.102971,-9918.759623,-306.438199
2446.406685,0.000000,-9474.636058,-383.047749
2446.407013,-296.082377,-9178.553681,153.219100
2446.407341,-444.123565,-9622.677246,536.266849
2446.407668,-592.164754,-8290.306550,1685.410096
2446.407996,-222.061783,-7179.997637,766.095498
2446.408323,518.144159,-7846.182985,459.657299
2446.408651,592.164754,-8660.409521,383.047749
2446.408978,148.041188,-8808.450710,612.876398
2446.409306,-296.082377,-8734.430116,459.657299
2446.409634,74.020594,-8956.491898,-536.266849
2446.409961,0.000000,-9252.574275,0.000000
2446.410289,0.000000,-9400.615463,0.000000
2446.410616,296.082377,-9992.780217,-229.828649
2446.410944,1776.494261,-11399.171507,-536.266849
2446.411272,2368.659014,-11547.212695,-612.876398
2446.411599,1998.556043,-10881.027347,-306.438199
2446.411927,1332.370696,-10436.903782,0.000000
2446.412254,222.061783,-9918.759623,0.000000
2446.412582,-740.205942,-9622.677246,-153.219100
2446.412909,-1184.329507,-9844.739029,-612.876398
2446.413237,-1480.411884,-9400.615463,-842.705048
2446.413565,-1628.453072,-9474.636058,-995.924147
2446.413892,-1036.288319,-9696.697840,-1225.752797
2446.414220,0.000000,-10436.903782,-1378.971896
2446.414547,0.000000,-10732.986159,-2221.676944
2446.414875,0.000000,-10066.800811,-1838.629195
2446.415202,222.061783,-10066.800811,-1532.190996
2446.415530,518.144159,-10288.862594,-612.876398
2446.415858,666.185348,-9770.718434,229.828649
2446.416185,1184.329507,-9252.574275,612.876398
2446.416513,2072.576638,-9252.574275,76.609550
2446.416840,2072.576638,-9918.759623,766.095498
2446.417168,1776.494261,-9696.697840,612.876398
2446.417496,1554.432478,-9770.718434,612.876398
2446.417823,444.123565,-9696.697840,229.828649
2446.418151,-296.082377,-9326.594869,0.000000
2446.418478,-814.226536,-9474.636058,76.609550
2446.418806,-1036.288319,-9474.636058,229.828649
2446.419133,-1258.350101,-8512.368333,76.609550
2446.419461,-888.247130,-7476.080014,612.876398
2446.419789,-370.102971,-8290.306550,0.000000
2446.420116,-1036.288319,-9178.553681,306.438199
2446.420444,-1776.494261,-8956.491898,153.219100
2446.420771,-1406.391290,-8586.388927,-842.705048
2446.421099,-962.267725,-8808.450710,-1378.971896
2446.421427,-370.102971,-8882.471304,-1149.143247
2446.421754,1184.329507,-10436.903782,-459.657299
2446.422082,2072.576638,-10807.006753,536.266849
2446.422409,2590.720797,-11325.150913,229.828649
2446.422737,3108.864956,-11695.253884,-383.047749
2446.423064,2664.741391,-11473.192101,-153.219100
2446.423392,1850.514855,-10362.883188,-153.219100
2446.423720,666.185348,-9548.656652,-383.047749
2446.424047,-518.144159,-9400.615463,-383.047749
2446.424375,-962.267725,-9104.533087,0.000000
2446.424702,-1258.350101,-8882.471304,-306.438199
2446.425030,-1036.288319,-8882.471304,-1149.143247
2446.425358,0.000000,-9548.656652,-1455.581446
2446.425685,148.041188,-10362.883188,-1455.581446
2446.426013,0.000000,-9918.759623,-1455.581446
2446.426340,814.226536,-10066.800811,-1608.800546
2446.426668,666.185348,-10436.903782,-919.314598
2446.426995,1406.391290,-10584.944971,-612.876398
2446.427323,2072.576638,-9770.718434,76.609550
2446.427651,2294.638420,-9178.553681,383.047749
2446.427978,2368.659014,-9252.574275,306.438199
2446.428306,2368.659014,-9992.780217,306.438199
2446.428633,1998.556043,-10066.800811,766.095498
2446.428961,1258.350101,-9474.636058,459.657299
2446.429289,222.061783,-9178.553681,0.000000
2446.429616,-296.082377,-9770.718434,76.609550
2446.429944,-740.205942,-9844.739029,0.000000
2446.430271,-1258.350101,-8882.471304,229.828649
2446.430599,-1480.411884,-7698.141797,842.705048
2446.430926,-1258.350101,-8068.244768,-153.219100
2446.431254,-370.102971,-8956.491898,-1378.971896
2446.431582,-962.267725,-9400.615463,-689.485948
2446.431909,-1184.329507,-9992.780217,-612.876398
2446.432237,-1184.329507,-9992.780217,-689.485948
2446.432564,-296.082377,-9992.780217,-229.828649
2446.432892,0.000000,-9918.759623,-842.705048
2446.433220,0.000000,-9770.718434,76.609550
2446.433547,740.205942,-10140.821405,459.657299
2446.433875,1258.350101,-10066.800811,-229.828649
2446.434202,1998.556043,-10732.986159,0.000000
2446.434530,1628.453072,-10584.944971,612.876398
2446.434857,1184.329507,-9918.759623,1455.581446
2446.435185,0.000000,-10066.800811,1149.143247
2446.435513,-1406.391290,-9992.780217,612.876398
2446.435840,-1924.535449,-9918.759623,-1072.533697
2446.436168,-2368.659014,-9770.718434,-1685.410096
2446.436495,-2220.617826,-8956.491898,-1838.629195
2446.436823,-962.267725,-9548.656652,-1455.581446
2446.437150,74.020594,-9770.718434,-1378.971896
2446.437478,1036.288319,-10288.862594,-1608.800546
2446.437806,1332.370696,-10140.821405,-766.095498
2446.438133,1406.391290,-9400.615463,-229.828649
2446.438461,1702.473667,-9770.718434,0.000000
2446.438788,1480.411884,-9474.636058,153.219100
2446.439116,1480.411884,-8734.430116,153.219100
2446.439444,1776.494261,-8734.430116,459.657299
2446.439771,2664.741391,-9992.780217,1378.971896
2446.440099,2368.659014,-11029.068536,153.219100
2446.440426,1554.432478,-10881.027347,-459.657299
2446.440754,1332.370696,-11103.089130,-383.047749
2446.441081,592.164754,-10584.944971,-612.876398
2446.441409,-592.164754,-9770.718434,0.000000
2446.441737,-1036.288319,-8734.430116,229.828649
2446.442064,-518.144159,-7994.224174,612.876398
2446.442392,-296.082377,-8142.265362,76.609550
2446.442719,370.102971,-9104.533087,-229.828649
2446.443047,370.102971,-10288.862594,0.000000
2446.443375,-370.102971,-9696.697840,-536.266849
2446.443702,-814.226536,-9548.656652,-689.485948
2446.444030,-592.164754,-10288.862594,-1149.143247
2446.444357,0.000000,-9474.636058,-612.876398
2446.444685,370.102971,-9030.512492,-153.219100
2446.445012,1332.370696,-9252.574275,383.047749
2446.445340,2368.659014,-10436.903782,919.314598
2446.445668,2516.700203,-10658.965565,1225.752797
2446.445995,1924.535449,-9770.718434,1378.971896
2446.446323,962.267725,-9326.594869,995.924147
2446.446650,0.000000,-9400.615463,-612.876398
2446.446978,-1406.391290,-9104.533087,0.000000
2446.447306,-2294.638420,-9252.574275,-766.095498
2446.447633,-1998.556043,-9252.574275,-766.095498
2446.447961,-1554.432478,-8882.471304,-1072.533697
2446.448288,-592.164754,-9918.759623,-1302.362347
2446.448616,0.000000,-10658.965565,-689.485948
2446.448943,740.205942,-9992.780217,-1302.362347
2446.449271,1406.391290,-9474.636058,-612.876398
2446.449599,222.061783,-9326.594869,76.609550
2446.449926,222.061783,-9992.780217,-306.438199
2446.450254,666.185348,-9104.533087,0.000000
2446.450581,814.226536,-9104.533087,0.000000
2446.450909,1702.473667,-10658.965565,0.000000
2446.451237,2294.638420,-10732.986159,-306.438199
2446.451564,1998.556043,-10362.883188,153.219100
2446.451892,444.123565,-10584.944971,229.828649
2446.452219,0.000000,-10732.986159,-306.438199
2446.452547,-518.144159,-10214.842000,-689.485948
2446.452874,-1110.308913,-9696.697840,-459.657299
2446.453202,-1332.370696,-8364.327145,0.000000
2446.453530,-1036.288319,-7846.182985,0.000000
2446.453857,-296.082377,-8512.368333,-306.438199
2446.454185,0.000000,-9548.656652,-766.095498
2446.454512,0.000000,-9844.739029,-153.219100
2446.454840,-148.041188,-9696.697840,-383.047749
2446.455167,0.000000,-10066.800811,-536.266849
2446.455495,0.000000,-10066.800811,-689.485948
2446.455823,0.000000,-9030.512492,-383.047749
2446.456150,592.164754,-9030.512492,306.438199
2446.456478,888.247130,-9104.533087,919.314598
2446.456805,2146.597232,-9770.718434,1072.533697
2446.457133,1998.556043,-9770.718434,766.095498
2446.457461,888.247130,-9844.739029,689.485948
2446.457788,0.000000,-9252.574275,229.828649
2446.458116,-666.185348,-8808.450710,-76.609550
2446.458443,-1332.370696,-9178.553681,-766.095498
2446.458771,-1480.411884,-9696.697840,-536.266849
2446.459098,-1184.329507,-9474.636058,-842.705048
2446.459426,148.041188,-9770.718434,-919.314598
2446.459754,1110.308913,-10066.800811,-995.924147
2446.460081,888.247130,-10658.965565,-612.876398
2446.460409,666.185348,-10140.821405,-536.266849
2446.460736,740.205942,-9474.636058,-919.314598
2446.461064,1184.329507,-9622.677246,-919.314598
2446.461392,518.144159,-9770.718434,-459.657299
2446.461719,1110.308913,-9770.718434,0.000000
2446.462047,1776.494261,-10066.800811,76.609550
2446.462374,2220.617826,-10288.862594,153.219100
2446.462702,2368.659014,-11473.192101,-306.438199
2446.463029,2516.700203,-11399.171507,-766.095498
2446.463357,888.247130,-9844.739029,0.000000
2446.463685,222.061783,-9992.780217,-383.047749
2446.464012,-370.102971,-10362.883188,306.438199
2446.464340,-1184.329507,-9474.636058,229.828649
2446.464667,-1480.411884,-8660.409521,229.828649
2446.464995,-1702.473667,-8438.347739,-306.438199
2446.465323,0.000000,-8956.491898,-229.828649
2446.465650,222.061783,-9548.656652,-612.876398
2446.465978,0.000000,-9474.636058,-383.047749
2446.466305,0.000000,-9474.636058,-229.828649
2446.466633,888.247130,-9696.697840,-153.219100
2446.466960,814.226536,-9844.739029,-766.095498
2446.467288,888.247130,-9400.615463,612.876398
2446.467616,814.226536,-8734.430116,1149.143247
2446.467943,814.226536,-8882.471304,612.876398
2446.468271,1332.370696,-9696.697840,842.705048
2446.468598,814.226536,-9474.636058,383.047749
2446.468926,74.020594,-9252.574275,383.047749
2446.469254,-444.123565,-9178.553681,-306.438199
2446.469581,-962.267725,-9252.574275,-842.705048
2446.469909,-1850.514855,-9326.594869,-1608.800546
2446.470236,-1480.411884,-9474.636058,-919.314598
2446.470564,-962.267725,-9622.677246,-842.705048
2446.470891,0.000000,-9770.718434,-689.485948
2446.471219,888.247130,-10288.862594,-766.095498
2446.471547,1258.350101,-11029.068536,-612.876398
2446.471874,1184.329507,-9844.739029,0.000000
2446.472202,1110.308913,-10362.883188,-459.657299
2446.472529,222.061783,-10362.883188,229.828649
2446.472857,-222.061783,-9918.759623,-842.705048
2446.473184,0.000000,-9992.780217,-842.705048
2446.473512,148.041188,-9548.656652,-612.876398
2446.473840,1036.288319,-10362.883188,-612.876398
2446.474167,1406.391290,-11177.109724,-306.438199
2446.474495,1554.432478,-10288.862594,536.266849
2446.474822,1258.350101,-9844.739029,-306.438199
2446.475150,0.000000,-9992.780217,229.828649
2446.475478,-666.185348,-9696.697840,229.828649
2446.475805,-740.205942,-9474.636058,306.438199
2446.476133,-1628.453072,-8660.409521,76.609550
2446.476460,-814.226536,-9178.553681,153.219100
2446.476788,222.061783,-9474.636058,-766.095498
2446.477115,1258.350101,-9992.780217,-689.485948
2446.477443,518.144159,-9992.780217,0.000000
2446.477771,296.082377,-9696.697840,0.000000
2446.478098,222.061783,-9326.594869,-229.828649
2446.478426,296.082377,-8956.491898,153.219100
2446.478753,222.061783,-8438.347739,612.876398
2446.479081,666.185348,-7994.224174,2451.505594
2446.479409,1480.411884,-8512.368333,1762.019645
2446.479736,1628.453072,-9474.636058,612.876398
2446.480064,962.267725,-9548.656652,153.219100
2446.480391,74.020594,-9548.656652,-306.438199
2446.480719,-296.082377,-9918.759623,-995.924147
2446.481046,-740.205942,-10066.800811,-1225.752797
2446.481374,-592.164754,-10362.883188,-1225.752797
2446.481702,0.000000,-10807.006753,-995.924147
2446.482029,0.000000,-10140.821405,-612.876398
2446.482357,666.185348,-9844.739029,-306.438199
2446.482684,814.226536,-9918.759623,-306.438199
2446.483012,1036.288319,-9992.780217,76.609550
2446.483340,814.226536,-9548.656652,-612.876398
2446.483667,1406.391290,-9918.759623,-1302.362347
2446.483995,444.123565,-9844.739029,-689.485948
2446.484322,0.000000,-9770.718434,-536.266849
2446.484650,74.020594,-9770.718434,-689.485948
2446.484977,148.041188,-9844.739029,-766.095498
2446.485305,1406.391290,-10955.047942,-842.705048
2446.485633,1850.514855,-11029.068536,-229.828649
2446.485960,2072.576638,-10732.986159,383.047749
2446.486288,1332.370696,-10066.800811,612.876398
2446.486615,296.082377,-10066.800811,229.828649
2446.486943,-962.267725,-9474.636058,459.657299
2446.487271,-1258.350101,-9252.574275,0.000000
2446.487598,-1258.350101,-8808.450710,-306.438199
2446.487926,-814.226536,-8216.285956,76.609550
2446.488253,0.000000,-8068.244768,-383.047749
2446.488581,518.144159,-9400.615463,612.876398
2446.488908,148.041188,-9918.759623,612.876398
2446.489236,0.000000,-9474.636058,153.219100
2446.489564,0.000000,-9178.553681,-306.438199
2446.489891,-148.041188,-9252.574275,0.000000
2446.490219,-296.082377,-8734.430116,459.657299
2446.490546,0.000000,-8290.306550,995.924147
2446.490874,592.164754,-9104.533087,842.705048
2446.491201,592.164754,-9770.718434,689.485948
2446.491529,-518.144159,-9844.739029,153.219100
2446.491857,-1628.453072,-9918.759623,-612.876398
2446.492184,-1998.556043,-9770.718434,-1455.581446
2446.492512,-1850.514855,-9844.739029,-1915.238745
2446.492839,-1332.370696,-9622.677246,-766.095498
2446.493167,-148.041188,-10732.986159,0.000000
2446.493495,888.247130,-10066.800811,0.000000
2446.493822,1628.453072,-10436.903782,-306.438199
2446.494150,1702.473667,-10732.986159,-459.657299
2446.494477,1332.370696,-10510.924376,-229.828649
2446.494805,962.267725,-9622.677246,-995.924147
2446.495132,814.226536,-9696.697840,-536.266849
2446.495460,518.144159,-10288.862594,-612.876398
2446.495788,888.247130,-9992.780217,-919.314598
2446.496115,1036.288319,-9548.656652,-689.485948
2446.496443,1702.473667,-9844.739029,-383.047749
2446.496770,2072.576638,-9844.739029,-383.047749
2446.497098,2590.720797,-10214.842000,229.828649
2446.497426,1998.556043,-9474.636058,536.266849
2446.497753,2294.638420,-9844.739029,612.876398
2446.498081,1554.432478,-9548.656652,536.266849
2446.498408,666.185348,-9548.656652,459.657299
2446.498736,74.020594,-9918.759623,306.438199
2446.499063,-444.123565,-9474.636058,0.000000
2446.499391,0.000000,-8956.491898,-1225.752797
2446.499719,592.164754,-9474.636058,-995.924147
2446.500046,222.061783,-9400.615463,153.219100
2446.500374,296.082377,-9178.553681,459.657299
2446.500701,518.144159,-8808.450710,383.047749
2446.501029,296.082377,-8734.430116,306.438199
2446.501357,74.020594,-8586.388927,612.876398
2446.501684,0.000000,-8142.265362,689.485948
2446.502012,-222.061783,-8142.265362,1455.581446
2446.502339,-222.061783,-8808.450710,995.924147
2446.502667,148.041188,-9844.739029,-383.047749
2446.502994,74.020594,-10658.965565,-995.924147
2446.503322,-370.102971,-10732.986159,-1072.533697
2446.503650,-666.185348,-11103.089130,-1225.752797
2446.503977,-666.185348,-11473.192101,-995.924147
2446.504305,-592.164754,-11029.068536,-842.705048
2446.504632,-740.205942,-9918.759623,-383.047749
2446.504960,-444.123565,-9696.697840,-383.047749
2446.505288,74.020594,-9474.636058,-153.219100
2446.505615,592.164754,-9770.718434,-229.828649
2446.505943,370.102971,-9474.636058,0.000000
2446.506270,0.000000,-8882.471304,-536.266849
2446.506598,0.000000,-9474.636058,-229.828649
2446.506925,0.000000,-9770.718434,-766.095498
2446.507253,-666.185348,-9696.697840,-919.314598
2446.507581,74.020594,-10140.821405,-1072.533697
2446.507908,444.123565,-10140.821405,-1302.362347
2446.508236,1036.288319,-10214.842000,-1225.752797
2446.508563,1628.453072,-10732.986159,0.000000
2446.508891,1480.411884,-10584.944971,306.438199
2446.509218,1258.350101,-9992.780217,459.657299
2446.509546,74.020594,-9548.656652,229.828649
2446.509873,-222.061783,-9030.512492,306.438199
2446.510201,-740.205942,-8586.388927,229.828649
2446.510528,-1184.329507,-8512.368333,153.219100
2446.510856,-296.082377,-8660.409521,-383.047749
2446.511183,1110.308913,-9252.574275,0.000000
2446.511511,1628.453072,-9770.718434,689.485948
2446.511838,1184.329507,-9622.677246,536.266849
2446.512166,518.144159,-9696.697840,76.609550
2446.512493,0.000000,-9474.636058,-306.438199
2446.512821,-444.123565,-8956.491898,-536.266849
2446.513148,-518.144159,-8216.285956,0.000000
2446.513476,296.082377,-8660.409521,995.924147
2446.513803,1184.329507,-9474.636058,153.219100
2446.514131,1702.473667,-10807.006753,0.000000
2446.514458,1258.350101,-10807.006753,-536.266849
2446.514786,888.247130,-10584.944971,-919.314598
2446.515114,518.144159,-10807.006753,-1225.752797
2446.515441,370.102971,-11029.068536,-842.705048
2446.515769,888.247130,-10955.047942,-153.219100
2446.516096,1036.288319,-10510.924376,153.219100
2446.516424,1036.288319,-9474.636058,0.000000
2446.516751,592.164754,-9400.615463,0.000000
2446.517079,222.061783,-9918.759623,0.000000
2446.517406,0.000000,-9474.636058,0.000000
2446.517734,0.000000,-8882.471304,-1378.971896
2446.518061,74.020594,-9474.636058,-1302.362347
2446.518389,0.000000,-9474.636058,-1149.143247
2446.518716,666.185348,-9696.697840,-153.219100
2446.519044,518.144159,-9770.718434,0.000000
2446.519371,962.267725,-9696.697840,-306.438199
2446.519699,1480.411884,-10066.800811,-612.876398
2446.520026,1702.473667,-10658.965565,76.609550
2446.520354,1998.556043,-10436.903782,536.266849
2446.520681,1258.350101,-9326.594869,766.095498
2446.521009,296.082377,-9770.718434,306.438199
2446.521336,-1332.370696,-9548.656652,229.828649
2446.521664,-1850.514855,-9252.574275,-612.876398
2446.521992,-1554.432478,-8734.430116,-766.095498
2446.522319,-444.123565,-8438.347739,-995.924147
2446.522647,74.020594,-9400.615463,-306.438199
2446.522974,666.185348,-9992.780217,306.438199
2446.523302,148.041188,-9548.656652,689.485948
2446.523629,0.000000,-9474.636058,229.828649
2446.523957,-888.247130,-9030.512492,-306.438199
2446.524284,-1480.411884,-8956.491898,-766.095498
2446.524612,-1110.308913,-8808.450710,-689.485948
2446.524939,-370.102971,-8956.491898,76.609550
2446.525267,1258.350101,-10066.800811,153.219100
2446.525594,1184.329507,-10214.842000,76.609550
2446.525922,888.247130,-10658.965565,-459.657299
2446.526249,0.000000,-10584.944971,-1072.533697
2446.526577,0.000000,-10436.903782,-1455.581446
2446.526904,-296.082377,-10214.842000,-919.314598
2446.527232,0.000000,-9992.780217,536.266849
2446.527559,-148.041188,-9178.553681,229.828649
2446.527887,74.020594,-9622.677246,1149.143247
2446.528214,444.123565,-9992.780217,153.219100
2446.528542,296.082377,-9474.636058,-689.485948
2446.528869,0.000000,-9548.656652,-1072.533697
2446.529197,-296.082377,-9622.677246,-1072.533697
2446.529525,-370.102971,-9474.636058,-995.924147
2446.529852,-296.082377,-9474.636058,-612.876398
2446.530180,222.061783,-9622.677246,-229.828649
2446.530507,1036.288319,-9622.677246,0.000000
2446.530835,1998.556043,-9104.533087,0.000000
2446.531162,2960.823768,-9844.739029,0.000000
2446.531490,3404.947333,-10881.027347,306.438199
2446.531817,2812.782580,-10066.800811,1608.800546
2446.532145,1554.432478,-9252.574275,1915.238745
2446.532472,370.102971,-9030.512492,1149.143247
2446.532800,-296.082377,-9622.677246,229.828649
2446.533127,-962.267725,-9474.636058,-612.876398
2446.533455,-888.247130,-9622.677246,-842.705048
2446.533782,518.144159,-9918.759623,-1072.533697
2446.534110,1332.370696,-9474.636058,-153.219100
2446.534437,1110.308913,-9696.697840,383.047749
2446.534765,740.205942,-9622.677246,766.095498
2446.535092,-370.102971,-8808.450710,153.219100
2446.535420,-592.164754,-8808.450710,-536.266849
2446.535747,-814.226536,-8734.430116,-536.266849
2446.536075,-592.164754,-8660.409521,76.609550
2446.536402,-296.082377,-9178.553681,919.314598
2446.536730,1480.411884,-11029.068536,459.657299
2446.537058,1776.494261,-11399.171507,-1915.238745
2446.537385,1036.288319,-11251.130318,-1149.143247
2446.537713,814.226536,-10584.944971,-1072.533697
2446.538040,444.123565,-10510.924376,-842.705048
2446.538368,-370.102971,-9992.780217,229.828649
2446.538695,-296.082377,-9474.636058,689.485948
2446.539023,-592.164754,-9030.512492,1302.362347
2446.539350,-222.061783,-8512.368333,1149.143247
2446.539678,0.000000,-9474.636058,-306.438199
2446.540005,0.000000,-9844.739029,-459.657299
2446.540333,-518.144159,-9622.677246,-689.485948
2446.540660,-666.185348,-8808.450710,-1225.752797
2446.540988,-666.185348,-9178.553681,-536.266849
2446.541315,-296.082377,-10140.821405,0.000000
2446.541643,518.144159,-9770.718434,-153.219100
2446.541970,814.226536,-9326.594869,0.000000
2446.542298,1776.494261,-9030.512492,0.000000
2446.542625,2368.659014,-9474.636058,-229.828649
2446.542953,2220.617826,-10362.883188,842.705048
2446.543280,1406.391290,-9770.718434,1762.019645
2446.543608,740.205942,-9696.697840,842.705048
2446.543936,-592.164754,-10066.800811,0.000000
2446.544263,-1554.432478,-9622.677246,-1225.752797
2446.544591,-1332.370696,-9326.594869,-995.924147
2446.544918,-1480.411884,-9622.677246,-689.485948
2446.545246,-296.082377,-9992.780217,0.000000
2446.545573,444.123565,-9474.636058,-459.657299
2446.545901,-222.061783,-9474.636058,0.000000
2446.546228,-148.041188,-9178.553681,76.609550
2446.546556,-222.061783,-8882.471304,0.000000
2446.546883,-666.185348,-9252.574275,-153.219100
2446.547211,-296.082377,-9178.553681,-306.438199
2446.547538,148.041188,-9474.636058,0.000000
2446.547866,814.226536,-9770.718434,459.657299
2446.548193,1480.411884,-11177.109724,-229.828649
2446.548521,1554.432478,-11103.089130,-689.485948
2446.548848,1332.370696,-10881.027347,-919.314598
2446.549176,1184.329507,-10140.821405,-383.047749
2446.549503,814.226536,-9992.780217,0.000000
2446.549831,74.020594,-9992.780217,459.657299
2446.550158,-444.123565,-9400.615463,689.485948
2446.550486,-296.082377,-8512.368333,612.876398
2446.550813,-740.205942,-8142.265362,383.047749
2446.551141,74.020594,-9252.574275,-306.438199
2446.551469,74.020594,-9770.718434,-383.047749
2446.551796,0.000000,-9548.656652,-536.266849
2446.552124,518.144159,-9548.656652,-689.485948
2446.552451,592.164754,-9548.656652,-689.485948
2446.552779,740.205942,-9918.759623,-383.047749
2446.553106,1110.308913,-9770.718434,-306.438199
2446.553434,1702.473667,-9548.656652,0.000000
2446.553761,2368.659014,-9326.594869,0.000000
2446.554089,3034.844362,-10066.800811,459.657299
2446.554416,2368.659014,-10214.842000,995.924147
2446.554744,1554.432478,-9622.677246,1378.971896
2446.555071,592.164754,-9770.718434,383.047749
2446.555399,-518.144159,-9770.718434,-153.219100
2446.555726,-1110.308913,-10066.800811,-842.705048
2446.556054,-962.267725,-9474.636058,-766.095498
2446.556381,-888.247130,-9252.574275,-306.438199
2446.556709,-370.102971,-9474.636058,0.000000
2446.557036,296.082377,-9474.636058,-459.657299
2446.557364,0.000000,-9326.594869,0.000000
2446.557691,-370.102971,-9474.636058,0.000000
2446.558019,-518.144159,-9474.636058,-612.876398
2446.558346,-888.247130,-9474.636058,-459.657299
2446.558674,-888.247130,-9622.677246,-383.047749
2446.559002,-740.205942,-9178.553681,-306.438199
2446.559329,296.082377,-10140.821405,-612.876398
2446.559657,1332.370696,-11029.068536,-1225.752797
2446.559984,1776.494261,-10881.027347,0.000000
2446.560312,1702.473667,-10510.924376,153.219100
2446.560639,1258.350101,-10066.800811,383.047749
2446.560967,0.000000,-10140.821405,0.000000
2446.561294,-888.247130,-9770.718434,306.438199
2446.561622,-1628.453072,-8808.450710,76.609550
2446.561949,-1998.556043,-8660.409521,76.609550
2446.562277,-2072.576638,-8660.409521,-383.047749
2446.562604,-1406.391290,-9622.677246,-842.705048
2446.562932,-1184.329507,-9770.718434,-995.924147
2446.563259,-962.267725,-9696.697840,-1149.143247
2446.563587,-740.205942,-9548.656652,-1302.362347
2446.563914,-296.082377,-9770.718434,-995.924147
2446.564242,1110.308913,-10955.047942,-459.657299
2446.564569,1850.514855,-9770.718434,153.219100
2446.564897,2368.659014,-9326.594869,459.657299
2446.565224,2886.803174,-9622.677246,612.876398
2446.565552,3034.844362,-10362.883188,612.876398
2446.565879,2368.659014,-10510.924376,536.266849
2446.566207,1554.432478,-10214.842000,459.657299
2446.566535,444.123565,-9844.739029,306.438199
2446.566862,0.000000,-10362.883188,-995.924147
2446.567190,-888.247130,-9992.780217,-153.219100
2446.567517,-1036.288319,-9474.636058,-229.828649
2446.567845,-666.185348,-8734.430116,-153.219100
2446.568172,148.041188,-8660.409521,-766.095498
2446.568500,962.267725,-9400.615463,-689.485948
2446.568827,888.247130,-9400.615463,536.266849
2446.569155,592.164754,-9178.553681,383.047749
2446.569482,740.205942,-9474.636058,76.609550
2446.569810,666.185348,-9770.718434,-306.438199
2446.570137,370.102971,-9696.697840,-612.876398
2446.570465,592.164754,-9770.718434,0.000000
2446.570792,1258.350101,-9992.780217,0.000000
2446.571120,2960.823768,-11695.253884,766.095498
2446.571447,2590.720797,-10807.006753,0.000000
2446.571775,2294.638420,-9844.739029,536.266849
2446.572102,888.247130,-9474.636058,919.314598
2446.572430,-222.061783,-9474.636058,306.438199
2446.572757,-1110.308913,-9326.594869,0.000000
2446.573085,-1628.453072,-8364.327145,0.000000
2446.573413,-2220.617826,-8364.327145,0.000000
2446.573740,-1850.514855,-8734.430116,-306.438199
2446.574068,-888.247130,-10066.800811,-995.924147
2446.574395,-1184.329507,-10066.800811,-1302.362347
2446.574723,-1184.329507,-10288.862594,-1225.752797
2446.575050,-370.102971,-10510.924376,-1302.362347
2446.575378,0.000000,-10510.924376,-842.705048
2446.575705,814.226536,-10584.944971,-229.828649
2446.576033,1406.391290,-9622.677246,-383.047749
2446.576360,1776.494261,-9252.574275,536.266849
2446.576688,2368.659014,-9400.615463,536.266849
2446.577015,2442.679609,-10066.800811,306.438199
2446.577343,1554.432478,-10288.862594,766.095498
2446.577670,888.247130,-10066.800811,306.438199
2446.577998,444.123565,-10362.883188,-153.219100
2446.578325,-1184.329507,-10362.883188,-383.047749
2446.578653,-1702.473667,-10362.883188,-995.924147
2446.578980,-1776.494261,-9622.677246,-1149.143247
2446.579308,-1850.514855,-9326.594869,-1225.752797
2446.579635,-962.267725,-9178.553681,-1225.752797
2446.579963,666.185348,-9252.574275,-689.485948
2446.580290,-444.123565,-8956.491898,689.485948
2446.580618,-370.102971,-8882.471304,995.924147
2446.580946,148.041188,-9030.512492,383.047749
2446.581273,0.000000,-9030.512492,0.000000
2446.581601,0.000000,-9252.574275,0.000000
2446.581928,444.123565,-9696.697840,0.000000
2446.582256,1702.473667,-9918.759623,0.000000
2446.582583,2516.700203,-10436.903782,1225.752797
2446.582911,3034.844362,-11177.109724,306.438199
2446.583238,1850.514855,-9622.677246,689.485948
2446.583566,518.144159,-8808.450710,0.000000
2446.583893,-296.082377,-9030.512492,-383.047749
2446.584221,-1184.329507,-9252.574275,0.000000
2446.584548,-1554.432478,-8882.471304,-306.438199
2446.584876,-1554.432478,-8142.265362,0.000000
2446.585203,-1110.308913,-8956.491898,-536.266849
2446.585531,0.000000,-9548.656652,-1072.533697
2446.585858,0.000000,-10436.903782,-842.705048
2446.586186,296.082377,-10436.903782,-536.266849
2446.586513,1184.329507,-10510.924376,-766.095498
2446.586841,1850.514855,-10510.924376,-995.924147
2446.587168,1258.350101,-9622.677246,0.000000
2446.587496,2072.576638,-9252.574275,459.657299
2446.587823,1480.411884,-8882.471304,229.828649
2446.588151,2368.659014,-9918.759623,306.438199
2446.588479,2220.617826,-10807.006753,0.000000
2446.588806,1850.514855,-10658.965565,76.609550
2446.589134,1036.288319,-10436.903782,153.219100
2446.589461,74.020594,-10436.903782,0.000000
2446.589789,-814.226536,-9770.718434,306.438199
2446.590116,-1406.391290,-9474.636058,-612.876398
2446.590444,-1850.514855,-8586.388927,-612.876398
2446.590771,-1628.453072,-8734.430116,-995.924147
2446.591099,-666.185348,-9548.656652,-766.095498
2446.591426,518.144159,-10436.903782,153.219100
2446.591754,518.144159,-9474.636058,383.047749
2446.592081,888.247130,-10066.800811,459.657299
2446.592409,0.000000,-9252.574275,-306.438199
2446.592736,0.000000,-9178.553681,-153.219100
2446.593064,148.041188,-9030.512492,0.000000
2446.593391,222.061783,-8882.471304,306.438199
2446.593719,962.267725,-9770.718434,919.314598
2446.594046,2072.576638,-10658.965565,919.314598
2446.594374,2220.617826,-10288.862594,459.657299
2446.594701,1554.432478,-9770.718434,76.609550
2446.595029,148.041188,-9474.636058,0.000000
2446.595357,-888.247130,-9400.615463,0.000000
2446.595684,-1850.514855,-9252.574275,-536.266849
2446.596012,-2368.659014,-9178.553681,0.000000
2446.596339,-2294.638420,-9030.512492,-689.485948
2446.596667,-888.247130,-8956.491898,-842.705048
2446.596994,0.000000,-9918.759623,-1378.971896
2446.597322,0.000000,-10955.047942,-689.485948
2446.597649,148.041188,-10510.924376,-766.095498
2446.597977,444.123565,-10066.800811,-1378.971896
2446.598304,370.102971,-9918.759623,-1225.752797
2446.598632,814.226536,-9548.656652,-536.266849
2446.598959,740.205942,-8290.306550,0.000000
2446.599287,1776.494261,-9474.636058,766.095498
2446.599614,2146.597232,-10288.862594,459.657299
2446.599942,2294.638420,-11325.150913,153.219100
2446.600269,1480.411884,-10658.965565,306.438199
2446.600597,74.020594,-10066.800811,0.000000
2446.600924,0.000000,-10288.862594,-383.047749
2446.601252,-1110.308913,-9696.697840,-919.314598
2446.601579,-1184.329507,-9992.780217,-995.924147
2446.601907,-1184.329507,-9030.512492,-536.266849
2446.602234,-518.144159,-8438.347739,-229.828649
2446.602562,518.144159,-8734.430116,0.000000
2446.602890,814.226536,-9178.553681,383.047749
2446.603217,592.164754,-9400.615463,306.438199
2446.603545,296.082377,-9252.574275,0.000000
2446.603872,370.102971,-9474.636058,0.000000
2446.604200,148.041188,-9252.574275,0.000000
2446.604527,148.041188,-9178.553681,0.000000
2446.604855,740.205942,-9622.677246,612.876398
2446.605182,1776.494261,-10436.903782,306.438199
2446.605510,2812.782580,-10881.027347,153.219100
2446.605837,2146.597232,-10584.944971,76.609550
2446.606165,592.164754,-9178.553681,0.000000
2446.606492,-666.185348,-9252.574275,-306.438199
2446.606820,-1554.432478,-8882.471304,-612.876398
2446.607147,-2146.597232,-9252.574275,-612.876398
2446.607475,-1332.370696,-9326.594869,-612.876398
2446.607802,-1332.370696,-9474.636058,-919.314598
2446.608130,0.000000,-10066.800811,-1302.362347
2446.608457,666.185348,-10510.924376,-919.314598
2446.608785,592.164754,-10658.965565,-919.314598
2446.609114,592.164754,-10362.883188,-766.095498
2446.609442,962.267725,-9770.718434,-1455.581446
2446.609770,1480.411884,-9474.636058,-383.047749
2446.610097,1036.288319,-9474.636058,-842.705048
2446.610425,1184.329507,-9474.636058,153.219100
2446.610753,1406.391290,-9770.718434,0.000000
2446.611080,1924.535449,-10510.924376,-153.219100
2446.611408,1776.494261,-10732.986159,-383.047749
2446.611735,1258.350101,-10584.944971,0.000000
2446.612063,740.205942,-9770.718434,229.828649
2446.612391,666.185348,-9696.697840,0.000000
2446.612718,-592.164754,-9992.780217,766.095498
2446.613046,-962.267725,-9178.553681,76.609550
2446.613373,-1258.350101,-8660.409521,-306.438199
2446.613701,-592.164754,-8660.409521,-536.266849
2446.614029,222.061783,-8734.430116,-919.314598
2446.614356,888.247130,-9400.615463,-612.876398
2446.614684,222.061783,-9622.677246,689.485948
2446.615012,222.061783,-9474.636058,1378.971896
2446.615339,222.061783,-9548.656652,0.000000
2446.615667,-370.102971,-9400.615463,76.609550
2446.615994,-296.082377,-9178.553681,0.000000
2446.616322,296.082377,-9474.636058,229.828649
2446.616650,888.247130,-9548.656652,612.876398
2446.616977,1184.329507,-9918.759623,76.609550
2446.617305,814.226536,-9622.677246,536.266849
2446.617632,148.041188,-9178.553681,76.609550
2446.617960,-740.205942,-9252.574275,-689.485948
2446.618288,-1776.494261,-9548.656652,-1072.533697
2446.618615,-1406.391290,-10288.862594,-995.924147
2446.618943,-666.185348,-10288.862594,-842.705048
2446.619271,0.000000,-10066.800811,-842.705048
2446.619598,1110.308913,-11029.068536,-995.924147
2446.619926,1554.432478,-11325.150913,-1149.143247
2446.620253,1036.288319,-10955.047942,-306.438199
2446.620581,1110.308913,-10066.800811,-536.266849
2446.620909,962.267725,-9548.656652,-689.485948
2446.621236,666.185348,-9548.656652,-153.219100
2446.621564,74.020594,-9474.636058,-306.438199
2446.621892,518.144159,-9326.594869,-229.828649
2446.622219,518.144159,-9326.594869,0.000000
2446.622547,1776.494261,-10288.862594,-383.047749
2446.622874,1924.535449,-10732.986159,0.000000
2446.623202,1776.494261,-11177.109724,842.705048
2446.623530,1036.288319,-9992.780217,459.657299
2446.623857,148.041188,-9918.759623,0.000000
2446.624185,-740.205942,-9178.553681,0.000000
2446.624512,-888.247130,-8956.491898,0.000000
2446.624840,-1184.329507,-8882.471304,-306.438199
2446.625168,-222.061783,-8586.388927,-459.657299
2446.625495,1110.308913,-8882.471304,-612.876398
2446.625823,1036.288319,-9326.594869,459.657299
2446.626151,592.164754,-9400.615463,1532.190996
2446.626478,370.102971,-8512.368333,0.000000
2446.626806,74.020594,-9030.512492,-306.438199
2446.627133,-370.102971,-9178.553681,-153.219100
2446.627461,0.000000,-9104.533087,229.828649
2446.627789,74.020594,-9178.553681,995.924147
2446.628116,962.267725,-9474.636058,1378.971896
2446.628444,1702.473667,-10140.821405,383.047749
2446.628772,888.247130,-10140.821405,-153.219100
2446.629099,148.041188,-9992.780217,-1225.752797
2446.629427,-888.247130,-9770.718434,-1378.971896
2446.629754,-1332.370696,-10140.821405,-1378.971896
2446.630082,-1554.432478,-10362.883188,-1149.143247
2446.630410,-666.185348,-10288.862594,-1302.362347
2446.630737,0.000000,-9622.677246,0.000000
2446.631065,592.164754,-9696.697840,0.000000
2446.631392,1184.329507,-10214.842000,-306.438199
2446.631720,1110.308913,-10732.986159,-306.438199
2446.632048,1036.288319,-9770.718434,-306.438199
2446.632375,370.102971,-9696.697840,-306.438199
2446.632703,0.000000,-9548.656652,-459.657299
2446.633031,-222.061783,-9992.780217,-766.095498
2446.633358,-296.082377,-9400.615463,-306.438199
2446.633686,592.164754,-9770.718434,-229.828649
2446.634013,666.185348,-10732.986159,-229.828649
2446.634341,518.144159,-10955.047942,-153.219100
2446.634669,0.000000,-9918.759623,229.828649
2446.634996,-370.102971,-9548.656652,0.000000
2446.635324,-740.205942,-9474.636058,-612.876398
2446.635651,-592.164754,-9400.615463,-383.047749
2446.635979,-1258.350101,-9178.553681,0.000000
2446.636307,-518.144159,-8882.471304,0.000000
2446.636634,518.144159,-8956.491898,-306.438199
2446.636962,1184.329507,-9770.718434,0.000000
2446.637290,888.247130,-9844.739029,689.485948
2446.637617,814.226536,-9104.533087,689.485948
2446.637945,814.226536,-9178.553681,76.609550
2446.638272,0.000000,-9326.594869,153.219100
2446.638600,222.061783,-8956.491898,383.047749
2446.638928,296.082377,-8586.388927,842.705048
2446.639255,666.185348,-8808.450710,1455.581446
2446.639583,1776.494261,-9474.636058,995.924147
2446.639911,2294.638420,-9770.718434,-383.047749
2446.640238,1184.329507,-9474.636058,0.000000
2446.640566,814.226536,-9104.533087,-153.219100
2446.640893,444.123565,-9918.759623,-1072.533697
2446.641221,-296.082377,-10732.986159,-766.095498
2446.641549,0.000000,-11103.089130,-766.095498
2446.641876,222.061783,-10436.903782,-612.876398
2446.642204,962.267725,-10214.842000,-1072.533697
2446.642531,2072.576638,-10881.027347,0.000000
2446.642859,1998.556043,-10510.924376,0.000000
2446.643187,1184.329507,-9770.718434,0.000000
2446.643514,666.185348,-8882.471304,-383.047749
2446.643842,148.041188,-8808.450710,-306.438199
2446.644170,-370.102971,-9030.512492,76.609550
2446.644497,-666.185348,-9474.636058,76.609550
2446.644825,-222.061783,-9770.718434,-229.828649
2446.645152,814.226536,-9918.759623,-1225.752797
2446.645480,888.247130,-10732.986159,-1225.752797
2446.645808,1036.288319,-10732.986159,-766.095498
2446.646135,666.185348,-10214.842000,0.000000
2446.646463,518.144159,-9918.759623,306.438199
2446.646791,222.061783,-10140.821405,919.314598
2446.647118,0.000000,-9918.759623,306.438199
2446.647446,-296.082377,-9178.553681,383.047749
2446.647773,-666.185348,-8808.450710,0.000000
2446.648101,0.000000,-8660.409521,-306.438199
2446.648429,148.041188,-8882.471304,-383.047749
2446.648756,0.000000,-9252.574275,842.705048
2446.649084,0.000000,-8808.450710,306.438199
2446.649411,592.164754,-9178.553681,612.876398
2446.649739,296.082377,-9252.574275,229.828649
2446.650067,-740.205942,-9474.636058,536.266849
2446.650394,-1036.288319,-9474.636058,306.438199
2446.650722,-814.226536,-9030.512492,-383.047749
2446.651050,74.020594,-9696.697840,-1149.143247
2446.651377,888.247130,-10362.883188,-1532.190996
2446.651705,888.247130,-9622.677246,-383.047749
2446.652032,518.144159,-10066.800811,76.609550
2446.652360,-222.061783,-10214.842000,-383.047749
2446.652688,-370.102971,-10732.986159,-766.095498
2446.653015,-370.102971,-10436.903782,-919.314598
2446.653343,0.000000,-9770.718434,-612.876398
2446.653670,814.226536,-9844.739029,-306.438199
2446.653998,1480.411884,-9474.636058,306.438199
2446.654326,1258.350101,-9918.759623,689.485948
2446.654653,814.226536,-10288.862594,689.485948
2446.654981,296.082377,-9474.636058,-459.657299
2446.655309,-296.082377,-8882.471304,-1225.752797
2446.655636,-740.205942,-9400.615463,-1225.752797
2446.655964,-444.123565,-9474.636058,-919.314598
2446.656291,222.061783,-9696.697840,0.000000
2446.656619,1110.308913,-9622.677246,0.000000
2446.656947,1776.494261,-10362.883188,0.000000
2446.657274,1776.494261,-9992.780217,0.000000
2446.657602,1184.329507,-9992.780217,459.657299
