#time,accel_x,accel_y,accel_z
3350.812292,518.144159,-9474.636058,842.705048
3350.812620,148.041188,-9252.574275,229.828649
3350.812948,74.020594,-9030.512492,76.609550
3350.813275,0.000000,-9178.553681,153.219100
3350.813603,0.000000,-8734.430116,0.000000
3350.813931,222.061783,-8808.450710,-612.876398
3350.814259,0.000000,-9474.636058,-536.266849
3350.814586,222.061783,-9918.759623,-689.485948
3350.814914,444.123565,-9696.697840,0.000000
3350.815242,518.144159,-9622.677246,76.609550
3350.815570,666.185348,-9474.636058,76.609550
3350.815897,666.185348,-9548.656652,689.485948
3350.816225,740.205942,-9326.594869,612.876398
3350.816553,518.144159,-9548.656652,0.000000
3350.816881,296.082377,-9252.574275,-383.047749
3350.817208,0.000000,-9844.739029,-383.047749
3350.817536,74.020594,-9918.759623,-536.266849
3350.817864,222.061783,-10140.821405,-766.095498
3350.818192,74.020594,-10436.903782,-689.485948
3350.818519,518.144159,-10436.903782,0.000000
3350.818847,592.164754,-10362.883188,0.000000
3350.819175,1110.308913,-10288.862594,-229.828649
3350.819503,666.185348,-9918.759623,-306.438199
3350.819830,518.144159,-9844.739029,-229.828649
3350.820158,222.061783,-9622.677246,-306.438199
3350.820486,296.082377,-9844.739029,-229.828649
3350.820814,0.000000,-9770.718434,-459.657299
3350.821141,370.102971,-10066.800811,0.000000
3350.821469,0.000000,-9918.759623,-1302.362347
3350.821797,0.000000,-10140.821405,-536.266849
3350.822125,296.082377,-10140.821405,-306.438199
3350.822452,370.102971,-9844.739029,76.609550
3350.822780,888.247130,-10214.842000,153.219100
3350.823108,518.144159,-9400.615463,459.657299
3350.823436,74.020594,-8956.491898,1225.752797
3350.823763,74.020594,-9030.512492,383.047749
3350.824091,0.000000,-9104.533087,383.047749
3350.824419,0.000000,-9030.512492,153.219100
3350.824747,0.000000,-9178.553681,0.000000
3350.825074,0.000000,-9252.574275,0.000000
3350.825402,222.061783,-8956.491898,-536.266849
3350.825730,592.164754,-9622.677246,-306.438199
3350.826058,592.164754,-9474.636058,-153.219100
3350.826385,666.185348,-9474.636058,306.438199
3350.826713,666.185348,-9622.677246,76.609550
3350.827041,666.185348,-9770.718434,0.000000
3350.827369,222.061783,-9252.574275,459.657299
3350.827696,74.020594,-9178.553681,0.000000
3350.828024,-148.041188,-9474.636058,-153.219100
3350.828352,0.000000,-9844.739029,-766.095498
3350.828680,0.000000,-9844.739029,-766.095498
3350.829007,0.000000,-9992.780217,-689.485948
3350.829335,296.082377,-10436.903782,-612.876398
3350.829663,814.226536,-10066.800811,-383.047749
3350.829991,1554.432478,-9474.636058,-459.657299
3350.830318,2220.617826,-10066.800811,153.219100
3350.830646,2960.823768,-9474.636058,0.000000
3350.830974,3775.050304,-9252.574275,0.000000
3350.831302,4145.153275,-9030.512492,-383.047749
3350.831629,4589.276840,-9844.739029,-612.876398
3350.831957,5255.462188,-10436.903782,-306.438199
3350.832285,6143.709319,-9400.615463,-842.705048
3350.832613,7031.956449,-9474.636058,-612.876398
3350.832940,7476.080014,-9918.759623,-229.828649
3350.833268,8364.327145,-10881.027347,0.000000
3350.833596,8586.388927,-10881.027347,842.705048
3350.833924,9178.553681,-9770.718434,689.485948
3350.834251,9474.636058,-8068.244768,76.609550
3350.834579,9696.697840,-8586.388927,919.314598
3350.834907,9918.759623,-8512.368333,383.047749
3350.835235,10658.965565,-8438.347739,383.047749
3350.835562,11103.089130,-9178.553681,383.047749
3350.835890,11103.089130,-9770.718434,153.219100
3350.836218,10510.924376,-9548.656652,76.609550
3350.836546,10288.862594,-9326.594869,0.000000
3350.836873,11103.089130,-9474.636058,0.000000
3350.837201,12953.603985,-9992.780217,-612.876398
3350.837529,14211.954086,-10214.842000,153.219100
3350.837857,14730.098246,-9918.759623,1378.971896
3350.838184,14952.160028,-8882.471304,1685.410096
3350.838512,14063.912898,-8438.347739,1378.971896
3350.838840,13249.686362,-8808.450710,995.924147
3350.839168,12361.439231,-8586.388927,0.000000
3350.839495,12287.418637,-10214.842000,-306.438199
3350.839823,12213.398043,-10510.924376,-229.828649
3350.840151,12435.459826,-10214.842000,-229.828649
3350.840479,12509.480420,-10066.800811,459.657299
3350.840806,12361.439231,-10066.800811,842.705048
3350.841134,12139.377449,-10288.862594,1149.143247
3350.841462,11547.212695,-10732.986159,-306.438199
3350.841790,10362.883188,-10288.862594,0.000000
3350.842117,9326.594869,-9400.615463,-536.266849
3350.842445,7920.203579,-8290.306550,76.609550
3350.842773,7328.038826,-8068.244768,0.000000
3350.843101,8734.430116,-9400.615463,-306.438199
3350.843428,9474.636058,-10658.965565,-536.266849
3350.843756,10510.924376,-11991.336260,0.000000
3350.844084,9696.697840,-11029.068536,76.609550
3350.844412,8956.491898,-8882.471304,76.609550
3350.844739,8290.306550,-7476.080014,536.266849
3350.845067,8438.347739,-8216.285956,612.876398
3350.845395,9696.697840,-10066.800811,1302.362347
3350.845723,9770.718434,-10584.944971,1685.410096
3350.846051,8808.450710,-9474.636058,919.314598
3350.846378,8734.430116,-8956.491898,-383.047749
3350.846706,6809.894666,-9252.574275,536.266849
3350.847034,5847.626942,-10140.821405,153.219100
3350.847362,6661.853478,-9770.718434,-995.924147
3350.847689,9326.594869,-9252.574275,-1915.238745
3350.848017,11695.253884,-10288.862594,-919.314598
3350.848345,10584.944971,-9770.718434,1455.581446
3350.848673,7920.203579,-7402.059420,3447.429741
3350.849000,7624.121203,-7846.182985,2451.505594
3350.849328,9992.780217,-9326.594869,-383.047749
3350.849656,10510.924376,-10140.821405,-2068.457845
3350.849984,9326.594869,-9252.574275,-1225.752797
3350.850311,8438.347739,-9178.553681,-229.828649
3350.850639,8216.285956,-10214.842000,0.000000
3350.850967,8364.327145,-9400.615463,-1072.533697
3350.851295,7550.100608,-8364.327145,-1225.752797
3350.851622,9252.574275,-9474.636058,-919.314598
3350.851950,11695.253884,-10807.006753,-689.485948
3350.852278,12065.356855,-10362.883188,229.828649
3350.852606,10955.047942,-10658.965565,1455.581446
3350.852933,10584.944971,-8364.327145,1685.410096
3350.853261,10658.965565,-6883.915261,229.828649
3350.853589,10732.986159,-9252.574275,-612.876398
3350.853917,12435.459826,-10214.842000,-1532.190996
3350.854244,14582.057057,-9770.718434,-1762.019645
3350.854572,13101.645173,-10658.965565,0.000000
3350.854900,10807.006753,-12139.377449,2451.505594
3350.855228,11251.130318,-11177.109724,459.657299
3350.855555,11843.295072,-9918.759623,-1685.410096
3350.855883,10362.883188,-11547.212695,-1378.971896
3350.856211,9770.718434,-11473.192101,-536.266849
3350.856539,9770.718434,-10436.903782,1455.581446
3350.856866,8142.265362,-8438.347739,3677.258390
3350.857194,5403.503377,-7179.997637,3447.429741
3350.857522,888.247130,-7476.080014,536.266849
3350.857850,-1924.535449,-8068.244768,-306.438199
3350.858177,1110.308913,-6809.894666,-3370.820191
3350.858505,2590.720797,-7476.080014,-4136.915689
3350.858833,3552.988522,-10658.965565,-536.266849
3350.859161,6143.709319,-12065.356855,1991.848295
3350.859488,7402.059420,-11843.295072,1685.410096
3350.859816,8364.327145,-11177.109724,1072.533697
3350.860144,6809.894666,-11621.233289,459.657299
3350.860472,5107.421000,-10214.842000,76.609550
3350.860799,5107.421000,-8808.450710,-153.219100
3350.861127,3034.844362,-9326.594869,612.876398
3350.861455,1480.411884,-9548.656652,2145.067394
3350.861783,-296.082377,-9622.677246,3140.991542
3350.862110,-962.267725,-8290.306550,1149.143247
3350.862438,-2886.803174,-8068.244768,-459.657299
3350.862766,-2516.700203,-9548.656652,-2068.457845
3350.863094,-4145.153275,-7698.141797,-2068.457845
3350.863421,-4367.215058,-9844.739029,-459.657299
3350.863749,-2960.823768,-9548.656652,383.047749
3350.864077,-2072.576638,-9030.512492,1532.190996
3350.864405,-1628.453072,-9474.636058,536.266849
3350.864732,-1332.370696,-10658.965565,-1455.581446
3350.865060,-3182.885551,-11769.274478,-1838.629195
3350.865388,-2220.617826,-10807.006753,-2681.334243
3350.865716,-2368.659014,-10510.924376,-1685.410096
3350.866043,-2960.823768,-9918.759623,-459.657299
3350.866371,-2368.659014,-9030.512492,-1149.143247
3350.866699,-2442.679609,-8808.450710,-766.095498
3350.867027,-2072.576638,-9326.594869,-1072.533697
3350.867354,-740.205942,-9400.615463,-1532.190996
3350.867682,0.000000,-8142.265362,-459.657299
3350.868010,0.000000,-8364.327145,1302.362347
3350.868338,1036.288319,-9104.533087,1685.410096
3350.868665,3330.926739,-10066.800811,153.219100
3350.868993,2590.720797,-10658.965565,-1072.533697
3350.869321,3034.844362,-9548.656652,-2221.676944
3350.869649,3108.864956,-10362.883188,-1455.581446
3350.869976,1554.432478,-11843.295072,-919.314598
3350.870304,666.185348,-13175.665768,0.000000
3350.870632,-666.185348,-9696.697840,-1455.581446
3350.870960,0.000000,-8586.388927,-2681.334243
3350.871287,1036.288319,-9548.656652,-2068.457845
3350.871615,1924.535449,-8364.327145,-306.438199
3350.871943,2146.597232,-8586.388927,995.924147
3350.872271,1110.308913,-8512.368333,2604.724693
3350.872598,962.267725,-8808.450710,766.095498
3350.872926,1776.494261,-8882.471304,-229.828649
3350.873254,2590.720797,-9178.553681,-689.485948
3350.873582,3775.050304,-10955.047942,-536.266849
3350.873909,4441.235652,-12953.603985,-306.438199
3350.874237,4811.338623,-11103.089130,-306.438199
3350.874565,4515.256246,-10066.800811,-153.219100
3350.874893,2664.741391,-11251.130318,1762.019645
3350.875220,1776.494261,-11621.233289,2604.724693
3350.875548,2294.638420,-9400.615463,76.609550
3350.875876,1850.514855,-8364.327145,-1608.800546
3350.876203,-296.082377,-10066.800811,1072.533697
3350.876531,-1036.288319,-7624.121203,1762.019645
3350.876858,-2368.659014,-6143.709319,2298.286494
3350.877186,-3478.967927,-6661.853478,1225.752797
3350.877513,-1184.329507,-7994.224174,-2068.457845
3350.877841,222.061783,-10807.006753,-2451.505594
3350.878168,0.000000,-10288.862594,0.000000
3350.878496,2368.659014,-10140.821405,0.000000
3350.878824,4219.173869,-9696.697840,229.828649
3350.879151,370.102971,-11177.109724,2987.772442
3350.879479,-1332.370696,-11621.233289,919.314598
3350.879806,-1776.494261,-9622.677246,-3064.381992
3350.880134,-2368.659014,-10214.842000,-3294.210641
3350.880461,-296.082377,-9548.656652,-2068.457845
3350.880789,-1184.329507,-10066.800811,1455.581446
3350.881117,-4071.132681,-9178.553681,3677.258390
3350.881444,-2368.659014,-8068.244768,842.705048
3350.881772,-1332.370696,-7402.059420,-2911.162892
3350.882099,-2072.576638,-9548.656652,-2451.505594
3350.882427,-1406.391290,-9474.636058,-1455.581446
3350.882754,-2146.597232,-6957.935855,-612.876398
3350.883082,-2072.576638,-9548.656652,306.438199
3350.883409,1110.308913,-11177.109724,0.000000
3350.883737,1776.494261,-12435.459826,229.828649
3350.884065,0.000000,-11103.089130,536.266849
3350.884392,0.000000,-10807.006753,-1149.143247
3350.884720,-666.185348,-10436.903782,-2451.505594
3350.885047,-1036.288319,-10066.800811,-1991.848295
3350.885375,-2590.720797,-7994.224174,229.828649
3350.885702,-1850.514855,-7328.038826,842.705048
3350.886030,-1998.556043,-8216.285956,1455.581446
3350.886358,814.226536,-8290.306550,306.438199
3350.886685,2590.720797,-8808.450710,-383.047749
3350.887013,1702.473667,-9252.574275,689.485948
3350.887340,1184.329507,-8660.409521,1378.971896
3350.887668,1998.556043,-10881.027347,0.000000
3350.887995,2220.617826,-9474.636058,-459.657299
3350.888323,1258.350101,-9992.780217,-153.219100
3350.888650,222.061783,-9992.780217,-919.314598
3350.888978,-592.164754,-11991.336260,-766.095498
3350.889306,1258.350101,-11695.253884,-1072.533697
3350.889633,1776.494261,-10362.883188,-1225.752797
3350.889961,-888.247130,-10214.842000,1991.848295
3350.890288,0.000000,-7846.182985,383.047749
3350.890616,1554.432478,-7179.997637,-1225.752797
3350.890943,2072.576638,-8216.285956,-1072.533697
3350.891271,2220.617826,-9474.636058,229.828649
3350.891599,1924.535449,-8438.347739,1149.143247
3350.891926,1776.494261,-7624.121203,2374.896044
3350.892254,2590.720797,-10955.047942,76.609550
3350.892581,4737.318029,-12879.583391,-1991.848295
3350.892909,2072.576638,-12361.439231,-1762.019645
3350.893236,1258.350101,-11399.171507,-1838.629195
3350.893564,2146.597232,-11177.109724,-1378.971896
3350.893892,1776.494261,-12361.439231,-919.314598
3350.894219,2368.659014,-11843.295072,919.314598
3350.894547,222.061783,-8364.327145,153.219100
3350.894874,-1702.473667,-7105.977043,-153.219100
3350.895202,-2738.761985,-9474.636058,-229.828649
3350.895529,-1850.514855,-6957.935855,-842.705048
3350.895857,-1924.535449,-7031.956449,-995.924147
3350.896184,-740.205942,-7846.182985,689.485948
3350.896512,-296.082377,-9178.553681,229.828649
3350.896840,-444.123565,-10510.924376,0.000000
3350.897167,2294.638420,-11029.068536,0.000000
3350.897495,2590.720797,-10510.924376,-383.047749
3350.897822,814.226536,-10881.027347,919.314598
3350.898150,-1036.288319,-12287.418637,1838.629195
3350.898477,-1036.288319,-10214.842000,0.000000
3350.898805,-2294.638420,-8586.388927,-919.314598
3350.899133,-3775.050304,-8216.285956,-842.705048
3350.899460,-4071.132681,-7550.100608,306.438199
3350.899788,-4071.132681,-7550.100608,0.000000
3350.900115,-2516.700203,-7550.100608,0.000000
3350.900443,-592.164754,-8808.450710,0.000000
3350.900770,0.000000,-9030.512492,0.000000
3350.901098,222.061783,-9030.512492,919.314598
3350.901425,1480.411884,-9030.512492,153.219100
3350.901753,0.000000,-9548.656652,-995.924147
3350.902081,-666.185348,-10955.047942,-153.219100
3350.902408,444.123565,-10881.027347,0.000000
3350.902736,444.123565,-11177.109724,0.000000
3350.903063,370.102971,-12139.377449,76.609550
3350.903391,-370.102971,-11695.253884,76.609550
3350.903718,-592.164754,-9918.759623,-1685.410096
3350.904046,-1332.370696,-7402.059420,-2374.896044
3350.904374,-1258.350101,-6809.894666,-1762.019645
3350.904701,-1332.370696,-8512.368333,229.828649
3350.905029,296.082377,-9474.636058,1302.362347
3350.905356,2886.803174,-8660.409521,919.314598
3350.905684,3256.906145,-9178.553681,1302.362347
3350.906011,3478.967927,-11621.233289,1225.752797
3350.906339,3182.885551,-14508.036463,76.609550
3350.906666,2590.720797,-11621.233289,-2298.286494
3350.906994,1332.370696,-9548.656652,-2528.115143
3350.907322,-370.102971,-10510.924376,-1149.143247
3350.907649,-592.164754,-9918.759623,0.000000
3350.907977,74.020594,-10510.924376,842.705048
3350.908304,148.041188,-8438.347739,-153.219100
3350.908632,-296.082377,-8068.244768,536.266849
3350.908959,-518.144159,-7328.038826,383.047749
3350.909287,666.185348,-7772.162391,0.000000
3350.909615,1776.494261,-8216.285956,-306.438199
3350.909942,2368.659014,-7550.100608,612.876398
3350.910270,2812.782580,-9178.553681,689.485948
3350.910597,3552.988522,-10732.986159,919.314598
3350.910925,3552.988522,-12731.542202,919.314598
3350.911252,2072.576638,-10881.027347,0.000000
3350.911580,962.267725,-10288.862594,-1302.362347
3350.911907,444.123565,-10807.006753,-1915.238745
3350.912235,518.144159,-10362.883188,-612.876398
3350.912563,0.000000,-8956.491898,459.657299
3350.912890,222.061783,-7846.182985,689.485948
3350.913218,1184.329507,-10362.883188,0.000000
3350.913545,1184.329507,-9474.636058,76.609550
3350.913873,0.000000,-8586.388927,536.266849
3350.914200,-2368.659014,-7179.997637,229.828649
3350.914528,-2368.659014,-8808.450710,-536.266849
3350.914856,-1850.514855,-9030.512492,-995.924147
3350.915183,-2442.679609,-9622.677246,-1838.629195
3350.915511,-2146.597232,-11917.315666,-306.438199
3350.915838,-1258.350101,-12139.377449,-995.924147
3350.916166,518.144159,-11473.192101,-1302.362347
3350.916493,666.185348,-10288.862594,-766.095498
3350.916821,-370.102971,-12065.356855,612.876398
3350.917148,-888.247130,-11325.150913,306.438199
3350.917476,-2294.638420,-7402.059420,-1532.190996
3350.917804,-2220.617826,-7402.059420,-1072.533697
3350.918131,-1702.473667,-8142.265362,383.047749
3350.918459,-1628.453072,-10732.986159,2298.286494
3350.918786,-1110.308913,-8660.409521,1762.019645
3350.919114,666.185348,-7476.080014,-1302.362347
3350.919441,444.123565,-9696.697840,-1762.019645
3350.919769,444.123565,-10140.821405,-383.047749
3350.920097,-370.102971,-9474.636058,536.266849
3350.920424,-814.226536,-8882.471304,76.609550
3350.920752,-814.226536,-9770.718434,-383.047749
3350.921079,222.061783,-9474.636058,0.000000
3350.921407,592.164754,-9918.759623,153.219100
3350.921734,1184.329507,-10362.883188,919.314598
3350.922062,1258.350101,-10584.944971,153.219100
3350.922389,1406.391290,-9548.656652,-459.657299
3350.922717,2072.576638,-7994.224174,-766.095498
3350.923045,518.144159,-6883.915261,0.000000
3350.923372,-888.247130,-7772.162391,1149.143247
3350.923700,296.082377,-10288.862594,919.314598
3350.924027,2590.720797,-10214.842000,-689.485948
3350.924355,3108.864956,-10288.862594,-1455.581446
3350.924682,2664.741391,-13323.706956,689.485948
3350.925010,2664.741391,-13619.789333,153.219100
3350.925338,4441.235652,-11399.171507,-1608.800546
3350.925665,3552.988522,-9474.636058,-2604.724693
3350.925993,0.000000,-10510.924376,-306.438199
3350.926320,-1480.411884,-7846.182985,919.314598
3350.926648,444.123565,-7698.141797,229.828649
3350.926975,592.164754,-9326.594869,-383.047749
3350.927303,740.205942,-10732.986159,229.828649
3350.927630,-296.082377,-9474.636058,229.828649
3350.927958,148.041188,-9326.594869,-766.095498
3350.928286,1554.432478,-10066.800811,-2145.067394
3350.928613,2072.576638,-8660.409521,-1302.362347
3350.928941,1332.370696,-9622.677246,995.924147
3350.929268,1702.473667,-10436.903782,1991.848295
3350.929596,1924.535449,-11029.068536,689.485948
3350.929923,814.226536,-10807.006753,229.828649
3350.930251,666.185348,-10066.800811,0.000000
3350.930579,0.000000,-10362.883188,-1225.752797
3350.930906,-1332.370696,-8660.409521,-766.095498
3350.931234,-592.164754,-8216.285956,0.000000
3350.931561,1406.391290,-8216.285956,0.000000
3350.931889,2220.617826,-10955.047942,76.609550
3350.932216,592.164754,-11103.089130,1915.238745
3350.932544,0.000000,-7476.080014,1225.752797
3350.932871,-2072.576638,-6957.935855,-536.266849
3350.933199,-2960.823768,-9474.636058,-2068.457845
3350.933527,-2516.700203,-10362.883188,-842.705048
3350.933854,-1258.350101,-9326.594869,-1225.752797
3350.934182,-740.205942,-10066.800811,-612.876398
3350.934509,444.123565,-10362.883188,-1455.581446
3350.934837,0.000000,-10140.821405,-536.266849
3350.935164,-1480.411884,-9918.759623,995.924147
3350.935492,-1850.514855,-9696.697840,76.609550
3350.935820,-1406.391290,-9844.739029,-2145.067394
3350.936147,-1110.308913,-8734.430116,-2757.943793
3350.936475,-888.247130,-8956.491898,-536.266849
3350.936802,-740.205942,-10066.800811,1072.533697
3350.937130,-1480.411884,-10955.047942,2528.115143
3350.937457,222.061783,-9622.677246,-306.438199
3350.937785,296.082377,-9326.594869,-2068.457845
3350.938112,148.041188,-9918.759623,-1378.971896
3350.938440,-814.226536,-7698.141797,76.609550
3350.938768,-296.082377,-8882.471304,612.876398
3350.939095,0.000000,-10066.800811,76.609550
3350.939423,222.061783,-11399.171507,153.219100
3350.939750,222.061783,-9400.615463,0.000000
3350.940078,518.144159,-9326.594869,153.219100
3350.940405,1850.514855,-10584.944971,-229.828649
3350.940733,2516.700203,-10436.903782,-306.438199
3350.941061,2072.576638,-8808.450710,229.828649
3350.941388,2812.782580,-7920.203579,1532.190996
3350.941716,1776.494261,-7698.141797,1302.362347
3350.942043,74.020594,-8734.430116,1302.362347
3350.942371,0.000000,-10288.862594,0.000000
3350.942698,2220.617826,-9844.739029,-2604.724693
3350.943026,2146.597232,-10955.047942,-1685.410096
3350.943353,2220.617826,-11695.253884,-229.828649
3350.943681,2812.782580,-10658.965565,612.876398
3350.944009,3256.906145,-9844.739029,0.000000
3350.944336,2812.782580,-7920.203579,-612.876398
3350.944664,888.247130,-9770.718434,-306.438199
3350.944991,-370.102971,-9104.533087,459.657299
3350.945319,2072.576638,-7920.203579,-536.266849
3350.945646,2220.617826,-9030.512492,306.438199
3350.945974,814.226536,-11325.150913,1991.848295
3350.946302,-518.144159,-10658.965565,1455.581446
3350.946629,0.000000,-9696.697840,-1302.362347
3350.946957,-148.041188,-10436.903782,-3907.087040
3350.947284,-2146.597232,-9548.656652,-3677.258390
3350.947612,-3034.844362,-7846.182985,-842.705048
3350.947939,-1184.329507,-8216.285956,229.828649
3350.948267,1406.391290,-10214.842000,-153.219100
3350.948594,1554.432478,-11251.130318,383.047749
3350.948922,740.205942,-10955.047942,842.705048
3350.949250,1110.308913,-10658.965565,-229.828649
3350.949577,1332.370696,-10214.842000,-1149.143247
3350.949905,518.144159,-9992.780217,-995.924147
3350.950232,518.144159,-9474.636058,-306.438199
3350.950560,74.020594,-9400.615463,229.828649
3350.950887,-592.164754,-8512.368333,689.485948
3350.951215,-518.144159,-8660.409521,536.266849
3350.951543,-740.205942,-10436.903782,306.438199
3350.951870,-962.267725,-11695.253884,-229.828649
3350.952198,-296.082377,-11029.068536,-612.876398
3350.952525,-962.267725,-8512.368333,-1225.752797
3350.952853,-2886.803174,-9326.594869,-459.657299
3350.953180,-3108.864956,-10140.821405,153.219100
3350.953508,-2664.741391,-7105.977043,-306.438199
3350.953835,-2812.782580,-6809.894666,0.000000
3350.954163,-2442.679609,-10140.821405,-459.657299
3350.954491,-1998.556043,-11991.336260,-612.876398
3350.954818,-296.082377,-10436.903782,-995.924147
3350.955146,666.185348,-9400.615463,-2221.676944
3350.955473,1036.288319,-10362.883188,-306.438199
3350.955801,1554.432478,-10955.047942,1762.019645
3350.956128,1258.350101,-9474.636058,1762.019645
3350.956456,740.205942,-8586.388927,1608.800546
3350.956784,962.267725,-8734.430116,1149.143247
3350.957111,592.164754,-9030.512492,0.000000
3350.957439,0.000000,-9326.594869,536.266849
3350.957766,-1406.391290,-7846.182985,-383.047749
3350.958094,-1702.473667,-8956.491898,-995.924147
3350.958421,666.185348,-10140.821405,-1838.629195
3350.958749,2220.617826,-10214.842000,-1532.190996
3350.959076,3108.864956,-11399.171507,919.314598
3350.959404,2590.720797,-10510.924376,1838.629195
3350.959732,2368.659014,-10510.924376,842.705048
3350.960059,3182.885551,-9178.553681,-842.705048
3350.960387,1554.432478,-10362.883188,0.000000
3350.960714,444.123565,-10066.800811,612.876398
3350.961042,1480.411884,-8882.471304,-919.314598
3350.961369,2294.638420,-9770.718434,-1149.143247
3350.961697,2146.597232,-10362.883188,-919.314598
3350.962025,666.185348,-10658.965565,536.266849
3350.962352,-296.082377,-9696.697840,612.876398
3350.962680,222.061783,-8216.285956,-1302.362347
3350.963007,740.205942,-8216.285956,-2374.896044
3350.963335,1332.370696,-10881.027347,-1072.533697
3350.963662,1184.329507,-10510.924376,995.924147
3350.963990,2516.700203,-9252.574275,1302.362347
3350.964317,3182.885551,-10436.903782,0.000000
3350.964645,1406.391290,-11621.233289,612.876398
3350.964973,0.000000,-10732.986159,536.266849
3350.965300,-1184.329507,-9178.553681,-612.876398
3350.965628,-2812.782580,-8586.388927,-1991.848295
3350.965955,-2960.823768,-8068.244768,-2145.067394
3350.966283,-2664.741391,-7476.080014,-536.266849
3350.966610,-2516.700203,-8364.327145,459.657299
3350.966938,-962.267725,-9178.553681,-153.219100
3350.967266,518.144159,-10732.986159,-766.095498
3350.967593,1628.453072,-9992.780217,-1072.533697
3350.967921,1258.350101,-10066.800811,-536.266849
3350.968248,222.061783,-10140.821405,995.924147
3350.968576,-222.061783,-8882.471304,1072.533697
3350.968903,-296.082377,-9622.677246,842.705048
3350.969231,296.082377,-9622.677246,-842.705048
3350.969558,-740.205942,-11103.089130,-689.485948
3350.969886,-1480.411884,-10214.842000,-689.485948
3350.970214,-296.082377,-9918.759623,-1225.752797
3350.970541,296.082377,-10807.006753,-919.314598
3350.970869,-592.164754,-10510.924376,-383.047749
3350.971196,-1184.329507,-8364.327145,229.828649
3350.971524,-2294.638420,-7179.997637,0.000000
3350.971851,-2146.597232,-9770.718434,-689.485948
3350.972179,-1702.473667,-7254.018232,0.000000
3350.972507,-1184.329507,-9622.677246,459.657299
3350.972834,-2146.597232,-11029.068536,0.000000
3350.973162,-1480.411884,-11843.295072,-2451.505594
3350.973489,518.144159,-10807.006753,-2604.724693
3350.973817,2516.700203,-10732.986159,-2451.505594
3350.974144,1184.329507,-11251.130318,612.876398
3350.974472,1258.350101,-9844.739029,2528.115143
3350.974799,1776.494261,-8586.388927,766.095498
3350.975127,962.267725,-9474.636058,1149.143247
3350.975455,1184.329507,-8216.285956,766.095498
3350.975782,0.000000,-7698.141797,689.485948
3350.976110,148.041188,-8438.347739,459.657299
3350.976437,740.205942,-8142.265362,-459.657299
3350.976765,1110.308913,-8438.347739,-689.485948
3350.977092,1628.453072,-10436.903782,76.609550
3350.977420,1776.494261,-9992.780217,536.266849
3350.977747,2072.576638,-11029.068536,229.828649
3350.978075,1998.556043,-10658.965565,0.000000
3350.978402,2368.659014,-10955.047942,-842.705048
3350.978729,2812.782580,-9992.780217,0.000000
3350.979057,2072.576638,-9548.656652,383.047749
3350.979384,1332.370696,-10807.006753,1302.362347
3350.979712,814.226536,-8882.471304,0.000000
3350.980039,1036.288319,-9474.636058,-919.314598
3350.980367,1258.350101,-9770.718434,0.000000
3350.980694,592.164754,-9030.512492,612.876398
3350.981021,-222.061783,-8438.347739,842.705048
3350.981349,1184.329507,-9030.512492,0.000000
3350.981676,1332.370696,-10362.883188,-1302.362347
3350.982004,-148.041188,-10510.924376,-1302.362347
3350.982331,0.000000,-10140.821405,-383.047749
3350.982659,888.247130,-10658.965565,-1149.143247
3350.982986,2072.576638,-12065.356855,-612.876398
3350.983314,666.185348,-11103.089130,536.266849
3350.983641,-1406.391290,-9474.636058,1455.581446
3350.983968,-1998.556043,-8290.306550,153.219100
3350.984296,-1258.350101,-9844.739029,-1838.629195
3350.984623,-2664.741391,-9770.718434,-1149.143247
3350.984951,-3108.864956,-7105.977043,-1685.410096
3350.985278,-2442.679609,-7105.977043,-995.924147
3350.985606,-888.247130,-9770.718434,-459.657299
3350.985933,740.205942,-10362.883188,153.219100
3350.986260,1258.350101,-9474.636058,1455.581446
3350.986588,518.144159,-9178.553681,919.314598
3350.986915,518.144159,-9696.697840,-383.047749
3350.987243,666.185348,-10362.883188,-1302.362347
3350.987570,-370.102971,-10807.006753,0.000000
3350.987898,-888.247130,-10362.883188,536.266849
3350.988225,-888.247130,-10066.800811,0.000000
3350.988552,-1480.411884,-9400.615463,-1455.581446
3350.988880,-1110.308913,-8586.388927,-1915.238745
3350.989207,-888.247130,-9326.594869,-536.266849
3350.989535,-888.247130,-9770.718434,459.657299
3350.989862,-370.102971,-9030.512492,306.438199
3350.990190,-370.102971,-7920.203579,-842.705048
3350.990517,-740.205942,-9548.656652,-229.828649
3350.990844,-740.205942,-9696.697840,1225.752797
3350.991172,-888.247130,-9104.533087,612.876398
3350.991499,148.041188,-10807.006753,-766.095498
3350.991827,814.226536,-11621.233289,-1915.238745
3350.992154,2590.720797,-10955.047942,-1838.629195
3350.992482,2664.741391,-10658.965565,-536.266849
3350.992809,1184.329507,-11325.150913,1532.190996
3350.993137,1924.535449,-9474.636058,919.314598
3350.993464,2886.803174,-9252.574275,76.609550
3350.993791,740.205942,-9326.594869,153.219100
3350.994119,74.020594,-8068.244768,1149.143247
3350.994446,1850.514855,-6957.935855,76.609550
3350.994774,2886.803174,-8660.409521,306.438199
3350.995101,1776.494261,-10881.027347,1378.971896
3350.995429,222.061783,-7254.018232,536.266849
3350.995756,888.247130,-8068.244768,0.000000
3350.996083,1850.514855,-10658.965565,-689.485948
3350.996411,2294.638420,-11695.253884,-1685.410096
3350.996738,1110.308913,-11325.150913,536.266849
3350.997066,2368.659014,-11325.150913,919.314598
3350.997393,3775.050304,-9548.656652,-1225.752797
3350.997721,2442.679609,-9178.553681,229.828649
3350.998048,0.000000,-9918.759623,2068.457845
3350.998375,-222.061783,-8364.327145,459.657299
3350.998703,444.123565,-8660.409521,-842.705048
3350.999030,814.226536,-8660.409521,-1378.971896
3350.999358,814.226536,-9548.656652,229.828649
3350.999685,444.123565,-9844.739029,1455.581446
3351.000013,518.144159,-9178.553681,229.828649
3351.000340,444.123565,-10140.821405,-1685.410096
3351.000667,148.041188,-10732.986159,-2451.505594
3351.000995,-666.185348,-11547.212695,-612.876398
3351.001322,0.000000,-9474.636058,229.828649
3351.001650,0.000000,-10214.842000,-306.438199
3351.001977,-888.247130,-12213.398043,0.000000
3351.002305,-148.041188,-10510.924376,0.000000
3351.002632,-888.247130,-9770.718434,459.657299
3351.002960,-2664.741391,-9400.615463,153.219100
3351.003287,-3627.009116,-8956.491898,0.000000
3351.003614,-2146.597232,-8364.327145,-1149.143247
3351.003942,-1702.473667,-7920.203579,-919.314598
3351.004269,-1924.535449,-8586.388927,229.828649
3351.004597,-1628.453072,-9474.636058,1532.190996
3351.004924,-370.102971,-9992.780217,0.000000
3351.005252,1554.432478,-9622.677246,-612.876398
3351.005579,1036.288319,-10807.006753,0.000000
3351.005906,-518.144159,-10955.047942,995.924147
3351.006234,0.000000,-9992.780217,-536.266849
3351.006561,148.041188,-9918.759623,-1378.971896
3351.006889,-370.102971,-11177.109724,-229.828649
3351.007216,-592.164754,-8438.347739,0.000000
3351.007544,-1036.288319,-7476.080014,229.828649
3351.007871,-888.247130,-8660.409521,-306.438199
3351.008198,888.247130,-9178.553681,-612.876398
3351.008526,888.247130,-10510.924376,153.219100
3351.008853,1110.308913,-10510.924376,536.266849
3351.009181,1406.391290,-9548.656652,-536.266849
3351.009508,740.205942,-8956.491898,-919.314598
3351.009836,148.041188,-10214.842000,76.609550
3351.010163,-370.102971,-11473.192101,536.266849
3351.010491,0.000000,-10584.944971,-1532.190996
3351.010818,0.000000,-9770.718434,-3140.991542
3351.011145,2368.659014,-10658.965565,-2987.772442
3351.011473,2368.659014,-11399.171507,-612.876398
3351.011800,1480.411884,-11399.171507,2911.162892
3351.012128,2368.659014,-9548.656652,2451.505594
3351.012455,3701.029710,-9178.553681,-1149.143247
3351.012783,814.226536,-10214.842000,-459.657299
3351.013110,592.164754,-7920.203579,0.000000
3351.013437,1776.494261,-6661.853478,76.609550
3351.013765,814.226536,-8956.491898,1838.629195
3351.014092,0.000000,-9844.739029,1378.971896
3351.014420,592.164754,-9326.594869,-229.828649
3351.014747,1554.432478,-10584.944971,-1378.971896
3351.015075,1406.391290,-10807.006753,-1685.410096
3351.015402,888.247130,-11547.212695,-459.657299
3351.015729,1628.453072,-10510.924376,842.705048
3351.016057,2886.803174,-10288.862594,689.485948
3351.016384,2220.617826,-8290.306550,383.047749
3351.016712,-296.082377,-7254.018232,1532.190996
3351.017039,-1258.350101,-7994.224174,1225.752797
3351.017367,-592.164754,-7994.224174,-919.314598
3351.017694,-666.185348,-10214.842000,-1302.362347
3351.018021,-1110.308913,-9696.697840,-306.438199
3351.018349,74.020594,-8808.450710,0.000000
3351.018676,74.020594,-9252.574275,0.000000
3351.019004,1110.308913,-10732.986159,0.000000
3351.019331,148.041188,-10955.047942,0.000000
3351.019659,-1702.473667,-9474.636058,-1225.752797
3351.019986,-1480.411884,-10066.800811,-919.314598
3351.020314,0.000000,-9474.636058,-689.485948
3351.020641,370.102971,-11843.295072,459.657299
3351.020968,-518.144159,-11621.233289,1991.848295
3351.021296,0.000000,-9844.739029,0.000000
3351.021623,592.164754,-9622.677246,-3524.039291
3351.021951,-666.185348,-9918.759623,-1302.362347
3351.022278,-1850.514855,-9252.574275,229.828649
3351.022606,-2294.638420,-7105.977043,306.438199
3351.022933,-2146.597232,-8734.430116,-229.828649
3351.023260,-1110.308913,-9548.656652,-612.876398
3351.023588,370.102971,-10955.047942,-689.485948
3351.023915,0.000000,-10288.862594,459.657299
3351.024243,592.164754,-10288.862594,0.000000
3351.024570,1184.329507,-9770.718434,-1072.533697
3351.024898,1406.391290,-9918.759623,-919.314598
3351.025225,814.226536,-11251.130318,1072.533697
3351.025552,370.102971,-9104.533087,842.705048
3351.025880,0.000000,-8512.368333,459.657299
3351.026207,740.205942,-8512.368333,-766.095498
3351.026535,444.123565,-9992.780217,-766.095498
3351.026862,370.102971,-10214.842000,-229.828649
3351.027190,0.000000,-8586.388927,536.266849
3351.027517,518.144159,-8142.265362,0.000000
3351.027844,2590.720797,-9696.697840,-995.924147
3351.028172,2072.576638,-9918.759623,0.000000
3351.028499,0.000000,-8808.450710,1915.238745
3351.028827,-962.267725,-9474.636058,536.266849
3351.029154,-222.061783,-10658.965565,-2374.896044
3351.029482,222.061783,-10807.006753,-2604.724693
3351.029809,962.267725,-10881.027347,-1532.190996
3351.030137,1036.288319,-9474.636058,76.609550
3351.030464,1702.473667,-11325.150913,919.314598
3351.030791,3330.926739,-9992.780217,-612.876398
3351.031119,2886.803174,-10436.903782,-766.095498
3351.031446,296.082377,-8808.450710,919.314598
3351.031774,-296.082377,-7328.038826,766.095498
3351.032101,666.185348,-7920.203579,-229.828649
3351.032429,1554.432478,-9252.574275,-766.095498
3351.032756,0.000000,-9474.636058,1762.019645
3351.033083,-296.082377,-9252.574275,2145.067394
3351.033411,1110.308913,-11029.068536,-383.047749
3351.033738,1184.329507,-10584.944971,-2145.067394
3351.034066,592.164754,-10807.006753,-1302.362347
3351.034393,0.000000,-10510.924376,689.485948
3351.034721,1184.329507,-9474.636058,766.095498
3351.035048,1554.432478,-7772.162391,612.876398
3351.035375,-222.061783,-8734.430116,612.876398
3351.035703,-3034.844362,-10362.883188,1838.629195
3351.036030,-1850.514855,-8882.471304,-229.828649
3351.036358,-370.102971,-8882.471304,-2834.553343
3351.036685,0.000000,-10584.944971,-2145.067394
3351.037013,222.061783,-10214.842000,-229.828649
3351.037340,740.205942,-9474.636058,1608.800546
3351.037667,74.020594,-8882.471304,459.657299
3351.037995,0.000000,-9548.656652,-689.485948
3351.038322,-1850.514855,-9474.636058,-919.314598
3351.038650,-1924.535449,-9918.759623,-383.047749
3351.038977,-370.102971,-9844.739029,-919.314598
3351.039305,296.082377,-10881.027347,-842.705048
3351.039632,814.226536,-11325.150913,153.219100
3351.039960,1480.411884,-11103.089130,1225.752797
3351.040287,962.267725,-10288.862594,306.438199
3351.040614,74.020594,-9178.553681,0.000000
3351.040942,-1554.432478,-8068.244768,153.219100
3351.041269,-1554.432478,-7328.038826,-612.876398
3351.041597,-592.164754,-9622.677246,-1225.752797
3351.041924,-1184.329507,-10658.965565,459.657299
3351.042252,-1110.308913,-9548.656652,-536.266849
3351.042579,-444.123565,-9474.636058,-1302.362347
3351.042906,666.185348,-10881.027347,-1302.362347
3351.043234,1110.308913,-10955.047942,-689.485948
3351.043561,2294.638420,-9474.636058,0.000000
3351.043889,2368.659014,-9326.594869,842.705048
3351.044216,1850.514855,-9918.759623,1532.190996
3351.044544,1480.411884,-10362.883188,766.095498
3351.044871,222.061783,-9992.780217,383.047749
3351.045198,444.123565,-8956.491898,-1302.362347
3351.045526,1406.391290,-10362.883188,-1608.800546
3351.045853,1036.288319,-9992.780217,-689.485948
3351.046181,1184.329507,-9474.636058,842.705048
3351.046508,1850.514855,-8586.388927,689.485948
3351.046836,2220.617826,-10066.800811,383.047749
3351.047163,0.000000,-8660.409521,1072.533697
3351.047490,-1480.411884,-8438.347739,306.438199
3351.047818,-2368.659014,-10658.965565,-1608.800546
3351.048145,-1480.411884,-11399.171507,-3370.820191
3351.048473,962.267725,-9622.677246,-4136.915689
3351.048800,1924.535449,-9992.780217,-2145.067394
3351.049128,2516.700203,-11843.295072,2374.896044
3351.049455,2368.659014,-11251.130318,3217.601092
3351.049783,1628.453072,-9252.574275,1072.533697
3351.050110,888.247130,-8586.388927,-1072.533697
3351.050437,0.000000,-9104.533087,-995.924147
3351.050765,-666.185348,-8364.327145,383.047749
3351.051092,0.000000,-7402.059420,-689.485948
3351.051420,0.000000,-7476.080014,383.047749
3351.051747,518.144159,-9918.759623,153.219100
3351.052075,814.226536,-10955.047942,0.000000
3351.052402,814.226536,-9548.656652,76.609550
3351.052729,222.061783,-9252.574275,-306.438199
3351.053057,666.185348,-9474.636058,-383.047749
3351.053384,1184.329507,-10658.965565,-1225.752797
3351.053712,814.226536,-10288.862594,919.314598
3351.054039,1554.432478,-6439.791695,842.705048
3351.054367,-370.102971,-9474.636058,1149.143247
3351.054694,-2220.617826,-11547.212695,0.000000
3351.055021,-888.247130,-10807.006753,-2681.334243
3351.055349,-296.082377,-10066.800811,-2221.676944
3351.055676,296.082377,-9474.636058,0.000000
3351.056004,0.000000,-9178.553681,459.657299
3351.056331,-222.061783,-8956.491898,1455.581446
3351.056659,0.000000,-9252.574275,-229.828649
3351.056986,592.164754,-9918.759623,-995.924147
3351.057314,-1184.329507,-10214.842000,-919.314598
3351.057641,-2146.597232,-9178.553681,-459.657299
3351.057968,-370.102971,-9844.739029,-919.314598
3351.058296,888.247130,-11843.295072,-1072.533697
3351.058623,666.185348,-11769.274478,229.828649
3351.058951,1184.329507,-10658.965565,536.266849
3351.059278,2072.576638,-9918.759623,-689.485948
3351.059606,518.144159,-9622.677246,-766.095498
3351.059933,-1406.391290,-9992.780217,-229.828649
3351.060260,-2664.741391,-7476.080014,0.000000
3351.060588,-1110.308913,-7772.162391,-919.314598
3351.060915,0.000000,-9252.574275,-1225.752797
3351.061243,0.000000,-10140.821405,-536.266849
3351.061570,0.000000,-9030.512492,383.047749
3351.061898,666.185348,-9548.656652,383.047749
3351.062225,1702.473667,-9326.594869,-612.876398
3351.062552,1036.288319,-9252.574275,-459.657299
3351.062880,592.164754,-10658.965565,1149.143247
3351.063207,1110.308913,-10807.006753,153.219100
3351.063535,1406.391290,-11029.068536,-1072.533697
3351.063862,1776.494261,-9992.780217,-1838.629195
3351.064190,1110.308913,-9770.718434,-766.095498
3351.064517,740.205942,-9770.718434,842.705048
3351.064844,1480.411884,-8438.347739,536.266849
3351.065172,222.061783,-7624.121203,1455.581446
3351.065499,2442.679609,-9400.615463,-689.485948
3351.065827,814.226536,-10362.883188,612.876398
3351.066154,-1332.370696,-9548.656652,1455.581446
3351.066482,-1406.391290,-9844.739029,-1532.190996
3351.066809,-814.226536,-11103.089130,-4290.134789
3351.067137,0.000000,-11251.130318,-4060.306139
3351.067464,1110.308913,-10140.821405,-1455.581446
3351.067791,1184.329507,-10658.965565,1685.410096
3351.068119,1850.514855,-10732.986159,3140.991542
3351.068446,2368.659014,-9548.656652,1149.143247
3351.068774,740.205942,-9474.636058,0.000000
3351.069101,-1406.391290,-8364.327145,229.828649
3351.069429,-1480.411884,-8216.285956,-306.438199
3351.069756,-148.041188,-7179.997637,-1072.533697
3351.070083,-296.082377,-8586.388927,0.000000
3351.070411,-444.123565,-9992.780217,2068.457845
3351.070738,-888.247130,-8586.388927,2298.286494
3351.071066,0.000000,-9474.636058,0.000000
3351.071393,666.185348,-10436.903782,-2451.505594
3351.071721,296.082377,-9992.780217,-1685.410096
3351.072048,222.061783,-9696.697840,-306.438199
3351.072375,1406.391290,-9992.780217,1149.143247
3351.072703,2886.803174,-8290.306550,1302.362347
3351.073030,740.205942,-8808.450710,1608.800546
3351.073358,-2590.720797,-11251.130318,1455.581446
3351.073685,-2220.617826,-9474.636058,-766.095498
3351.074013,-222.061783,-9326.594869,-3830.477490
3351.074340,1332.370696,-10732.986159,-2068.457845
3351.074667,148.041188,-10807.006753,1225.752797
3351.074995,370.102971,-9104.533087,2068.457845
3351.075322,740.205942,-8882.471304,459.657299
3351.075650,962.267725,-9400.615463,-1378.971896
3351.075977,74.020594,-10066.800811,-2604.724693
3351.076305,-1036.288319,-10732.986159,-612.876398
3351.076632,0.000000,-9400.615463,76.609550
3351.076960,1332.370696,-9918.759623,-536.266849
3351.077287,518.144159,-12287.418637,459.657299
3351.077614,518.144159,-12805.562797,1149.143247
3351.077942,518.144159,-10066.800811,-459.657299
3351.078269,74.020594,-8956.491898,-1991.848295
3351.078597,-1480.411884,-9918.759623,-995.924147
3351.078924,-1110.308913,-7846.182985,-1225.752797
3351.079252,-666.185348,-7994.224174,229.828649
3351.079579,-1332.370696,-8586.388927,2298.286494
3351.079907,-888.247130,-8290.306550,612.876398
3351.080234,74.020594,-8586.388927,-842.705048
3351.080561,148.041188,-9992.780217,-612.876398
3351.080889,1554.432478,-10732.986159,-1378.971896
3351.081216,2220.617826,-10362.883188,-612.876398
3351.081544,1702.473667,-10658.965565,689.485948
3351.081871,2812.782580,-10584.944971,383.047749
3351.082199,2368.659014,-10881.027347,-229.828649
3351.082526,1184.329507,-10066.800811,76.609550
3351.082854,1036.288319,-8808.450710,-229.828649
3351.083181,370.102971,-7920.203579,-1225.752797
3351.083509,666.185348,-8660.409521,0.000000
3351.083836,370.102971,-9178.553681,1608.800546
3351.084163,592.164754,-8586.388927,383.047749
3351.084491,2146.597232,-10658.965565,-766.095498
3351.084818,1850.514855,-9696.697840,-995.924147
3351.085146,814.226536,-9474.636058,-995.924147
3351.085473,-1924.535449,-11251.130318,-1455.581446
3351.085801,-1258.350101,-11029.068536,-1532.190996
3351.086128,222.061783,-10140.821405,-2987.772442
3351.086456,2368.659014,-10288.862594,-2068.457845
3351.086783,1184.329507,-12139.377449,1378.971896
3351.087111,962.267725,-11029.068536,2757.943793
3351.087438,1406.391290,-9400.615463,459.657299
3351.087766,814.226536,-8956.491898,-1991.848295
3351.088093,-1036.288319,-9474.636058,-612.876398
3351.088420,-740.205942,-7920.203579,612.876398
3351.088748,0.000000,-6587.832884,229.828649
3351.089075,-296.082377,-8512.368333,536.266849
3351.089403,-296.082377,-9400.615463,612.876398
3351.089730,888.247130,-11103.089130,1302.362347
3351.090058,814.226536,-10288.862594,459.657299
3351.090385,222.061783,-11251.130318,-1225.752797
3351.090713,518.144159,-9918.759623,-1302.362347
3351.091040,1258.350101,-9474.636058,-383.047749
3351.091368,1036.288319,-8438.347739,1455.581446
3351.091695,666.185348,-6809.894666,2068.457845
3351.092022,-2812.782580,-8808.450710,3064.381992
3351.092350,-3330.926739,-9474.636058,612.876398
3351.092677,-370.102971,-10584.944971,-2987.772442
3351.093005,222.061783,-10881.027347,-2911.162892
3351.093332,-518.144159,-9622.677246,-459.657299
3351.093660,74.020594,-9770.718434,153.219100
3351.093987,1036.288319,-9844.739029,229.828649
3351.094315,1036.288319,-9844.739029,76.609550
3351.094642,-296.082377,-8882.471304,-536.266849
3351.094970,-1184.329507,-9622.677246,612.876398
3351.095297,-962.267725,-9326.594869,-689.485948
3351.095624,814.226536,-10436.903782,-1762.019645
3351.095952,-444.123565,-11843.295072,-153.219100
3351.096279,0.000000,-12287.418637,842.705048
3351.096607,1406.391290,-9992.780217,-1302.362347
3351.096934,1924.535449,-9326.594869,-2374.896044
3351.097262,-296.082377,-10362.883188,-919.314598
3351.097589,-1258.350101,-8956.491898,153.219100
3351.097917,-1850.514855,-7624.121203,536.266849
3351.098244,-962.267725,-8364.327145,536.266849
3351.098572,-592.164754,-8882.471304,0.000000
3351.098899,-444.123565,-9474.636058,-306.438199
3351.099227,222.061783,-10362.883188,-1838.629195
3351.099554,1332.370696,-10362.883188,-1762.019645
3351.099881,2590.720797,-8956.491898,-1915.238745
3351.100209,1628.453072,-9474.636058,536.266849
3351.100536,1332.370696,-9770.718434,1991.848295
3351.100864,370.102971,-9770.718434,1838.629195
3351.101191,222.061783,-9252.574275,459.657299
3351.101519,1036.288319,-8586.388927,-536.266849
3351.101846,592.164754,-9252.574275,-153.219100
3351.102174,370.102971,-9992.780217,0.000000
3351.102501,0.000000,-8882.471304,612.876398
3351.102829,1110.308913,-8364.327145,-919.314598
3351.103156,2368.659014,-10510.924376,-1072.533697
3351.103483,1554.432478,-10362.883188,536.266849
3351.103811,-296.082377,-8512.368333,1302.362347
3351.104138,-1480.411884,-9770.718434,0.000000
3351.104466,-740.205942,-11991.336260,-2757.943793
3351.104793,-222.061783,-12213.398043,-3294.210641
3351.105121,1628.453072,-10658.965565,-2145.067394
3351.105448,1850.514855,-9918.759623,0.000000
3351.105776,2590.720797,-9918.759623,919.314598
3351.106103,3256.906145,-11621.233289,1072.533697
3351.106431,1998.556043,-10362.883188,1378.971896
3351.106758,0.000000,-8068.244768,383.047749
3351.107086,-296.082377,-6957.935855,-612.876398
3351.107413,-222.061783,-8142.265362,-1455.581446
3351.107740,-814.226536,-10584.944971,-612.876398
3351.108068,-1184.329507,-9400.615463,-383.047749
3351.108395,296.082377,-9252.574275,383.047749
3351.108723,2294.638420,-10140.821405,-766.095498
3351.109050,2368.659014,-11695.253884,-1072.533697
3351.109378,444.123565,-11325.150913,919.314598
3351.109705,962.267725,-8586.388927,1072.533697
3351.110033,888.247130,-7476.080014,612.876398
3351.110360,1332.370696,-6513.812290,1302.362347
3351.110688,148.041188,-8216.285956,1532.190996
3351.111015,-3997.112087,-10140.821405,2604.724693
3351.111342,-2072.576638,-10584.944971,-1149.143247
3351.111670,1036.288319,-10362.883188,-4596.572988
3351.111997,2072.576638,-11695.253884,-2834.553343
3351.112325,518.144159,-10584.944971,1072.533697
3351.112652,0.000000,-8512.368333,2834.553343
3351.112980,888.247130,-8586.388927,1608.800546
3351.113307,1110.308913,-9474.636058,-689.485948
3351.113635,-888.247130,-10362.883188,-383.047749
3351.113962,-2072.576638,-8734.430116,536.266849
3351.114290,-1036.288319,-8290.306550,-1225.752797
3351.114617,-370.102971,-11103.089130,-1378.971896
3351.114944,296.082377,-11991.336260,-612.876398
3351.115272,74.020594,-11621.233289,459.657299
3351.115599,148.041188,-8956.491898,0.000000
3351.115927,-1332.370696,-9178.553681,-919.314598
3351.116254,-1776.494261,-10288.862594,-1149.143247
3351.116582,-1258.350101,-8586.388927,-1149.143247
3351.116909,-1850.514855,-8660.409521,153.219100
3351.117237,-1480.411884,-9474.636058,383.047749
3351.117564,-1110.308913,-9844.739029,-842.705048
3351.117892,740.205942,-9622.677246,-1378.971896
3351.118219,962.267725,-11399.171507,-1838.629195
3351.118547,0.000000,-10658.965565,-459.657299
3351.118874,0.000000,-8586.388927,766.095498
3351.119201,962.267725,-9326.594869,76.609550
3351.119529,1036.288319,-11029.068536,153.219100
3351.119856,-518.144159,-9548.656652,153.219100
3351.120184,-962.267725,-7254.018232,1072.533697
3351.120511,1036.288319,-9326.594869,-459.657299
3351.120839,1776.494261,-10955.047942,-612.876398
3351.121166,518.144159,-9400.615463,689.485948
3351.121494,-370.102971,-8068.244768,1302.362347
3351.121821,222.061783,-9252.574275,612.876398
3351.122149,1110.308913,-10140.821405,-995.924147
3351.122476,222.061783,-8586.388927,-689.485948
3351.122803,-1110.308913,-8512.368333,0.000000
3351.123131,888.247130,-11325.150913,-1532.190996
3351.123458,1702.473667,-12435.459826,-1762.019645
3351.123786,1924.535449,-10214.842000,-612.876398
3351.124113,1258.350101,-8808.450710,153.219100
3351.124441,740.205942,-9030.512492,919.314598
3351.124768,370.102971,-8068.244768,1225.752797
3351.125096,1184.329507,-9178.553681,-229.828649
3351.125423,0.000000,-7920.203579,919.314598
3351.125751,666.185348,-9844.739029,1455.581446
3351.126078,1036.288319,-11547.212695,0.000000
3351.126405,-592.164754,-11843.295072,-1762.019645
3351.126733,-296.082377,-9178.553681,-3447.429741
3351.127060,1702.473667,-9400.615463,-2681.334243
3351.127388,1184.329507,-11399.171507,0.000000
3351.127715,1258.350101,-10584.944971,2451.505594
3351.128043,2072.576638,-9474.636058,1685.410096
3351.128370,1998.556043,-9918.759623,306.438199
3351.128698,0.000000,-9844.739029,-536.266849
3351.129025,-1480.411884,-8956.491898,-383.047749
3351.129353,-592.164754,-7698.141797,-2221.676944
3351.129680,-962.267725,-7402.059420,-1838.629195
3351.130008,74.020594,-9474.636058,-306.438199
3351.130335,1406.391290,-11251.130318,919.314598
3351.130662,2368.659014,-11621.233289,1991.848295
3351.130990,296.082377,-9474.636058,1838.629195
3351.131317,148.041188,-7624.121203,0.000000
3351.131645,0.000000,-7772.162391,-995.924147
3351.131972,1110.308913,-8068.244768,-229.828649
3351.132300,518.144159,-8290.306550,1149.143247
3351.132627,-814.226536,-10362.883188,1838.629195
3351.132955,592.164754,-10362.883188,-536.266849
3351.133282,1406.391290,-11547.212695,-1991.848295
3351.133610,1110.308913,-12879.583391,-766.095498
3351.133937,-666.185348,-10362.883188,0.000000
3351.134264,0.000000,-8660.409521,-842.705048
3351.134592,592.164754,-7994.224174,-1608.800546
3351.134919,370.102971,-10066.800811,383.047749
3351.135247,-1258.350101,-9252.574275,1915.238745
3351.135574,-2516.700203,-8290.306550,1302.362347
3351.135902,-1702.473667,-8364.327145,-1532.190996
3351.136229,0.000000,-10066.800811,-3064.381992
3351.136557,-518.144159,-10584.944971,-1608.800546
3351.136884,-1036.288319,-9400.615463,689.485948
3351.137212,296.082377,-9326.594869,-383.047749
3351.137539,1110.308913,-11917.315666,-995.924147
3351.137867,74.020594,-13027.624579,-1149.143247
3351.138194,-592.164754,-9992.780217,-306.438199
3351.138521,-296.082377,-9104.533087,-842.705048
3351.138849,-148.041188,-9178.553681,-1378.971896
3351.139176,-296.082377,-10881.027347,-459.657299
3351.139504,0.000000,-10658.965565,306.438199
3351.139831,-444.123565,-8586.388927,766.095498
3351.140159,0.000000,-8734.430116,995.924147
3351.140486,222.061783,-7846.182985,-995.924147
3351.140814,592.164754,-10140.821405,383.047749
3351.141141,0.000000,-9548.656652,229.828649
3351.141469,0.000000,-8216.285956,-306.438199
3351.141796,0.000000,-9252.574275,-1225.752797
3351.142123,1258.350101,-11399.171507,-1915.238745
3351.142451,1184.329507,-11769.274478,306.438199
3351.142778,1184.329507,-9474.636058,2068.457845
3351.143106,222.061783,-8586.388927,689.485948
3351.143433,296.082377,-7994.224174,-459.657299
3351.143761,888.247130,-9030.512492,-995.924147
3351.144088,-1184.329507,-9326.594869,2298.286494
3351.144416,-1036.288319,-9178.553681,2145.067394
3351.144743,222.061783,-9326.594869,-1532.190996
3351.145071,148.041188,-10362.883188,-3140.991542
3351.145398,518.144159,-10436.903782,-1991.848295
3351.145725,1406.391290,-9104.533087,995.924147
3351.146053,1258.350101,-9178.553681,2374.896044
3351.146380,3034.844362,-9252.574275,536.266849
3351.146708,2738.761985,-10955.047942,-536.266849
3351.147035,814.226536,-11695.253884,689.485948
3351.147363,666.185348,-9400.615463,0.000000
3351.147690,814.226536,-7920.203579,-995.924147
3351.148018,148.041188,-8364.327145,-1072.533697
3351.148345,-814.226536,-10510.924376,0.000000
3351.148673,-592.164754,-10140.821405,1225.752797
3351.149000,1702.473667,-9622.677246,-153.219100
3351.149328,2220.617826,-10066.800811,-1685.410096
3351.149655,1184.329507,-10288.862594,-306.438199
3351.149982,-518.144159,-9178.553681,2145.067394
3351.150310,222.061783,-6883.915261,919.314598
3351.150637,1184.329507,-8142.265362,-612.876398
3351.150965,518.144159,-9992.780217,-842.705048
3351.151292,592.164754,-11769.274478,-229.828649
3351.151620,1776.494261,-10584.944971,-229.828649
3351.151947,1406.391290,-10584.944971,0.000000
3351.152275,222.061783,-11177.109724,459.657299
3351.152602,296.082377,-9548.656652,-842.705048
3351.152930,-444.123565,-9474.636058,0.000000
3351.153257,0.000000,-8142.265362,76.609550
3351.153584,-592.164754,-8438.347739,306.438199
3351.153912,-1628.453072,-8512.368333,612.876398
3351.154239,-814.226536,-8808.450710,-536.266849
3351.154567,-1850.514855,-8586.388927,-306.438199
3351.154894,-1554.432478,-8512.368333,229.828649
3351.155222,-444.123565,-10362.883188,-536.266849
3351.155549,666.185348,-9696.697840,-1838.629195
3351.155877,74.020594,-10658.965565,-842.705048
3351.156204,296.082377,-11103.089130,-612.876398
3351.156532,1184.329507,-10066.800811,-383.047749
3351.156859,1110.308913,-10436.903782,0.000000
3351.157186,888.247130,-11251.130318,-995.924147
3351.157514,-888.247130,-9548.656652,-459.657299
3351.157841,-666.185348,-8660.409521,-383.047749
3351.158169,-222.061783,-9104.533087,-612.876398
3351.158496,148.041188,-8734.430116,76.609550
3351.158824,-222.061783,-9474.636058,842.705048
3351.159151,0.000000,-9696.697840,306.438199
3351.159479,-444.123565,-10658.965565,-766.095498
3351.159806,814.226536,-9326.594869,-2451.505594
3351.160134,296.082377,-8882.471304,-2528.115143
3351.160461,-666.185348,-11769.274478,-612.876398
3351.160789,0.000000,-10955.047942,-229.828649
3351.161116,1406.391290,-10436.903782,0.000000
3351.161443,2220.617826,-10362.883188,0.000000
3351.161771,888.247130,-9252.574275,766.095498
3351.162098,-222.061783,-9326.594869,1685.410096
3351.162426,518.144159,-7550.100608,459.657299
3351.162753,-592.164754,-8216.285956,76.609550
3351.163081,-740.205942,-10066.800811,-383.047749
3351.163408,-592.164754,-9918.759623,-1149.143247
3351.163736,296.082377,-9548.656652,-766.095498
3351.164063,1628.453072,-8956.491898,-1072.533697
3351.164391,2072.576638,-10288.862594,0.000000
3351.164718,1036.288319,-10362.883188,2145.067394
3351.165045,2072.576638,-9474.636058,1072.533697
3351.165373,2664.741391,-9844.739029,-459.657299
3351.165700,1924.535449,-10362.883188,-689.485948
3351.166028,1480.411884,-8512.368333,-1608.800546
3351.166355,0.000000,-8956.491898,76.609550
3351.166683,0.000000,-9030.512492,306.438199
3351.167010,-444.123565,-8956.491898,229.828649
3351.167338,-370.102971,-8512.368333,612.876398
3351.167665,888.247130,-9474.636058,-383.047749
3351.167993,592.164754,-11547.212695,-383.047749
3351.168320,518.144159,-9992.780217,-306.438199
3351.168648,222.061783,-9030.512492,229.828649
3351.168975,1258.350101,-7846.182985,-919.314598
3351.169302,1258.350101,-9622.677246,-689.485948
3351.169630,-370.102971,-11473.192101,1072.533697
3351.169957,814.226536,-11251.130318,76.609550
3351.170285,2072.576638,-9696.697840,-1991.848295
3351.170612,1332.370696,-11029.068536,-1225.752797
3351.170940,-444.123565,-12509.480420,536.266849
3351.171267,0.000000,-11029.068536,153.219100
3351.171595,518.144159,-8956.491898,-1302.362347
3351.171922,0.000000,-7846.182985,-1225.752797
3351.172250,-1258.350101,-9030.512492,0.000000
3351.172577,-2220.617826,-9178.553681,1685.410096
3351.172904,-962.267725,-8660.409521,1378.971896
3351.173232,-1258.350101,-7994.224174,306.438199
3351.173559,-666.185348,-10140.821405,-689.485948
3351.173887,-518.144159,-10436.903782,-995.924147
3351.174214,518.144159,-9770.718434,-995.924147
3351.174542,0.000000,-9844.739029,-153.219100
3351.174869,592.164754,-9474.636058,-842.705048
3351.175197,888.247130,-10881.027347,-153.219100
3351.175524,592.164754,-10955.047942,689.485948
3351.175852,0.000000,-9622.677246,842.705048
3351.176179,-518.144159,-8956.491898,383.047749
3351.176506,0.000000,-8882.471304,-459.657299
3351.176834,-592.164754,-9548.656652,-842.705048
3351.177162,-962.267725,-8364.327145,689.485948
3351.177489,-148.041188,-7624.121203,612.876398
3351.177817,444.123565,-8364.327145,76.609550
3351.178144,2146.597232,-10732.986159,-919.314598
3351.178472,740.205942,-11103.089130,-306.438199
3351.178799,296.082377,-9770.718434,-229.828649
3351.179127,-444.123565,-9474.636058,-919.314598
3351.179454,1406.391290,-10955.047942,-2451.505594
3351.179782,814.226536,-10510.924376,-1838.629195
3351.180110,1110.308913,-11473.192101,76.609550
3351.180437,222.061783,-9548.656652,1378.971896
3351.180765,1924.535449,-9696.697840,-689.485948
3351.181092,1998.556043,-9400.615463,-1225.752797
3351.181420,-1184.329507,-9178.553681,1302.362347
3351.181747,-2294.638420,-8290.306550,1225.752797
3351.182075,-1776.494261,-9696.697840,-1685.410096
3351.182402,-962.267725,-9548.656652,-1838.629195
3351.182730,1776.494261,-10140.821405,-2451.505594
3351.183057,1332.370696,-10288.862594,766.095498
3351.183385,2442.679609,-11621.233289,3830.477490
3351.183713,2812.782580,-10140.821405,995.924147
3351.184040,3552.988522,-10584.944971,-1455.581446
3351.184368,592.164754,-9548.656652,-766.095498
3351.184695,0.000000,-8438.347739,76.609550
3351.185023,-296.082377,-8438.347739,766.095498
3351.185350,-444.123565,-7846.182985,1149.143247
3351.185678,-666.185348,-8142.265362,919.314598
3351.186005,-592.164754,-10362.883188,1378.971896
3351.186333,0.000000,-9696.697840,689.485948
3351.186660,370.102971,-8586.388927,-1072.533697
3351.186988,888.247130,-7846.182985,-1915.238745
3351.187316,888.247130,-9400.615463,-995.924147
3351.187643,888.247130,-8734.430116,1149.143247
3351.187971,1554.432478,-7328.038826,2145.067394
3351.188298,592.164754,-9474.636058,2451.505594
3351.188626,1036.288319,-11547.212695,1225.752797
3351.188953,296.082377,-11547.212695,0.000000
3351.189281,-222.061783,-10510.924376,-2298.286494
3351.189608,-666.185348,-10881.027347,-2298.286494
3351.189936,518.144159,-10140.821405,-2298.286494
3351.190264,888.247130,-10066.800811,-1149.143247
3351.190591,222.061783,-10584.944971,995.924147
3351.190919,0.000000,-9178.553681,1685.410096
3351.191246,148.041188,-9178.553681,536.266849
3351.191574,814.226536,-8734.430116,-842.705048
3351.191901,-296.082377,-10436.903782,0.000000
3351.192229,-2072.576638,-9622.677246,689.485948
3351.192556,-518.144159,-10288.862594,-459.657299
3351.192884,518.144159,-10288.862594,-2757.943793
3351.193211,1110.308913,-11399.171507,-3140.991542
3351.193539,0.000000,-11769.274478,-919.314598
3351.193867,0.000000,-10140.821405,689.485948
3351.194194,-296.082377,-9326.594869,459.657299
3351.194522,222.061783,-8438.347739,-383.047749
3351.194849,-666.185348,-10436.903782,1378.971896
3351.195177,-1332.370696,-9104.533087,1838.629195
3351.195504,0.000000,-7476.080014,76.609550
3351.195832,222.061783,-9252.574275,-1302.362347
3351.196159,592.164754,-8364.327145,-1685.410096
3351.196487,740.205942,-9548.656652,153.219100
3351.196814,666.185348,-8586.388927,1302.362347
3351.197142,444.123565,-8882.471304,1685.410096
3351.197470,1036.288319,-9474.636058,612.876398
3351.197797,592.164754,-11399.171507,459.657299
3351.198125,-592.164754,-11103.089130,689.485948
3351.198452,592.164754,-9474.636058,-995.924147
3351.198780,370.102971,-9622.677246,-1915.238745
3351.199107,296.082377,-10066.800811,-1455.581446
3351.199435,296.082377,-10288.862594,-536.266849
3351.199762,0.000000,-8734.430116,229.828649
3351.200090,-962.267725,-8438.347739,1532.190996
3351.200418,-1184.329507,-9400.615463,995.924147
3351.200745,-962.267725,-9474.636058,-459.657299
3351.201073,-888.247130,-10066.800811,-1991.848295
3351.201400,1406.391290,-9030.512492,-2451.505594
3351.201728,2072.576638,-10807.006753,-2451.505594
3351.202055,2886.803174,-12139.377449,229.828649
3351.202383,3478.967927,-11473.192101,459.657299
3351.202710,2812.782580,-10955.047942,536.266849
3351.203038,1332.370696,-9918.759623,1072.533697
3351.203365,444.123565,-8512.368333,0.000000
3351.203693,0.000000,-7920.203579,-459.657299
3351.204021,-1480.411884,-9400.615463,383.047749
3351.204348,-1406.391290,-9030.512492,-383.047749
3351.204676,-296.082377,-10510.924376,-1378.971896
3351.205003,592.164754,-9548.656652,-1991.848295
3351.205331,740.205942,-9992.780217,-2145.067394
3351.205658,-296.082377,-10881.027347,612.876398
3351.205986,1480.411884,-9622.677246,919.314598
3351.206313,3034.844362,-8216.285956,766.095498
3351.206641,2220.617826,-6587.832884,1455.581446
3351.206968,-148.041188,-10066.800811,2604.724693
3351.207296,-962.267725,-10066.800811,1762.019645
3351.207624,-148.041188,-10436.903782,-1762.019645
3351.207951,962.267725,-10140.821405,-4519.963438
3351.208279,666.185348,-10955.047942,-2528.115143
3351.208606,296.082377,-11177.109724,229.828649
3351.208934,1850.514855,-9252.574275,842.705048
3351.209261,888.247130,-9104.533087,689.485948
3351.209589,-444.123565,-8216.285956,1378.971896
3351.209916,-1628.453072,-9474.636058,1225.752797
3351.210244,-1924.535449,-7994.224174,76.609550
3351.210571,-962.267725,-7624.121203,-1225.752797
3351.210899,-518.144159,-9918.759623,-995.924147
3351.211227,74.020594,-11325.150913,0.000000
3351.211554,1702.473667,-12139.377449,-995.924147
3351.211882,592.164754,-10140.821405,-1072.533697
3351.212209,-296.082377,-9770.718434,-995.924147
3351.212537,-666.185348,-9474.636058,-919.314598
3351.212864,296.082377,-10140.821405,-1455.581446
3351.213192,-592.164754,-10881.027347,842.705048
3351.213519,-888.247130,-10214.842000,1302.362347
3351.213847,296.082377,-9918.759623,-306.438199
3351.214175,2072.576638,-10214.842000,-2145.067394
3351.214502,370.102971,-11473.192101,-1532.190996
3351.214830,-222.061783,-9474.636058,0.000000
3351.215157,-370.102971,-8068.244768,995.924147
3351.215485,444.123565,-7698.141797,229.828649
3351.215812,1406.391290,-9474.636058,76.609550
3351.216140,74.020594,-9474.636058,1991.848295
3351.216467,-370.102971,-10140.821405,1838.629195
3351.216795,1110.308913,-11177.109724,-1302.362347
3351.217122,2220.617826,-10288.862594,-3753.867940
3351.217450,740.205942,-10066.800811,-2451.505594
3351.217778,-592.164754,-9696.697840,459.657299
3351.218105,444.123565,-8438.347739,1455.581446
3351.218433,1258.350101,-7328.038826,1455.581446
3351.218760,-296.082377,-8512.368333,2681.334243
3351.219088,-2738.761985,-10881.027347,1915.238745
3351.219415,-2294.638420,-10140.821405,-766.095498
3351.219743,-296.082377,-8068.244768,-3830.477490
3351.220070,1776.494261,-8438.347739,-3983.696590
3351.220398,1776.494261,-12361.439231,-153.219100
3351.220725,1702.473667,-12509.480420,2681.334243
3351.221053,2738.761985,-8660.409521,1455.581446
3351.221381,2146.597232,-8882.471304,-612.876398
3351.221708,1628.453072,-10436.903782,-612.876398
3351.222036,0.000000,-10584.944971,229.828649
3351.222363,-1554.432478,-7772.162391,689.485948
3351.222691,-518.144159,-7254.018232,-1378.971896
3351.223018,444.123565,-10066.800811,-2145.067394
3351.223346,1628.453072,-12583.501014,-1149.143247
3351.223673,0.000000,-10955.047942,459.657299
3351.224001,0.000000,-9178.553681,383.047749
3351.224329,962.267725,-10214.842000,-919.314598
3351.224656,1850.514855,-8808.450710,-766.095498
3351.224984,1628.453072,-7846.182985,919.314598
3351.225311,-296.082377,-6883.915261,3447.429741
3351.225639,-518.144159,-9474.636058,2145.067394
3351.225966,0.000000,-9622.677246,-2145.067394
3351.226294,1258.350101,-11991.336260,-4136.915689
3351.226621,296.082377,-11695.253884,-2681.334243
3351.226949,444.123565,-11103.089130,76.609550
3351.227276,592.164754,-9844.739029,766.095498
3351.227604,1628.453072,-8882.471304,-689.485948
3351.227932,-222.061783,-9474.636058,-229.828649
3351.228259,-1332.370696,-8882.471304,612.876398
3351.228587,-1332.370696,-8882.471304,919.314598
3351.228914,592.164754,-7698.141797,-919.314598
3351.229242,1924.535449,-8660.409521,-1378.971896
3351.229569,-814.226536,-11103.089130,1225.752797
3351.229897,-666.185348,-9992.780217,1455.581446
3351.230224,-222.061783,-7920.203579,76.609550
3351.230552,592.164754,-9770.718434,-1378.971896
3351.230879,74.020594,-10288.862594,-2068.457845
3351.231207,-518.144159,-9252.574275,-459.657299
3351.231535,-814.226536,-8216.285956,-153.219100
3351.231862,444.123565,-10807.006753,-536.266849
3351.232190,1332.370696,-11547.212695,-689.485948
3351.232517,370.102971,-9474.636058,-153.219100
3351.232845,518.144159,-10066.800811,1225.752797
3351.233172,296.082377,-11251.130318,459.657299
3351.233500,444.123565,-9770.718434,0.000000
3351.233827,666.185348,-7846.182985,0.000000
3351.234155,518.144159,-8068.244768,995.924147
3351.234483,74.020594,-9104.533087,1225.752797
3351.234810,-148.041188,-9474.636058,-536.266849
3351.235138,814.226536,-10658.965565,-2911.162892
3351.235465,0.000000,-11473.192101,-3064.381992
3351.235793,1036.288319,-11843.295072,-1378.971896
3351.236120,740.205942,-10732.986159,1072.533697
3351.236448,1998.556043,-8956.491898,536.266849
3351.236775,1776.494261,-8734.430116,-459.657299
3351.237103,-888.247130,-9770.718434,1532.190996
3351.237430,-1702.473667,-10362.883188,766.095498
3351.237758,-2368.659014,-9622.677246,-1072.533697
3351.238086,-814.226536,-7994.224174,-3294.210641
3351.238413,0.000000,-9030.512492,-2834.553343
3351.238741,0.000000,-10955.047942,0.000000
3351.239068,1406.391290,-10362.883188,2528.115143
3351.239396,3108.864956,-8142.265362,766.095498
3351.239723,2664.741391,-9474.636058,459.657299
3351.240051,0.000000,-10066.800811,383.047749
3351.240378,-296.082377,-8216.285956,0.000000
3351.240706,0.000000,-7105.977043,-536.266849
3351.241033,0.000000,-8586.388927,-536.266849
3351.241361,0.000000,-10362.883188,689.485948
3351.241689,1036.288319,-10362.883188,76.609550
3351.242016,2368.659014,-11843.295072,153.219100
3351.242344,370.102971,-11399.171507,-383.047749
3351.242671,-296.082377,-9104.533087,-689.485948
3351.242999,-1036.288319,-7994.224174,-995.924147
3351.243326,740.205942,-7772.162391,-306.438199
3351.243654,592.164754,-7254.018232,1378.971896
3351.243981,814.226536,-8882.471304,2298.286494
3351.244309,222.061783,-10658.965565,459.657299
3351.244637,1628.453072,-11843.295072,-2068.457845
3351.244964,814.226536,-11917.315666,-2145.067394
3351.245292,0.000000,-10732.986159,-1225.752797
3351.245619,592.164754,-9474.636058,-306.438199
3351.245947,888.247130,-8882.471304,-919.314598
3351.246274,888.247130,-10288.862594,459.657299
3351.246602,-518.144159,-10362.883188,536.266849
3351.246929,-962.267725,-9622.677246,-536.266849
3351.247257,148.041188,-8956.491898,-1915.238745
3351.247584,-148.041188,-9474.636058,-1532.190996
3351.247912,-740.205942,-10140.821405,995.924147
3351.248240,0.000000,-8660.409521,1991.848295
3351.248567,1184.329507,-7920.203579,995.924147
3351.248895,888.247130,-9622.677246,-383.047749
3351.249222,74.020594,-10288.862594,383.047749
3351.249550,-296.082377,-9474.636058,459.657299
3351.249877,-518.144159,-8734.430116,-1685.410096
3351.250205,0.000000,-9696.697840,-2604.724693
3351.250532,-518.144159,-11399.171507,-153.219100
3351.250860,-444.123565,-9992.780217,1225.752797
3351.251187,0.000000,-9770.718434,919.314598
3351.251515,0.000000,-8956.491898,153.219100
3351.251843,740.205942,-9918.759623,76.609550
3351.252170,518.144159,-9844.739029,306.438199
3351.252498,592.164754,-8364.327145,153.219100
3351.252825,-296.082377,-7328.038826,-689.485948
3351.253153,296.082377,-8438.347739,0.000000
3351.253480,0.000000,-10658.965565,-153.219100
3351.253808,-592.164754,-10955.047942,-536.266849
3351.254135,-296.082377,-10362.883188,0.000000
3351.254463,518.144159,-9400.615463,-612.876398
3351.254791,1554.432478,-11621.233289,-612.876398
3351.255118,1776.494261,-11029.068536,-612.876398
3351.255446,-296.082377,-8956.491898,1455.581446
3351.255773,-1924.535449,-9104.533087,689.485948
3351.256101,-1184.329507,-9918.759623,-2298.286494
3351.256428,-962.267725,-11843.295072,-3217.601092
3351.256756,-740.205942,-9474.636058,-1762.019645
3351.257083,-296.082377,-8438.347739,0.000000
3351.257411,148.041188,-10658.965565,1838.629195
3351.257738,3256.906145,-11103.089130,229.828649
3351.258066,2590.720797,-9548.656652,229.828649
3351.258394,888.247130,-8882.471304,459.657299
3351.258721,0.000000,-7846.182985,-306.438199
3351.259049,1184.329507,-8290.306550,-995.924147
3351.259376,1258.350101,-9622.677246,-536.266849
3351.259704,74.020594,-8956.491898,306.438199
3351.260031,370.102971,-9252.574275,2528.115143
3351.260359,1258.350101,-10214.842000,1532.190996
3351.260686,1406.391290,-10436.903782,459.657299
3351.261014,518.144159,-9622.677246,-689.485948
3351.261341,-1110.308913,-7846.182985,-306.438199
3351.261669,-444.123565,-8068.244768,-306.438199
3351.261997,2072.576638,-7254.018232,-995.924147
3351.262324,1776.494261,-8142.265362,0.000000
3351.262652,-222.061783,-11251.130318,1991.848295
3351.262979,0.000000,-11991.336260,1685.410096
3351.263307,296.082377,-9622.677246,-1762.019645
3351.263634,1554.432478,-9400.615463,-2145.067394
3351.263962,962.267725,-10584.944971,-383.047749
3351.264289,518.144159,-11473.192101,689.485948
3351.264617,962.267725,-9622.677246,306.438199
3351.264945,1258.350101,-8956.491898,-1915.238745
3351.265272,74.020594,-9622.677246,-1762.019645
3351.265600,-1258.350101,-11399.171507,-229.828649
3351.265927,-1850.514855,-9844.739029,995.924147
3351.266255,-1036.288319,-8956.491898,1072.533697
3351.266582,888.247130,-9474.636058,-153.219100
3351.266910,1258.350101,-10807.006753,-995.924147
3351.267237,148.041188,-9770.718434,153.219100
3351.267565,222.061783,-9548.656652,-306.438199
3351.267892,74.020594,-9844.739029,-1378.971896
3351.268220,740.205942,-8660.409521,-2451.505594
3351.268548,0.000000,-10214.842000,-1378.971896
3351.268875,-1184.329507,-11029.068536,1762.019645
3351.269203,-962.267725,-9770.718434,2298.286494
3351.269530,-814.226536,-9474.636058,0.000000
3351.269858,-1554.432478,-9622.677246,-842.705048
3351.270185,-2294.638420,-9104.533087,-1532.190996
3351.270513,-2294.638420,-7328.038826,0.000000
3351.270840,-1406.391290,-8216.285956,76.609550
3351.271168,1258.350101,-8660.409521,-153.219100
3351.271495,1110.308913,-9696.697840,76.609550
3351.271823,0.000000,-10288.862594,2528.115143
3351.272151,-148.041188,-8882.471304,1915.238745
3351.272478,0.000000,-8216.285956,-1532.190996
3351.272806,1036.288319,-10362.883188,-2068.457845
3351.273133,-592.164754,-11325.150913,0.000000
3351.273461,0.000000,-9474.636058,919.314598
3351.273788,2220.617826,-8660.409521,-383.047749
3351.274116,1998.556043,-8956.491898,-766.095498
3351.274443,1184.329507,-12139.377449,0.000000
3351.274771,-1184.329507,-12435.459826,612.876398
3351.275099,-814.226536,-9622.677246,-1455.581446
3351.275426,-444.123565,-8216.285956,-4213.525239
3351.275754,0.000000,-9030.512492,-3140.991542
3351.276081,296.082377,-11843.295072,1149.143247
3351.276409,1628.453072,-10658.965565,2451.505594
3351.276736,3256.906145,-10140.821405,612.876398
3351.277064,2442.679609,-10066.800811,-2068.457845
3351.277391,2294.638420,-10881.027347,-2604.724693
3351.277719,666.185348,-8882.471304,-995.924147
3351.278046,1628.453072,-7402.059420,766.095498
3351.278374,666.185348,-7920.203579,1455.581446
3351.278702,1258.350101,-9474.636058,2451.505594
3351.279029,1628.453072,-10807.006753,1762.019645
3351.279357,1480.411884,-11251.130318,842.705048
3351.279685,1184.329507,-10436.903782,-383.047749
3351.280013,74.020594,-9326.594869,-1532.190996
3351.280340,148.041188,-6069.688724,-1991.848295
3351.280668,1406.391290,-6217.729913,-536.266849
3351.280996,592.164754,-8512.368333,3677.258390
3351.281323,-1850.514855,-11251.130318,4366.744339
3351.281651,-1110.308913,-9844.739029,1915.238745
3351.281979,740.205942,-10140.821405,-1915.238745
3351.282306,888.247130,-10140.821405,-2451.505594
3351.282634,-370.102971,-10584.944971,76.609550
3351.282962,-444.123565,-9400.615463,842.705048
3351.283289,2516.700203,-7772.162391,-1149.143247
3351.283617,1184.329507,-9474.636058,-1225.752797
3351.283945,-2072.576638,-9696.697840,1838.629195
3351.284273,-2886.803174,-8660.409521,2298.286494
3351.284600,-1036.288319,-7476.080014,-229.828649
3351.284928,148.041188,-10214.842000,-1685.410096
3351.285256,-1036.288319,-12805.562797,0.000000
3351.285583,296.082377,-12139.377449,536.266849
3351.285911,1406.391290,-9178.553681,-1302.362347
3351.286239,1702.473667,-9474.636058,-3064.381992
3351.286566,888.247130,-11917.315666,-2221.676944
3351.286894,-814.226536,-10436.903782,229.828649
3351.287222,444.123565,-8808.450710,229.828649
3351.287549,666.185348,-9548.656652,76.609550
3351.287877,888.247130,-11103.089130,459.657299
3351.288205,-962.267725,-11103.089130,383.047749
3351.288532,-2664.741391,-10658.965565,-229.828649
3351.288860,-2294.638420,-9326.594869,-2451.505594
3351.289188,148.041188,-8290.306550,-3907.087040
3351.289516,444.123565,-8586.388927,-2221.676944
3351.289843,0.000000,-9992.780217,1149.143247
3351.290171,592.164754,-9696.697840,2528.115143
3351.290499,1702.473667,-9326.594869,1608.800546
3351.290826,666.185348,-8438.347739,229.828649
3351.291154,-666.185348,-10584.944971,-766.095498
3351.291482,0.000000,-10066.800811,-995.924147
3351.291809,814.226536,-9400.615463,-689.485948
3351.292137,2072.576638,-8438.347739,-1378.971896
3351.292465,3552.988522,-10140.821405,153.219100
3351.292792,2664.741391,-9252.574275,1149.143247
3351.293120,222.061783,-7476.080014,3064.381992
3351.293448,-962.267725,-9252.574275,1838.629195
3351.293775,-296.082377,-10955.047942,-612.876398
3351.294103,-814.226536,-9770.718434,-2681.334243
3351.294431,-1184.329507,-7624.121203,-2374.896044
3351.294759,-814.226536,-9918.759623,-919.314598
3351.295086,1924.535449,-11769.274478,153.219100
3351.295414,3849.070898,-11621.233289,306.438199
3351.295742,2294.638420,-10658.965565,459.657299
3351.296069,888.247130,-8956.491898,689.485948
3351.296397,0.000000,-8068.244768,-383.047749
3351.296725,888.247130,-7994.224174,0.000000
3351.297052,-518.144159,-9474.636058,0.000000
3351.297380,-888.247130,-10066.800811,76.609550
3351.297708,-296.082377,-11029.068536,919.314598
3351.298035,1184.329507,-11399.171507,-689.485948
3351.298363,2738.761985,-10658.965565,-2221.676944
3351.298691,370.102971,-11103.089130,-612.876398
3351.299018,-740.205942,-9252.574275,1149.143247
3351.299346,-296.082377,-6883.915261,76.609550
3351.299674,1184.329507,-6143.709319,0.000000
3351.300002,1258.350101,-8734.430116,919.314598
3351.300329,-1628.453072,-12065.356855,2451.505594
3351.300657,-1184.329507,-12139.377449,1072.533697
3351.300985,740.205942,-11251.130318,-2451.505594
3351.301312,1406.391290,-10955.047942,-4290.134789
3351.301640,444.123565,-10955.047942,-1608.800546
3351.301968,-1036.288319,-8290.306550,1225.752797
3351.302295,444.123565,-8216.285956,1685.410096
3351.302623,0.000000,-8068.244768,1149.143247
3351.302951,-1332.370696,-9844.739029,919.314598
3351.303278,-3775.050304,-8882.471304,919.314598
3351.303606,-2738.761985,-8660.409521,383.047749
3351.303934,-2960.823768,-7994.224174,-1149.143247
3351.304261,0.000000,-9178.553681,-2068.457845
3351.304589,814.226536,-10214.842000,-1378.971896
3351.304917,666.185348,-10140.821405,0.000000
3351.305245,1110.308913,-9844.739029,459.657299
3351.305572,1628.453072,-9696.697840,-383.047749
3351.305900,2220.617826,-9474.636058,-689.485948
3351.306228,0.000000,-9030.512492,306.438199
3351.306555,222.061783,-10881.027347,919.314598
3351.306883,740.205942,-9770.718434,-612.876398
3351.307211,1924.535449,-10436.903782,-1838.629195
3351.307538,1924.535449,-11547.212695,-1532.190996
3351.307866,1554.432478,-10510.924376,-1072.533697
3351.308194,222.061783,-8068.244768,153.219100
3351.308521,740.205942,-7105.977043,-995.924147
3351.308849,740.205942,-8882.471304,-919.314598
3351.309177,1110.308913,-10362.883188,76.609550
3351.309504,1184.329507,-10658.965565,919.314598
3351.309832,1036.288319,-12213.398043,766.095498
3351.310160,2738.761985,-11621.233289,-1455.581446
3351.310488,2886.803174,-11177.109724,-2298.286494
3351.310815,222.061783,-9252.574275,-995.924147
3351.311143,296.082377,-7550.100608,536.266849
3351.311471,592.164754,-9104.533087,383.047749
3351.311798,2294.638420,-8956.491898,1149.143247
3351.312126,888.247130,-10732.986159,1455.581446
3351.312454,-1332.370696,-13175.665768,2374.896044
3351.312781,-1110.308913,-11103.089130,0.000000
3351.313109,-1110.308913,-7772.162391,-3600.648841
3351.313437,-592.164754,-7105.977043,-4673.182538
3351.313764,-888.247130,-9622.677246,-536.266849
3351.314092,0.000000,-9622.677246,3140.991542
3351.314420,1998.556043,-8290.306550,3217.601092
3351.314747,1554.432478,-8216.285956,2451.505594
3351.315075,666.185348,-9770.718434,536.266849
3351.315403,-1258.350101,-9474.636058,229.828649
3351.315731,-2368.659014,-7920.203579,0.000000
3351.316058,-1628.453072,-7920.203579,-2221.676944
3351.316386,1258.350101,-10066.800811,-2374.896044
3351.316714,888.247130,-12213.398043,383.047749
3351.317041,1110.308913,-11769.274478,2451.505594
3351.317369,740.205942,-10584.944971,2604.724693
3351.317697,518.144159,-7402.059420,536.266849
3351.318024,-1332.370696,-6365.771101,-612.876398
3351.318352,-1702.473667,-7476.080014,-1532.190996
3351.318680,-962.267725,-9622.677246,-229.828649
3351.319007,-2220.617826,-11695.253884,612.876398
3351.319335,0.000000,-11695.253884,-1225.752797
3351.319663,1998.556043,-11991.336260,-2834.553343
3351.319990,1702.473667,-11769.274478,-2145.067394
3351.320318,148.041188,-10658.965565,306.438199
3351.320646,74.020594,-8142.265362,0.000000
3351.320974,2072.576638,-9252.574275,-1608.800546
3351.321301,518.144159,-10881.027347,-995.924147
3351.321629,-1554.432478,-10807.006753,1072.533697
3351.321957,-3182.885551,-9548.656652,1378.971896
3351.322284,518.144159,-9548.656652,-1685.410096
3351.322612,1480.411884,-10807.006753,-2757.943793
3351.322940,0.000000,-11177.109724,-842.705048
3351.323267,-444.123565,-9104.533087,1532.190996
3351.323595,222.061783,-7105.977043,766.095498
3351.323923,1628.453072,-8364.327145,-383.047749
3351.324250,370.102971,-10955.047942,-1072.533697
3351.324578,0.000000,-10140.821405,-766.095498
3351.324906,74.020594,-8660.409521,536.266849
3351.325233,1628.453072,-9474.636058,-919.314598
3351.325561,2220.617826,-10732.986159,-689.485948
3351.325889,518.144159,-11177.109724,995.924147
3351.326217,-1776.494261,-9104.533087,1378.971896
3351.326544,-1850.514855,-7105.977043,-689.485948
3351.326872,222.061783,-6069.688724,-1838.629195
3351.327200,296.082377,-9400.615463,-1915.238745
3351.327527,-1110.308913,-10584.944971,1072.533697
3351.327855,-148.041188,-9622.677246,1762.019645
3351.328183,1850.514855,-9992.780217,0.000000
3351.328510,3478.967927,-11917.315666,-1455.581446
3351.328838,1702.473667,-11399.171507,-1072.533697
3351.329166,1036.288319,-8586.388927,0.000000
3351.329493,-148.041188,-8142.265362,1072.533697
3351.329821,1702.473667,-9104.533087,76.609550
3351.330149,1702.473667,-10436.903782,-766.095498
3351.330476,592.164754,-10584.944971,0.000000
3351.330804,-222.061783,-9696.697840,1072.533697
3351.331132,592.164754,-12139.377449,-459.657299
3351.331460,1554.432478,-14434.015869,-2451.505594
3351.331787,0.000000,-11473.192101,-3600.648841
3351.332115,-1554.432478,-6513.812290,-2451.505594
3351.332443,-1776.494261,-7846.182985,-459.657299
3351.332770,1036.288319,-10362.883188,1532.190996
3351.333098,2072.576638,-10288.862594,1302.362347
3351.333426,1036.288319,-10066.800811,1378.971896
3351.333753,222.061783,-9918.759623,766.095498
3351.334081,814.226536,-9030.512492,-1685.410096
3351.334409,1480.411884,-8734.430116,-2068.457845
3351.334736,1184.329507,-9474.636058,-1302.362347
3351.335064,148.041188,-8364.327145,-153.219100
3351.335392,0.000000,-9474.636058,1608.800546
3351.335719,1184.329507,-9770.718434,1838.629195
3351.336047,1998.556043,-9992.780217,1149.143247
3351.336375,0.000000,-9844.739029,1072.533697
3351.336703,-1702.473667,-7550.100608,2068.457845
3351.337030,-1554.432478,-6587.832884,-306.438199
3351.337358,518.144159,-6217.729913,-2528.115143
3351.337686,-222.061783,-9918.759623,-1072.533697
3351.338013,-1924.535449,-10584.944971,1685.410096
3351.338341,-740.205942,-9474.636058,766.095498
3351.338669,962.267725,-9696.697840,0.000000
3351.338996,1850.514855,-10362.883188,-383.047749
3351.339324,444.123565,-10807.006753,306.438199
3351.339652,296.082377,-10436.903782,1302.362347
3351.339979,222.061783,-10140.821405,0.000000
3351.340307,518.144159,-9474.636058,-1991.848295
3351.340635,-592.164754,-10732.986159,-1302.362347
3351.340962,-1406.391290,-10214.842000,-229.828649
3351.341290,-296.082377,-9030.512492,0.000000
3351.341618,-148.041188,-10510.924376,459.657299
3351.341946,74.020594,-9474.636058,536.266849
3351.342273,518.144159,-9252.574275,-612.876398
3351.342601,74.020594,-10214.842000,306.438199
3351.342929,1110.308913,-12509.480420,306.438199
3351.343256,666.185348,-10362.883188,-2374.896044
3351.343584,1998.556043,-9770.718434,-2757.943793
3351.343912,74.020594,-10955.047942,-842.705048
3351.344239,0.000000,-10732.986159,1149.143247
3351.344567,0.000000,-10066.800811,2068.457845
3351.344895,-592.164754,-8882.471304,1455.581446
3351.345222,-1258.350101,-9030.512492,-689.485948
3351.345550,-1924.535449,-7920.203579,-383.047749
3351.345878,-962.267725,-8068.244768,-383.047749
3351.346206,74.020594,-8364.327145,-1378.971896
3351.346533,2146.597232,-9474.636058,-1838.629195
3351.346861,1776.494261,-10955.047942,-766.095498
3351.347189,2886.803174,-10955.047942,536.266849
3351.347516,1850.514855,-9696.697840,1991.848295
3351.347844,2368.659014,-8438.347739,2068.457845
3351.348172,2516.700203,-9474.636058,1225.752797
3351.348499,814.226536,-8808.450710,1532.190996
3351.348827,296.082377,-9178.553681,995.924147
3351.349155,666.185348,-8734.430116,-919.314598
3351.349482,2590.720797,-9326.594869,-2604.724693
3351.349810,1406.391290,-10732.986159,-1762.019645
3351.350138,-962.267725,-12879.583391,0.000000
3351.350465,-1702.473667,-10510.924376,-536.266849
3351.350793,-444.123565,-8142.265362,-2298.286494
3351.351121,222.061783,-8586.388927,-2374.896044
3351.351449,592.164754,-10584.944971,766.095498
3351.351776,1332.370696,-11103.089130,3370.820191
3351.352104,1702.473667,-8660.409521,1149.143247
3351.352432,2220.617826,-9918.759623,-1762.019645
3351.352759,666.185348,-10140.821405,-3140.991542
3351.353087,222.061783,-9622.677246,-1608.800546
3351.353415,-962.267725,-9474.636058,459.657299
3351.353742,222.061783,-8734.430116,306.438199
3351.354070,888.247130,-9844.739029,76.609550
3351.354398,444.123565,-10955.047942,1991.848295
3351.354725,1184.329507,-10510.924376,1991.848295
3351.355053,-444.123565,-9326.594869,766.095498
3351.355381,296.082377,-8438.347739,-766.095498
3351.355708,-962.267725,-7476.080014,-2145.067394
3351.356036,-888.247130,-7179.997637,-1991.848295
3351.356364,-2368.659014,-8734.430116,689.485948
3351.356692,-2368.659014,-10362.883188,2451.505594
3351.357019,0.000000,-10288.862594,919.314598
3351.357347,1480.411884,-11251.130318,-1762.019645
3351.357675,740.205942,-10732.986159,0.000000
3351.358002,-222.061783,-9474.636058,153.219100
3351.358330,962.267725,-9548.656652,-612.876398
3351.358658,1998.556043,-10288.862594,-2374.896044
3351.358985,-148.041188,-8660.409521,-1378.971896
3351.359313,-2072.576638,-9622.677246,1608.800546
3351.359641,-1702.473667,-9178.553681,1378.971896
3351.359968,592.164754,-8882.471304,-306.438199
3351.360296,222.061783,-10362.883188,0.000000
3351.360624,-444.123565,-10955.047942,1149.143247
3351.360951,-370.102971,-9252.574275,919.314598
3351.361279,592.164754,-8438.347739,-2145.067394
3351.361607,1036.288319,-9844.739029,-3524.039291
3351.361935,444.123565,-11769.274478,-2451.505594
3351.362262,518.144159,-10732.986159,-995.924147
3351.362590,-148.041188,-9178.553681,766.095498
3351.362918,1924.535449,-9992.780217,612.876398
3351.363245,740.205942,-10288.862594,1149.143247
3351.363573,-592.164754,-10510.924376,2451.505594
3351.363901,-2146.597232,-7698.141797,-153.219100
3351.364228,-2294.638420,-7031.956449,-2451.505594
3351.364556,-1480.411884,-7624.121203,-3370.820191
3351.364884,0.000000,-9992.780217,-2987.772442
3351.365211,296.082377,-11547.212695,0.000000
3351.365539,1406.391290,-10510.924376,1532.190996
3351.365867,3997.112087,-10436.903782,1149.143247
3351.366194,2738.761985,-10510.924376,229.828649
3351.366522,1924.535449,-9326.594869,919.314598
3351.366850,0.000000,-10732.986159,2068.457845
3351.367178,0.000000,-8216.285956,306.438199
3351.367505,1406.391290,-6069.688724,-2145.067394
3351.367833,1998.556043,-9844.739029,-2145.067394
3351.368161,1924.535449,-10955.047942,306.438199
3351.368488,0.000000,-10510.924376,1225.752797
3351.368816,888.247130,-11029.068536,-842.705048
3351.369144,2146.597232,-11695.253884,-2298.286494
3351.369471,222.061783,-10584.944971,-1225.752797
3351.369799,-1184.329507,-7846.182985,1149.143247
3351.370127,-888.247130,-8068.244768,1838.629195
3351.370454,3330.926739,-10140.821405,-306.438199
3351.370782,2886.803174,-9918.759623,-1915.238745
3351.371110,296.082377,-9992.780217,0.000000
3351.371437,-1036.288319,-8586.388927,995.924147
3351.371765,1036.288319,-8882.471304,-1225.752797
3351.372093,1480.411884,-10140.821405,-1149.143247
3351.372421,518.144159,-11325.150913,919.314598
3351.372748,-740.205942,-10436.903782,1915.238745
3351.373076,-592.164754,-10732.986159,306.438199
3351.373404,814.226536,-9844.739029,-2451.505594
3351.373731,962.267725,-9252.574275,-3370.820191
3351.374059,-148.041188,-9252.574275,-306.438199
3351.374387,-962.267725,-9178.553681,2681.334243
3351.374714,0.000000,-8068.244768,1915.238745
3351.375042,1480.411884,-9696.697840,612.876398
3351.375370,0.000000,-10288.862594,-306.438199
3351.375697,-1776.494261,-9252.574275,1302.362347
3351.376025,-2294.638420,-8142.265362,76.609550
3351.376353,-222.061783,-7772.162391,-1915.238745
3351.376685,0.000000,-9696.697840,-1685.410096
3351.377012,222.061783,-11029.068536,76.609550
3351.377340,74.020594,-10955.047942,1455.581446
3351.377668,814.226536,-9844.739029,1838.629195
3351.377995,1480.411884,-9252.574275,153.219100
3351.378323,-740.205942,-9696.697840,0.000000
3351.378651,-1184.329507,-7328.038826,229.828649
3351.378979,-1924.535449,-7920.203579,306.438199
3351.379306,-296.082377,-10066.800811,-459.657299
3351.379634,666.185348,-10658.965565,-1685.410096
3351.379962,-222.061783,-9992.780217,-1762.019645
3351.380289,-370.102971,-11399.171507,-459.657299
3351.380617,444.123565,-11991.336260,-689.485948
3351.380945,2886.803174,-10436.903782,-1838.629195
3351.381272,1480.411884,-9918.759623,-383.047749
3351.381600,296.082377,-9992.780217,1608.800546
3351.381928,296.082377,-9252.574275,1991.848295
3351.382255,-296.082377,-9326.594869,1149.143247
3351.382583,74.020594,-7920.203579,-1532.190996
3351.382911,-1998.556043,-8586.388927,-2451.505594
3351.383238,-2146.597232,-9178.553681,-1762.019645
3351.383566,-814.226536,-9918.759623,-1225.752797
3351.383894,1628.453072,-11103.089130,-612.876398
3351.384221,2294.638420,-11843.295072,-536.266849
3351.384549,1480.411884,-12213.398043,1455.581446
3351.384877,1702.473667,-9252.574275,842.705048
3351.385204,2220.617826,-8808.450710,-459.657299
3351.385532,1406.391290,-8956.491898,306.438199
3351.385860,444.123565,-9030.512492,153.219100
3351.386188,222.061783,-8364.327145,383.047749
3351.386515,296.082377,-9474.636058,0.000000
3351.386843,1110.308913,-9548.656652,0.000000
3351.387171,1776.494261,-9474.636058,383.047749
3351.387498,2072.576638,-10955.047942,0.000000
3351.387826,1332.370696,-11843.295072,0.000000
3351.388154,74.020594,-9696.697840,-383.047749
3351.388481,740.205942,-7624.121203,-1685.410096
3351.388809,-296.082377,-8882.471304,-1532.190996
3351.389137,-222.061783,-10140.821405,0.000000
3351.389464,-222.061783,-9474.636058,1072.533697
3351.389792,-592.164754,-8438.347739,919.314598
3351.390120,1406.391290,-8512.368333,-536.266849
3351.390447,814.226536,-9622.677246,-766.095498
3351.390775,1332.370696,-10436.903782,459.657299
3351.391103,592.164754,-10510.924376,1302.362347
3351.391430,592.164754,-10066.800811,-153.219100
3351.391758,-1036.288319,-9844.739029,-1532.190996
3351.392086,-444.123565,-10658.965565,-1915.238745
3351.392414,666.185348,-10140.821405,-306.438199
3351.392741,814.226536,-10658.965565,1225.752797
3351.393069,1184.329507,-9030.512492,2145.067394
3351.393397,1036.288319,-9030.512492,612.876398
3351.393724,-370.102971,-9252.574275,229.828649
3351.394052,-370.102971,-9622.677246,-306.438199
3351.394380,-2146.597232,-8142.265362,-995.924147
3351.394707,-1036.288319,-8808.450710,-1685.410096
3351.395035,-592.164754,-10140.821405,-1685.410096
3351.395363,0.000000,-11473.192101,383.047749
3351.395690,74.020594,-11621.233289,1072.533697
3351.396018,2368.659014,-9104.533087,229.828649
3351.396346,1924.535449,-8808.450710,-76.609550
3351.396673,222.061783,-9622.677246,306.438199
3351.397001,-962.267725,-7920.203579,383.047749
3351.397329,-1480.411884,-7105.977043,0.000000
3351.397656,-1702.473667,-8216.285956,-459.657299
3351.397984,-888.247130,-10584.944971,-766.095498
3351.398312,-222.061783,-11251.130318,-153.219100
3351.398639,-592.164754,-9696.697840,229.828649
3351.398967,296.082377,-9252.574275,-919.314598
3351.399295,1776.494261,-11325.150913,-1991.848295
3351.399623,1184.329507,-10658.965565,-1149.143247
3351.399950,1036.288319,-8586.388927,459.657299
3351.400278,222.061783,-8882.471304,1455.581446
3351.400606,740.205942,-9178.553681,919.314598
3351.400933,0.000000,-10066.800811,76.609550
3351.401261,-1850.514855,-10288.862594,383.047749
3351.401589,-2664.741391,-9178.553681,-1149.143247
3351.401916,-1332.370696,-8660.409521,-2221.676944
3351.402244,518.144159,-9030.512492,-2987.772442
3351.402572,666.185348,-10732.986159,-1685.410096
3351.402899,222.061783,-11103.089130,0.000000
3351.403227,740.205942,-9992.780217,459.657299
3351.403555,3182.885551,-10436.903782,-766.095498
3351.403882,2812.782580,-11843.295072,-459.657299
3351.404210,1998.556043,-10214.842000,1225.752797
3351.404538,592.164754,-8290.306550,1991.848295
3351.404865,962.267725,-7994.224174,612.876398
3351.405193,1554.432478,-9622.677246,-842.705048
3351.405521,666.185348,-10214.842000,-766.095498
3351.405848,0.000000,-9770.718434,-689.485948
3351.406176,444.123565,-11399.171507,-612.876398
3351.406504,2664.741391,-12361.439231,-766.095498
3351.406832,2516.700203,-11843.295072,-842.705048
3351.407159,0.000000,-10214.842000,0.000000
3351.407487,-2886.803174,-8364.327145,1149.143247
3351.407815,-1776.494261,-7920.203579,689.485948
3351.408142,74.020594,-8216.285956,-153.219100
3351.408470,-740.205942,-7031.956449,-306.438199
3351.408798,-2146.597232,-7550.100608,1608.800546
3351.409125,-1998.556043,-8808.450710,1072.533697
3351.409453,1850.514855,-8586.388927,-1608.800546
3351.409781,2072.576638,-9992.780217,-1149.143247
3351.410108,-740.205942,-10881.027347,0.000000
3351.410436,-2146.597232,-10955.047942,1225.752797
3351.410764,-1258.350101,-10288.862594,153.219100
3351.411091,1332.370696,-8882.471304,-1838.629195
3351.411419,962.267725,-9474.636058,0.000000
3351.411747,-222.061783,-9474.636058,2834.553343
3351.412074,-1332.370696,-8586.388927,2681.334243
3351.412402,592.164754,-8142.265362,-1072.533697
3351.412730,666.185348,-9030.512492,-3064.381992
3351.413058,-1776.494261,-10732.986159,-995.924147
3351.413385,-3256.906145,-10214.842000,689.485948
3351.413713,-1776.494261,-9400.615463,-229.828649
3351.414041,370.102971,-10140.821405,-1991.848295
3351.414368,1776.494261,-11325.150913,-1225.752797
3351.414696,1480.411884,-10807.006753,-229.828649
3351.415024,2442.679609,-10658.965565,612.876398
3351.415351,2886.803174,-9548.656652,0.000000
3351.415679,2590.720797,-8882.471304,-612.876398
3351.416007,74.020594,-8660.409521,0.000000
3351.416334,-518.144159,-9992.780217,536.266849
3351.416662,-666.185348,-9548.656652,995.924147
3351.416990,2072.576638,-10362.883188,-1225.752797
3351.417317,3923.091493,-11103.089130,-1915.238745
3351.417645,3552.988522,-9696.697840,-612.876398
3351.417973,2368.659014,-10732.986159,612.876398
3351.418300,3330.926739,-11769.274478,76.609550
3351.418628,4071.132681,-9104.533087,-1915.238745
3351.418956,2960.823768,-7994.224174,-1302.362347
3351.419283,740.205942,-8364.327145,1455.581446
3351.419611,0.000000,-9770.718434,3677.258390
3351.419939,740.205942,-9474.636058,2068.457845
3351.420267,814.226536,-9770.718434,-612.876398
3351.420594,-1924.535449,-9030.512492,-1149.143247
3351.420922,-2886.803174,-9030.512492,-919.314598
3351.421250,-2294.638420,-8438.347739,-1455.581446
3351.421577,444.123565,-9474.636058,-2451.505594
3351.421905,370.102971,-9622.677246,-1302.362347
3351.422233,444.123565,-10362.883188,1378.971896
3351.422560,592.164754,-10140.821405,3064.381992
3351.422888,1184.329507,-9178.553681,2298.286494
3351.423216,0.000000,-8216.285956,1685.410096
3351.423543,-444.123565,-8364.327145,459.657299
3351.423871,-888.247130,-9104.533087,-995.924147
3351.424199,-1480.411884,-9474.636058,-1225.752797
3351.424526,444.123565,-9844.739029,-1378.971896
3351.424854,592.164754,-11843.295072,-842.705048
3351.425182,444.123565,-12805.562797,-459.657299
3351.425509,-370.102971,-11399.171507,0.000000
3351.425837,-3775.050304,-9104.533087,919.314598
3351.426165,-3330.926739,-8068.244768,0.000000
3351.426492,-1554.432478,-9844.739029,-842.705048
3351.426820,-1776.494261,-9992.780217,-229.828649
3351.427148,-2368.659014,-9770.718434,459.657299
3351.427476,-1332.370696,-8512.368333,-1149.143247
3351.427803,0.000000,-9104.533087,-2681.334243
3351.428131,-444.123565,-10436.903782,-1991.848295
3351.428459,-444.123565,-10881.027347,459.657299
3351.428786,-2664.741391,-9992.780217,1991.848295
3351.429114,-666.185348,-10214.842000,383.047749
3351.429442,-296.082377,-11325.150913,-1378.971896
3351.429769,-888.247130,-10288.862594,-1225.752797
3351.430097,-370.102971,-9178.553681,306.438199
3351.430425,-370.102971,-8586.388927,0.000000
3351.430752,296.082377,-8290.306550,-1072.533697
3351.431080,592.164754,-9548.656652,-1838.629195
3351.431408,-296.082377,-10362.883188,229.828649
3351.431735,-1850.514855,-8808.450710,1455.581446
3351.432063,-518.144159,-8660.409521,1149.143247
3351.432391,1184.329507,-8808.450710,-689.485948
3351.432718,444.123565,-9400.615463,-1838.629195
3351.433046,1110.308913,-10288.862594,919.314598
3351.433374,2886.803174,-10362.883188,-383.047749
3351.433701,4811.338623,-9770.718434,-766.095498
3351.434029,3775.050304,-8660.409521,0.000000
3351.434357,2072.576638,-7476.080014,1302.362347
3351.434685,296.082377,-7994.224174,1302.362347
3351.435012,2072.576638,-8808.450710,1072.533697
3351.435340,2590.720797,-8882.471304,919.314598
3351.435668,2738.761985,-9844.739029,842.705048
3351.435995,3849.070898,-10881.027347,-229.828649
3351.436323,3256.906145,-11029.068536,-919.314598
3351.436651,3849.070898,-10362.883188,-2221.676944
3351.436978,3478.967927,-10955.047942,-2068.457845
3351.437306,4737.318029,-10658.965565,-1532.190996
3351.437634,3256.906145,-9474.636058,612.876398
3351.437961,1628.453072,-9326.594869,3064.381992
3351.438289,2072.576638,-10362.883188,3370.820191
3351.438617,1184.329507,-11399.171507,1149.143247
3351.438944,-370.102971,-10214.842000,-1072.533697
3351.439272,-2442.679609,-8660.409521,-2451.505594
3351.439600,-2294.638420,-7402.059420,-2604.724693
3351.439927,-444.123565,-9252.574275,-2757.943793
3351.440255,-518.144159,-9844.739029,-1225.752797
3351.440583,-370.102971,-10510.924376,1225.752797
3351.440911,-518.144159,-10436.903782,2834.553343
3351.441238,1258.350101,-10140.821405,1991.848295
3351.441566,740.205942,-9992.780217,1149.143247
3351.441894,-814.226536,-9104.533087,306.438199
3351.442221,-1776.494261,-9474.636058,1149.143247
3351.442549,0.000000,-8734.430116,-612.876398
3351.442877,0.000000,-9178.553681,-1532.190996
3351.443204,-370.102971,-10140.821405,-1302.362347
3351.443532,-1998.556043,-10807.006753,0.000000
3351.443860,-2442.679609,-11251.130318,1225.752797
3351.444187,-814.226536,-8438.347739,229.828649
3351.444515,-2220.617826,-8808.450710,612.876398
3351.444843,-4737.318029,-8734.430116,1685.410096
3351.445170,-4663.297435,-9252.574275,1378.971896
3351.445498,-2664.741391,-9400.615463,-1072.533697
3351.445826,-962.267725,-9474.636058,-3064.381992
3351.446153,-1924.535449,-9030.512492,-2145.067394
3351.446481,-2738.761985,-8068.244768,-995.924147
3351.446809,-2072.576638,-9326.594869,-689.485948
3351.447136,296.082377,-11251.130318,153.219100
3351.447464,-740.205942,-11769.274478,1149.143247
3351.447792,-1998.556043,-10658.965565,-153.219100
3351.448120,-2072.576638,-9474.636058,-1532.190996
3351.448447,222.061783,-9178.553681,-2681.334243
3351.448775,1776.494261,-9622.677246,-2757.943793
3351.449103,1036.288319,-10066.800811,0.000000
3351.449430,592.164754,-8882.471304,1072.533697
3351.449758,814.226536,-9770.718434,76.609550
3351.450086,1702.473667,-10955.047942,0.000000
3351.450413,1628.453072,-9474.636058,-383.047749
3351.450741,-518.144159,-8734.430116,76.609550
3351.451069,0.000000,-10362.883188,-689.485948
3351.451396,962.267725,-10362.883188,-2374.896044
3351.451724,4441.235652,-10214.842000,-2528.115143
3351.452052,4737.318029,-11029.068536,-1302.362347
3351.452379,4441.235652,-10214.842000,459.657299
3351.452707,3404.947333,-8364.327145,2298.286494
3351.453035,2368.659014,-6883.915261,2374.896044
3351.453362,1850.514855,-7772.162391,995.924147
3351.453690,666.185348,-9326.594869,-229.828649
3351.454018,1110.308913,-10510.924376,459.657299
3351.454345,3182.885551,-10807.006753,-383.047749
3351.454673,5107.421000,-10140.821405,-2298.286494
3351.455001,4145.153275,-11029.068536,-1378.971896
3351.455329,2220.617826,-9622.677246,76.609550
3351.455656,2664.741391,-9770.718434,689.485948
3351.455984,3404.947333,-9178.553681,766.095498
3351.456312,3330.926739,-8290.306550,919.314598
3351.456639,888.247130,-9178.553681,2987.772442
3351.456967,666.185348,-10436.903782,2834.553343
3351.457295,444.123565,-10362.883188,689.485948
3351.457622,888.247130,-9844.739029,-2374.896044
3351.457950,-370.102971,-9178.553681,-4673.182538
3351.458278,-3108.864956,-7846.182985,-995.924147
3351.458605,-2220.617826,-7772.162391,-919.314598
3351.458933,-2146.597232,-9474.636058,306.438199
3351.459261,0.000000,-10881.027347,1302.362347
3351.459588,518.144159,-10955.047942,1149.143247
3351.459916,74.020594,-10807.006753,995.924147
3351.460244,-740.205942,-9918.759623,1149.143247
3351.460571,-740.205942,-9104.533087,-1072.533697
3351.460899,-1332.370696,-9622.677246,-1149.143247
3351.461227,-1776.494261,-9030.512492,-995.924147
3351.461555,-1776.494261,-9030.512492,-995.924147
3351.461882,-2516.700203,-10584.944971,76.609550
3351.462210,-1850.514855,-11695.253884,612.876398
3351.462538,-1480.411884,-12213.398043,-689.485948
3351.462865,-1554.432478,-10214.842000,-689.485948
3351.463193,-2664.741391,-9178.553681,229.828649
3351.463521,-2812.782580,-8808.450710,-536.266849
3351.463848,-1480.411884,-9474.636058,-1685.410096
3351.464176,-1850.514855,-10214.842000,-995.924147
3351.464504,-962.267725,-9030.512492,-1915.238745
3351.464831,-2664.741391,-8290.306550,-229.828649
3351.465159,-1776.494261,-9326.594869,1072.533697
3351.465487,0.000000,-8734.430116,-995.924147
3351.465814,-1036.288319,-10510.924376,-153.219100
3351.466142,-1702.473667,-11177.109724,842.705048
3351.466470,-148.041188,-10362.883188,-1072.533697
3351.466797,1036.288319,-9622.677246,-2528.115143
3351.467125,1998.556043,-10362.883188,-1838.629195
3351.467453,814.226536,-9844.739029,76.609550
3351.467780,-296.082377,-9844.739029,2451.505594
3351.468108,1110.308913,-9104.533087,1915.238745
3351.468436,1406.391290,-9474.636058,0.000000
3351.468764,74.020594,-10955.047942,-306.438199
3351.469091,74.020594,-10584.944971,306.438199
3351.469419,666.185348,-7105.977043,-1149.143247
3351.469747,2146.597232,-7476.080014,-2068.457845
3351.470074,2146.597232,-11103.089130,-383.047749
3351.470402,2664.741391,-10362.883188,229.828649
3351.470730,2516.700203,-9474.636058,76.609550
3351.471057,2960.823768,-9474.636058,1455.581446
3351.471385,3108.864956,-8364.327145,1149.143247
3351.471713,814.226536,-7624.121203,1608.800546
3351.472040,518.144159,-8882.471304,1915.238745
3351.472368,1998.556043,-10881.027347,-1072.533697
3351.472696,4811.338623,-11029.068536,-2681.334243
3351.473023,3627.009116,-10288.862594,-1378.971896
3351.473351,2442.679609,-9400.615463,0.000000
3351.473679,1184.329507,-9770.718434,1302.362347
3351.474006,444.123565,-10584.944971,1302.362347
3351.474334,1628.453072,-9844.739029,-766.095498
3351.474662,2738.761985,-9770.718434,-1991.848295
3351.474989,2516.700203,-10584.944971,-919.314598
3351.475317,1184.329507,-11029.068536,1225.752797
3351.475645,2664.741391,-9474.636058,-153.219100
3351.475973,2072.576638,-9696.697840,-842.705048
3351.476300,1258.350101,-9992.780217,0.000000
3351.476628,-666.185348,-8512.368333,76.609550
3351.476956,-2516.700203,-9770.718434,2374.896044
3351.477283,-1036.288319,-9474.636058,612.876398
3351.477611,-1998.556043,-9474.636058,-1532.190996
3351.477939,-3330.926739,-11103.089130,-995.924147
3351.478266,-4293.194464,-9252.574275,-1225.752797
3351.478594,-2368.659014,-8068.244768,-2451.505594
3351.478922,-740.205942,-8956.491898,-2145.067394
3351.479249,-592.164754,-10214.842000,-459.657299
3351.479577,370.102971,-10140.821405,1685.410096
3351.479905,-296.082377,-9030.512492,3294.210641
3351.480232,814.226536,-8956.491898,2451.505594
3351.480560,814.226536,-9474.636058,459.657299
3351.480888,-1110.308913,-10436.903782,-842.705048
3351.481215,-2442.679609,-9844.739029,-229.828649
3351.481543,-1776.494261,-8438.347739,-1915.238745
3351.481871,-814.226536,-10140.821405,-2374.896044
3351.482198,-1554.432478,-10436.903782,-1225.752797
3351.482526,-1184.329507,-10288.862594,-536.266849
3351.482854,-2220.617826,-11177.109724,766.095498
3351.483181,666.185348,-9104.533087,306.438199
3351.483509,518.144159,-8660.409521,-1225.752797
3351.483837,-2368.659014,-9104.533087,76.609550
3351.484164,-2738.761985,-9474.636058,0.000000
3351.484492,-1258.350101,-8586.388927,-1685.410096
3351.484820,0.000000,-10140.821405,-2451.505594
3351.485147,-1554.432478,-11547.212695,-1915.238745
3351.485475,222.061783,-10066.800811,-1838.629195
3351.485803,148.041188,-8956.491898,-1532.190996
3351.486130,1628.453072,-10362.883188,536.266849
3351.486458,3256.906145,-11695.253884,2221.676944
3351.486786,2368.659014,-10066.800811,2145.067394
3351.487113,1776.494261,-9548.656652,842.705048
3351.487441,148.041188,-10362.883188,-1225.752797
3351.487769,1184.329507,-7698.141797,-2374.896044
3351.488096,1628.453072,-8364.327145,-612.876398
3351.488424,740.205942,-8438.347739,0.000000
3351.488752,-518.144159,-10436.903782,1378.971896
3351.489079,1480.411884,-10658.965565,1532.190996
3351.489407,3923.091493,-9252.574275,-612.876398
3351.489734,3404.947333,-10955.047942,229.828649
3351.490062,1628.453072,-8956.491898,1532.190996
3351.490390,444.123565,-7994.224174,459.657299
3351.490717,2146.597232,-9104.533087,-1991.848295
3351.491045,3182.885551,-10436.903782,-2528.115143
3351.491373,1924.535449,-8364.327145,-306.438199
3351.491700,1184.329507,-7846.182985,2604.724693
3351.492028,592.164754,-9178.553681,2987.772442
3351.492356,2738.761985,-9696.697840,612.876398
3351.492683,1036.288319,-9696.697840,-995.924147
3351.493011,74.020594,-10066.800811,-766.095498
3351.493339,888.247130,-9918.759623,-919.314598
3351.493666,2072.576638,-9696.697840,-1149.143247
3351.493994,1998.556043,-10955.047942,0.000000
3351.494322,888.247130,-10214.842000,306.438199
3351.494649,814.226536,-8956.491898,0.000000
3351.494977,222.061783,-9030.512492,1608.800546
3351.495305,962.267725,-9252.574275,766.095498
3351.495632,-296.082377,-10362.883188,1302.362347
3351.495960,-1184.329507,-8808.450710,0.000000
3351.496288,-2220.617826,-9474.636058,-1225.752797
3351.496615,-2960.823768,-10510.924376,-2068.457845
3351.496943,-2294.638420,-10807.006753,-1991.848295
3351.497271,-2812.782580,-9844.739029,-1991.848295
3351.497598,-2442.679609,-7772.162391,-3140.991542
3351.497926,-3627.009116,-9696.697840,-459.657299
3351.498254,-888.247130,-8586.388927,459.657299
3351.498581,518.144159,-9696.697840,919.314598
3351.498909,74.020594,-11103.089130,2068.457845
3351.499237,592.164754,-11547.212695,612.876398
3351.499564,1184.329507,-10881.027347,-1225.752797
3351.499892,888.247130,-9622.677246,-1762.019645
3351.500219,-444.123565,-9770.718434,-1225.752797
3351.500547,-1184.329507,-9400.615463,-383.047749
3351.500875,-1258.350101,-9696.697840,766.095498
3351.501202,74.020594,-9030.512492,919.314598
3351.501530,0.000000,-8438.347739,689.485948
3351.501858,-1184.329507,-9918.759623,1838.629195
3351.502185,-296.082377,-10732.986159,536.266849
3351.502513,1184.329507,-9400.615463,-2451.505594
3351.502841,1110.308913,-9252.574275,-2451.505594
3351.503168,-740.205942,-10881.027347,-689.485948
3351.503496,-1702.473667,-11177.109724,-1532.190996
3351.503824,-370.102971,-9992.780217,-1991.848295
3351.504151,1258.350101,-8808.450710,-2145.067394
3351.504479,1776.494261,-9548.656652,-536.266849
3351.504807,592.164754,-10362.883188,3600.648841
3351.505134,2072.576638,-9104.533087,2451.505594
3351.505462,1998.556043,-10288.862594,-229.828649
3351.505790,2368.659014,-10140.821405,-1532.190996
3351.506117,2220.617826,-9326.594869,-1302.362347
3351.506445,814.226536,-7328.038826,-229.828649
3351.506773,0.000000,-9474.636058,995.924147
3351.507100,-296.082377,-9474.636058,1302.362347
3351.507428,1702.473667,-8586.388927,536.266849
3351.507756,2368.659014,-10510.924376,766.095498
3351.508083,2146.597232,-10584.944971,1838.629195
3351.508411,666.185348,-10066.800811,766.095498
3351.508739,1036.288319,-7772.162391,-1225.752797
3351.509066,1628.453072,-8808.450710,-1378.971896
3351.509394,1258.350101,-10140.821405,-1149.143247
3351.509721,0.000000,-9548.656652,842.705048
3351.510049,74.020594,-10140.821405,1608.800546
3351.510377,3256.906145,-9696.697840,0.000000
3351.510704,1776.494261,-9918.759623,459.657299
3351.511032,74.020594,-9030.512492,1991.848295
3351.511360,0.000000,-8586.388927,995.924147
3351.511687,0.000000,-8882.471304,-1225.752797
3351.512015,1554.432478,-10214.842000,-2451.505594
3351.512343,222.061783,-11621.233289,-1608.800546
3351.512670,148.041188,-11029.068536,-459.657299
3351.512998,148.041188,-9474.636058,306.438199
3351.513326,1406.391290,-9252.574275,842.705048
3351.513653,666.185348,-10732.986159,1225.752797
3351.513981,-666.185348,-10066.800811,842.705048
3351.514309,-1480.411884,-8882.471304,-153.219100
3351.514636,-1480.411884,-9400.615463,-1685.410096
3351.514964,0.000000,-10807.006753,-1838.629195
3351.515292,1036.288319,-10807.006753,-1378.971896
3351.515619,-814.226536,-8512.368333,459.657299
3351.515947,-2442.679609,-9104.533087,1685.410096
3351.516275,-2294.638420,-8068.244768,153.219100
3351.516602,-1406.391290,-9474.636058,-766.095498
3351.516930,-2368.659014,-9178.553681,-459.657299
3351.517258,-2886.803174,-8660.409521,-459.657299
3351.517585,-2442.679609,-8142.265362,-1608.800546
3351.517913,444.123565,-9918.759623,-2681.334243
3351.518241,2368.659014,-12435.459826,-2068.457845
3351.518568,1924.535449,-11251.130318,-536.266849
3351.518896,962.267725,-10732.986159,1455.581446
3351.519224,1258.350101,-9252.574275,1072.533697
3351.519551,1406.391290,-8734.430116,842.705048
3351.519879,370.102971,-8438.347739,1455.581446
3351.520206,-222.061783,-8882.471304,1838.629195
3351.520534,0.000000,-9474.636058,383.047749
3351.520862,444.123565,-9104.533087,-1149.143247
3351.521189,1480.411884,-10288.862594,-2834.553343
3351.521517,1628.453072,-10955.047942,-2374.896044
3351.521845,-444.123565,-12657.521608,766.095498
3351.522172,-444.123565,-11547.212695,536.266849
3351.522500,666.185348,-9104.533087,-2834.553343
3351.522828,74.020594,-10066.800811,-2374.896044
3351.523155,-296.082377,-9770.718434,-995.924147
3351.523483,-888.247130,-9696.697840,2068.457845
3351.523811,2072.576638,-9622.677246,1991.848295
3351.524138,2812.782580,-8734.430116,-766.095498
3351.524466,888.247130,-9844.739029,-842.705048
3351.524794,-370.102971,-10066.800811,0.000000
3351.525121,370.102971,-8290.306550,612.876398
3351.525449,2812.782580,-7476.080014,-383.047749
3351.525777,1036.288319,-9474.636058,1072.533697
3351.526104,0.000000,-10732.986159,2145.067394
3351.526432,1850.514855,-9770.718434,689.485948
3351.526760,3256.906145,-9770.718434,306.438199
3351.527087,3701.029710,-10214.842000,-689.485948
3351.527415,1184.329507,-8586.388927,689.485948
3351.527743,-1110.308913,-7105.977043,1149.143247
3351.528070,-296.082377,-8956.491898,-229.828649
3351.528398,740.205942,-9548.656652,-995.924147
3351.528726,0.000000,-11399.171507,0.000000
3351.529053,74.020594,-9918.759623,842.705048
3351.529381,370.102971,-9844.739029,612.876398
3351.529708,1480.411884,-10214.842000,-459.657299
3351.530036,1628.453072,-9844.739029,-766.095498
3351.530364,1258.350101,-9400.615463,-766.095498
3351.530691,-370.102971,-7624.121203,-229.828649
3351.531019,-1776.494261,-9252.574275,229.828649
3351.531347,370.102971,-10955.047942,-995.924147
3351.531674,814.226536,-11251.130318,-1455.581446
3351.532002,0.000000,-10584.944971,-229.828649
3351.532330,-296.082377,-10584.944971,-306.438199
3351.532657,148.041188,-10955.047942,-383.047749
3351.532985,814.226536,-10288.862594,-1149.143247
3351.533313,-666.185348,-10066.800811,-1302.362347
3351.533640,-1850.514855,-10362.883188,-1302.362347
3351.533968,-222.061783,-9844.739029,0.000000
3351.534296,1258.350101,-8364.327145,153.219100
3351.534623,740.205942,-9400.615463,1225.752797
3351.534951,-1628.453072,-9696.697840,2911.162892
3351.535279,-2442.679609,-8956.491898,1455.581446
3351.535606,-3108.864956,-8586.388927,-1378.971896
3351.535934,-1850.514855,-8882.471304,-4060.306139
3351.536262,-3034.844362,-8956.491898,-3524.039291
3351.536589,-1628.453072,-9696.697840,-995.924147
3351.536917,-370.102971,-10807.006753,0.000000
3351.537245,1998.556043,-11843.295072,0.000000
3351.537572,1850.514855,-10658.965565,383.047749
3351.537900,1554.432478,-10288.862594,1225.752797
3351.538228,222.061783,-8808.450710,612.876398
3351.538555,666.185348,-8290.306550,536.266849
3351.538883,2072.576638,-9770.718434,153.219100
3351.539210,370.102971,-9474.636058,153.219100
3351.539538,222.061783,-9844.739029,76.609550
3351.539866,74.020594,-8734.430116,-229.828649
3351.540193,2072.576638,-9992.780217,-1149.143247
3351.540521,1628.453072,-12287.418637,76.609550
3351.540849,74.020594,-11769.274478,842.705048
3351.541176,-1628.453072,-9474.636058,-995.924147
3351.541504,-2516.700203,-9400.615463,-1915.238745
3351.541832,296.082377,-9770.718434,-2987.772442
3351.542159,666.185348,-9326.594869,-1072.533697
3351.542487,518.144159,-10288.862594,1302.362347
3351.542815,444.123565,-9400.615463,1302.362347
3351.543142,1332.370696,-7846.182985,153.219100
3351.543470,1036.288319,-8290.306550,-459.657299
3351.543798,592.164754,-9696.697840,1608.800546
3351.544125,1776.494261,-9770.718434,1762.019645
3351.544453,888.247130,-8734.430116,0.000000
3351.544781,1184.329507,-9104.533087,-766.095498
3351.545108,2664.741391,-10214.842000,-1225.752797
3351.545436,2960.823768,-11103.089130,1378.971896
3351.545764,1332.370696,-10436.903782,2528.115143
3351.546091,-518.144159,-8142.265362,1378.971896
3351.546419,148.041188,-7624.121203,0.000000
3351.546747,1184.329507,-7920.203579,-612.876398
3351.547074,666.185348,-8438.347739,0.000000
3351.547402,-2738.761985,-10288.862594,2068.457845
3351.547730,-1110.308913,-11473.192101,153.219100
3351.548057,1998.556043,-10066.800811,-3677.258390
3351.548385,1850.514855,-10584.944971,-3370.820191
3351.548713,444.123565,-10584.944971,612.876398
3351.549040,148.041188,-9326.594869,2221.676944
3351.549368,1850.514855,-8290.306550,1072.533697
3351.549695,1258.350101,-9252.574275,-229.828649
3351.550023,-370.102971,-10214.842000,-306.438199
3351.550351,-1332.370696,-10066.800811,229.828649
3351.550678,-518.144159,-10288.862594,-1762.019645
3351.551006,1184.329507,-10658.965565,-2834.553343
3351.551334,0.000000,-11473.192101,-2221.676944
3351.551661,-888.247130,-10732.986159,0.000000
3351.551989,-1258.350101,-9326.594869,612.876398
3351.552317,-222.061783,-10510.924376,76.609550
3351.552644,518.144159,-10732.986159,0.000000
3351.552972,592.164754,-8660.409521,-383.047749
3351.553300,-1702.473667,-7994.224174,536.266849
3351.553627,-2886.803174,-9104.533087,1225.752797
3351.553955,-148.041188,-9770.718434,-153.219100
3351.554283,-962.267725,-9178.553681,-1532.190996
3351.554610,-1850.514855,-9252.574275,-1915.238745
3351.554938,-3849.070898,-8364.327145,-689.485948
3351.555266,-2072.576638,-8438.347739,-1149.143247
3351.555593,740.205942,-9474.636058,-689.485948
3351.555921,2368.659014,-11103.089130,229.828649
3351.556249,1554.432478,-10881.027347,1302.362347
3351.556576,370.102971,-10436.903782,1991.848295
3351.556904,2590.720797,-9178.553681,-995.924147
3351.557232,2812.782580,-8586.388927,-1915.238745
3351.557559,0.000000,-8882.471304,612.876398
3351.557887,-1702.473667,-8882.471304,1608.800546
3351.558215,0.000000,-8660.409521,536.266849
3351.558542,2294.638420,-9992.780217,-689.485948
3351.558870,2220.617826,-11325.150913,-383.047749
3351.559197,1110.308913,-11843.295072,306.438199
3351.559525,-296.082377,-11103.089130,-919.314598
3351.559853,-296.082377,-10658.965565,-2221.676944
3351.560180,-666.185348,-9844.739029,-3907.087040
3351.560508,-1924.535449,-9992.780217,-2987.772442
3351.560836,-1258.350101,-9252.574275,0.000000
3351.561163,888.247130,-10436.903782,1072.533697
3351.561491,1554.432478,-9104.533087,2451.505594
3351.561819,740.205942,-8364.327145,2221.676944
3351.562146,-296.082377,-7920.203579,-306.438199
3351.562474,0.000000,-10066.800811,-995.924147
3351.562802,2368.659014,-10066.800811,-1455.581446
3351.563129,3775.050304,-9178.553681,-1915.238745
3351.563457,1702.473667,-9918.759623,0.000000
3351.563785,1184.329507,-10362.883188,1455.581446
3351.564112,1184.329507,-9918.759623,1378.971896
3351.564440,2590.720797,-8956.491898,1455.581446
3351.564768,2516.700203,-9178.553681,995.924147
3351.565095,0.000000,-8290.306550,919.314598
3351.565423,-962.267725,-8216.285956,1072.533697
3351.565751,1776.494261,-8512.368333,-306.438199
3351.566078,3256.906145,-8142.265362,-2451.505594
3351.566406,-962.267725,-9770.718434,0.000000
3351.566734,-2368.659014,-9474.636058,153.219100
3351.567061,-1184.329507,-9548.656652,-1685.410096
3351.567389,1184.329507,-11251.130318,-995.924147
3351.567717,2738.761985,-10807.006753,1149.143247
3351.568044,2220.617826,-8956.491898,1072.533697
3351.568372,592.164754,-8216.285956,1532.190996
3351.568700,74.020594,-10362.883188,0.000000
3351.569027,740.205942,-10510.924376,-2834.553343
3351.569355,0.000000,-9696.697840,-2681.334243
3351.569682,-1480.411884,-8512.368333,-1302.362347
3351.570010,-1406.391290,-10288.862594,229.828649
3351.570338,-740.205942,-12065.356855,536.266849
3351.570665,814.226536,-11843.295072,919.314598
3351.570993,0.000000,-10436.903782,0.000000
3351.571321,-592.164754,-10214.842000,-1225.752797
3351.571648,-1406.391290,-9918.759623,-689.485948
3351.571976,-296.082377,-8216.285956,-1608.800546
3351.572304,-888.247130,-9548.656652,-995.924147
3351.572631,-1998.556043,-9622.677246,766.095498
3351.572959,-1850.514855,-9104.533087,689.485948
3351.573287,-2368.659014,-9326.594869,-383.047749
3351.573614,-1332.370696,-9178.553681,-1302.362347
3351.573942,-1258.350101,-9918.759623,-1302.362347
3351.574270,-962.267725,-9992.780217,-919.314598
3351.574597,962.267725,-11029.068536,-153.219100
3351.574925,3108.864956,-9622.677246,-459.657299
3351.575253,2368.659014,-9992.780217,-306.438199
3351.575580,1110.308913,-9918.759623,1072.533697
3351.575908,740.205942,-9178.553681,612.876398
3351.576236,-296.082377,-8216.285956,1378.971896
3351.576563,148.041188,-8364.327145,1685.410096
3351.576891,222.061783,-9548.656652,1302.362347
3351.577219,0.000000,-9252.574275,76.609550
3351.577546,-518.144159,-9252.574275,-229.828649
3351.577874,962.267725,-9474.636058,-2298.286494
3351.578202,3034.844362,-11621.233289,-3370.820191
3351.578529,2368.659014,-11917.315666,-1149.143247
3351.578857,-666.185348,-9474.636058,919.314598
3351.579184,-2664.741391,-8956.491898,536.266849
3351.579512,0.000000,-9770.718434,-689.485948
3351.579840,1850.514855,-9548.656652,-689.485948
3351.580167,1036.288319,-9918.759623,919.314598
3351.580495,-296.082377,-8438.347739,1685.410096
3351.580823,1036.288319,-8808.450710,-612.876398
3351.581150,1702.473667,-10066.800811,-2681.334243
3351.581478,1776.494261,-11325.150913,-1685.410096
3351.581806,1110.308913,-9252.574275,-1072.533697
3351.582133,296.082377,-8882.471304,536.266849
3351.582461,814.226536,-8956.491898,842.705048
3351.582788,2368.659014,-10584.944971,1149.143247
3351.583116,2886.803174,-10436.903782,1455.581446
3351.583444,1776.494261,-9252.574275,1685.410096
3351.583771,592.164754,-8956.491898,76.609550
3351.584099,0.000000,-9030.512492,-1225.752797
3351.584427,740.205942,-9992.780217,-2374.896044
3351.584754,-518.144159,-8734.430116,-1532.190996
3351.585082,-2738.761985,-8660.409521,689.485948
3351.585409,-2368.659014,-10066.800811,1378.971896
3351.585737,222.061783,-10955.047942,-306.438199
3351.586065,666.185348,-10732.986159,-919.314598
3351.586392,444.123565,-10214.842000,153.219100
3351.586720,222.061783,-8956.491898,689.485948
3351.587048,814.226536,-7476.080014,-612.876398
3351.587375,1406.391290,-9548.656652,-1532.190996
3351.587703,-296.082377,-9770.718434,-383.047749
3351.588031,-1110.308913,-10066.800811,-459.657299
3351.588358,-740.205942,-10288.862594,0.000000
3351.588686,1110.308913,-10732.986159,0.000000
3351.589013,222.061783,-10510.924376,612.876398
3351.589341,-1184.329507,-10955.047942,1838.629195
3351.589669,-888.247130,-11325.150913,76.609550
3351.589996,1554.432478,-9992.780217,-2911.162892
3351.590324,888.247130,-9474.636058,-2451.505594
3351.590652,-962.267725,-9474.636058,306.438199
3351.590979,-3034.844362,-8290.306550,2068.457845
3351.591307,-2368.659014,-9474.636058,1225.752797
3351.591634,-888.247130,-9474.636058,0.000000
3351.591962,-1184.329507,-9474.636058,-459.657299
3351.592290,-2072.576638,-9178.553681,-612.876398
3351.592617,-1480.411884,-9770.718434,-1149.143247
3351.592945,962.267725,-10214.842000,-3140.991542
3351.593273,2664.741391,-10214.842000,-2757.943793
3351.593600,2220.617826,-10658.965565,229.828649
3351.593928,1850.514855,-10066.800811,1378.971896
3351.594255,2294.638420,-9400.615463,1838.629195
3351.594583,3256.906145,-10066.800811,1915.238745
3351.594911,1998.556043,-9770.718434,2298.286494
3351.595238,592.164754,-9178.553681,2757.943793
3351.595566,0.000000,-8216.285956,1608.800546
3351.595894,1332.370696,-7772.162391,-1072.533697
3351.596221,1776.494261,-9104.533087,-3140.991542
3351.596549,1110.308913,-10658.965565,-2451.505594
3351.596877,1998.556043,-13249.686362,-766.095498
3351.597204,1184.329507,-11251.130318,76.609550
3351.597532,1406.391290,-9918.759623,842.705048
3351.597859,0.000000,-9844.739029,766.095498
3351.598187,0.000000,-9252.574275,0.000000
3351.598515,-296.082377,-8068.244768,0.000000
3351.598842,0.000000,-8142.265362,-612.876398
3351.599170,0.000000,-8438.347739,-536.266849
3351.599498,666.185348,-9844.739029,-459.657299
3351.599825,888.247130,-9474.636058,-919.314598
3351.600153,-444.123565,-11177.109724,229.828649
3351.600480,1776.494261,-11029.068536,995.924147
3351.600808,2368.659014,-10214.842000,76.609550
3351.601136,518.144159,-8956.491898,229.828649
3351.601463,0.000000,-9918.759623,689.485948
3351.601791,222.061783,-8068.244768,689.485948
3351.602119,2072.576638,-8586.388927,-612.876398
3351.602446,814.226536,-9696.697840,-153.219100
3351.602774,0.000000,-9770.718434,76.609550
3351.603102,-1850.514855,-9844.739029,689.485948
3351.603429,-592.164754,-9030.512492,383.047749
3351.603757,370.102971,-9400.615463,0.000000
3351.604084,-1480.411884,-10807.006753,0.000000
3351.604412,-2368.659014,-10732.986159,-153.219100
3351.604740,-1628.453072,-9178.553681,-1455.581446
3351.605067,1554.432478,-8734.430116,-1838.629195
3351.605395,1258.350101,-10288.862594,-153.219100
3351.605723,-814.226536,-9326.594869,995.924147
3351.606050,-1924.535449,-8734.430116,1225.752797
3351.606378,518.144159,-10214.842000,-383.047749
3351.606705,1110.308913,-10510.924376,-766.095498
3351.607033,-592.164754,-10214.842000,153.219100
3351.607361,-740.205942,-9474.636058,919.314598
3351.607688,-518.144159,-9326.594869,-842.705048
3351.608016,1036.288319,-10362.883188,-2298.286494
3351.608344,0.000000,-10955.047942,-1378.971896
3351.608671,-148.041188,-9548.656652,-536.266849
3351.608999,-444.123565,-9104.533087,0.000000
3351.609326,0.000000,-10807.006753,1455.581446
3351.609654,592.164754,-10214.842000,1225.752797
3351.609982,0.000000,-8290.306550,229.828649
3351.610309,-1036.288319,-8660.409521,-612.876398
3351.610637,-1924.535449,-9252.574275,-1378.971896
3351.610965,-1258.350101,-6735.874072,-2757.943793
3351.611292,-888.247130,-8364.327145,-2298.286494
3351.611620,-518.144159,-11103.089130,-1072.533697
3351.611948,666.185348,-10732.986159,-153.219100
3351.612275,2442.679609,-11325.150913,1455.581446
3351.612603,4145.153275,-10881.027347,1608.800546
3351.612930,3701.029710,-10214.842000,536.266849
3351.613258,1702.473667,-10436.903782,919.314598
3351.613586,0.000000,-8586.388927,612.876398
3351.613913,370.102971,-6513.812290,-1072.533697
3351.614241,1850.514855,-7476.080014,-689.485948
3351.614569,1406.391290,-10066.800811,919.314598
3351.614896,740.205942,-10510.924376,766.095498
3351.615224,1184.329507,-11103.089130,-689.485948
3351.615551,1924.535449,-12213.398043,-1378.971896
3351.615879,3108.864956,-11473.192101,-2298.286494
3351.616207,2146.597232,-9400.615463,-1302.362347
3351.616534,-296.082377,-9326.594869,1302.362347
3351.616862,1702.473667,-9474.636058,-153.219100
3351.617190,2442.679609,-9030.512492,-1532.190996
3351.617517,888.247130,-10362.883188,919.314598
3351.617845,-370.102971,-8438.347739,1685.410096
