#time,accel_x,accel_y,accel_z
3023.977061,-444.123565,-9622.677246,-612.876398
3023.977388,74.020594,-10214.842000,-689.485948
3023.977716,296.082377,-10288.862594,-459.657299
3023.978043,296.082377,-10362.883188,-689.485948
3023.978370,444.123565,-10436.903782,-306.438199
3023.978698,814.226536,-10436.903782,153.219100
3023.979025,740.205942,-9844.739029,0.000000
3023.979352,444.123565,-9918.759623,459.657299
3023.979680,296.082377,-9622.677246,0.000000
3023.980007,74.020594,-9622.677246,-229.828649
3023.980335,74.020594,-9474.636058,-536.266849
3023.980662,74.020594,-9474.636058,-229.828649
3023.980989,74.020594,-9622.677246,-383.047749
3023.981317,148.041188,-9770.718434,-536.266849
3023.981644,518.144159,-9844.739029,-306.438199
3023.981972,518.144159,-10066.800811,76.609550
3023.982299,666.185348,-9770.718434,76.609550
3023.982626,814.226536,-9696.697840,229.828649
3023.982954,296.082377,-9252.574275,383.047749
3023.983281,296.082377,-9326.594869,459.657299
3023.983609,222.061783,-8438.347739,612.876398
3023.983936,148.041188,-8660.409521,0.000000
3023.984263,-296.082377,-9030.512492,0.000000
3023.984591,0.000000,-9400.615463,-689.485948
3023.984918,0.000000,-9474.636058,-383.047749
3023.985245,296.082377,-9844.739029,-306.438199
3023.985573,592.164754,-9770.718434,-229.828649
3023.985900,740.205942,-9770.718434,0.000000
3023.986228,666.185348,-9844.739029,-383.047749
3023.986555,666.185348,-9770.718434,-306.438199
3023.986882,444.123565,-9844.739029,-306.438199
3023.987210,296.082377,-9918.759623,-383.047749
3023.987537,0.000000,-9622.677246,-459.657299
3023.987865,148.041188,-9770.718434,-229.828649
3023.988192,-148.041188,-10066.800811,-919.314598
3023.988519,518.144159,-9844.739029,-1225.752797
3023.988847,814.226536,-10214.842000,-689.485948
3023.989174,1924.535449,-10436.903782,-459.657299
3023.989502,3182.885551,-9696.697840,-306.438199
3023.989829,3923.091493,-9178.553681,-229.828649
3023.990156,4959.379811,-9474.636058,0.000000
3023.990484,5847.626942,-10288.862594,536.266849
3023.990811,6439.791695,-9400.615463,229.828649
3023.991138,6661.853478,-8882.471304,0.000000
3023.991466,6809.894666,-9474.636058,-306.438199
3023.991793,7476.080014,-10066.800811,-383.047749
3023.992121,7624.121203,-10436.903782,0.000000
3023.992448,8142.265362,-9844.739029,76.609550
3023.992775,9030.512492,-9400.615463,-536.266849
3023.993103,9252.574275,-9178.553681,-459.657299
3023.993430,9622.677246,-8734.430116,689.485948
3023.993758,10362.883188,-8512.368333,612.876398
3023.994085,10955.047942,-8512.368333,612.876398
3023.994412,10955.047942,-9104.533087,919.314598
3023.994740,11325.150913,-9252.574275,229.828649
3023.995067,11325.150913,-9104.533087,536.266849
3023.995394,11029.068536,-9252.574275,766.095498
3023.995722,11843.295072,-10362.883188,153.219100
3023.996049,12879.583391,-10510.924376,-689.485948
3023.996377,13471.748144,-9844.739029,-76.609550
3023.996704,14434.015869,-9918.759623,76.609550
3023.997031,15248.242405,-9992.780217,612.876398
3023.997359,14434.015869,-8882.471304,1378.971896
3023.997686,13693.809927,-8660.409521,1378.971896
3023.998014,13175.665768,-9548.656652,842.705048
3023.998341,12879.583391,-10362.883188,306.438199
3023.998668,12805.562797,-9770.718434,306.438199
3023.998996,11843.295072,-8882.471304,459.657299
3023.999323,11843.295072,-9104.533087,0.000000
3023.999651,11695.253884,-9918.759623,-536.266849
3023.999978,11399.171507,-10066.800811,0.000000
3024.000305,10881.027347,-10807.006753,-383.047749
3024.000633,9770.718434,-10510.924376,-459.657299
3024.000960,8512.368333,-10140.821405,-383.047749
3024.001287,7698.141797,-9178.553681,229.828649
3024.001615,8808.450710,-8216.285956,-306.438199
3024.001942,9992.780217,-8142.265362,0.000000
3024.002270,10584.944971,-10658.965565,0.000000
3024.002597,10214.842000,-11769.274478,689.485948
3024.002924,9178.553681,-10732.986159,459.657299
3024.003252,7624.121203,-8660.409521,0.000000
3024.003579,6735.874072,-8068.244768,76.609550
3024.003907,6439.791695,-9400.615463,536.266849
3024.004234,6365.771101,-11103.089130,995.924147
3024.004561,6883.915261,-11251.130318,1072.533697
3024.004889,5477.523971,-9326.594869,153.219100
3024.005216,4441.235652,-8660.409521,0.000000
3024.005543,2442.679609,-9474.636058,459.657299
3024.005871,1406.391290,-9622.677246,-459.657299
3024.006198,1110.308913,-9844.739029,-1685.410096
3024.006526,2960.823768,-7920.203579,-1455.581446
3024.006853,4367.215058,-6661.853478,-459.657299
3024.007180,3034.844362,-8216.285956,612.876398
3024.007508,666.185348,-10214.842000,2911.162892
3024.007835,1332.370696,-10066.800811,1225.752797
3024.008163,4515.256246,-10066.800811,-2451.505594
3024.008490,6143.709319,-10807.006753,-3217.601092
3024.008817,5329.482782,-10362.883188,-919.314598
3024.009145,3552.988522,-10140.821405,995.924147
3024.009472,2812.782580,-10510.924376,1532.190996
3024.009800,2368.659014,-10807.006753,76.609550
3024.010127,740.205942,-8586.388927,-1608.800546
3024.010454,-740.205942,-7550.100608,-1532.190996
3024.010782,592.164754,-9178.553681,-995.924147
3024.011109,1998.556043,-10658.965565,-766.095498
3024.011436,1776.494261,-10732.986159,459.657299
3024.011764,814.226536,-8512.368333,229.828649
3024.012091,1628.453072,-8216.285956,-536.266849
3024.012419,1480.411884,-10510.924376,-995.924147
3024.012746,370.102971,-10807.006753,76.609550
3024.013073,888.247130,-9400.615463,-995.924147
3024.013401,1480.411884,-8290.306550,-1455.581446
3024.013728,1110.308913,-10288.862594,-153.219100
3024.014056,666.185348,-11473.192101,1302.362347
3024.014383,1036.288319,-10362.883188,766.095498
3024.014710,2368.659014,-9844.739029,-1608.800546
3024.015038,1258.350101,-10214.842000,-2451.505594
3024.015365,0.000000,-9178.553681,-612.876398
3024.015692,1776.494261,-7994.224174,1072.533697
3024.016020,4663.297435,-7624.121203,536.266849
3024.016347,3849.070898,-7846.182985,1149.143247
3024.016675,2516.700203,-9622.677246,2068.457845
3024.017002,3108.864956,-9844.739029,1532.190996
3024.017329,4071.132681,-9400.615463,-766.095498
3024.017657,1998.556043,-9400.615463,-1532.190996
3024.017984,-740.205942,-11547.212695,153.219100
3024.018312,1776.494261,-12805.562797,0.000000
3024.018639,3923.091493,-11103.089130,-919.314598
3024.018966,1110.308913,-9770.718434,-612.876398
3024.019294,-1332.370696,-11917.315666,536.266849
3024.019621,-1702.473667,-11695.253884,459.657299
3024.019949,-2516.700203,-7254.018232,-766.095498
3024.020276,-4515.256246,-5551.544565,-2145.067394
3024.020603,-4219.173869,-7179.997637,-842.705048
3024.020931,-1776.494261,-8290.306550,76.609550
3024.021258,222.061783,-8068.244768,76.609550
3024.021585,888.247130,-9844.739029,153.219100
3024.021913,1998.556043,-11843.295072,536.266849
3024.022240,2368.659014,-12509.480420,76.609550
3024.022568,518.144159,-12065.356855,-536.266849
3024.022895,-888.247130,-11621.233289,-995.924147
3024.023222,-518.144159,-12213.398043,-536.266849
3024.023550,-1036.288319,-11399.171507,0.000000
3024.023877,-2072.576638,-9178.553681,-306.438199
3024.024205,-2368.659014,-7328.038826,0.000000
3024.024532,-2738.761985,-7772.162391,612.876398
3024.024859,-3478.967927,-7254.018232,612.876398
3024.025187,-3034.844362,-7105.977043,-612.876398
3024.025514,-1110.308913,-6439.791695,-1302.362347
3024.025841,592.164754,-7254.018232,0.000000
3024.026169,518.144159,-8956.491898,1149.143247
3024.026496,1110.308913,-10658.965565,1838.629195
3024.026824,2886.803174,-12583.501014,0.000000
3024.027151,1924.535449,-13471.748144,-459.657299
3024.027478,-296.082377,-12805.562797,-1072.533697
3024.027806,518.144159,-12583.501014,-2145.067394
3024.028133,1406.391290,-12583.501014,-2221.676944
3024.028461,0.000000,-9992.780217,-1762.019645
3024.028788,-1258.350101,-9030.512492,-1225.752797
3024.029115,-740.205942,-8438.347739,0.000000
3024.029443,-518.144159,-6291.750507,383.047749
3024.029770,-2072.576638,-4737.318029,229.828649
3024.030098,-1554.432478,-5921.647536,459.657299
3024.030425,1998.556043,-7254.018232,-306.438199
3024.030752,3701.029710,-10066.800811,612.876398
3024.031080,3552.988522,-11695.253884,1455.581446
3024.031407,5181.441594,-12953.603985,919.314598
3024.031734,5551.544565,-14285.974681,-229.828649
3024.032062,2516.700203,-13693.809927,-1838.629195
3024.032389,-148.041188,-13101.645173,-2681.334243
3024.032717,-148.041188,-11843.295072,-2604.724693
3024.033044,370.102971,-9400.615463,-1915.238745
3024.033371,0.000000,-9548.656652,0.000000
3024.033699,444.123565,-8216.285956,2068.457845
3024.034026,814.226536,-5773.606348,3524.039291
3024.034354,0.000000,-5033.400406,1532.190996
3024.034681,-666.185348,-6365.771101,919.314598
3024.035008,888.247130,-7105.977043,689.485948
3024.035336,2368.659014,-7328.038826,689.485948
3024.035663,2368.659014,-9474.636058,1915.238745
3024.035991,2664.741391,-11251.130318,1532.190996
3024.036318,2590.720797,-12657.521608,-229.828649
3024.036645,962.267725,-13471.748144,-1532.190996
3024.036973,-888.247130,-13471.748144,-3294.210641
3024.037300,-2516.700203,-12879.583391,-3447.429741
3024.037627,-666.185348,-11251.130318,-2604.724693
3024.037955,148.041188,-8364.327145,-1455.581446
3024.038282,-814.226536,-7476.080014,995.924147
3024.038610,-888.247130,-7254.018232,4366.744339
3024.038937,-370.102971,-5995.668130,3830.477490
3024.039265,-962.267725,-5181.441594,842.705048
3024.039592,-2886.803174,-5625.565159,0.000000
3024.039920,-1628.453072,-7550.100608,-229.828649
3024.040247,296.082377,-10362.883188,-536.266849
3024.040574,74.020594,-12953.603985,-919.314598
3024.040902,1036.288319,-14508.036463,-2374.896044
3024.041229,1628.453072,-14285.974681,-2757.943793
3024.041557,-1184.329507,-14508.036463,-2528.115143
3024.041884,-2146.597232,-13027.624579,-3217.601092
3024.042212,-962.267725,-11029.068536,-2911.162892
3024.042539,-592.164754,-9178.553681,-1685.410096
3024.042867,-1332.370696,-7994.224174,0.000000
3024.043194,-1702.473667,-7179.997637,2374.896044
3024.043521,-740.205942,-6291.750507,2068.457845
3024.043849,-1332.370696,-4737.318029,1915.238745
3024.044176,-2738.761985,-5699.585753,229.828649
3024.044504,-1480.411884,-8068.244768,-842.705048
3024.044831,1628.453072,-10214.842000,-612.876398
3024.045159,2960.823768,-11029.068536,-612.876398
3024.045486,3034.844362,-12509.480420,-229.828649
3024.045814,3256.906145,-13915.871710,-306.438199
3024.046141,1850.514855,-13101.645173,-995.924147
3024.046468,-666.185348,-11473.192101,-1378.971896
3024.046796,-518.144159,-10140.821405,-1838.629195
3024.047123,1036.288319,-8586.388927,-1378.971896
3024.047451,1184.329507,-8142.265362,459.657299
3024.047778,-888.247130,-7328.038826,2451.505594
3024.048106,-814.226536,-7402.059420,3830.477490
3024.048433,0.000000,-5699.585753,2298.286494
3024.048761,-1184.329507,-4737.318029,842.705048
3024.049088,-1998.556043,-6883.915261,689.485948
3024.049415,592.164754,-9548.656652,-229.828649
3024.049743,3034.844362,-10584.944971,-1072.533697
3024.050070,3108.864956,-11843.295072,383.047749
3024.050398,3256.906145,-13545.768739,-689.485948
3024.050725,3404.947333,-13915.871710,-1225.752797
3024.051053,2294.638420,-12879.583391,-1762.019645
3024.051380,518.144159,-12139.377449,-2987.772442
3024.051707,518.144159,-11769.274478,-2834.553343
3024.052035,1776.494261,-9474.636058,-612.876398
3024.052362,962.267725,-8216.285956,766.095498
3024.052690,-962.267725,-8290.306550,3140.991542
3024.053017,-666.185348,-7698.141797,2451.505594
3024.053345,-962.267725,-5551.544565,689.485948
3024.053672,-1850.514855,-5625.565159,-766.095498
3024.054000,-592.164754,-8216.285956,-383.047749
3024.054327,2368.659014,-11325.150913,919.314598
3024.054654,2960.823768,-12065.356855,383.047749
3024.054982,2738.761985,-12731.542202,-612.876398
3024.055309,1924.535449,-13101.645173,-1302.362347
3024.055637,1110.308913,-13323.706956,-2145.067394
3024.055964,-592.164754,-12509.480420,-1991.848295
3024.056292,-1628.453072,-10584.944971,-1455.581446
3024.056619,-740.205942,-8512.368333,-766.095498
3024.056947,-814.226536,-7254.018232,306.438199
3024.057274,-2368.659014,-6883.915261,1685.410096
3024.057601,-1258.350101,-6735.874072,1225.752797
3024.057929,-1184.329507,-6439.791695,1149.143247
3024.058256,-2960.823768,-6143.709319,1149.143247
3024.058584,-2146.597232,-6587.832884,459.657299
3024.058911,370.102971,-8364.327145,689.485948
3024.059239,888.247130,-10955.047942,919.314598
3024.059566,888.247130,-11917.315666,842.705048
3024.059894,1554.432478,-12657.521608,-1532.190996
3024.060221,518.144159,-12361.439231,-2451.505594
3024.060548,-814.226536,-12065.356855,-2221.676944
3024.060876,-2220.617826,-10658.965565,-1149.143247
3024.061203,-740.205942,-9178.553681,-612.876398
3024.061531,2072.576638,-8882.471304,-1532.190996
3024.061858,518.144159,-7105.977043,383.047749
3024.062186,-2812.782580,-7105.977043,2145.067394
3024.062513,-1332.370696,-7105.977043,1608.800546
3024.062840,-814.226536,-6365.771101,-229.828649
3024.063168,-2072.576638,-6957.935855,-766.095498
3024.063495,-370.102971,-9400.615463,0.000000
3024.063823,2812.782580,-11843.295072,0.000000
3024.064150,3034.844362,-12879.583391,229.828649
3024.064478,2960.823768,-14211.954086,-1072.533697
3024.064805,2072.576638,-13841.851115,-1991.848295
3024.065133,296.082377,-13027.624579,-2221.676944
3024.065460,-740.205942,-10807.006753,-2757.943793
3024.065787,-1554.432478,-9770.718434,-1991.848295
3024.066115,888.247130,-8808.450710,-1149.143247
3024.066442,2146.597232,-7846.182985,229.828649
3024.066770,666.185348,-6661.853478,1455.581446
3024.067097,-296.082377,-7698.141797,2757.943793
3024.067425,370.102971,-8142.265362,1762.019645
3024.067752,148.041188,-7328.038826,-383.047749
3024.068080,444.123565,-8808.450710,-1685.410096
3024.068407,3256.906145,-10955.047942,-612.876398
3024.068734,3923.091493,-12065.356855,1838.629195
3024.069062,3478.967927,-12213.398043,2911.162892
3024.069389,2368.659014,-12065.356855,229.828649
3024.069717,518.144159,-11325.150913,-2298.286494
3024.070044,-1480.411884,-9622.677246,-2757.943793
3024.070372,-1702.473667,-8882.471304,-2451.505594
3024.070699,-962.267725,-8512.368333,-2145.067394
3024.071027,962.267725,-7105.977043,612.876398
3024.071354,1332.370696,-7105.977043,1608.800546
3024.071681,1036.288319,-9400.615463,3064.381992
3024.072009,1554.432478,-8512.368333,2681.334243
3024.072336,1554.432478,-5995.668130,612.876398
3024.072664,-1776.494261,-7031.956449,-229.828649
3024.072991,-1776.494261,-9474.636058,76.609550
3024.073319,592.164754,-10436.903782,306.438199
3024.073646,814.226536,-11177.109724,0.000000
3024.073974,296.082377,-13397.727550,-1072.533697
3024.074301,740.205942,-13767.830521,-2145.067394
3024.074628,0.000000,-13471.748144,-2757.943793
3024.074956,-1850.514855,-11325.150913,-2374.896044
3024.075283,-1258.350101,-10066.800811,-2374.896044
3024.075611,222.061783,-8142.265362,-1991.848295
3024.075938,1554.432478,-7772.162391,76.609550
3024.076266,74.020594,-8364.327145,2451.505594
3024.076593,0.000000,-8512.368333,2757.943793
3024.076920,518.144159,-7031.956449,1762.019645
3024.077248,-1332.370696,-7402.059420,-306.438199
3024.077575,-2516.700203,-9548.656652,-612.876398
3024.077903,-1480.411884,-10436.903782,229.828649
3024.078230,148.041188,-10955.047942,383.047749
3024.078558,888.247130,-11843.295072,-766.095498
3024.078885,740.205942,-12953.603985,-1455.581446
3024.079213,-222.061783,-12953.603985,-766.095498
3024.079540,-1554.432478,-10732.986159,-229.828649
3024.079867,-1850.514855,-8068.244768,-1455.581446
3024.080195,-1702.473667,-7994.224174,-2221.676944
3024.080522,1184.329507,-8290.306550,-1072.533697
3024.080850,1850.514855,-7550.100608,306.438199
3024.081177,1406.391290,-8068.244768,2604.724693
3024.081505,1850.514855,-8216.285956,2987.772442
3024.081832,1628.453072,-8364.327145,1685.410096
3024.082160,-1480.411884,-7920.203579,-229.828649
3024.082487,-1258.350101,-8808.450710,-1225.752797
3024.082814,888.247130,-10584.944971,-919.314598
3024.083142,1998.556043,-11695.253884,-306.438199
3024.083469,1998.556043,-11621.233289,-229.828649
3024.083797,2072.576638,-11621.233289,-536.266849
3024.084124,1036.288319,-12435.459826,-1302.362347
3024.084452,222.061783,-11621.233289,-383.047749
3024.084779,962.267725,-9400.615463,-2374.896044
3024.085107,1628.453072,-8586.388927,-3907.087040
3024.085434,2146.597232,-9030.512492,-612.876398
3024.085761,1110.308913,-9252.574275,1455.581446
3024.086089,148.041188,-9548.656652,2911.162892
3024.086416,444.123565,-8882.471304,2145.067394
3024.086744,0.000000,-7402.059420,-1378.971896
3024.087071,-1258.350101,-8216.285956,-1149.143247
3024.087399,518.144159,-9992.780217,-1532.190996
3024.087726,2738.761985,-11843.295072,229.828649
3024.088054,2812.782580,-12139.377449,1149.143247
3024.088381,3034.844362,-11917.315666,229.828649
3024.088708,2738.761985,-11991.336260,-612.876398
3024.089036,1036.288319,-11325.150913,-995.924147
3024.089363,-592.164754,-9770.718434,-1378.971896
3024.089691,-1258.350101,-8364.327145,-3064.381992
3024.090018,-592.164754,-7698.141797,-1838.629195
3024.090346,-518.144159,-7698.141797,306.438199
3024.090673,-740.205942,-8438.347739,2911.162892
3024.091000,-592.164754,-7772.162391,3524.039291
3024.091328,-518.144159,-6735.874072,383.047749
3024.091655,-1554.432478,-7254.018232,-1378.971896
3024.091983,-2220.617826,-8586.388927,-689.485948
3024.092310,-444.123565,-8882.471304,383.047749
3024.092638,1110.308913,-9474.636058,1532.190996
3024.092965,1776.494261,-11621.233289,1685.410096
3024.093293,2368.659014,-13027.624579,306.438199
3024.093620,1702.473667,-11991.336260,-383.047749
3024.093947,0.000000,-11843.295072,-766.095498
3024.094275,0.000000,-11103.089130,-3064.381992
3024.094602,-370.102971,-10362.883188,-1991.848295
3024.094930,-1036.288319,-7920.203579,-459.657299
3024.095257,-1406.391290,-6883.915261,1149.143247
3024.095585,-740.205942,-8068.244768,1838.629195
3024.095912,-740.205942,-7772.162391,995.924147
3024.096240,-962.267725,-6217.729913,0.000000
3024.096567,-2886.803174,-6735.874072,-459.657299
3024.096894,-2072.576638,-10214.842000,0.000000
3024.097222,444.123565,-11991.336260,-612.876398
3024.097549,2294.638420,-12139.377449,-1378.971896
3024.097877,3256.906145,-13323.706956,-1072.533697
3024.098204,3923.091493,-14359.995275,306.438199
3024.098532,2442.679609,-13767.830521,153.219100
3024.098859,74.020594,-10584.944971,-229.828649
3024.099187,-1184.329507,-9030.512492,-2221.676944
3024.099514,-1776.494261,-7772.162391,-2604.724693
3024.099841,-1554.432478,-6587.832884,-1915.238745
3024.100169,-1628.453072,-6513.812290,536.266849
3024.100496,-148.041188,-6735.874072,1302.362347
3024.100824,518.144159,-6957.935855,1532.190996
3024.101151,0.000000,-7105.977043,919.314598
3024.101479,0.000000,-9400.615463,0.000000
3024.101806,2294.638420,-9918.759623,0.000000
3024.102133,4293.194464,-10732.986159,-229.828649
3024.102461,2664.741391,-12509.480420,459.657299
3024.102788,2590.720797,-14211.954086,1225.752797
3024.103116,2590.720797,-13545.768739,0.000000
3024.103443,0.000000,-11177.109724,0.000000
3024.103771,-962.267725,-9252.574275,-2221.676944
3024.104098,-1184.329507,-8586.388927,-2757.943793
3024.104426,-740.205942,-8882.471304,-1532.190996
3024.104753,296.082377,-8290.306550,0.000000
3024.105080,666.185348,-7179.997637,1685.410096
3024.105408,296.082377,-5403.503377,3064.381992
3024.105735,1036.288319,-6069.688724,1302.362347
3024.106063,0.000000,-8290.306550,383.047749
3024.106390,-222.061783,-9844.739029,0.000000
3024.106718,1998.556043,-11029.068536,-689.485948
3024.107045,3404.947333,-11621.233289,76.609550
3024.107373,2442.679609,-14211.954086,689.485948
3024.107700,1850.514855,-14582.057057,1378.971896
3024.108027,-666.185348,-12435.459826,-306.438199
3024.108355,-2368.659014,-10510.924376,-2068.457845
3024.108682,-1924.535449,-9400.615463,-3677.258390
3024.109010,-2072.576638,-8290.306550,-2451.505594
3024.109337,-2590.720797,-6883.915261,383.047749
3024.109665,-814.226536,-7105.977043,919.314598
3024.109992,0.000000,-6883.915261,1302.362347
3024.110320,518.144159,-7254.018232,0.000000
3024.110647,-592.164754,-7179.997637,459.657299
3024.110974,-962.267725,-8364.327145,229.828649
3024.111302,1110.308913,-11177.109724,-612.876398
3024.111629,2738.761985,-12657.521608,-919.314598
3024.111957,1258.350101,-12879.583391,0.000000
3024.112284,1036.288319,-13915.871710,995.924147
3024.112612,814.226536,-13249.686362,-842.705048
3024.112939,-888.247130,-11325.150913,-1072.533697
3024.113267,-1924.535449,-8512.368333,-2068.457845
3024.113594,-1036.288319,-7402.059420,-2374.896044
3024.113921,444.123565,-7550.100608,-1149.143247
3024.114249,666.185348,-7179.997637,459.657299
3024.114576,370.102971,-7328.038826,2221.676944
3024.114904,666.185348,-7476.080014,919.314598
3024.115231,-370.102971,-6957.935855,-612.876398
3024.115559,-2368.659014,-8290.306550,-383.047749
3024.115886,-1628.453072,-10881.027347,-306.438199
3024.116213,1258.350101,-11621.233289,-689.485948
3024.116541,2590.720797,-11843.295072,-1225.752797
3024.116868,2368.659014,-12953.603985,-306.438199
3024.117196,2072.576638,-14137.933492,1149.143247
3024.117523,2294.638420,-13175.665768,766.095498
3024.117851,888.247130,-9992.780217,-919.314598
3024.118178,370.102971,-9474.636058,-2451.505594
3024.118506,666.185348,-9104.533087,-1225.752797
3024.118833,666.185348,-6587.832884,-459.657299
3024.119160,-296.082377,-6217.729913,2068.457845
3024.119488,-1480.411884,-7772.162391,1991.848295
3024.119815,-1258.350101,-7105.977043,229.828649
3024.120143,-2368.659014,-6513.812290,-383.047749
3024.120470,-2368.659014,-8142.265362,-459.657299
3024.120798,814.226536,-10955.047942,-153.219100
3024.121125,2738.761985,-11399.171507,306.438199
3024.121453,2368.659014,-11769.274478,383.047749
3024.121780,2146.597232,-13545.768739,306.438199
3024.122107,2368.659014,-13027.624579,76.609550
3024.122435,444.123565,-10140.821405,153.219100
3024.122762,-814.226536,-8882.471304,-995.924147
3024.123090,-370.102971,-9252.574275,-1915.238745
3024.123417,1554.432478,-9104.533087,-1455.581446
3024.123745,1258.350101,-7994.224174,766.095498
3024.124072,-444.123565,-7698.141797,1838.629195
3024.124400,-814.226536,-7105.977043,1762.019645
3024.124727,-1554.432478,-6365.771101,-383.047749
3024.125054,-3108.864956,-6587.832884,-995.924147
3024.125382,-1850.514855,-9178.553681,-995.924147
3024.125709,2294.638420,-11251.130318,153.219100
3024.126037,3478.967927,-11251.130318,459.657299
3024.126364,1554.432478,-12361.439231,919.314598
3024.126692,0.000000,-14211.954086,229.828649
3024.127019,-222.061783,-13175.665768,-2374.896044
3024.127346,0.000000,-11399.171507,-4136.915689
3024.127674,0.000000,-10955.047942,-3140.991542
3024.128001,1480.411884,-10362.883188,-1225.752797
3024.128329,2738.761985,-9252.574275,2298.286494
3024.128656,1258.350101,-8068.244768,2451.505594
3024.128984,-1554.432478,-7698.141797,2145.067394
3024.129311,-2442.679609,-6069.688724,0.000000
3024.129639,-4737.318029,-4885.359217,-1915.238745
3024.129966,-3478.967927,-6291.750507,-1838.629195
3024.130293,0.000000,-8734.430116,-459.657299
3024.130621,2220.617826,-11177.109724,1072.533697
3024.130948,2442.679609,-12731.542202,2528.115143
3024.131276,3108.864956,-13915.871710,766.095498
3024.131603,2442.679609,-12435.459826,-1225.752797
3024.131931,444.123565,-11399.171507,-2374.896044
3024.132258,-518.144159,-9474.636058,-2451.505594
3024.132586,-148.041188,-9252.574275,-1915.238745
3024.132913,1036.288319,-9548.656652,689.485948
3024.133240,1406.391290,-8290.306550,2221.676944
3024.133568,-222.061783,-7846.182985,2374.896044
3024.133895,-740.205942,-7698.141797,612.876398
3024.134223,-2220.617826,-6587.832884,-919.314598
3024.134550,-2146.597232,-5699.585753,-1225.752797
3024.134878,-518.144159,-7920.203579,-1455.581446
3024.135205,2368.659014,-10955.047942,536.266849
3024.135533,3330.926739,-10362.883188,1149.143247
3024.135860,2368.659014,-11843.295072,1225.752797
3024.136187,2516.700203,-15174.221811,76.609550
3024.136515,2368.659014,-13323.706956,-2298.286494
3024.136842,666.185348,-11473.192101,-3294.210641
3024.137170,-888.247130,-10732.986159,-1685.410096
3024.137497,962.267725,-10807.006753,-919.314598
3024.137825,1776.494261,-8882.471304,536.266849
3024.138152,148.041188,-8216.285956,1608.800546
3024.138480,-962.267725,-7772.162391,1685.410096
3024.138807,-1036.288319,-7402.059420,689.485948
3024.139133,-2516.700203,-6217.729913,0.000000
3024.139461,-2294.638420,-6883.915261,0.000000
3024.139788,0.000000,-8438.347739,-1225.752797
3024.140116,2590.720797,-10955.047942,-383.047749
3024.140443,2738.761985,-12583.501014,536.266849
3024.140771,2960.823768,-13767.830521,459.657299
3024.141098,2960.823768,-13101.645173,-459.657299
3024.141426,1702.473667,-12065.356855,-1378.971896
3024.141753,-444.123565,-11103.089130,-2145.067394
3024.142081,-740.205942,-10066.800811,-459.657299
3024.142408,74.020594,-9252.574275,0.000000
3024.142736,296.082377,-6661.853478,612.876398
3024.143063,-962.267725,-6439.791695,1838.629195
3024.143391,-962.267725,-6587.832884,1838.629195
3024.143718,-1258.350101,-6143.709319,383.047749
3024.144046,-2442.679609,-6291.750507,-153.219100
3024.144373,-740.205942,-8068.244768,-1455.581446
3024.144701,1332.370696,-9474.636058,-536.266849
3024.145028,1036.288319,-11029.068536,995.924147
3024.145355,518.144159,-14063.912898,995.924147
3024.145683,1480.411884,-15322.262999,-1149.143247
3024.146010,1702.473667,-13471.748144,-3447.429741
3024.146338,814.226536,-11621.233289,-3294.210641
3024.146665,-666.185348,-10658.965565,-1455.581446
3024.146993,-814.226536,-9030.512492,0.000000
3024.147320,1554.432478,-8438.347739,229.828649
3024.147648,1110.308913,-7105.977043,306.438199
3024.147975,148.041188,-7920.203579,1532.190996
3024.148303,518.144159,-8216.285956,1762.019645
3024.148630,-888.247130,-5847.626942,1149.143247
3024.148958,-2516.700203,-5921.647536,-1455.581446
3024.149285,-2368.659014,-9474.636058,-1302.362347
3024.149613,-370.102971,-11695.253884,-1072.533697
3024.149940,1406.391290,-12361.439231,0.000000
3024.150268,1702.473667,-13545.768739,-153.219100
3024.150595,2368.659014,-13693.809927,-689.485948
3024.150923,518.144159,-12065.356855,-1532.190996
3024.151250,-370.102971,-9474.636058,-2221.676944
3024.151578,-888.247130,-9104.533087,-1149.143247
3024.151905,74.020594,-8660.409521,612.876398
3024.152233,1406.391290,-6439.791695,1072.533697
3024.152560,444.123565,-7179.997637,2068.457845
3024.152887,1332.370696,-9178.553681,2374.896044
3024.153215,444.123565,-8068.244768,2298.286494
3024.153542,-962.267725,-7031.956449,1915.238745
3024.153870,-2220.617826,-7179.997637,229.828649
3024.154197,0.000000,-9326.594869,-842.705048
3024.154525,888.247130,-9696.697840,-306.438199
3024.154852,1036.288319,-11843.295072,459.657299
3024.155180,1702.473667,-12805.562797,995.924147
3024.155507,2812.782580,-11103.089130,-229.828649
3024.155835,222.061783,-10658.965565,-1302.362347
3024.156162,-1702.473667,-11177.109724,-1455.581446
3024.156490,-1110.308913,-10214.842000,-2911.162892
3024.156817,1628.453072,-8142.265362,-3294.210641
3024.157145,2294.638420,-8290.306550,-1225.752797
3024.157472,518.144159,-10510.924376,2451.505594
3024.157800,1110.308913,-9992.780217,3600.648841
3024.158127,962.267725,-6587.832884,1225.752797
3024.158455,-1332.370696,-7328.038826,-1378.971896
3024.158782,-2072.576638,-9030.512492,-2221.676944
3024.159110,-814.226536,-9474.636058,-1302.362347
3024.159437,74.020594,-10881.027347,-459.657299
3024.159765,1776.494261,-13175.665768,-459.657299
3024.160092,2590.720797,-13989.892304,-1608.800546
3024.160419,2368.659014,-13027.624579,-1302.362347
3024.160747,518.144159,-10658.965565,-1608.800546
3024.161074,0.000000,-10658.965565,-2681.334243
3024.161402,592.164754,-10140.821405,-2451.505594
3024.161729,370.102971,-7476.080014,-766.095498
3024.162057,0.000000,-6735.874072,1532.190996
3024.162384,-592.164754,-7402.059420,2451.505594
3024.162712,-370.102971,-7328.038826,2987.772442
3024.163039,-1480.411884,-6587.832884,1378.971896
3024.163367,-1998.556043,-7846.182985,-1149.143247
3024.163694,-814.226536,-9844.739029,-1762.019645
3024.164022,814.226536,-10362.883188,-306.438199
3024.164349,1628.453072,-10732.986159,842.705048
3024.164677,2886.803174,-12583.501014,995.924147
3024.165004,3701.029710,-11991.336260,153.219100
3024.165332,1406.391290,-10288.862594,306.438199
3024.165659,-296.082377,-9770.718434,-383.047749
3024.165987,0.000000,-9326.594869,-995.924147
3024.166314,222.061783,-7772.162391,-919.314598
3024.166642,-370.102971,-7179.997637,459.657299
3024.166969,-2072.576638,-8216.285956,2068.457845
3024.167297,-1110.308913,-8512.368333,1685.410096
3024.167624,-592.164754,-6883.915261,-995.924147
3024.167951,-1776.494261,-7624.121203,-995.924147
3024.168279,-518.144159,-9770.718434,-689.485948
3024.168606,2590.720797,-11103.089130,0.000000
3024.168934,3182.885551,-11843.295072,383.047749
3024.169261,2664.741391,-13175.665768,995.924147
3024.169589,3404.947333,-14063.912898,0.000000
3024.169916,740.205942,-11399.171507,-1991.848295
3024.170244,-2146.597232,-10732.986159,-2451.505594
3024.170571,-2738.761985,-10584.944971,-3447.429741
3024.170899,-1554.432478,-9400.615463,-2757.943793
3024.171226,148.041188,-7920.203579,-1072.533697
3024.171554,222.061783,-8586.388927,612.876398
3024.171881,-444.123565,-8808.450710,2834.553343
3024.172209,-592.164754,-7254.018232,2451.505594
3024.172536,0.000000,-6587.832884,0.000000
3024.172864,-444.123565,-8512.368333,-995.924147
3024.173191,666.185348,-10214.842000,153.219100
3024.173519,2664.741391,-11325.150913,995.924147
3024.173846,3552.988522,-12953.603985,612.876398
3024.174174,3034.844362,-13249.686362,0.000000
3024.174501,1628.453072,-12065.356855,-229.828649
3024.174829,-2146.597232,-10288.862594,-1072.533697
3024.175156,-3330.926739,-9770.718434,-2681.334243
3024.175483,-1258.350101,-8882.471304,-3447.429741
3024.175811,962.267725,-7105.977043,-1991.848295
3024.176138,370.102971,-7105.977043,2298.286494
3024.176466,222.061783,-7920.203579,3907.087040
3024.176793,592.164754,-7402.059420,3370.820191
3024.177121,-222.061783,-6735.874072,1072.533697
3024.177448,-1406.391290,-6883.915261,-1225.752797
3024.177776,-370.102971,-8660.409521,-1378.971896
3024.178103,1998.556043,-10066.800811,-766.095498
3024.178431,3404.947333,-12731.542202,383.047749
3024.178758,3034.844362,-14878.139434,383.047749
3024.179086,3701.029710,-14508.036463,0.000000
3024.179413,2812.782580,-13175.665768,-1991.848295
3024.179741,-1110.308913,-10362.883188,-1838.629195
3024.180068,-2516.700203,-8734.430116,-2145.067394
3024.180396,-1628.453072,-7698.141797,-2221.676944
3024.180723,-222.061783,-5773.606348,-1302.362347
3024.181051,-1184.329507,-5699.585753,1225.752797
3024.181378,-1702.473667,-7031.956449,3447.429741
3024.181706,-814.226536,-7254.018232,1762.019645
3024.182033,-1184.329507,-7698.141797,-919.314598
3024.182360,-1332.370696,-10140.821405,-2451.505594
3024.182688,1480.411884,-13101.645173,-1838.629195
3024.183015,3256.906145,-13619.789333,0.000000
3024.183343,2812.782580,-13101.645173,612.876398
3024.183670,1924.535449,-13619.789333,76.609550
3024.183998,2146.597232,-13989.892304,-536.266849
3024.184325,-1406.391290,-10362.883188,-612.876398
3024.184653,-2738.761985,-7179.997637,-842.705048
3024.184980,-2294.638420,-5921.647536,-995.924147
3024.185308,-1258.350101,-6957.935855,0.000000
3024.185635,-518.144159,-6365.771101,842.705048
3024.185963,-1110.308913,-5995.668130,2451.505594
3024.186290,-444.123565,-6587.832884,1991.848295
3024.186618,888.247130,-8142.265362,0.000000
3024.186945,1036.288319,-9548.656652,-1072.533697
3024.187273,1406.391290,-11547.212695,0.000000
3024.187600,3330.926739,-12657.521608,919.314598
3024.187928,2960.823768,-12583.501014,995.924147
3024.188255,888.247130,-12509.480420,0.000000
3024.188583,148.041188,-12065.356855,-919.314598
3024.188910,-1258.350101,-10214.842000,-1608.800546
3024.189238,-2590.720797,-8660.409521,-1915.238745
3024.189565,-1406.391290,-8808.450710,-2221.676944
3024.189892,814.226536,-7994.224174,-1378.971896
3024.190220,1480.411884,-6365.771101,612.876398
3024.190547,444.123565,-7624.121203,1608.800546
3024.190875,-518.144159,-8438.347739,2145.067394
3024.191202,518.144159,-7402.059420,-612.876398
3024.191530,0.000000,-7698.141797,-2145.067394
3024.191857,-666.185348,-10436.903782,-1608.800546
3024.192185,1406.391290,-12953.603985,536.266849
3024.192512,2368.659014,-13471.748144,1072.533697
3024.192840,2220.617826,-14137.933492,-842.705048
3024.193167,1406.391290,-13841.851115,-2604.724693
3024.193495,74.020594,-12583.501014,-2834.553343
3024.193822,-1332.370696,-11029.068536,-1991.848295
3024.194150,-2072.576638,-8142.265362,-1608.800546
3024.194477,0.000000,-7031.956449,-1608.800546
3024.194805,1332.370696,-7476.080014,153.219100
3024.195132,1554.432478,-6957.935855,1608.800546
3024.195460,0.000000,-6143.709319,2987.772442
3024.195787,296.082377,-7994.224174,2604.724693
3024.196115,148.041188,-7698.141797,-153.219100
3024.196442,-1036.288319,-7994.224174,-1762.019645
3024.196770,-1480.411884,-9918.759623,-459.657299
3024.197097,666.185348,-11917.315666,766.095498
3024.197424,2220.617826,-12805.562797,-153.219100
3024.197752,1480.411884,-14137.933492,0.000000
3024.198079,1036.288319,-12731.542202,-1149.143247
3024.198407,888.247130,-10658.965565,-919.314598
3024.198734,0.000000,-9622.677246,0.000000
3024.199062,148.041188,-9030.512492,-842.705048
3024.199389,1332.370696,-6735.874072,306.438199
3024.199717,1406.391290,-6143.709319,1685.410096
3024.200044,74.020594,-6883.915261,2451.505594
3024.200372,-1036.288319,-8660.409521,2528.115143
3024.200699,-1702.473667,-7994.224174,459.657299
3024.201027,-1998.556043,-7550.100608,-1991.848295
3024.201354,-2590.720797,-9474.636058,-2451.505594
3024.201682,-962.267725,-11547.212695,0.000000
3024.202009,1184.329507,-11843.295072,842.705048
3024.202337,2886.803174,-12953.603985,229.828649
3024.202664,2886.803174,-13841.851115,-459.657299
3024.202992,2220.617826,-12953.603985,-919.314598
3024.203319,962.267725,-10955.047942,-1149.143247
3024.203647,-740.205942,-9252.574275,-1378.971896
3024.203974,-814.226536,-7550.100608,-1302.362347
3024.204302,148.041188,-7920.203579,-536.266849
3024.204629,-444.123565,-7846.182985,76.609550
3024.204956,-1258.350101,-7772.162391,689.485948
3024.205284,-148.041188,-8438.347739,76.609550
3024.205611,148.041188,-7994.224174,-383.047749
3024.205939,0.000000,-8586.388927,0.000000
3024.206266,222.061783,-10140.821405,0.000000
3024.206594,1258.350101,-11103.089130,1149.143247
3024.206921,1406.391290,-11695.253884,0.000000
3024.207249,2294.638420,-12805.562797,-689.485948
3024.207576,1850.514855,-12139.377449,-1072.533697
3024.207904,1184.329507,-11251.130318,-842.705048
3024.208231,-888.247130,-10140.821405,-383.047749
3024.208559,-740.205942,-8956.491898,-1225.752797
3024.208886,1776.494261,-9326.594869,-1378.971896
3024.209214,2294.638420,-8068.244768,0.000000
3024.209541,888.247130,-7179.997637,2298.286494
3024.209869,444.123565,-7698.141797,2451.505594
3024.210196,296.082377,-7179.997637,1455.581446
3024.210524,-962.267725,-5847.626942,0.000000
3024.210851,-1776.494261,-7179.997637,-229.828649
3024.211179,-962.267725,-9548.656652,536.266849
3024.211506,814.226536,-10955.047942,153.219100
3024.211834,1924.535449,-12435.459826,-995.924147
3024.212161,1850.514855,-14508.036463,-1225.752797
3024.212488,2072.576638,-14582.057057,-995.924147
3024.212816,1628.453072,-12583.501014,-689.485948
3024.213143,-1036.288319,-10066.800811,-919.314598
3024.213471,-1332.370696,-8586.388927,-1532.190996
3024.213798,-962.267725,-7994.224174,-1072.533697
3024.214126,74.020594,-6957.935855,1378.971896
3024.214453,74.020594,-5625.565159,2834.553343
3024.214781,-666.185348,-6143.709319,3217.601092
3024.215108,-1924.535449,-6291.750507,1225.752797
3024.215436,-3330.926739,-6439.791695,-1685.410096
3024.215763,-2146.597232,-8882.471304,-2451.505594
3024.216091,592.164754,-11843.295072,-1685.410096
3024.216418,2960.823768,-13841.851115,-76.609550
3024.216746,4145.153275,-15618.345376,842.705048
3024.217073,4367.215058,-16062.468941,229.828649
3024.217401,2738.761985,-14211.954086,-383.047749
3024.217728,-888.247130,-10362.883188,-842.705048
3024.218056,-3923.091493,-7402.059420,-766.095498
3024.218383,-3256.906145,-6587.832884,-2374.896044
3024.218711,-1998.556043,-6587.832884,-1302.362347
3024.219038,-1480.411884,-6217.729913,842.705048
3024.219365,-814.226536,-7179.997637,2145.067394
3024.219693,814.226536,-7476.080014,2145.067394
3024.220020,222.061783,-6957.935855,-536.266849
3024.220348,-1406.391290,-8882.471304,-1762.019645
3024.220675,592.164754,-10807.006753,-1455.581446
3024.221003,3627.009116,-10881.027347,-1455.581446
3024.221330,4885.359217,-12657.521608,229.828649
3024.221658,4145.153275,-15470.304188,2068.457845
3024.221985,2738.761985,-15470.304188,1915.238745
3024.222313,962.267725,-11843.295072,-995.924147
3024.222640,-2812.782580,-9696.697840,-3907.087040
3024.222968,-3256.906145,-9474.636058,-4673.182538
3024.223295,-2146.597232,-7624.121203,-2911.162892
3024.223623,-518.144159,-5403.503377,0.000000
3024.223950,296.082377,-6217.729913,2374.896044
3024.224278,1110.308913,-7772.162391,3907.087040
3024.224605,1850.514855,-7179.997637,2681.334243
3024.224933,1184.329507,-6661.853478,536.266849
3024.225260,1480.411884,-8808.450710,0.000000
3024.225588,1776.494261,-11029.068536,612.876398
3024.225915,3330.926739,-11991.336260,229.828649
3024.226243,3404.947333,-13323.706956,229.828649
3024.226570,2368.659014,-15396.283594,0.000000
3024.226897,666.185348,-14137.933492,-689.485948
3024.227225,-1924.535449,-10510.924376,-2604.724693
3024.227552,-3108.864956,-9104.533087,-3217.601092
3024.227880,-2368.659014,-8364.327145,-2987.772442
3024.228207,-370.102971,-6513.812290,-459.657299
3024.228535,740.205942,-5847.626942,1762.019645
3024.228862,1406.391290,-6439.791695,3677.258390
3024.229190,1702.473667,-6513.812290,3907.087040
3024.229517,296.082377,-7402.059420,995.924147
3024.229845,-1184.329507,-8364.327145,-383.047749
3024.230172,-370.102971,-10584.944971,-919.314598
3024.230500,1776.494261,-11917.315666,-1608.800546
3024.230827,2072.576638,-13545.768739,-689.485948
3024.231155,1036.288319,-15174.221811,0.000000
3024.231482,888.247130,-14508.036463,-919.314598
3024.231810,-148.041188,-12731.542202,-1225.752797
3024.232137,-1776.494261,-9696.697840,-1608.800546
3024.232465,-1924.535449,-7846.182985,-2528.115143
3024.232792,74.020594,-7476.080014,-1149.143247
3024.233120,1258.350101,-7105.977043,536.266849
3024.233447,0.000000,-6439.791695,2987.772442
3024.233775,-1036.288319,-7179.997637,3294.210641
3024.234102,-814.226536,-8290.306550,153.219100
3024.234429,-1628.453072,-8068.244768,-2681.334243
3024.234757,-1702.473667,-8956.491898,-3140.991542
3024.235084,814.226536,-11991.336260,-1991.848295
3024.235412,3627.009116,-13989.892304,-306.438199
3024.235739,3923.091493,-14582.057057,1685.410096
3024.236067,2294.638420,-14285.974681,2068.457845
3024.236394,1480.411884,-12213.398043,689.485948
3024.236722,-518.144159,-9326.594869,-1685.410096
3024.237049,-2368.659014,-7698.141797,-2681.334243
3024.237377,-2072.576638,-6957.935855,-2374.896044
3024.237704,-296.082377,-6587.832884,-612.876398
3024.238032,-592.164754,-6069.688724,2681.334243
3024.238360,518.144159,-7105.977043,3140.991542
3024.238687,1776.494261,-7920.203579,1072.533697
3024.239015,1184.329507,-8364.327145,383.047749
3024.239342,-296.082377,-7920.203579,-1225.752797
3024.239670,222.061783,-9474.636058,-1685.410096
3024.239997,2220.617826,-11473.192101,-459.657299
3024.240325,2886.803174,-11399.171507,1149.143247
3024.240653,2220.617826,-11769.274478,1838.629195
3024.240980,1480.411884,-12065.356855,842.705048
3024.241308,518.144159,-12139.377449,-1532.190996
3024.241635,-1554.432478,-10436.903782,-2757.943793
3024.241963,-1554.432478,-9474.636058,-3140.991542
3024.242290,962.267725,-9400.615463,-2451.505594
3024.242618,1480.411884,-8364.327145,229.828649
3024.242945,-518.144159,-8068.244768,2451.505594
3024.243273,-518.144159,-8660.409521,2374.896044
3024.243601,814.226536,-7328.038826,689.485948
3024.243928,-296.082377,-6587.832884,-536.266849
3024.244256,-518.144159,-8512.368333,-459.657299
3024.244583,666.185348,-10732.986159,229.828649
3024.244911,2294.638420,-11769.274478,-842.705048
3024.245238,962.267725,-12435.459826,-1378.971896
3024.245566,1702.473667,-13767.830521,-1532.190996
3024.245894,1554.432478,-12953.603985,-1455.581446
3024.246221,148.041188,-12805.562797,-612.876398
3024.246549,-1258.350101,-10436.903782,-995.924147
3024.246876,296.082377,-10436.903782,-1685.410096
3024.247204,592.164754,-9548.656652,0.000000
3024.247531,0.000000,-6439.791695,1455.581446
3024.247859,-2886.803174,-5255.462188,2987.772442
3024.248187,-2738.761985,-6735.874072,1225.752797
3024.248514,-2072.576638,-6587.832884,-459.657299
3024.248842,-1850.514855,-7105.977043,-689.485948
3024.249169,-1036.288319,-7772.162391,383.047749
3024.249497,2442.679609,-10955.047942,383.047749
3024.249824,4071.132681,-13101.645173,76.609550
3024.250152,2220.617826,-13323.706956,306.438199
3024.250479,1776.494261,-12583.501014,-612.876398
3024.250807,2072.576638,-10658.965565,-1608.800546
3024.251135,-222.061783,-9918.759623,-766.095498
3024.251462,-1110.308913,-10436.903782,0.000000
3024.251790,-1110.308913,-8660.409521,0.000000
3024.252117,-148.041188,-7179.997637,-383.047749
3024.252445,-1406.391290,-7328.038826,-766.095498
3024.252772,-2072.576638,-7624.121203,-153.219100
3024.253100,-2294.638420,-7105.977043,536.266849
3024.253428,-1480.411884,-6661.853478,-1149.143247
3024.253755,-148.041188,-8956.491898,-2451.505594
3024.254083,2072.576638,-11103.089130,-1302.362347
3024.254410,3775.050304,-11251.130318,766.095498
3024.254738,3923.091493,-12583.501014,1991.848295
3024.255065,3256.906145,-14359.995275,1072.533697
3024.255393,2738.761985,-13323.706956,-995.924147
3024.255721,740.205942,-11177.109724,-2834.553343
3024.256048,-1258.350101,-10584.944971,-2298.286494
3024.256376,-1776.494261,-9918.759623,-1915.238745
3024.256703,-1184.329507,-8290.306550,-153.219100
3024.257031,-888.247130,-7402.059420,229.828649
3024.257358,-1258.350101,-7772.162391,306.438199
3024.257686,-814.226536,-7846.182985,1302.362347
3024.258013,-814.226536,-5995.668130,1225.752797
3024.258341,148.041188,-6883.915261,0.000000
3024.258669,1554.432478,-9622.677246,0.000000
3024.258996,3330.926739,-10510.924376,2221.676944
3024.259324,3552.988522,-10955.047942,2528.115143
3024.259651,2664.741391,-12731.542202,1685.410096
3024.259979,3552.988522,-14285.974681,0.000000
3024.260306,2368.659014,-12731.542202,-1149.143247
3024.260634,-1554.432478,-10140.821405,-766.095498
3024.260962,-2812.782580,-9252.574275,-919.314598
3024.261289,-2368.659014,-9252.574275,-919.314598
3024.261617,-2368.659014,-7476.080014,0.000000
3024.261944,-3108.864956,-4737.318029,766.095498
3024.262272,-2368.659014,-6291.750507,766.095498
3024.262599,-1110.308913,-7105.977043,1378.971896
3024.262927,592.164754,-7105.977043,-383.047749
3024.263255,1036.288319,-8956.491898,-536.266849
3024.263582,1628.453072,-11103.089130,459.657299
3024.263910,2960.823768,-12213.398043,0.000000
3024.264237,1998.556043,-13175.665768,-229.828649
3024.264565,666.185348,-15100.201217,-1838.629195
3024.264892,1554.432478,-14434.015869,-2911.162892
3024.265220,1406.391290,-11991.336260,-3447.429741
3024.265547,-370.102971,-10955.047942,-1991.848295
3024.265875,-666.185348,-10807.006753,0.000000
3024.266203,-444.123565,-7772.162391,536.266849
3024.266530,-814.226536,-5847.626942,153.219100
3024.266858,-2146.597232,-6513.812290,-689.485948
3024.267185,-2072.576638,-7550.100608,-229.828649
3024.267513,-1924.535449,-6439.791695,153.219100
3024.267840,-1258.350101,-6957.935855,-689.485948
3024.268168,-222.061783,-10066.800811,-995.924147
3024.268496,2368.659014,-13101.645173,-459.657299
3024.268823,3256.906145,-12731.542202,459.657299
3024.269151,2590.720797,-12805.562797,536.266849
3024.269478,2590.720797,-12583.501014,-459.657299
3024.269806,2442.679609,-11843.295072,-1378.971896
3024.270133,148.041188,-9918.759623,-306.438199
3024.270461,-444.123565,-8660.409521,689.485948
3024.270789,0.000000,-6439.791695,383.047749
3024.271116,74.020594,-7031.956449,1149.143247
3024.271444,-444.123565,-7031.956449,1149.143247
3024.271771,-1480.411884,-7105.977043,1072.533697
3024.272099,-2368.659014,-7031.956449,1072.533697
3024.272426,-1258.350101,-7402.059420,-229.828649
3024.272754,-1628.453072,-8438.347739,-1072.533697
3024.273081,-148.041188,-9400.615463,459.657299
3024.273409,1998.556043,-10658.965565,153.219100
3024.273737,3182.885551,-12953.603985,459.657299
3024.274064,2590.720797,-13619.789333,1302.362347
3024.274392,3256.906145,-12805.562797,0.000000
3024.274719,1998.556043,-10510.924376,-1225.752797
3024.275047,-814.226536,-8364.327145,-1378.971896
3024.275374,-2516.700203,-9326.594869,-1762.019645
3024.275702,-1702.473667,-9844.739029,-1225.752797
3024.276030,148.041188,-8512.368333,-919.314598
3024.276357,814.226536,-8808.450710,153.219100
3024.276685,0.000000,-9844.739029,2298.286494
3024.277012,-370.102971,-9770.718434,2604.724693
3024.277340,74.020594,-7846.182985,0.000000
3024.277667,-1184.329507,-7920.203579,-1991.848295
3024.277995,-1776.494261,-9770.718434,-1149.143247
3024.278322,370.102971,-10066.800811,-1378.971896
3024.278650,1110.308913,-12139.377449,-1072.533697
3024.278978,1924.535449,-13693.809927,-766.095498
3024.279305,1776.494261,-13545.768739,-919.314598
3024.279633,666.185348,-11103.089130,-1455.581446
3024.279960,0.000000,-9918.759623,-1532.190996
3024.280288,962.267725,-9548.656652,-2604.724693
3024.280615,888.247130,-8142.265362,-766.095498
3024.280943,222.061783,-6513.812290,1455.581446
3024.281271,-148.041188,-7105.977043,2681.334243
3024.281598,-740.205942,-8068.244768,3370.820191
3024.281926,-1628.453072,-6513.812290,2528.115143
3024.282253,-2220.617826,-7254.018232,-612.876398
3024.282581,-740.205942,-9992.780217,-1838.629195
3024.282908,814.226536,-11325.150913,-1838.629195
3024.283236,1184.329507,-11103.089130,-995.924147
3024.283564,2220.617826,-12879.583391,-383.047749
3024.283891,3330.926739,-13249.686362,-689.485948
3024.284219,2886.803174,-10807.006753,-842.705048
3024.284546,444.123565,-9474.636058,76.609550
3024.284874,0.000000,-9400.615463,76.609550
3024.285201,1110.308913,-8734.430116,-1532.190996
3024.285529,518.144159,-7772.162391,0.000000
3024.285856,-1850.514855,-7772.162391,1455.581446
3024.286184,-2294.638420,-8068.244768,2298.286494
3024.286512,-1924.535449,-6883.915261,612.876398
3024.286839,-1924.535449,-5921.647536,-1302.362347
3024.287167,-1036.288319,-8512.368333,-2451.505594
3024.287494,1702.473667,-12139.377449,-766.095498
3024.287822,3775.050304,-13397.727550,-153.219100
3024.288149,4071.132681,-13471.748144,383.047749
3024.288477,3849.070898,-13767.830521,-229.828649
3024.288805,2442.679609,-12139.377449,-995.924147
3024.289132,518.144159,-10436.903782,-1302.362347
3024.289460,-518.144159,-9326.594869,-1762.019645
3024.289787,-370.102971,-9030.512492,-689.485948
3024.290115,1258.350101,-9178.553681,-153.219100
3024.290442,888.247130,-8882.471304,689.485948
3024.290770,-1554.432478,-8290.306550,2528.115143
3024.291098,-2960.823768,-7105.977043,1991.848295
3024.291425,-3182.885551,-5995.668130,76.609550
3024.291753,-2664.741391,-5921.647536,-1991.848295
3024.292080,-1406.391290,-8438.347739,-1608.800546
3024.292408,2294.638420,-10510.924376,229.828649
3024.292735,4145.153275,-12213.398043,1608.800546
3024.293063,4293.194464,-13619.789333,1378.971896
3024.293390,4885.359217,-14063.912898,-919.314598
3024.293718,1628.453072,-11843.295072,-1072.533697
3024.294046,-2368.659014,-9474.636058,-1225.752797
3024.294373,-3182.885551,-9474.636058,-1838.629195
3024.294701,-1480.411884,-9918.759623,-2298.286494
3024.295028,370.102971,-8290.306550,-536.266849
3024.295356,0.000000,-7846.182985,1532.190996
3024.295683,-888.247130,-8882.471304,4136.915689
3024.296011,-740.205942,-6883.915261,3447.429741
3024.296339,-592.164754,-4515.256246,-153.219100
3024.296666,-1184.329507,-6365.771101,-2528.115143
3024.296994,0.000000,-10658.965565,-1149.143247
3024.297321,2738.761985,-12065.356855,0.000000
3024.297649,2812.782580,-13101.645173,612.876398
3024.297976,2738.761985,-14952.160028,-612.876398
3024.298304,2886.803174,-13989.892304,-1762.019645
3024.298632,0.000000,-11251.130318,-1915.238745
3024.298959,-1332.370696,-10066.800811,-2374.896044
3024.299287,-666.185348,-9622.677246,-2221.676944
3024.299614,444.123565,-7846.182985,-689.485948
3024.299942,740.205942,-5921.647536,995.924147
3024.300269,-666.185348,-6809.894666,3140.991542
3024.300597,-1406.391290,-6957.935855,3600.648841
3024.300924,-888.247130,-5255.462188,995.924147
3024.301252,-962.267725,-6439.791695,-1532.190996
3024.301580,-962.267725,-10362.883188,-1762.019645
3024.301907,1998.556043,-11843.295072,-1378.971896
3024.302235,3330.926739,-12213.398043,-229.828649
3024.302562,2812.782580,-14137.933492,1149.143247
3024.302890,3034.844362,-14804.118840,-1532.190996
3024.303217,1776.494261,-12287.418637,-1762.019645
3024.303545,-1332.370696,-9030.512492,-1225.752797
3024.303873,-1110.308913,-8956.491898,-1455.581446
3024.304200,222.061783,-8734.430116,-766.095498
3024.304528,0.000000,-6143.709319,842.705048
3024.304855,0.000000,-5699.585753,1532.190996
3024.305183,-1628.453072,-6587.832884,2451.505594
3024.305510,-1776.494261,-7698.141797,1915.238745
3024.305838,-1184.329507,-6587.832884,-1455.581446
3024.306166,-592.164754,-8438.347739,-1915.238745
3024.306493,1406.391290,-12509.480420,0.000000
3024.306821,3627.009116,-13841.851115,1225.752797
3024.307148,3552.988522,-14285.974681,2145.067394
3024.307476,2516.700203,-13767.830521,919.314598
3024.307803,1628.453072,-12213.398043,-1762.019645
3024.308131,-1924.535449,-9696.697840,-2451.505594
3024.308458,-4219.173869,-8142.265362,-1991.848295
3024.308786,-2368.659014,-8290.306550,-2451.505594
3024.309114,0.000000,-7846.182985,-1838.629195
3024.309441,-222.061783,-7846.182985,842.705048
3024.309769,-222.061783,-8586.388927,3370.820191
3024.310096,518.144159,-7920.203579,1838.629195
3024.310424,-296.082377,-7105.977043,536.266849
3024.310751,-666.185348,-6809.894666,-1302.362347
3024.311079,0.000000,-9178.553681,-536.266849
3024.311407,2368.659014,-10732.986159,1302.362347
3024.311734,3404.947333,-11695.253884,2145.067394
3024.312062,2442.679609,-14211.954086,2451.505594
3024.312389,1702.473667,-14137.933492,-689.485948
3024.312717,222.061783,-12287.418637,-3217.601092
3024.313044,-1924.535449,-10066.800811,-3447.429741
3024.313372,-2368.659014,-8586.388927,-2911.162892
3024.313700,-592.164754,-8142.265362,-1915.238745
3024.314027,148.041188,-6439.791695,-459.657299
3024.314355,0.000000,-6143.709319,1762.019645
3024.314682,0.000000,-6957.935855,3524.039291
3024.315010,148.041188,-6661.853478,2451.505594
3024.315337,0.000000,-6661.853478,153.219100
3024.315665,-666.185348,-8364.327145,-1302.362347
3024.315992,-740.205942,-11325.150913,-306.438199
3024.316320,2072.576638,-12583.501014,-229.828649
3024.316648,3404.947333,-12583.501014,-612.876398
3024.316975,3182.885551,-14508.036463,-1608.800546
3024.317303,2072.576638,-13989.892304,-1149.143247
3024.317630,1258.350101,-12435.459826,-1455.581446
3024.317958,74.020594,-9844.739029,-2221.676944
3024.318285,0.000000,-8068.244768,-2145.067394
3024.318613,222.061783,-7402.059420,-536.266849
3024.318941,0.000000,-6957.935855,1378.971896
3024.319268,0.000000,-7031.956449,1915.238745
3024.319596,74.020594,-7698.141797,1378.971896
3024.319923,-222.061783,-7328.038826,1302.362347
3024.320251,-518.144159,-7476.080014,0.000000
3024.320578,148.041188,-10436.903782,0.000000
3024.320906,888.247130,-12435.459826,1532.190996
3024.321234,888.247130,-11177.109724,766.095498
3024.321561,1702.473667,-13101.645173,0.000000
3024.321889,1184.329507,-14508.036463,-919.314598
3024.322216,222.061783,-11547.212695,-1302.362347
3024.322544,-1332.370696,-8734.430116,-1072.533697
3024.322871,-1702.473667,-8734.430116,-1302.362347
3024.323199,0.000000,-8734.430116,-2681.334243
3024.323526,1110.308913,-7550.100608,-1455.581446
3024.323854,-1850.514855,-6883.915261,1608.800546
3024.324182,-2146.597232,-7179.997637,2757.943793
3024.324509,-1036.288319,-7846.182985,612.876398
3024.324837,-1406.391290,-6587.832884,-1225.752797
3024.325164,-1184.329507,-8512.368333,-1532.190996
3024.325492,740.205942,-11843.295072,842.705048
3024.325819,2960.823768,-12139.377449,1838.629195
3024.326147,3627.009116,-12435.459826,-459.657299
3024.326475,3034.844362,-13545.768739,-612.876398
3024.326802,1850.514855,-13545.768739,-1225.752797
3024.327130,-222.061783,-11251.130318,-1685.410096
3024.327457,-1480.411884,-9178.553681,-2604.724693
3024.327785,-1776.494261,-8956.491898,-3524.039291
3024.328112,-222.061783,-8438.347739,-1685.410096
3024.328440,148.041188,-6957.935855,229.828649
3024.328768,296.082377,-7698.141797,1838.629195
3024.329095,222.061783,-9104.533087,2374.896044
3024.329423,444.123565,-7328.038826,842.705048
3024.329750,-222.061783,-5847.626942,-459.657299
3024.330078,0.000000,-7624.121203,229.828649
3024.330405,1776.494261,-10807.006753,1915.238745
3024.330733,2886.803174,-11399.171507,2298.286494
3024.331060,3552.988522,-13471.748144,919.314598
3024.331388,3182.885551,-14878.139434,-766.095498
3024.331716,1036.288319,-13841.851115,-1915.238745
3024.332043,-1184.329507,-11251.130318,-1991.848295
3024.332371,-1998.556043,-9252.574275,-2451.505594
3024.332698,-1480.411884,-7698.141797,-2298.286494
3024.333026,0.000000,-7105.977043,-1072.533697
3024.333353,-1036.288319,-5625.565159,1685.410096
3024.333681,-370.102971,-6439.791695,2911.162892
3024.334009,888.247130,-6957.935855,2221.676944
3024.334336,444.123565,-6217.729913,1608.800546
3024.334664,-962.267725,-6217.729913,1225.752797
3024.334991,148.041188,-8216.285956,766.095498
3024.335319,1998.556043,-11325.150913,-383.047749
3024.335646,2368.659014,-14359.995275,-536.266849
3024.335974,2664.741391,-15840.407159,0.000000
3024.336302,3108.864956,-15026.180623,-536.266849
3024.336629,1406.391290,-12953.603985,-919.314598
3024.336957,-740.205942,-10807.006753,-995.924147
3024.337284,-1850.514855,-8882.471304,-1455.581446
3024.337612,-2146.597232,-7920.203579,-1455.581446
3024.337939,-1406.391290,-5699.585753,-919.314598
3024.338267,-3034.844362,-5107.421000,-153.219100
3024.338594,-3034.844362,-6883.915261,536.266849
3024.338922,-1184.329507,-7476.080014,612.876398
3024.339250,74.020594,-7772.162391,0.000000
3024.339578,444.123565,-10436.903782,229.828649
3024.339905,3034.844362,-12731.542202,76.609550
3024.340233,4663.297435,-12805.562797,-995.924147
3024.340561,3627.009116,-14359.995275,-383.047749
3024.340888,2072.576638,-15100.201217,76.609550
3024.341216,1036.288319,-11991.336260,-459.657299
3024.341544,-1332.370696,-9548.656652,-919.314598
3024.341872,-2294.638420,-9548.656652,-1915.238745
3024.342199,-2960.823768,-8660.409521,-1915.238745
3024.342527,-2516.700203,-7402.059420,-766.095498
3024.342855,-1332.370696,-6587.832884,-1149.143247
3024.343182,-1036.288319,-7624.121203,229.828649
3024.343510,-1702.473667,-7105.977043,1991.848295
3024.343838,-740.205942,-5255.462188,612.876398
3024.344166,148.041188,-6661.853478,153.219100
3024.344493,1184.329507,-10510.924376,1149.143247
3024.344821,3256.906145,-11251.130318,1378.971896
3024.345149,3552.988522,-11843.295072,1685.410096
3024.345476,1924.535449,-13323.706956,1532.190996
3024.345804,1184.329507,-14211.954086,-229.828649
3024.346132,-1406.391290,-11325.150913,-1685.410096
3024.346460,-2664.741391,-9104.533087,-3064.381992
3024.346787,-1850.514855,-8216.285956,-3064.381992
3024.347115,0.000000,-8512.368333,-1302.362347
3024.347443,666.185348,-7254.018232,536.266849
3024.347770,1258.350101,-7624.121203,2068.457845
3024.348098,1406.391290,-8142.265362,2528.115143
3024.348426,592.164754,-6439.791695,1302.362347
3024.348754,296.082377,-5921.647536,-689.485948
3024.349081,74.020594,-9178.553681,-1225.752797
3024.349409,2072.576638,-11695.253884,0.000000
3024.349737,4293.194464,-12509.480420,0.000000
3024.350064,3256.906145,-14211.954086,919.314598
3024.350392,3108.864956,-15692.365970,306.438199
3024.350720,1850.514855,-13767.830521,-766.095498
3024.351048,-1110.308913,-10807.006753,-1991.848295
3024.351375,-2220.617826,-9326.594869,-3294.210641
3024.351703,-962.267725,-8438.347739,-3294.210641
3024.352031,-444.123565,-7105.977043,-1608.800546
3024.352358,-1258.350101,-6587.832884,1072.533697
3024.352686,-592.164754,-8438.347739,1915.238745
3024.353014,888.247130,-9326.594869,1302.362347
3024.353342,666.185348,-7402.059420,0.000000
3024.353669,-814.226536,-6883.915261,76.609550
3024.353997,-1924.535449,-9178.553681,383.047749
3024.354325,814.226536,-12435.459826,0.000000
3024.354652,2516.700203,-12361.439231,-919.314598
3024.354980,2294.638420,-13323.706956,-229.828649
3024.355308,1924.535449,-14063.912898,1225.752797
3024.355636,1480.411884,-12287.418637,1072.533697
3024.355963,-148.041188,-9474.636058,0.000000
3024.356291,-444.123565,-8290.306550,-1532.190996
3024.356619,-888.247130,-7402.059420,-1838.629195
3024.356946,-1110.308913,-7105.977043,-459.657299
3024.357274,-1110.308913,-7031.956449,306.438199
3024.357602,-1554.432478,-7402.059420,459.657299
3024.357930,-1554.432478,-7994.224174,1455.581446
3024.358257,-1110.308913,-7254.018232,995.924147
3024.358585,-518.144159,-7846.182985,-383.047749
3024.358913,1258.350101,-11251.130318,153.219100
3024.359240,2886.803174,-11843.295072,383.047749
3024.359568,2886.803174,-11695.253884,0.000000
3024.359896,1702.473667,-12435.459826,229.828649
3024.360224,2072.576638,-12731.542202,459.657299
3024.360551,1480.411884,-10732.986159,-919.314598
3024.360879,148.041188,-9030.512492,-1532.190996
3024.361207,0.000000,-9548.656652,-2451.505594
3024.361534,444.123565,-11029.068536,-2451.505594
3024.361862,0.000000,-9474.636058,-1302.362347
3024.362190,-592.164754,-8586.388927,0.000000
3024.362518,-1036.288319,-7550.100608,76.609550
3024.362845,-1110.308913,-4885.359217,229.828649
3024.363173,-1332.370696,-5921.647536,153.219100
3024.363501,592.164754,-9992.780217,1072.533697
3024.363828,3404.947333,-10584.944971,1532.190996
3024.364156,4367.215058,-10658.965565,995.924147
3024.364484,3256.906145,-13693.809927,1149.143247
3024.364812,1554.432478,-13323.706956,0.000000
3024.365139,-370.102971,-11029.068536,-1915.238745
3024.365467,-1924.535449,-9474.636058,-3447.429741
3024.365795,-814.226536,-11103.089130,-2987.772442
3024.366122,518.144159,-11177.109724,-1532.190996
3024.366450,888.247130,-9622.677246,1378.971896
3024.366778,0.000000,-8660.409521,2451.505594
3024.367106,-666.185348,-9326.594869,2374.896044
3024.367433,-3182.885551,-5625.565159,1455.581446
3024.367761,-4145.153275,-2738.761985,-1455.581446
3024.368089,-3701.029710,-5699.585753,-1302.362347
3024.368416,-814.226536,-9474.636058,-306.438199
3024.368744,2368.659014,-10658.965565,766.095498
3024.369072,3404.947333,-12805.562797,2068.457845
3024.369400,2664.741391,-15174.221811,1685.410096
3024.369727,2442.679609,-13693.809927,-689.485948
3024.370055,1554.432478,-10807.006753,-3370.820191
3024.370383,0.000000,-9918.759623,-3294.210641
3024.370710,296.082377,-10955.047942,-1532.190996
3024.371038,1480.411884,-8660.409521,229.828649
3024.371366,296.082377,-7550.100608,1838.629195
3024.371693,-962.267725,-8734.430116,1915.238745
3024.372021,-2072.576638,-8290.306550,306.438199
3024.372349,-2516.700203,-6365.771101,-1685.410096
3024.372677,-2442.679609,-6513.812290,-3447.429741
3024.373004,-370.102971,-10066.800811,-2451.505594
3024.373332,2516.700203,-11103.089130,76.609550
3024.373660,3552.988522,-11103.089130,1762.019645
3024.373987,2738.761985,-12731.542202,1915.238745
3024.374315,3108.864956,-13915.871710,995.924147
3024.374643,2294.638420,-11917.315666,-1378.971896
3024.374971,518.144159,-10140.821405,-1991.848295
3024.375298,-666.185348,-9178.553681,-1685.410096
3024.375626,-1036.288319,-10066.800811,-536.266849
3024.375954,-222.061783,-8734.430116,459.657299
3024.376281,-962.267725,-6735.874072,306.438199
3024.376609,-1628.453072,-7772.162391,689.485948
3024.376937,-1480.411884,-7179.997637,153.219100
3024.377265,-1258.350101,-5477.523971,383.047749
3024.377592,74.020594,-7254.018232,0.000000
3024.377920,1850.514855,-9992.780217,1149.143247
3024.378248,3478.967927,-10807.006753,1838.629195
3024.378575,2442.679609,-11399.171507,1608.800546
3024.378903,1776.494261,-13767.830521,689.485948
3024.379231,2368.659014,-13101.645173,-1838.629195
3024.379559,1258.350101,-10658.965565,-2681.334243
3024.379886,-592.164754,-10881.027347,-612.876398
3024.380214,0.000000,-10658.965565,0.000000
3024.380542,296.082377,-9252.574275,153.219100
3024.380869,-222.061783,-7179.997637,459.657299
3024.381197,-2294.638420,-7254.018232,306.438199
3024.381525,-2294.638420,-7105.977043,1225.752797
3024.381853,-2738.761985,-5181.441594,76.609550
3024.382180,-1998.556043,-6365.771101,-919.314598
3024.382508,0.000000,-9474.636058,-153.219100
3024.382836,2368.659014,-11695.253884,612.876398
3024.383163,2812.782580,-12805.562797,612.876398
3024.383491,3034.844362,-13397.727550,153.219100
3024.383819,2516.700203,-13693.809927,-1532.190996
3024.384147,814.226536,-12287.418637,-1838.629195
3024.384474,-1332.370696,-10436.903782,-1378.971896
3024.384802,-1998.556043,-9770.718434,-1149.143247
3024.385130,-518.144159,-10362.883188,-1378.971896
3024.385457,1184.329507,-8586.388927,-1915.238745
3024.385785,74.020594,-7031.956449,153.219100
3024.386113,-518.144159,-7624.121203,1915.238745
3024.386441,-1184.329507,-7846.182985,1762.019645
3024.386768,-888.247130,-6809.894666,0.000000
3024.387096,-962.267725,-7772.162391,-1225.752797
3024.387424,296.082377,-9770.718434,-536.266849
3024.387751,2072.576638,-11029.068536,1072.533697
3024.388079,1702.473667,-12879.583391,306.438199
3024.388407,1998.556043,-13989.892304,536.266849
3024.388735,3034.844362,-12879.583391,-1149.143247
3024.389062,1924.535449,-10584.944971,-1149.143247
3024.389390,74.020594,-9474.636058,-383.047749
3024.389718,148.041188,-9400.615463,-153.219100
3024.390045,962.267725,-8586.388927,-383.047749
3024.390373,0.000000,-6513.812290,689.485948
3024.390701,0.000000,-6883.915261,919.314598
3024.391029,-1258.350101,-7328.038826,1455.581446
3024.391356,-1554.432478,-7698.141797,1302.362347
3024.391684,-1702.473667,-8142.265362,-459.657299
3024.392012,-518.144159,-10140.821405,-995.924147
3024.392339,888.247130,-9696.697840,-995.924147
3024.392667,1554.432478,-10807.006753,0.000000
3024.392995,2072.576638,-13323.706956,766.095498
3024.393323,2886.803174,-13619.789333,-306.438199
3024.393650,2442.679609,-12361.439231,-1072.533697
3024.393978,518.144159,-9770.718434,-612.876398
3024.394306,-888.247130,-9178.553681,-383.047749
3024.394633,222.061783,-9474.636058,0.000000
3024.394961,1332.370696,-7994.224174,0.000000
3024.395289,-370.102971,-6661.853478,-153.219100
3024.395617,-2368.659014,-8290.306550,1225.752797
3024.395944,-3034.844362,-9178.553681,536.266849
3024.396272,-2516.700203,-7105.977043,-229.828649
3024.396600,-1406.391290,-8068.244768,-766.095498
3024.396927,370.102971,-11695.253884,766.095498
3024.397255,1702.473667,-12361.439231,1378.971896
3024.397583,1776.494261,-11029.068536,306.438199
3024.397911,1110.308913,-12805.562797,-1225.752797
3024.398238,518.144159,-12509.480420,-1685.410096
3024.398566,-1332.370696,-9400.615463,-2221.676944
3024.398894,-1924.535449,-8882.471304,-1685.410096
3024.399221,-592.164754,-9696.697840,-995.924147
3024.399549,1924.535449,-10362.883188,-919.314598
3024.399877,2072.576638,-8808.450710,1378.971896
3024.400205,888.247130,-8438.347739,2068.457845
3024.400532,-370.102971,-8142.265362,1378.971896
3024.400860,-888.247130,-6587.832884,306.438199
3024.401188,-2146.597232,-5181.441594,-612.876398
3024.401515,-1406.391290,-7402.059420,-612.876398
3024.401843,814.226536,-10807.006753,766.095498
3024.402171,2294.638420,-12065.356855,1455.581446
3024.402499,2516.700203,-13323.706956,383.047749
3024.402826,2220.617826,-14582.057057,-2068.457845
3024.403154,1702.473667,-13397.727550,-2911.162892
3024.403482,0.000000,-10066.800811,-2834.553343
3024.403809,-1184.329507,-7698.141797,-2298.286494
3024.404137,1036.288319,-7846.182985,-612.876398
3024.404465,1554.432478,-7550.100608,1532.190996
3024.404793,962.267725,-7698.141797,2374.896044
3024.405120,-814.226536,-6883.915261,2528.115143
3024.405448,-1036.288319,-7254.018232,1608.800546
3024.405776,-1184.329507,-7105.977043,-766.095498
3024.406103,-1776.494261,-6735.874072,-1608.800546
3024.406431,-962.267725,-9474.636058,-842.705048
3024.406759,3182.885551,-12065.356855,-229.828649
3024.407087,3775.050304,-13989.892304,612.876398
3024.407414,4071.132681,-14359.995275,459.657299
3024.407742,3182.885551,-13471.748144,-383.047749
3024.408070,1036.288319,-11917.315666,-1072.533697
3024.408397,-1480.411884,-9104.533087,-1378.971896
3024.408725,-1554.432478,-8660.409521,-2374.896044
3024.409053,-666.185348,-7772.162391,-1378.971896
3024.409381,814.226536,-7105.977043,383.047749
3024.409708,370.102971,-7698.141797,2298.286494
3024.410036,-592.164754,-8956.491898,2987.772442
3024.410364,-1850.514855,-6809.894666,1838.629195
3024.410691,-1258.350101,-5181.441594,-612.876398
3024.411019,-1702.473667,-8290.306550,-842.705048
3024.411347,1110.308913,-11473.192101,306.438199
3024.411675,2960.823768,-11843.295072,153.219100
3024.412002,3034.844362,-14063.912898,919.314598
3024.412330,2886.803174,-14508.036463,-153.219100
3024.412658,2886.803174,-13323.706956,-2451.505594
3024.412985,-666.185348,-10214.842000,-2221.676944
3024.413313,-2368.659014,-9178.553681,-1378.971896
3024.413641,-1110.308913,-9400.615463,-2374.896044
3024.413968,-296.082377,-8438.347739,-919.314598
3024.414296,-444.123565,-6809.894666,1532.190996
3024.414624,-962.267725,-6883.915261,3140.991542
3024.414952,-1850.514855,-6809.894666,3370.820191
3024.415279,-1036.288319,-6217.729913,689.485948
3024.415607,-296.082377,-7031.956449,-1532.190996
3024.415935,518.144159,-9178.553681,-766.095498
3024.416262,2294.638420,-12213.398043,459.657299
3024.416590,2368.659014,-12879.583391,1302.362347
3024.416918,888.247130,-13915.871710,0.000000
3024.417246,148.041188,-14656.077652,-2528.115143
3024.417573,-1184.329507,-12287.418637,-3907.087040
3024.417901,-2738.761985,-9030.512492,-3064.381992
3024.418229,-1332.370696,-9770.718434,-2145.067394
3024.418556,814.226536,-9326.594869,-383.047749
3024.418884,1258.350101,-6513.812290,1608.800546
3024.419212,666.185348,-6439.791695,3064.381992
3024.419540,-592.164754,-7698.141797,3370.820191
3024.419867,-370.102971,-6587.832884,1532.190996
3024.420195,0.000000,-5033.400406,-995.924147
3024.420523,-814.226536,-7402.059420,-1762.019645
3024.420850,962.267725,-12139.377449,0.000000
3024.421178,3034.844362,-14285.974681,1149.143247
3024.421506,3108.864956,-14804.118840,536.266849
3024.421834,2220.617826,-14434.015869,-1072.533697
3024.422161,1258.350101,-12435.459826,-2681.334243
3024.422489,-1998.556043,-9474.636058,-2298.286494
3024.422817,-2294.638420,-7624.121203,-1378.971896
3024.423144,-666.185348,-7772.162391,-383.047749
3024.423472,740.205942,-7624.121203,766.095498
3024.423800,370.102971,-6365.771101,2068.457845
3024.424128,-370.102971,-7179.997637,2604.724693
3024.424455,-370.102971,-8364.327145,1072.533697
3024.424783,592.164754,-7402.059420,-536.266849
3024.425111,148.041188,-7402.059420,-1149.143247
3024.425438,1702.473667,-10732.986159,-1149.143247
3024.425766,3256.906145,-13545.768739,1378.971896
3024.426094,3775.050304,-13915.871710,1838.629195
3024.426422,3256.906145,-14804.118840,1072.533697
3024.426749,1776.494261,-13249.686362,0.000000
3024.427077,296.082377,-9400.615463,-1608.800546
3024.427405,-2664.741391,-7105.977043,-1608.800546
3024.427732,-3849.070898,-6587.832884,-1072.533697
3024.428060,-2368.659014,-7698.141797,-2221.676944
3024.428388,-1554.432478,-7402.059420,-1532.190996
3024.428716,-370.102971,-8216.285956,229.828649
3024.429043,74.020594,-9252.574275,1838.629195
3024.429371,370.102971,-8142.265362,2451.505594
3024.429699,1184.329507,-7402.059420,689.485948
3024.430026,1776.494261,-9696.697840,-229.828649
3024.430354,2368.659014,-11843.295072,306.438199
3024.430682,2516.700203,-11991.336260,842.705048
3024.431010,888.247130,-12435.459826,842.705048
3024.431337,0.000000,-12435.459826,0.000000
3024.431665,0.000000,-11325.150913,-1302.362347
3024.431993,-1924.535449,-10214.842000,-1455.581446
3024.432320,-2442.679609,-9474.636058,-2298.286494
3024.432648,-518.144159,-9252.574275,-3064.381992
3024.432976,-148.041188,-8142.265362,-2528.115143
3024.433304,-444.123565,-7105.977043,-383.047749
3024.433631,-1776.494261,-7105.977043,1455.581446
3024.433959,-1998.556043,-6809.894666,1991.848295
3024.434287,-518.144159,-6809.894666,766.095498
3024.434614,962.267725,-7994.224174,-306.438199
3024.434942,888.247130,-11399.171507,383.047749
3024.435270,1036.288319,-13101.645173,1378.971896
3024.435598,2072.576638,-12953.603985,-306.438199
3024.435925,1184.329507,-13619.789333,-1225.752797
3024.436253,962.267725,-12731.542202,-2374.896044
3024.436581,-370.102971,-10510.924376,-1455.581446
3024.436908,-888.247130,-9474.636058,-536.266849
3024.437236,-370.102971,-9104.533087,-1149.143247
3024.437564,1332.370696,-9104.533087,-919.314598
3024.437892,740.205942,-6957.935855,536.266849
3024.438219,-740.205942,-6883.915261,1378.971896
3024.438547,-592.164754,-8068.244768,1455.581446
3024.438875,222.061783,-7846.182985,689.485948
3024.439202,296.082377,-6439.791695,-1072.533697
3024.439530,814.226536,-8290.306550,-612.876398
3024.439858,1850.514855,-12361.439231,1378.971896
3024.440186,2368.659014,-12953.603985,2068.457845
3024.440513,2368.659014,-12213.398043,0.000000
3024.440841,1258.350101,-11917.315666,-306.438199
3024.441169,1480.411884,-11917.315666,-2145.067394
3024.441497,-148.041188,-9770.718434,-1915.238745
3024.441824,-1406.391290,-8586.388927,-842.705048
3024.442152,814.226536,-8808.450710,-1225.752797
3024.442480,1924.535449,-9252.574275,-689.485948
3024.442808,1110.308913,-8142.265362,995.924147
3024.443136,0.000000,-7698.141797,1072.533697
3024.443463,-592.164754,-8364.327145,1072.533697
3024.443791,0.000000,-7698.141797,-995.924147
3024.444119,-296.082377,-7846.182985,-919.314598
3024.444447,888.247130,-9696.697840,842.705048
3024.444774,2590.720797,-12287.418637,2145.067394
3024.445102,3627.009116,-13323.706956,1532.190996
3024.445430,2368.659014,-12583.501014,-229.828649
3024.445758,2368.659014,-13249.686362,-306.438199
3024.446086,444.123565,-11399.171507,-612.876398
3024.446413,-2886.803174,-8734.430116,-536.266849
3024.446741,-3552.988522,-9030.512492,-1991.848295
3024.447069,-2220.617826,-10066.800811,-3370.820191
3024.447397,-888.247130,-8438.347739,-2604.724693
3024.447724,148.041188,-7624.121203,-306.438199
3024.448052,0.000000,-8142.265362,1762.019645
3024.448380,518.144159,-7920.203579,2298.286494
3024.448708,1258.350101,-6735.874072,1072.533697
3024.449036,444.123565,-7105.977043,383.047749
3024.449363,296.082377,-10066.800811,1302.362347
3024.449691,2368.659014,-11251.130318,766.095498
3024.450019,2590.720797,-11843.295072,-306.438199
3024.450347,962.267725,-13545.768739,-1378.971896
3024.450674,0.000000,-13027.624579,-919.314598
3024.451002,-1554.432478,-10807.006753,-1378.971896
3024.451330,-1998.556043,-10362.883188,-1838.629195
3024.451658,-1554.432478,-9474.636058,-2987.772442
3024.451986,-1998.556043,-7994.224174,-2604.724693
3024.452313,-888.247130,-6291.750507,-1072.533697
3024.452641,-592.164754,-6513.812290,919.314598
3024.452969,-222.061783,-7179.997637,2681.334243
3024.453297,222.061783,-6291.750507,2374.896044
3024.453624,0.000000,-6809.894666,842.705048
3024.453952,444.123565,-9992.780217,-306.438199
3024.454280,2590.720797,-12583.501014,-1072.533697
3024.454608,4071.132681,-12657.521608,-612.876398
3024.454936,2960.823768,-13619.789333,459.657299
3024.455263,3108.864956,-14730.098246,-383.047749
3024.455591,1258.350101,-13249.686362,-995.924147
3024.455919,-1258.350101,-10436.903782,-536.266849
3024.456247,-1332.370696,-8808.450710,-1225.752797
3024.456574,-740.205942,-8660.409521,-1685.410096
3024.456902,-148.041188,-7328.038826,229.828649
3024.457230,-444.123565,-4071.132681,1455.581446
3024.457558,-1110.308913,-5477.523971,842.705048
3024.457886,-1480.411884,-7624.121203,306.438199
3024.458213,-296.082377,-7476.080014,-995.924147
3024.458541,740.205942,-8882.471304,-1072.533697
3024.458869,2516.700203,-12583.501014,536.266849
3024.459197,5033.400406,-13027.624579,1455.581446
3024.459525,5773.606348,-13545.768739,1302.362347
3024.459852,4367.215058,-14878.139434,1532.190996
3024.460180,2442.679609,-13841.851115,-153.219100
3024.460508,-814.226536,-9918.759623,-1225.752797
3024.460836,-4219.173869,-7179.997637,-1685.410096
3024.461163,-3330.926739,-7179.997637,-2681.334243
3024.461491,-1702.473667,-7402.059420,-1302.362347
3024.461819,-1628.453072,-7254.018232,1378.971896
3024.462147,-1036.288319,-8290.306550,1455.581446
3024.462475,-444.123565,-8808.450710,-76.609550
3024.462802,-518.144159,-6661.853478,-1378.971896
3024.463130,-740.205942,-7105.977043,-1532.190996
3024.463458,-444.123565,-9474.636058,0.000000
3024.463786,1850.514855,-11103.089130,1838.629195
3024.464113,4293.194464,-13323.706956,766.095498
3024.464441,3552.988522,-14285.974681,1225.752797
3024.464769,1924.535449,-15248.242405,153.219100
3024.465097,-296.082377,-12731.542202,-1762.019645
3024.465425,-3330.926739,-9622.677246,-3140.991542
3024.465752,-3849.070898,-8438.347739,-3983.696590
3024.466080,-1998.556043,-8438.347739,-2374.896044
3024.466408,-1258.350101,-6957.935855,229.828649
3024.466736,296.082377,-7328.038826,2757.943793
3024.467063,1110.308913,-8364.327145,2604.724693
3024.467391,296.082377,-7920.203579,1302.362347
3024.467719,-370.102971,-6143.709319,-153.219100
3024.468047,-296.082377,-7402.059420,-995.924147
3024.468375,814.226536,-9992.780217,0.000000
3024.468702,3256.906145,-12139.377449,459.657299
3024.469030,4219.173869,-13101.645173,1532.190996
3024.469358,1850.514855,-13841.851115,1302.362347
3024.469686,814.226536,-13175.665768,-306.438199
3024.470013,-1776.494261,-11177.109724,-1378.971896
3024.470341,-4515.256246,-8290.306550,-1838.629195
3024.470669,-3256.906145,-6883.915261,-3370.820191
3024.470997,-740.205942,-7402.059420,-1915.238745
3024.471325,0.000000,-8068.244768,1072.533697
3024.471652,888.247130,-7328.038826,2528.115143
3024.471980,1406.391290,-7698.141797,1915.238745
3024.472308,1036.288319,-7698.141797,689.485948
3024.472636,518.144159,-7698.141797,-689.485948
3024.472963,148.041188,-8956.491898,-1225.752797
3024.473291,2146.597232,-10955.047942,-383.047749
3024.473619,4737.318029,-12287.418637,1302.362347
3024.473947,4367.215058,-13767.830521,536.266849
3024.474275,2072.576638,-15100.201217,995.924147
3024.474602,1184.329507,-13101.645173,-383.047749
3024.474930,-1184.329507,-8660.409521,-2145.067394
3024.475258,-2072.576638,-8512.368333,-2987.772442
3024.475586,-370.102971,-8512.368333,-2298.286494
3024.475913,-814.226536,-7328.038826,-766.095498
3024.476241,-1332.370696,-6883.915261,1532.190996
3024.476569,-1184.329507,-9030.512492,0.000000
3024.476897,-444.123565,-9696.697840,-1302.362347
3024.477225,74.020594,-7476.080014,-1991.848295
3024.477552,666.185348,-7402.059420,-1302.362347
3024.477880,2220.617826,-11177.109724,766.095498
3024.478208,4367.215058,-12731.542202,1915.238745
3024.478536,5181.441594,-12879.583391,1991.848295
3024.478863,2960.823768,-13101.645173,1685.410096
3024.479191,1628.453072,-11029.068536,-153.219100
3024.479519,-740.205942,-9992.780217,-1225.752797
3024.479847,-3256.906145,-9178.553681,-1838.629195
3024.480175,-2812.782580,-8660.409521,-1378.971896
3024.480502,-1480.411884,-8956.491898,-1149.143247
3024.480830,-518.144159,-8290.306550,306.438199
3024.481158,-1554.432478,-8142.265362,842.705048
3024.481486,-1924.535449,-7179.997637,536.266849
3024.481813,-1554.432478,-6143.709319,-229.828649
3024.482141,-740.205942,-5921.647536,-612.876398
3024.482469,1110.308913,-8068.244768,0.000000
3024.482797,3256.906145,-9770.718434,2221.676944
3024.483125,3627.009116,-10732.986159,2451.505594
3024.483452,2442.679609,-12287.418637,1302.362347
3024.483780,1850.514855,-13841.851115,-689.485948
3024.484108,1110.308913,-12657.521608,-2221.676944
3024.484436,-1554.432478,-9622.677246,-2068.457845
3024.484763,-1776.494261,-9474.636058,-2298.286494
3024.485091,0.000000,-10807.006753,-1762.019645
3024.485419,0.000000,-10140.821405,0.000000
3024.485747,-370.102971,-8586.388927,1532.190996
3024.486075,-1258.350101,-7624.121203,1608.800546
3024.486402,-2294.638420,-6957.935855,612.876398
3024.486730,-2442.679609,-6291.750507,-1302.362347
3024.487058,-1924.535449,-6809.894666,-1838.629195
3024.487386,814.226536,-9992.780217,-1455.581446
3024.487713,3404.947333,-11843.295072,153.219100
3024.488041,3478.967927,-13323.706956,1302.362347
3024.488369,2368.659014,-14434.015869,919.314598
3024.488697,3034.844362,-14211.954086,-1149.143247
3024.489025,1702.473667,-11325.150913,-2221.676944
3024.489352,-444.123565,-9622.677246,-1991.848295
3024.489680,-370.102971,-10140.821405,-612.876398
3024.490008,-370.102971,-9252.574275,612.876398
3024.490336,-518.144159,-6883.915261,1302.362347
3024.490663,-1258.350101,-6809.894666,1685.410096
3024.490991,-962.267725,-7624.121203,689.485948
3024.491319,-1110.308913,-7179.997637,0.000000
3024.491647,-1258.350101,-5699.585753,-1225.752797
3024.491975,222.061783,-7624.121203,-842.705048
3024.492302,2368.659014,-10955.047942,-229.828649
3024.492630,3775.050304,-11325.150913,1225.752797
3024.492958,2516.700203,-12583.501014,2068.457845
3024.493286,2220.617826,-13693.809927,1378.971896
3024.493614,3182.885551,-12879.583391,-842.705048
3024.493941,592.164754,-10436.903782,-2298.286494
3024.494269,-1924.535449,-9400.615463,-766.095498
3024.494597,-1332.370696,-8808.450710,-306.438199
3024.494925,-740.205942,-8956.491898,-612.876398
3024.495252,-1480.411884,-7846.182985,0.000000
3024.495580,-2072.576638,-6587.832884,76.609550
3024.495908,-1702.473667,-6513.812290,383.047749
3024.496236,-962.267725,-5847.626942,383.047749
3024.496564,370.102971,-8216.285956,-1302.362347
3024.496891,2294.638420,-11473.192101,-383.047749
3024.497219,3404.947333,-12139.377449,229.828649
3024.497547,2812.782580,-11621.233289,612.876398
3024.497875,2368.659014,-13027.624579,536.266849
3024.498202,2590.720797,-13545.768739,-689.485948
3024.498530,1998.556043,-12509.480420,-2451.505594
3024.498858,-1184.329507,-9474.636058,0.000000
3024.499186,-1480.411884,-9178.553681,-1149.143247
3024.499514,-962.267725,-10436.903782,-995.924147
3024.499841,-1776.494261,-8808.450710,0.000000
3024.500169,-2516.700203,-6217.729913,612.876398
3024.500497,-1480.411884,-7105.977043,842.705048
3024.500825,-888.247130,-7328.038826,-153.219100
3024.501152,0.000000,-7402.059420,153.219100
3024.501480,592.164754,-7698.141797,919.314598
3024.501808,2146.597232,-9622.677246,842.705048
3024.502136,3256.906145,-12065.356855,842.705048
3024.502464,2664.741391,-13175.665768,689.485948
3024.502791,1776.494261,-12731.542202,306.438199
3024.503119,1998.556043,-12435.459826,-919.314598
3024.503447,148.041188,-10584.944971,-689.485948
3024.503775,-1480.411884,-9474.636058,0.000000
3024.504102,-1110.308913,-9178.553681,-842.705048
3024.504430,-1554.432478,-7994.224174,-766.095498
3024.504758,-888.247130,-7105.977043,76.609550
3024.505086,-2072.576638,-5995.668130,1762.019645
3024.505414,-2220.617826,-6291.750507,2221.676944
3024.505741,-2220.617826,-7476.080014,766.095498
3024.506069,-888.247130,-8364.327145,-1608.800546
3024.506397,0.000000,-9770.718434,-1915.238745
3024.506725,3182.885551,-12287.418637,-1532.190996
3024.507052,4293.194464,-13397.727550,153.219100
3024.507380,3478.967927,-14211.954086,1225.752797
3024.507708,3775.050304,-14285.974681,-153.219100
3024.508036,2368.659014,-12065.356855,-1685.410096
3024.508364,518.144159,-10288.862594,-1149.143247
3024.508691,-1480.411884,-9474.636058,-1149.143247
3024.509019,-1850.514855,-8142.265362,-1915.238745
3024.509347,-1628.453072,-6661.853478,-1608.800546
3024.509675,-1850.514855,-7402.059420,0.000000
3024.510002,-1776.494261,-8290.306550,1455.581446
3024.510330,-518.144159,-8068.244768,1149.143247
3024.510658,-370.102971,-6883.915261,536.266849
3024.510986,0.000000,-8364.327145,-995.924147
3024.511314,1554.432478,-12065.356855,-842.705048
3024.511641,3108.864956,-10955.047942,0.000000
3024.511969,3701.029710,-10955.047942,1532.190996
3024.512297,3404.947333,-12879.583391,2068.457845
3024.512625,3701.029710,-13767.830521,-536.266849
3024.512952,222.061783,-9548.656652,0.000000
3024.513280,-1850.514855,-7772.162391,-1149.143247
3024.513608,-1332.370696,-8956.491898,-2145.067394
3024.513936,-666.185348,-9178.553681,-1838.629195
3024.514264,-1110.308913,-6439.791695,76.609550
3024.514591,-1702.473667,-6143.709319,1608.800546
3024.514919,-1036.288319,-7772.162391,2145.067394
3024.515247,-666.185348,-7624.121203,1762.019645
3024.515575,-296.082377,-7105.977043,766.095498
3024.515902,0.000000,-8438.347739,536.266849
3024.516230,1406.391290,-11399.171507,-306.438199
3024.516558,888.247130,-11399.171507,-459.657299
3024.516886,2294.638420,-12657.521608,-1302.362347
3024.517214,3627.009116,-13397.727550,-1762.019645
3024.517541,2146.597232,-12731.542202,-2145.067394
3024.517869,-1258.350101,-11325.150913,-1072.533697
3024.518197,-1406.391290,-10807.006753,-2604.724693
3024.518525,-370.102971,-9918.759623,-3294.210641
3024.518852,-444.123565,-8808.450710,-2604.724693
3024.519180,-1628.453072,-7402.059420,995.924147
3024.519508,-1184.329507,-8364.327145,1838.629195
3024.519836,444.123565,-9030.512492,2145.067394
3024.520164,-518.144159,-7179.997637,1072.533697
3024.520491,-962.267725,-7624.121203,0.000000
3024.520819,1184.329507,-10214.842000,-383.047749
3024.521147,1924.535449,-12139.377449,-536.266849
3024.521475,1554.432478,-11843.295072,-536.266849
3024.521802,1924.535449,-12509.480420,-2528.115143
3024.522130,2886.803174,-13249.686362,-2145.067394
3024.522458,1628.453072,-12213.398043,-1149.143247
3024.522786,-1184.329507,-9770.718434,0.000000
3024.523114,-1036.288319,-8956.491898,0.000000
3024.523441,-222.061783,-8216.285956,-842.705048
3024.523769,0.000000,-6365.771101,306.438199
3024.524097,-1258.350101,-6587.832884,2528.115143
3024.524425,-2516.700203,-7254.018232,3217.601092
3024.524752,-1628.453072,-6883.915261,2298.286494
3024.525080,-1184.329507,-5699.585753,0.000000
3024.525408,-888.247130,-7105.977043,0.000000
3024.525736,1924.535449,-10955.047942,229.828649
3024.526064,3182.885551,-11991.336260,383.047749
3024.526391,3404.947333,-13619.789333,229.828649
3024.526719,4663.297435,-13915.871710,-1302.362347
3024.527047,2886.803174,-12361.439231,-2145.067394
3024.527375,-962.267725,-9474.636058,-919.314598
3024.527703,-1036.288319,-8586.388927,-1149.143247
3024.528030,74.020594,-9622.677246,-1685.410096
3024.528358,148.041188,-9030.512492,-995.924147
3024.528686,-814.226536,-7254.018232,-536.266849
3024.529014,-2368.659014,-8068.244768,1302.362347
3024.529341,-2368.659014,-7846.182985,1225.752797
3024.529669,-1924.535449,-6587.832884,-153.219100
3024.529997,-1036.288319,-7476.080014,-1455.581446
3024.530325,740.205942,-10140.821405,-995.924147
3024.530653,3627.009116,-12213.398043,-306.438199
3024.530980,5181.441594,-13989.892304,0.000000
3024.531308,5033.400406,-14434.015869,-1072.533697
3024.531636,3627.009116,-13471.748144,-1838.629195
3024.531964,592.164754,-11621.233289,-1762.019645
3024.532291,-2294.638420,-10066.800811,-1455.581446
3024.532619,-1480.411884,-9474.636058,-2451.505594
3024.532947,-740.205942,-8586.388927,-1608.800546
3024.533275,-962.267725,-7772.162391,0.000000
3024.533603,-1776.494261,-7476.080014,2298.286494
3024.533930,-1702.473667,-7105.977043,2451.505594
3024.534258,-1850.514855,-5699.585753,1608.800546
3024.534586,-1924.535449,-4737.318029,612.876398
3024.534914,-592.164754,-7328.038826,1302.362347
3024.535241,962.267725,-9770.718434,1378.971896
3024.535569,2072.576638,-11843.295072,842.705048
3024.535897,3330.926739,-14730.098246,0.000000
3024.536225,3552.988522,-14508.036463,-1532.190996
3024.536553,2442.679609,-12953.603985,-2451.505594
3024.536880,-1036.288319,-10066.800811,-1149.143247
3024.537208,-2664.741391,-8956.491898,-689.485948
3024.537536,-444.123565,-9030.512492,-919.314598
3024.537864,0.000000,-8512.368333,-1378.971896
3024.538191,-1258.350101,-5847.626942,1378.971896
3024.538519,-2368.659014,-6365.771101,2451.505594
3024.538847,-1258.350101,-6809.894666,1838.629195
3024.539175,-1628.453072,-5847.626942,229.828649
3024.539503,-1406.391290,-7550.100608,842.705048
3024.539830,2294.638420,-11547.212695,-306.438199
3024.540158,4589.276840,-13397.727550,383.047749
3024.540486,3997.112087,-14211.954086,383.047749
3024.540814,2516.700203,-14137.933492,-1072.533697
3024.541141,1998.556043,-13915.871710,-2604.724693
3024.541469,518.144159,-11621.233289,-2528.115143
3024.541797,-1924.535449,-9474.636058,-1149.143247
3024.542125,-1110.308913,-9252.574275,-995.924147
3024.542452,592.164754,-9474.636058,-1302.362347
3024.542780,-296.082377,-7698.141797,-383.047749
3024.543108,-1406.391290,-6661.853478,919.314598
3024.543435,-1628.453072,-6143.709319,689.485948
3024.543763,-1036.288319,-5625.565159,306.438199
3024.544091,-814.226536,-6809.894666,0.000000
3024.544418,888.247130,-10807.006753,153.219100
3024.544746,4737.318029,-12953.603985,0.000000
3024.545074,5181.441594,-11917.315666,2298.286494
3024.545401,3478.967927,-12953.603985,2911.162892
3024.545729,2664.741391,-13175.665768,229.828649
3024.546057,444.123565,-11473.192101,-1991.848295
3024.546384,-2368.659014,-8808.450710,-2451.505594
3024.546712,-1850.514855,-8512.368333,-2451.505594
3024.547040,-370.102971,-8364.327145,-1685.410096
3024.547368,0.000000,-8438.347739,612.876398
3024.547695,-1184.329507,-7624.121203,1608.800546
3024.548023,-1110.308913,-7624.121203,919.314598
3024.548351,-740.205942,-7179.997637,153.219100
3024.548678,-740.205942,-5773.606348,-536.266849
3024.549006,-1480.411884,-6809.894666,0.000000
3024.549334,1036.288319,-10214.842000,1532.190996
3024.549661,3182.885551,-13101.645173,2374.896044
3024.549989,3034.844362,-13323.706956,2451.505594
3024.550317,3182.885551,-14063.912898,842.705048
3024.550644,2146.597232,-13693.809927,-1225.752797
3024.550972,-518.144159,-11843.295072,-2528.115143
3024.551300,-3552.988522,-9104.533087,-2834.553343
3024.551627,-2738.761985,-8808.450710,-3064.381992
3024.551955,-962.267725,-8660.409521,-3677.258390
3024.552283,-518.144159,-7920.203579,-459.657299
3024.552610,-1850.514855,-8216.285956,2145.067394
3024.552938,-518.144159,-8586.388927,1838.629195
3024.553266,-222.061783,-6735.874072,0.000000
3024.553593,-1110.308913,-6661.853478,-306.438199
3024.553921,-518.144159,-9474.636058,689.485948
3024.554249,1924.535449,-11251.130318,1991.848295
3024.554576,2590.720797,-11177.109724,1532.190996
3024.554904,2664.741391,-13545.768739,536.266849
3024.555232,2516.700203,-14063.912898,-689.485948
3024.555559,1184.329507,-12509.480420,-1455.581446
3024.555887,-1332.370696,-10362.883188,-1302.362347
3024.556215,-1184.329507,-9400.615463,-2221.676944
3024.556543,0.000000,-9474.636058,-3677.258390
3024.556870,-444.123565,-7994.224174,-1915.238745
3024.557198,-1332.370696,-5403.503377,536.266849
3024.557526,-592.164754,-6439.791695,1608.800546
3024.557853,296.082377,-7624.121203,1532.190996
3024.558181,-740.205942,-6587.832884,842.705048
3024.558509,-1554.432478,-6069.688724,766.095498
3024.558836,222.061783,-9844.739029,0.000000
3024.559164,2590.720797,-12287.418637,536.266849
3024.559492,3404.947333,-11917.315666,459.657299
3024.559819,2442.679609,-12953.603985,306.438199
3024.560147,3182.885551,-14211.954086,-612.876398
3024.560475,1776.494261,-12287.418637,-842.705048
3024.560802,444.123565,-10066.800811,-1608.800546
3024.561130,-592.164754,-8364.327145,-2528.115143
3024.561458,-296.082377,-9474.636058,-2298.286494
3024.561785,-518.144159,-7846.182985,-1225.752797
3024.562113,-1628.453072,-7254.018232,-229.828649
3024.562441,-888.247130,-7624.121203,842.705048
3024.562768,0.000000,-8142.265362,459.657299
3024.563096,-222.061783,-6735.874072,1072.533697
3024.563424,0.000000,-8808.450710,1302.362347
3024.563751,1036.288319,-11177.109724,1532.190996
3024.564079,3330.926739,-12065.356855,842.705048
3024.564407,3256.906145,-12435.459826,1072.533697
3024.564734,2294.638420,-12953.603985,919.314598
3024.565062,1554.432478,-12139.377449,0.000000
3024.565390,-962.267725,-11029.068536,-995.924147
3024.565718,-2812.782580,-9844.739029,-2221.676944
3024.566045,-1258.350101,-9474.636058,-4136.915689
3024.566373,-814.226536,-8290.306550,-2451.505594
3024.566701,-1480.411884,-7846.182985,766.095498
3024.567028,-1406.391290,-7920.203579,2068.457845
3024.567356,-814.226536,-7105.977043,919.314598
3024.567684,-518.144159,-5847.626942,1302.362347
3024.568011,-888.247130,-6661.853478,536.266849
3024.568339,-296.082377,-8438.347739,1532.190996
3024.568667,1628.453072,-9548.656652,1455.581446
3024.568994,3256.906145,-12435.459826,995.924147
3024.569322,3182.885551,-14285.974681,1455.581446
3024.569650,3330.926739,-13175.665768,-383.047749
3024.569977,2294.638420,-12139.377449,-1685.410096
3024.570305,-1924.535449,-10510.924376,-1915.238745
3024.570633,-2590.720797,-9474.636058,-3064.381992
3024.570960,-1776.494261,-8956.491898,-3447.429741
3024.571288,-2146.597232,-6513.812290,-1532.190996
3024.571616,-1998.556043,-5773.606348,689.485948
3024.571943,-1184.329507,-8660.409521,1608.800546
3024.572271,-1036.288319,-6661.853478,2068.457845
3024.572599,-962.267725,-5921.647536,612.876398
3024.572926,518.144159,-8660.409521,-459.657299
3024.573254,1702.473667,-11325.150913,0.000000
3024.573582,2960.823768,-11843.295072,306.438199
3024.573909,3923.091493,-13693.809927,689.485948
3024.574237,4441.235652,-15470.304188,-229.828649
3024.574565,3775.050304,-14582.057057,0.000000
3024.574892,1184.329507,-11621.233289,-536.266849
3024.575220,-1480.411884,-8586.388927,-766.095498
3024.575548,-1924.535449,-8364.327145,-2145.067394
3024.575876,-1554.432478,-8808.450710,-2451.505594
3024.576203,-2442.679609,-5255.462188,-1149.143247
3024.576531,-1332.370696,-5921.647536,229.828649
3024.576859,0.000000,-7105.977043,1302.362347
3024.577186,0.000000,-7402.059420,2068.457845
3024.577514,-1184.329507,-6661.853478,1378.971896
3024.577842,444.123565,-9030.512492,0.000000
3024.578169,2738.761985,-11843.295072,-306.438199
3024.578497,3330.926739,-12583.501014,612.876398
3024.578825,2516.700203,-13249.686362,1225.752797
3024.579152,3256.906145,-14582.057057,842.705048
3024.579480,2442.679609,-13027.624579,-383.047749
3024.579808,-592.164754,-10510.924376,-536.266849
3024.580135,-1480.411884,-8956.491898,-1455.581446
3024.580463,-1184.329507,-8438.347739,-1915.238745
3024.580791,-962.267725,-7846.182985,-1838.629195
3024.581118,-1998.556043,-6365.771101,-612.876398
3024.581446,-1998.556043,-6513.812290,459.657299
3024.581774,-2294.638420,-7105.977043,383.047749
3024.582101,-1406.391290,-6957.935855,306.438199
3024.582429,-740.205942,-8364.327145,766.095498
3024.582757,1554.432478,-10807.006753,229.828649
3024.583084,3552.988522,-13101.645173,0.000000
3024.583412,3182.885551,-13693.809927,1532.190996
3024.583740,2664.741391,-13989.892304,1225.752797
3024.584067,1702.473667,-13249.686362,-383.047749
3024.584395,-1332.370696,-10955.047942,-995.924147
3024.584723,-2590.720797,-8882.471304,-1915.238745
3024.585051,-1776.494261,-9030.512492,-2834.553343
3024.585378,-222.061783,-9844.739029,-2604.724693
3024.585706,-444.123565,-8216.285956,-919.314598
3024.586034,-888.247130,-7476.080014,995.924147
3024.586361,-370.102971,-7328.038826,842.705048
3024.586689,-222.061783,-7031.956449,0.000000
3024.587017,-1480.411884,-5625.565159,459.657299
3024.587344,74.020594,-8364.327145,612.876398
3024.587672,2812.782580,-11177.109724,766.095498
3024.588000,3404.947333,-11991.336260,1991.848295
3024.588327,2516.700203,-13915.871710,842.705048
3024.588655,888.247130,-13619.789333,842.705048
3024.588983,222.061783,-11547.212695,-1762.019645
3024.589310,-1924.535449,-8882.471304,-2604.724693
3024.589638,-1258.350101,-9474.636058,-2221.676944
3024.589966,1258.350101,-10288.862594,-1685.410096
3024.590293,1480.411884,-8216.285956,306.438199
3024.590621,222.061783,-7105.977043,1455.581446
3024.590949,-888.247130,-7772.162391,1838.629195
3024.591276,-1184.329507,-7105.977043,-536.266849
3024.591604,-2738.761985,-4219.173869,-1378.971896
3024.591932,-2960.823768,-7031.956449,-1149.143247
3024.592259,1110.308913,-11843.295072,-459.657299
3024.592587,4071.132681,-12509.480420,0.000000
3024.592915,3404.947333,-12213.398043,1072.533697
3024.593242,3627.009116,-14508.036463,1149.143247
3024.593570,3182.885551,-14582.057057,-306.438199
3024.593898,0.000000,-11103.089130,-536.266849
3024.594225,-3108.864956,-8142.265362,-1532.190996
3024.594553,-1110.308913,-9770.718434,-2987.772442
3024.594881,1258.350101,-10066.800811,-2757.943793
3024.595209,296.082377,-9252.574275,-229.828649
3024.595536,-666.185348,-8142.265362,1225.752797
3024.595864,74.020594,-8438.347739,383.047749
3024.596192,-222.061783,-7624.121203,-919.314598
3024.596519,-2368.659014,-6883.915261,0.000000
3024.596847,-888.247130,-8216.285956,306.438199
3024.597175,2886.803174,-9548.656652,459.657299
3024.597502,3108.864956,-11177.109724,0.000000
3024.597830,1480.411884,-11325.150913,2374.896044
3024.598158,2220.617826,-12213.398043,1225.752797
3024.598485,2590.720797,-11621.233289,-306.438199
3024.598813,666.185348,-10066.800811,-459.657299
3024.599141,0.000000,-9696.697840,-842.705048
3024.599468,1480.411884,-10510.924376,-689.485948
3024.599796,962.267725,-8808.450710,-536.266849
3024.600124,-962.267725,-6883.915261,-306.438199
3024.600451,-2368.659014,-6883.915261,-229.828649
3024.600779,-1998.556043,-7772.162391,-306.438199
3024.601107,-2368.659014,-6217.729913,612.876398
3024.601434,-2664.741391,-6439.791695,689.485948
3024.601762,592.164754,-8956.491898,306.438199
3024.602090,2886.803174,-11399.171507,459.657299
3024.602417,2368.659014,-11473.192101,1149.143247
3024.602745,1258.350101,-12065.356855,689.485948
3024.603073,2368.659014,-12731.542202,-1455.581446
3024.603400,1776.494261,-11917.315666,-2374.896044
3024.603728,-296.082377,-11547.212695,-1532.190996
3024.604056,222.061783,-11473.192101,-1072.533697
3024.604384,2220.617826,-11029.068536,-1149.143247
3024.604711,-370.102971,-8956.491898,383.047749
3024.605039,-2516.700203,-8142.265362,306.438199
3024.605367,-3404.947333,-8068.244768,-919.314598
3024.605694,-3108.864956,-5329.482782,-1378.971896
3024.606022,-3330.926739,-5181.441594,-612.876398
3024.606350,-592.164754,-9030.512492,1532.190996
3024.606677,2886.803174,-11547.212695,2298.286494
3024.607005,3182.885551,-11177.109724,1991.848295
3024.607333,2516.700203,-12287.418637,153.219100
3024.607660,2146.597232,-13027.624579,-1838.629195
3024.607988,962.267725,-11621.233289,-2145.067394
3024.608316,-296.082377,-10140.821405,-1072.533697
3024.608643,-666.185348,-10362.883188,-229.828649
3024.608971,1702.473667,-11843.295072,-689.485948
3024.609299,2368.659014,-11325.150913,-153.219100
3024.609626,0.000000,-8290.306550,1302.362347
3024.609954,-1406.391290,-6291.750507,766.095498
3024.610282,-2294.638420,-6291.750507,-459.657299
3024.610609,-3330.926739,-4811.338623,-842.705048
3024.610937,-2738.761985,-5255.462188,-536.266849
3024.611265,888.247130,-8808.450710,-766.095498
3024.611592,3034.844362,-11473.192101,1455.581446
3024.611920,3552.988522,-13027.624579,1915.238745
3024.612248,2664.741391,-13027.624579,383.047749
3024.612575,2516.700203,-13619.789333,-2221.676944
3024.612903,1332.370696,-12435.459826,-2834.553343
3024.613231,-444.123565,-9474.636058,-1608.800546
3024.613559,-370.102971,-9844.739029,-1072.533697
3024.613886,814.226536,-11177.109724,-306.438199
3024.614214,-592.164754,-9548.656652,995.924147
3024.614542,-2294.638420,-7624.121203,459.657299
3024.614869,-1406.391290,-7328.038826,-459.657299
3024.615197,-1406.391290,-6957.935855,-919.314598
3024.615525,-1702.473667,-6217.729913,0.000000
3024.615852,0.000000,-8438.347739,229.828649
3024.616180,3108.864956,-10955.047942,229.828649
3024.616508,4663.297435,-11843.295072,919.314598
3024.616835,3034.844362,-12805.562797,2068.457845
3024.617163,2738.761985,-12435.459826,842.705048
3024.617491,2220.617826,-11843.295072,-995.924147
3024.617818,666.185348,-10436.903782,-1762.019645
3024.618146,-1184.329507,-10066.800811,-1532.190996
3024.618474,-814.226536,-10658.965565,-1072.533697
3024.618801,0.000000,-8660.409521,-1532.190996
3024.619129,-1258.350101,-6809.894666,-612.876398
3024.619457,-2072.576638,-7179.997637,383.047749
3024.619784,-1036.288319,-7254.018232,766.095498
3024.620112,-1332.370696,-5847.626942,1532.190996
3024.620440,-814.226536,-7476.080014,612.876398
3024.620767,1332.370696,-10362.883188,0.000000
3024.621095,2812.782580,-10732.986159,842.705048
3024.621423,2072.576638,-10955.047942,842.705048
3024.621750,740.205942,-11991.336260,306.438199
3024.622078,1702.473667,-13397.727550,-1302.362347
3024.622406,1702.473667,-11769.274478,-3370.820191
3024.622733,0.000000,-10066.800811,-1991.848295
3024.623061,-888.247130,-10288.862594,-383.047749
3024.623389,-888.247130,-9844.739029,-153.219100
3024.623717,-2146.597232,-8438.347739,0.000000
3024.624044,-2812.782580,-7105.977043,-689.485948
3024.624372,-2072.576638,-7254.018232,-1532.190996
3024.624700,-1184.329507,-6883.915261,-1149.143247
3024.625027,-444.123565,-7994.224174,842.705048
3024.625355,962.267725,-9474.636058,995.924147
3024.625683,3182.885551,-11547.212695,459.657299
3024.626010,2442.679609,-12657.521608,612.876398
3024.626338,1258.350101,-12065.356855,306.438199
3024.626666,1184.329507,-11843.295072,-1149.143247
3024.626993,2294.638420,-11769.274478,-2451.505594
3024.627321,-222.061783,-10658.965565,-2145.067394
3024.627649,-1480.411884,-9400.615463,-459.657299
3024.627976,740.205942,-9696.697840,0.000000
3024.628304,1776.494261,-9326.594869,0.000000
3024.628632,1110.308913,-7105.977043,995.924147
3024.628959,-370.102971,-6513.812290,1149.143247
3024.629287,-1036.288319,-7254.018232,1149.143247
3024.629615,-1332.370696,-6513.812290,612.876398
3024.629942,-1332.370696,-6143.709319,-689.485948
3024.630270,0.000000,-8882.471304,689.485948
3024.630598,2220.617826,-11991.336260,1532.190996
3024.630925,2220.617826,-11917.315666,1072.533697
3024.631253,1998.556043,-12287.418637,153.219100
3024.631581,3034.844362,-13175.665768,-1532.190996
3024.631908,2294.638420,-11177.109724,-2145.067394
3024.632236,-518.144159,-8660.409521,-1608.800546
3024.632564,-1110.308913,-8882.471304,-995.924147
3024.632892,148.041188,-10362.883188,-919.314598
3024.633219,1406.391290,-9252.574275,-689.485948
3024.633547,518.144159,-7846.182985,383.047749
3024.633875,296.082377,-7402.059420,1455.581446
3024.634202,-592.164754,-6883.915261,1072.533697
3024.634530,-2738.761985,-7402.059420,-229.828649
3024.634858,-3256.906145,-8660.409521,-1302.362347
3024.635185,444.123565,-10288.862594,-1532.190996
3024.635513,2812.782580,-11917.315666,0.000000
3024.635841,2812.782580,-13323.706956,2298.286494
3024.636168,2590.720797,-13915.871710,1685.410096
3024.636496,2664.741391,-13471.748144,-1149.143247
3024.636824,814.226536,-9918.759623,-2757.943793
3024.637151,-2516.700203,-8586.388927,-3064.381992
3024.637479,-2516.700203,-9178.553681,-2681.334243
3024.637807,-444.123565,-9030.512492,-2374.896044
3024.638134,-296.082377,-8438.347739,0.000000
3024.638462,222.061783,-8734.430116,1685.410096
3024.638790,-666.185348,-9030.512492,2834.553343
3024.639117,-296.082377,-7476.080014,1455.581446
3024.639445,-962.267725,-7105.977043,306.438199
3024.639773,-370.102971,-8734.430116,-766.095498
3024.640100,814.226536,-9474.636058,0.000000
3024.640428,1850.514855,-10732.986159,1378.971896
3024.640756,2738.761985,-12287.418637,1072.533697
3024.641083,2664.741391,-13545.768739,1072.533697
3024.641411,1184.329507,-11991.336260,-1225.752797
3024.641739,-1258.350101,-9326.594869,-1685.410096
3024.642066,-2146.597232,-9696.697840,-3140.991542
3024.642394,0.000000,-10288.862594,-3447.429741
3024.642722,-370.102971,-7698.141797,-766.095498
3024.643049,-592.164754,-5699.585753,1608.800546
3024.643377,-296.082377,-6661.853478,2145.067394
3024.643704,-592.164754,-7550.100608,2451.505594
3024.644032,-1480.411884,-5847.626942,1915.238745
3024.644360,-1110.308913,-6513.812290,306.438199
3024.644687,1332.370696,-10066.800811,-459.657299
3024.645015,3627.009116,-12879.583391,-689.485948
3024.645343,3478.967927,-13989.892304,766.095498
3024.645670,3182.885551,-14137.933492,0.000000
3024.645998,4219.173869,-14063.912898,-1455.581446
3024.646326,1924.535449,-11325.150913,-2068.457845
3024.646653,-1702.473667,-9548.656652,-1302.362347
3024.646981,-1480.411884,-8956.491898,-1455.581446
3024.647309,74.020594,-8290.306550,-1302.362347
3024.647636,-592.164754,-7328.038826,229.828649
3024.647964,-1702.473667,-7476.080014,2145.067394
3024.648291,-1406.391290,-7920.203579,2451.505594
3024.648619,-1332.370696,-5921.647536,229.828649
3024.648947,-1332.370696,-6587.832884,-612.876398
3024.649274,814.226536,-10362.883188,-306.438199
3024.649602,3404.947333,-12139.377449,766.095498
3024.649930,5033.400406,-13545.768739,1532.190996
3024.650257,5477.523971,-14656.077652,1072.533697
3024.650585,4663.297435,-14730.098246,536.266849
3024.650913,2590.720797,-11769.274478,-1378.971896
3024.651240,-1702.473667,-8216.285956,-1149.143247
3024.651568,-4071.132681,-6809.894666,-1762.019645
3024.651895,-1850.514855,-9178.553681,-2681.334243
3024.652223,-1554.432478,-8364.327145,-1302.362347
3024.652551,-2960.823768,-5921.647536,1455.581446
3024.652878,-4071.132681,-6217.729913,2987.772442
3024.653206,-3256.906145,-7476.080014,1455.581446
3024.653534,-2294.638420,-6587.832884,-995.924147
3024.653861,592.164754,-8216.285956,-1838.629195
3024.654189,3182.885551,-11621.233289,0.000000
3024.654517,5477.523971,-13767.830521,2145.067394
3024.654844,5773.606348,-14878.139434,2681.334243
3024.655172,4367.215058,-14952.160028,1685.410096
3024.655499,2368.659014,-12657.521608,-1225.752797
3024.655827,-1702.473667,-9400.615463,-2757.943793
3024.656155,-5181.441594,-7031.956449,-2681.334243
3024.656482,-4515.256246,-7698.141797,-3524.039291
3024.656810,-1998.556043,-8808.450710,-3140.991542
3024.657138,-1184.329507,-6809.894666,459.657299
3024.657465,-1258.350101,-7994.224174,2221.676944
3024.657793,666.185348,-8512.368333,2451.505594
3024.658121,1332.370696,-6217.729913,842.705048
3024.658448,444.123565,-7179.997637,0.000000
3024.658776,1998.556043,-9770.718434,-459.657299
3024.659104,4293.194464,-11695.253884,229.828649
3024.659431,4367.215058,-13619.789333,1225.752797
3024.659759,2886.803174,-14582.057057,2451.505594
3024.660086,2072.576638,-13989.892304,-383.047749
3024.660414,-296.082377,-12139.377449,-2757.943793
3024.660742,-3182.885551,-9474.636058,-3294.210641
3024.661069,-3330.926739,-9104.533087,-3217.601092
3024.661397,-962.267725,-7994.224174,-2911.162892
3024.661725,0.000000,-5699.585753,-306.438199
3024.662052,-1036.288319,-6069.688724,2374.896044
3024.662380,-296.082377,-6957.935855,3907.087040
3024.662708,1480.411884,-6587.832884,2604.724693
3024.663035,1332.370696,-6069.688724,1225.752797
3024.663363,1628.453072,-8512.368333,459.657299
3024.663690,2960.823768,-10732.986159,0.000000
3024.664018,2886.803174,-14211.954086,229.828649
3024.664346,1554.432478,-14878.139434,766.095498
3024.664673,2442.679609,-14211.954086,-995.924147
3024.665001,1628.453072,-13101.645173,-1762.019645
3024.665329,-1332.370696,-11177.109724,-536.266849
3024.665656,-2516.700203,-7994.224174,-766.095498
3024.665984,-1924.535449,-7698.141797,-1838.629195
3024.666312,-962.267725,-7031.956449,-1532.190996
3024.666639,-2146.597232,-4663.297435,-536.266849
3024.666967,-3034.844362,-5107.421000,1225.752797
3024.667295,-1184.329507,-7846.182985,306.438199
3024.667622,0.000000,-9030.512492,-306.438199
3024.667950,1184.329507,-9252.574275,153.219100
3024.668277,3330.926739,-11917.315666,383.047749
3024.668605,4219.173869,-14952.160028,1149.143247
3024.668933,3256.906145,-13693.809927,1072.533697
3024.669260,1776.494261,-12435.459826,0.000000
3024.669588,296.082377,-12287.418637,-1455.581446
3024.669916,-1850.514855,-11621.233289,-1685.410096
3024.670243,-4367.215058,-8364.327145,-1149.143247
3024.670571,-4441.235652,-8068.244768,-1915.238745
3024.670899,-1480.411884,-9696.697840,-2604.724693
3024.671226,-518.144159,-9178.553681,-2604.724693
3024.671554,-1924.535449,-6291.750507,-536.266849
3024.671881,-1776.494261,-6365.771101,383.047749
3024.672209,0.000000,-7698.141797,-306.438199
3024.672537,962.267725,-8216.285956,0.000000
3024.672864,444.123565,-8438.347739,2221.676944
3024.673192,2590.720797,-10436.903782,2451.505594
3024.673520,3923.091493,-12213.398043,1838.629195
3024.673847,2960.823768,-11843.295072,1991.848295
3024.674175,2368.659014,-11621.233289,-383.047749
3024.674503,1110.308913,-11695.253884,-1762.019645
3024.674830,-666.185348,-10658.965565,-1991.848295
3024.675158,-2072.576638,-9030.512492,-2221.676944
3024.675486,-888.247130,-9326.594869,-2451.505594
3024.675813,740.205942,-8956.491898,-1915.238745
3024.676141,666.185348,-7624.121203,0.000000
3024.676468,-222.061783,-6661.853478,2068.457845
3024.676796,1110.308913,-8290.306550,689.485948
3024.677124,1702.473667,-7920.203579,0.000000
3024.677451,962.267725,-6587.832884,536.266849
3024.677779,962.267725,-8142.265362,1072.533697
3024.678107,1702.473667,-11251.130318,1915.238745
3024.678434,1924.535449,-12287.418637,459.657299
3024.678762,1332.370696,-13101.645173,-383.047749
3024.679090,1628.453072,-13915.871710,-1532.190996
3024.679417,1776.494261,-13101.645173,-2528.115143
3024.679745,370.102971,-11325.150913,-1991.848295
3024.680072,-1258.350101,-9400.615463,-995.924147
3024.680400,148.041188,-8734.430116,-1762.019645
3024.680728,592.164754,-7772.162391,-1532.190996
3024.681055,148.041188,-7105.977043,919.314598
3024.681383,0.000000,-7772.162391,1302.362347
3024.681711,518.144159,-7920.203579,1532.190996
3024.682038,0.000000,-6587.832884,1072.533697
3024.682366,-296.082377,-6587.832884,919.314598
3024.682694,666.185348,-9696.697840,-459.657299
3024.683021,1406.391290,-11103.089130,689.485948
3024.683349,962.267725,-12361.439231,0.000000
3024.683677,814.226536,-13175.665768,-1149.143247
3024.684004,2072.576638,-13175.665768,-2145.067394
3024.684332,962.267725,-11991.336260,-1608.800546
3024.684659,-666.185348,-10066.800811,0.000000
3024.684987,-592.164754,-10066.800811,-689.485948
3024.685315,444.123565,-9030.512492,-1838.629195
3024.685642,-888.247130,-7772.162391,-1225.752797
3024.685970,-2294.638420,-6143.709319,-459.657299
3024.686298,-1998.556043,-6809.894666,76.609550
3024.686625,-1110.308913,-7105.977043,306.438199
3024.686953,-962.267725,-7105.977043,995.924147
3024.687281,-518.144159,-8660.409521,1762.019645
3024.687608,1998.556043,-10436.903782,2604.724693
3024.687936,4441.235652,-13027.624579,1378.971896
3024.688263,3552.988522,-13397.727550,1149.143247
3024.688591,2442.679609,-12879.583391,-153.219100
3024.688919,1480.411884,-11695.253884,-1302.362347
3024.689246,-962.267725,-11029.068536,-1302.362347
3024.689574,-3552.988522,-9548.656652,-1225.752797
3024.689902,-2368.659014,-9474.636058,-2451.505594
3024.690229,-2368.659014,-8364.327145,-1685.410096
3024.690557,-2442.679609,-8142.265362,-995.924147
3024.690885,-2220.617826,-7179.997637,-536.266849
3024.691212,-296.082377,-7105.977043,-536.266849
3024.691540,592.164754,-7179.997637,459.657299
3024.691867,1110.308913,-7846.182985,1455.581446
3024.692195,2738.761985,-9252.574275,1915.238745
3024.692523,4367.215058,-11991.336260,2068.457845
3024.692850,5033.400406,-13027.624579,1991.848295
3024.693178,4071.132681,-13619.789333,1302.362347
3024.693506,2960.823768,-13101.645173,229.828649
3024.693833,370.102971,-11843.295072,-459.657299
3024.694161,-2368.659014,-8660.409521,-2298.286494
3024.694489,-4663.297435,-7402.059420,-3600.648841
3024.694816,-3108.864956,-10288.862594,-3217.601092
3024.695144,-1850.514855,-9252.574275,-1378.971896
3024.695472,-962.267725,-6883.915261,689.485948
3024.695799,222.061783,-7328.038826,995.924147
3024.696127,666.185348,-7772.162391,459.657299
3024.696454,592.164754,-6291.750507,-383.047749
3024.696782,1554.432478,-7105.977043,842.705048
3024.697110,3182.885551,-10140.821405,536.266849
3024.697437,3923.091493,-11399.171507,842.705048
3024.697765,3478.967927,-13767.830521,1378.971896
3024.698093,3182.885551,-15766.386565,689.485948
3024.698420,3182.885551,-14211.954086,-612.876398
3024.698748,-370.102971,-11177.109724,-1685.410096
3024.699076,-2146.597232,-9252.574275,-995.924147
3024.699403,-1628.453072,-9474.636058,-3370.820191
3024.699731,-1628.453072,-9030.512492,-2604.724693
3024.700058,-1776.494261,-6291.750507,0.000000
3024.700386,-2146.597232,-5995.668130,842.705048
3024.700714,-1036.288319,-6883.915261,689.485948
3024.701041,-444.123565,-7550.100608,153.219100
3024.701369,-1110.308913,-8290.306550,0.000000
3024.701697,1554.432478,-10881.027347,76.609550
3024.702024,4071.132681,-13027.624579,0.000000
3024.702352,4589.276840,-12435.459826,1302.362347
3024.702680,3849.070898,-12805.562797,1685.410096
3024.703007,2368.659014,-13101.645173,1225.752797
3024.703335,-296.082377,-10732.986159,1072.533697
3024.703663,-3552.988522,-8512.368333,-459.657299
3024.703990,-3108.864956,-7698.141797,-2145.067394
3024.704318,-1776.494261,-8142.265362,-2298.286494
3024.704645,-1998.556043,-7254.018232,-153.219100
3024.704973,-1998.556043,-6587.832884,306.438199
3024.705301,-1110.308913,-8068.244768,0.000000
3024.705628,-740.205942,-7328.038826,-995.924147
3024.705956,-666.185348,-6957.935855,-153.219100
3024.706284,222.061783,-8142.265362,612.876398
3024.706611,3552.988522,-11473.192101,1302.362347
3024.706939,4885.359217,-13323.706956,2145.067394
3024.707267,2664.741391,-12731.542202,2298.286494
3024.707594,1480.411884,-11325.150913,459.657299
3024.707922,1110.308913,-12287.418637,-2145.067394
3024.708249,-1924.535449,-9622.677246,-2451.505594
3024.708577,-3701.029710,-7994.224174,-2374.896044
3024.708905,-2516.700203,-9918.759623,-2528.115143
3024.709232,518.144159,-11251.130318,-2221.676944
3024.709560,0.000000,-8808.450710,0.000000
3024.709888,-1406.391290,-7031.956449,1225.752797
3024.710215,296.082377,-9178.553681,-919.314598
3024.710543,-666.185348,-8290.306550,-766.095498
3024.710871,-592.164754,-6587.832884,153.219100
3024.711198,1406.391290,-9770.718434,1225.752797
3024.711526,4811.338623,-12731.542202,2068.457845
3024.711854,4811.338623,-12287.418637,2221.676944
3024.712181,3182.885551,-12805.562797,2451.505594
3024.712509,1480.411884,-11991.336260,459.657299
3024.712836,-592.164754,-10288.862594,-1378.971896
3024.713164,-3552.988522,-8956.491898,-1838.629195
3024.713492,-4219.173869,-9104.533087,-1455.581446
3024.713819,-1554.432478,-9548.656652,-2298.286494
3024.714147,-666.185348,-8512.368333,-995.924147
3024.714475,-1036.288319,-7328.038826,0.000000
3024.714802,-592.164754,-8438.347739,1302.362347
3024.715130,740.205942,-7920.203579,1532.190996
3024.715458,0.000000,-5181.441594,306.438199
3024.715785,148.041188,-7476.080014,0.000000
3024.716113,2516.700203,-10140.821405,229.828649
3024.716440,3997.112087,-11769.274478,919.314598
3024.716768,3775.050304,-12065.356855,1915.238745
3024.717096,3404.947333,-11843.295072,919.314598
3024.717423,2072.576638,-11695.253884,0.000000
3024.717751,370.102971,-11325.150913,-766.095498
3024.718079,-1776.494261,-9326.594869,-766.095498
3024.718406,-444.123565,-10214.842000,-1685.410096
3024.718734,814.226536,-9474.636058,-1915.238745
3024.719062,-1036.288319,-7920.203579,-383.047749
3024.719389,-2146.597232,-8290.306550,1225.752797
3024.719717,-1998.556043,-7550.100608,-153.219100
3024.720045,-1480.411884,-7994.224174,-1455.581446
3024.720372,-1702.473667,-8808.450710,-306.438199
3024.720700,1702.473667,-9844.739029,0.000000
3024.721027,4367.215058,-11843.295072,76.609550
3024.721355,4663.297435,-12805.562797,1302.362347
3024.721683,3775.050304,-12805.562797,1915.238745
3024.722010,3108.864956,-12287.418637,0.000000
3024.722338,962.267725,-11251.130318,-689.485948
3024.722666,-2664.741391,-10140.821405,-766.095498
3024.722993,-3552.988522,-9844.739029,-995.924147
3024.723321,-1554.432478,-9696.697840,-2298.286494
3024.723649,-2294.638420,-7550.100608,-612.876398
3024.723976,-3034.844362,-6661.853478,1455.581446
3024.724304,-3256.906145,-6439.791695,919.314598
3024.724631,-3849.070898,-6735.874072,-1072.533697
3024.724959,-3701.029710,-6661.853478,-1685.410096
3024.725287,-222.061783,-8734.430116,-1378.971896
3024.725614,3330.926739,-11177.109724,1072.533697
3024.725942,5403.503377,-11843.295072,2604.724693
3024.726270,4441.235652,-11917.315666,2528.115143
3024.726597,3775.050304,-12065.356855,229.828649
3024.726925,2368.659014,-11325.150913,-1608.800546
3024.727253,-1036.288319,-9548.656652,-1225.752797
3024.727580,-3108.864956,-8512.368333,-1302.362347
3024.727908,-814.226536,-9844.739029,-2221.676944
3024.728235,592.164754,-10807.006753,-1532.190996
3024.728563,148.041188,-8808.450710,1302.362347
3024.728891,-222.061783,-8956.491898,2451.505594
3024.729218,888.247130,-8438.347739,-229.828649
3024.729546,592.164754,-7105.977043,-1915.238745
3024.729874,-518.144159,-6735.874072,-1608.800546
3024.730201,1184.329507,-8216.285956,-995.924147
3024.730529,4367.215058,-11547.212695,0.000000
3024.730857,4367.215058,-13101.645173,995.924147
3024.731184,2886.803174,-12805.562797,1302.362347
3024.731512,2812.782580,-14211.954086,-1378.971896
3024.731840,1332.370696,-13397.727550,-2911.162892
3024.732167,-962.267725,-10955.047942,-2757.943793
3024.732495,-888.247130,-9696.697840,-1991.848295
3024.732822,74.020594,-9992.780217,-383.047749
3024.733150,-814.226536,-9030.512492,536.266849
3024.733478,-1184.329507,-7328.038826,2298.286494
3024.733805,-962.267725,-6439.791695,1685.410096
3024.734133,-1110.308913,-7105.977043,306.438199
3024.734461,-1554.432478,-7624.121203,0.000000
3024.734788,-1036.288319,-8068.244768,-229.828649
3024.735116,1702.473667,-10140.821405,-919.314598
3024.735444,3627.009116,-11621.233289,0.000000
3024.735771,2812.782580,-11843.295072,1072.533697
3024.736099,1850.514855,-11695.253884,919.314598
3024.736426,2220.617826,-12213.398043,-153.219100
3024.736754,-444.123565,-10066.800811,-383.047749
3024.737082,-2960.823768,-8512.368333,229.828649
3024.737409,-2368.659014,-9178.553681,-229.828649
3024.737737,-962.267725,-9104.533087,-153.219100
3024.738065,-2738.761985,-6883.915261,919.314598
3024.738392,-2812.782580,-6439.791695,612.876398
3024.738720,-1628.453072,-8438.347739,-383.047749
3024.739048,-962.267725,-8216.285956,-536.266849
3024.739375,-1110.308913,-7105.977043,153.219100
3024.739703,1480.411884,-9474.636058,689.485948
3024.740031,3997.112087,-12805.562797,153.219100
3024.740358,2738.761985,-12065.356855,1302.362347
3024.740686,1924.535449,-11769.274478,919.314598
3024.741013,1998.556043,-12139.377449,-1149.143247
3024.741341,1406.391290,-12139.377449,-2145.067394
3024.741669,-444.123565,-9992.780217,-1302.362347
3024.741996,-2442.679609,-9326.594869,-1378.971896
3024.742324,-296.082377,-10658.965565,-2145.067394
3024.742652,666.185348,-9474.636058,-2145.067394
3024.742979,-2294.638420,-7254.018232,689.485948
3024.743307,-3701.029710,-7698.141797,689.485948
3024.743634,-1850.514855,-9474.636058,-1532.190996
3024.743962,-1480.411884,-7846.182985,-2757.943793
3024.744290,-592.164754,-7920.203579,-1838.629195
3024.744617,1924.535449,-10658.965565,612.876398
3024.744945,5403.503377,-11843.295072,1378.971896
3024.745273,5329.482782,-12287.418637,2451.505594
3024.745600,3997.112087,-12065.356855,1302.362347
3024.745928,2960.823768,-11547.212695,-1149.143247
3024.746255,1480.411884,-9622.677246,-1685.410096
3024.746583,-666.185348,-8068.244768,0.000000
3024.746911,-1036.288319,-9030.512492,0.000000
3024.747238,592.164754,-9770.718434,-612.876398
3024.747566,296.082377,-8290.306550,1225.752797
3024.747893,296.082377,-8068.244768,1838.629195
3024.748221,666.185348,-7402.059420,1532.190996
3024.748549,-222.061783,-6883.915261,383.047749
3024.748876,-1850.514855,-6217.729913,76.609550
3024.749204,-962.267725,-7698.141797,0.000000
3024.749532,1776.494261,-9474.636058,0.000000
3024.749859,3256.906145,-11177.109724,1838.629195
3024.750187,2886.803174,-12213.398043,2374.896044
3024.750514,4071.132681,-14063.912898,612.876398
3024.750842,3627.009116,-12509.480420,-1762.019645
3024.751170,1036.288319,-9770.718434,-1915.238745
3024.751497,-296.082377,-9474.636058,-1455.581446
3024.751825,148.041188,-10584.944971,-1532.190996
3024.752153,222.061783,-9326.594869,-536.266849
3024.752480,-1184.329507,-8364.327145,1072.533697
3024.752808,-1924.535449,-8808.450710,842.705048
3024.753135,-666.185348,-9696.697840,-229.828649
3024.753463,-2516.700203,-7254.018232,0.000000
3024.753791,-2516.700203,-5551.544565,-306.438199
3024.754118,-592.164754,-9548.656652,-536.266849
3024.754446,148.041188,-12361.439231,-689.485948
3024.754773,962.267725,-11917.315666,76.609550
3024.755101,2294.638420,-12287.418637,76.609550
3024.755429,4367.215058,-14137.933492,-383.047749
3024.755756,2220.617826,-12805.562797,-383.047749
3024.756084,-2664.741391,-9844.739029,459.657299
3024.756412,-2960.823768,-7772.162391,-1302.362347
3024.756739,-518.144159,-9252.574275,-2987.772442
3024.757067,-2368.659014,-7476.080014,-919.314598
3024.757394,-4737.318029,-6661.853478,1532.190996
3024.757722,-3552.988522,-7994.224174,2681.334243
3024.758050,-1628.453072,-7624.121203,1225.752797
3024.758377,-1924.535449,-7105.977043,0.000000
3024.758705,0.000000,-9696.697840,459.657299
3024.759033,2960.823768,-9844.739029,1225.752797
3024.759360,3182.885551,-9696.697840,995.924147
3024.759688,2368.659014,-10955.047942,536.266849
3024.760015,2146.597232,-11325.150913,-766.095498
3024.760343,1258.350101,-10807.006753,-1455.581446
3024.760671,-814.226536,-10214.842000,-2145.067394
3024.760998,-2442.679609,-10066.800811,-1762.019645
3024.761326,-962.267725,-11029.068536,-3217.601092
3024.761653,-740.205942,-10584.944971,-3140.991542
3024.761981,-1924.535449,-8290.306550,-689.485948
3024.762309,-1332.370696,-7402.059420,1149.143247
3024.762636,-296.082377,-8142.265362,1302.362347
3024.762964,0.000000,-7698.141797,1991.848295
3024.763292,148.041188,-7254.018232,842.705048
3024.763619,2294.638420,-8290.306550,1149.143247
3024.763947,4885.359217,-10807.006753,612.876398
3024.764274,4885.359217,-12879.583391,1225.752797
3024.764602,3775.050304,-13249.686362,0.000000
3024.764930,3182.885551,-13027.624579,-3064.381992
3024.765257,1332.370696,-12509.480420,-3830.477490
3024.765585,-1184.329507,-10658.965565,-2451.505594
3024.765913,-962.267725,-9844.739029,-1302.362347
3024.766240,74.020594,-10584.944971,-612.876398
3024.766568,74.020594,-9400.615463,383.047749
3024.766895,-962.267725,-7698.141797,2298.286494
3024.767223,-1258.350101,-5847.626942,2298.286494
3024.767551,-888.247130,-5477.523971,1302.362347
3024.767878,-1110.308913,-6143.709319,766.095498
3024.768206,740.205942,-7476.080014,1762.019645
3024.768533,3256.906145,-10510.924376,842.705048
3024.768861,4959.379811,-12213.398043,1302.362347
3024.769189,4293.194464,-12213.398043,689.485948
3024.769516,3478.967927,-13471.748144,-459.657299
3024.769844,2738.761985,-12509.480420,-1762.019645
3024.770172,-666.185348,-9918.759623,-1991.848295
3024.770499,-2368.659014,-8586.388927,-1915.238745
3024.770827,-1332.370696,-10214.842000,-1685.410096
3024.771154,0.000000,-9622.677246,-689.485948
3024.771482,-962.267725,-6587.832884,1608.800546
3024.771810,-2812.782580,-7254.018232,2068.457845
3024.772137,-2590.720797,-7846.182985,229.828649
3024.772465,-2368.659014,-6217.729913,76.609550
3024.772793,-1702.473667,-6291.750507,-459.657299
3024.773120,962.267725,-9696.697840,306.438199
3024.773448,2812.782580,-11769.274478,995.924147
3024.773775,2664.741391,-12805.562797,229.828649
3024.774103,1850.514855,-14508.036463,-459.657299
3024.774431,3182.885551,-15100.201217,-2604.724693
3024.774758,1332.370696,-11325.150913,-3447.429741
3024.775086,-2368.659014,-9474.636058,-1072.533697
