#time,accel_x,accel_y,accel_z
3322.551731,148.041188,-9178.553681,76.609550
3322.552058,0.000000,-9326.594869,0.000000
3322.552386,0.000000,-9474.636058,-229.828649
3322.552714,0.000000,-9696.697840,-459.657299
3322.553042,370.102971,-10214.842000,-1149.143247
3322.553370,592.164754,-10658.965565,-306.438199
3322.553698,518.144159,-10066.800811,-306.438199
3322.554026,740.205942,-10584.944971,0.000000
3322.554354,592.164754,-10214.842000,-153.219100
3322.554682,592.164754,-9918.759623,0.000000
3322.555010,444.123565,-9770.718434,0.000000
3322.555338,74.020594,-9696.697840,76.609550
3322.555665,0.000000,-9474.636058,-536.266849
3322.555993,0.000000,-9622.677246,-459.657299
3322.556321,-370.102971,-10066.800811,-766.095498
3322.556649,-296.082377,-9918.759623,-919.314598
3322.556977,0.000000,-10362.883188,-919.314598
3322.557305,444.123565,-10584.944971,-766.095498
3322.557633,592.164754,-10140.821405,0.000000
3322.557961,740.205942,-10066.800811,-153.219100
3322.558289,888.247130,-9548.656652,76.609550
3322.558617,370.102971,-9030.512492,383.047749
3322.558944,74.020594,-9030.512492,306.438199
3322.559272,-148.041188,-8882.471304,229.828649
3322.559600,0.000000,-8882.471304,689.485948
3322.559928,0.000000,-9178.553681,229.828649
3322.560256,-592.164754,-8956.491898,-229.828649
3322.560584,74.020594,-9474.636058,0.000000
3322.560912,296.082377,-9548.656652,0.000000
3322.561240,814.226536,-9770.718434,-229.828649
3322.561568,962.267725,-9696.697840,0.000000
3322.561896,888.247130,-9400.615463,306.438199
3322.562223,740.205942,-8956.491898,383.047749
3322.562551,518.144159,-8808.450710,459.657299
3322.562879,296.082377,-9030.512492,306.438199
3322.563207,0.000000,-9178.553681,-153.219100
3322.563535,0.000000,-9622.677246,-383.047749
3322.563863,0.000000,-9844.739029,-766.095498
3322.564191,296.082377,-10288.862594,-842.705048
3322.564519,370.102971,-10214.842000,-306.438199
3322.564847,814.226536,-10510.924376,0.000000
3322.565175,1184.329507,-10436.903782,-459.657299
3322.565503,962.267725,-10510.924376,0.000000
3322.565830,814.226536,-10214.842000,0.000000
3322.566158,444.123565,-10066.800811,-306.438199
3322.566486,222.061783,-10140.821405,229.828649
3322.566814,0.000000,-9474.636058,-459.657299
3322.567142,0.000000,-8956.491898,-689.485948
3322.567470,370.102971,-9104.533087,-612.876398
3322.567798,740.205942,-9400.615463,-842.705048
3322.568126,2146.597232,-9844.739029,-536.266849
3322.568454,3182.885551,-9696.697840,-229.828649
3322.568782,4145.153275,-9400.615463,153.219100
3322.569109,5033.400406,-9770.718434,919.314598
3322.569437,6365.771101,-10140.821405,229.828649
3322.569765,6143.709319,-9326.594869,919.314598
3322.570093,5847.626942,-8882.471304,766.095498
3322.570421,6661.853478,-8808.450710,153.219100
3322.570749,7179.997637,-9474.636058,0.000000
3322.571077,6883.915261,-10066.800811,842.705048
3322.571405,7550.100608,-9474.636058,1072.533697
3322.571733,8068.244768,-8586.388927,-459.657299
3322.572061,9770.718434,-9030.512492,-612.876398
3322.572388,10214.842000,-8882.471304,76.609550
3322.572716,11473.192101,-9178.553681,306.438199
3322.573044,12139.377449,-9770.718434,842.705048
3322.573372,12657.521608,-10066.800811,1072.533697
3322.573700,11917.315666,-9474.636058,1302.362347
3322.574028,11251.130318,-8512.368333,995.924147
3322.574356,11251.130318,-8512.368333,-536.266849
3322.574684,11621.233289,-9844.739029,-842.705048
3322.575012,13249.686362,-10732.986159,-1149.143247
3322.575340,14434.015869,-10436.903782,-766.095498
3322.575668,15248.242405,-9326.594869,0.000000
3322.575995,15100.201217,-9030.512492,689.485948
3322.576323,14730.098246,-10066.800811,1378.971896
3322.576651,14434.015869,-9622.677246,919.314598
3322.576979,13915.871710,-9918.759623,-383.047749
3322.577307,13619.789333,-10807.006753,0.000000
3322.577635,13841.851115,-10510.924376,383.047749
3322.577963,13323.706956,-9548.656652,1149.143247
3322.578291,12953.603985,-9474.636058,1225.752797
3322.578619,11843.295072,-9474.636058,-766.095498
3322.578947,10436.903782,-9844.739029,-689.485948
3322.579274,9770.718434,-10362.883188,-766.095498
3322.579602,9400.615463,-9474.636058,-689.485948
3322.579930,7624.121203,-8364.327145,-229.828649
3322.580258,7846.182985,-7920.203579,306.438199
3322.580586,9474.636058,-8438.347739,842.705048
3322.580914,10881.027347,-10807.006753,306.438199
3322.581242,10436.903782,-11177.109724,1762.019645
3322.581570,9622.677246,-10436.903782,1225.752797
3322.581898,8438.347739,-8216.285956,153.219100
3322.582226,7402.059420,-8068.244768,0.000000
3322.582554,7624.121203,-8364.327145,459.657299
3322.582881,8290.306550,-9474.636058,1149.143247
3322.583209,8808.450710,-11547.212695,919.314598
3322.583537,8586.388927,-10732.986159,0.000000
3322.583865,8216.285956,-8290.306550,-153.219100
3322.584193,6587.832884,-8956.491898,229.828649
3322.584521,5477.523971,-9844.739029,383.047749
3322.584849,6661.853478,-9770.718434,-995.924147
3322.585177,8290.306550,-8586.388927,-1762.019645
3322.585505,10288.862594,-8660.409521,-919.314598
3322.585833,8882.471304,-9104.533087,1072.533697
3322.586160,6735.874072,-7698.141797,2528.115143
3322.586488,6661.853478,-8068.244768,995.924147
3322.586816,9918.759623,-10732.986159,-1762.019645
3322.587144,11399.171507,-11473.192101,-2451.505594
3322.587472,10214.842000,-10584.944971,-612.876398
3322.587800,9104.533087,-10658.965565,612.876398
3322.588128,7772.162391,-11177.109724,0.000000
3322.588456,7698.141797,-10436.903782,-1685.410096
3322.588784,7772.162391,-8216.285956,-2604.724693
3322.589112,7920.203579,-8586.388927,-995.924147
3322.589439,10881.027347,-9770.718434,766.095498
3322.589767,12435.459826,-9548.656652,612.876398
3322.590095,10807.006753,-9992.780217,1991.848295
3322.590423,10362.883188,-8068.244768,306.438199
3322.590751,10584.944971,-7105.977043,-919.314598
3322.591079,10362.883188,-9104.533087,-689.485948
3322.591407,12287.418637,-10066.800811,-383.047749
3322.591735,14211.954086,-9622.677246,0.000000
3322.592063,13175.665768,-10807.006753,2451.505594
3322.592391,11103.089130,-12139.377449,3140.991542
3322.592719,9696.697840,-10214.842000,766.095498
3322.593046,7698.141797,-8660.409521,-1302.362347
3322.593374,6217.729913,-9474.636058,-2221.676944
3322.593702,6439.791695,-9030.512492,-2068.457845
3322.594030,6809.894666,-8734.430116,459.657299
3322.594358,6069.688724,-8216.285956,3907.087040
3322.594686,6069.688724,-6291.750507,3677.258390
3322.595014,4737.318029,-8142.265362,919.314598
3322.595342,3775.050304,-10584.944971,842.705048
3322.595670,5181.441594,-9548.656652,-919.314598
3322.595998,4959.379811,-8364.327145,-1838.629195
3322.596325,3775.050304,-9770.718434,153.219100
3322.596653,4441.235652,-11103.089130,306.438199
3322.596981,3182.885551,-11103.089130,-1378.971896
3322.597309,3701.029710,-12065.356855,-995.924147
3322.597637,5255.462188,-12435.459826,-2451.505594
3322.597965,4515.256246,-12953.603985,-1378.971896
3322.598293,4145.153275,-11177.109724,306.438199
3322.598621,2886.803174,-10584.944971,1608.800546
3322.598949,222.061783,-8882.471304,2221.676944
3322.599277,-2294.638420,-8438.347739,1455.581446
3322.599604,-3923.091493,-8586.388927,-383.047749
3322.599932,-4589.276840,-7402.059420,-306.438199
3322.600260,-3775.050304,-8142.265362,-536.266849
3322.600588,-3256.906145,-9474.636058,0.000000
3322.600916,-4885.359217,-9918.759623,612.876398
3322.601244,-3923.091493,-9918.759623,-612.876398
3322.601572,-3256.906145,-9400.615463,-1608.800546
3322.601900,-3182.885551,-12213.398043,-1991.848295
3322.602228,-2294.638420,-10436.903782,-2451.505594
3322.602556,-2146.597232,-10140.821405,-1685.410096
3322.602884,-3108.864956,-9992.780217,919.314598
3322.603211,-740.205942,-7772.162391,1532.190996
3322.603539,-1406.391290,-8142.265362,1608.800546
3322.603867,-888.247130,-8512.368333,0.000000
3322.604195,-2294.638420,-7994.224174,153.219100
3322.604523,-1776.494261,-7550.100608,-1455.581446
3322.604851,-370.102971,-6883.915261,-2221.676944
3322.605179,0.000000,-9252.574275,229.828649
3322.605507,1110.308913,-9474.636058,995.924147
3322.605835,1628.453072,-10066.800811,1225.752797
3322.606163,2590.720797,-10955.047942,76.609550
3322.606490,4367.215058,-10584.944971,-2068.457845
3322.606818,3034.844362,-11843.295072,-1685.410096
3322.607146,1406.391290,-10732.986159,0.000000
3322.607474,-370.102971,-10436.903782,153.219100
3322.607802,-296.082377,-9844.739029,-1455.581446
3322.608130,-592.164754,-10140.821405,-1915.238745
3322.608458,370.102971,-10214.842000,-2298.286494
3322.608786,222.061783,-9474.636058,-1149.143247
3322.609114,1036.288319,-10214.842000,-306.438199
3322.609442,2294.638420,-8882.471304,-689.485948
3322.609770,2886.803174,-9622.677246,-689.485948
3322.610097,2442.679609,-10584.944971,306.438199
3322.610425,4737.318029,-11103.089130,919.314598
3322.610753,4663.297435,-9030.512492,76.609550
3322.611081,2886.803174,-10881.027347,153.219100
3322.611409,2368.659014,-15100.201217,459.657299
3322.611737,1332.370696,-10732.986159,-919.314598
3322.612065,2072.576638,-9622.677246,-1685.410096
3322.612393,2442.679609,-10362.883188,-1455.581446
3322.612721,1110.308913,-9770.718434,306.438199
3322.613049,518.144159,-9400.615463,2374.896044
3322.613376,222.061783,-5847.626942,2298.286494
3322.613704,814.226536,-7328.038826,306.438199
3322.614032,296.082377,-7402.059420,995.924147
3322.614360,814.226536,-7846.182985,2604.724693
3322.614687,888.247130,-7402.059420,2068.457845
3322.615015,962.267725,-7254.018232,306.438199
3322.615343,0.000000,-10288.862594,919.314598
3322.615670,592.164754,-11695.253884,612.876398
3322.615998,-518.144159,-11621.233289,0.000000
3322.616325,-1776.494261,-11103.089130,-995.924147
3322.616653,-2442.679609,-10436.903782,-2374.896044
3322.616981,-3256.906145,-9622.677246,-1455.581446
3322.617308,-1628.453072,-9030.512492,-919.314598
3322.617636,-444.123565,-7328.038826,689.485948
3322.617963,-444.123565,-7105.977043,1225.752797
3322.618291,-1776.494261,-9770.718434,2681.334243
3322.618618,-518.144159,-8290.306550,-383.047749
3322.618946,-518.144159,-8068.244768,-2221.676944
3322.619274,-1776.494261,-10955.047942,-766.095498
3322.619601,-1036.288319,-10658.965565,-766.095498
3322.619929,814.226536,-11991.336260,-3217.601092
3322.620256,1036.288319,-11473.192101,-2604.724693
3322.620584,518.144159,-11769.274478,-2451.505594
3322.620912,-1036.288319,-12731.542202,-842.705048
3322.621239,-2220.617826,-12065.356855,-995.924147
3322.621567,-1110.308913,-10807.006753,-1532.190996
3322.621894,-1184.329507,-7698.141797,-2604.724693
3322.622222,-3182.885551,-8956.491898,0.000000
3322.622549,-2146.597232,-7846.182985,383.047749
3322.622877,-296.082377,-6217.729913,-459.657299
3322.623205,-962.267725,-9104.533087,153.219100
3322.623532,-592.164754,-9178.553681,0.000000
3322.623860,222.061783,-9400.615463,-842.705048
3322.624187,1332.370696,-9622.677246,-1072.533697
3322.624515,2442.679609,-12065.356855,306.438199
3322.624843,2442.679609,-10807.006753,0.000000
3322.625170,2738.761985,-9548.656652,76.609550
3322.625498,1628.453072,-10362.883188,1072.533697
3322.625825,1110.308913,-9548.656652,842.705048
3322.626153,0.000000,-7994.224174,919.314598
3322.626480,1628.453072,-7624.121203,0.000000
3322.626808,2368.659014,-7994.224174,-1915.238745
3322.627136,222.061783,-8882.471304,536.266849
3322.627463,74.020594,-6883.915261,1608.800546
3322.627791,1998.556043,-7254.018232,383.047749
3322.628118,3256.906145,-9104.533087,0.000000
3322.628446,2886.803174,-11843.295072,1225.752797
3322.628774,2294.638420,-11547.212695,1455.581446
3322.629101,2368.659014,-11029.068536,-536.266849
3322.629429,3108.864956,-12361.439231,-1991.848295
3322.629756,814.226536,-11843.295072,-919.314598
3322.630084,-444.123565,-10510.924376,383.047749
3322.630411,-888.247130,-8882.471304,383.047749
3322.630739,-370.102971,-10732.986159,-459.657299
3322.631067,-222.061783,-10658.965565,-2298.286494
3322.631394,-222.061783,-9696.697840,-2298.286494
3322.631722,0.000000,-8290.306550,-1302.362347
3322.632049,1332.370696,-7624.121203,-842.705048
3322.632377,0.000000,-10732.986159,2145.067394
3322.632705,888.247130,-11177.109724,2681.334243
3322.633032,1924.535449,-8956.491898,0.000000
3322.633360,1332.370696,-10362.883188,-1149.143247
3322.633687,-518.144159,-10807.006753,-1149.143247
3322.634015,-518.144159,-10732.986159,-766.095498
3322.634342,-296.082377,-10436.903782,-766.095498
3322.634670,-1554.432478,-9030.512492,-153.219100
3322.634998,-1924.535449,-8586.388927,1072.533697
3322.635325,-1332.370696,-8290.306550,1532.190996
3322.635653,-2072.576638,-7920.203579,1915.238745
3322.635980,-2072.576638,-7402.059420,306.438199
3322.636308,-3108.864956,-7328.038826,-383.047749
3322.636636,-3182.885551,-7920.203579,-459.657299
3322.636963,-1258.350101,-7846.182985,612.876398
3322.637291,1258.350101,-7105.977043,0.000000
3322.637618,-370.102971,-9548.656652,842.705048
3322.637946,-888.247130,-12583.501014,766.095498
3322.638273,222.061783,-11621.233289,-1991.848295
3322.638601,0.000000,-12657.521608,-2298.286494
3322.638929,-1258.350101,-12805.562797,-1225.752797
3322.639256,-1110.308913,-11325.150913,-1072.533697
3322.639584,-814.226536,-9844.739029,-306.438199
3322.639911,518.144159,-8364.327145,-1455.581446
3322.640239,-148.041188,-7846.182985,-766.095498
3322.640567,0.000000,-6735.874072,536.266849
3322.640894,592.164754,-8290.306550,612.876398
3322.641222,2368.659014,-9474.636058,766.095498
3322.641549,1776.494261,-11325.150913,306.438199
3322.641877,370.102971,-12361.439231,153.219100
3322.642204,1258.350101,-11399.171507,-2298.286494
3322.642532,1184.329507,-11843.295072,-4366.744339
3322.642860,0.000000,-14434.015869,-2068.457845
3322.643187,-296.082377,-11547.212695,-459.657299
3322.643515,1998.556043,-8882.471304,-612.876398
3322.643842,1776.494261,-9252.574275,-459.657299
3322.644170,222.061783,-9770.718434,919.314598
3322.644498,148.041188,-7328.038826,1225.752797
3322.644825,592.164754,-5625.565159,536.266849
3322.645153,1332.370696,-7105.977043,612.876398
3322.645480,1480.411884,-7772.162391,1302.362347
3322.645808,1110.308913,-8068.244768,2374.896044
3322.646135,2368.659014,-9252.574275,2451.505594
3322.646463,3478.967927,-10881.027347,-306.438199
3322.646791,2442.679609,-11621.233289,-1072.533697
3322.647118,962.267725,-10214.842000,0.000000
3322.647446,444.123565,-9104.533087,153.219100
3322.647773,592.164754,-10658.965565,-229.828649
3322.648101,-296.082377,-10510.924376,612.876398
3322.648429,666.185348,-8364.327145,0.000000
3322.648756,0.000000,-7846.182985,0.000000
3322.649084,0.000000,-9622.677246,689.485948
3322.649411,-592.164754,-9400.615463,0.000000
3322.649739,74.020594,-8068.244768,-229.828649
3322.650066,1850.514855,-7254.018232,-1455.581446
3322.650394,888.247130,-10510.924376,459.657299
3322.650722,-592.164754,-11621.233289,1072.533697
3322.651049,-888.247130,-11177.109724,-995.924147
3322.651377,0.000000,-10140.821405,-2681.334243
3322.651704,1110.308913,-10140.821405,-3447.429741
3322.652032,-1776.494261,-12213.398043,76.609550
3322.652360,-2220.617826,-12435.459826,2374.896044
3322.652687,0.000000,-9474.636058,-1072.533697
3322.653015,518.144159,-9178.553681,-3217.601092
3322.653342,-1406.391290,-9104.533087,-1455.581446
3322.653670,-1184.329507,-10066.800811,766.095498
3322.653997,-296.082377,-7031.956449,1149.143247
3322.654325,-296.082377,-7254.018232,1072.533697
3322.654653,-1628.453072,-9474.636058,1991.848295
3322.654980,-814.226536,-9400.615463,1378.971896
3322.655308,-962.267725,-9178.553681,1378.971896
3322.655635,-1332.370696,-10140.821405,-919.314598
3322.655963,-1480.411884,-10214.842000,-1838.629195
3322.656291,-592.164754,-8956.491898,-2145.067394
3322.656618,1258.350101,-8660.409521,-306.438199
3322.656946,1110.308913,-8142.265362,-153.219100
3322.657273,-444.123565,-9178.553681,1455.581446
3322.657601,-296.082377,-10658.965565,1302.362347
3322.657928,1924.535449,-9992.780217,-1378.971896
3322.658256,1628.453072,-10510.924376,-766.095498
3322.658584,148.041188,-10140.821405,1225.752797
3322.658911,1480.411884,-10214.842000,766.095498
3322.659239,2738.761985,-8142.265362,-766.095498
3322.659566,2368.659014,-7550.100608,-1991.848295
3322.659894,222.061783,-9474.636058,76.609550
3322.660222,-444.123565,-9326.594869,919.314598
3322.660549,1184.329507,-9548.656652,-459.657299
3322.660877,3034.844362,-10510.924376,-1685.410096
3322.661204,2368.659014,-14359.995275,-1149.143247
3322.661532,888.247130,-12953.603985,459.657299
3322.661860,1480.411884,-8882.471304,-1838.629195
3322.662187,1998.556043,-11029.068536,-2757.943793
3322.662515,518.144159,-11621.233289,-1991.848295
3322.662842,0.000000,-9178.553681,-383.047749
3322.663170,0.000000,-7328.038826,1302.362347
3322.663497,0.000000,-7698.141797,-306.438199
3322.663825,0.000000,-10436.903782,76.609550
3322.664153,1110.308913,-9030.512492,-383.047749
3322.664480,1036.288319,-9178.553681,-612.876398
3322.664808,814.226536,-11177.109724,-153.219100
3322.665135,1554.432478,-10584.944971,459.657299
3322.665463,2368.659014,-9104.533087,1225.752797
3322.665791,2960.823768,-9474.636058,383.047749
3322.666118,814.226536,-10362.883188,919.314598
3322.666446,-74.020594,-8512.368333,1225.752797
3322.666773,-1850.514855,-6883.915261,153.219100
3322.667101,-1332.370696,-7698.141797,-1378.971896
3322.667428,-2442.679609,-9104.533087,-766.095498
3322.667756,-2146.597232,-10584.944971,612.876398
3322.668084,-1554.432478,-8364.327145,229.828649
3322.668411,296.082377,-10066.800811,-536.266849
3322.668739,592.164754,-10510.924376,-1302.362347
3322.669066,814.226536,-10066.800811,0.000000
3322.669394,0.000000,-8882.471304,1455.581446
3322.669722,0.000000,-9844.739029,842.705048
3322.670049,-1406.391290,-10658.965565,0.000000
3322.670377,-1702.473667,-9326.594869,-766.095498
3322.670704,-1036.288319,-8734.430116,-2451.505594
3322.671032,-962.267725,-9918.759623,-1762.019645
3322.671359,-592.164754,-11177.109724,-459.657299
3322.671687,814.226536,-11991.336260,536.266849
3322.672015,1406.391290,-10214.842000,-536.266849
3322.672342,1258.350101,-10436.903782,-1072.533697
3322.672670,-592.164754,-10066.800811,-459.657299
3322.672997,-370.102971,-9696.697840,-612.876398
3322.673325,-888.247130,-9030.512492,-229.828649
3322.673653,-592.164754,-8586.388927,-995.924147
3322.673980,-962.267725,-9252.574275,766.095498
3322.674308,1184.329507,-10288.862594,919.314598
3322.674635,2960.823768,-11547.212695,459.657299
3322.674963,3182.885551,-9400.615463,0.000000
3322.675290,592.164754,-9400.615463,0.000000
3322.675618,-666.185348,-9104.533087,383.047749
3322.675946,-518.144159,-7328.038826,0.000000
3322.676273,592.164754,-7254.018232,-153.219100
3322.676601,-296.082377,-7254.018232,306.438199
3322.676928,-888.247130,-9696.697840,1302.362347
3322.677256,740.205942,-10732.986159,0.000000
3322.677584,2960.823768,-11029.068536,-1378.971896
3322.677911,3701.029710,-11473.192101,-842.705048
3322.678239,3256.906145,-10214.842000,0.000000
3322.678566,2516.700203,-10066.800811,612.876398
3322.678894,2442.679609,-10066.800811,-153.219100
3322.679221,1776.494261,-8882.471304,-1378.971896
3322.679549,2220.617826,-9622.677246,-229.828649
3322.679877,1554.432478,-9030.512492,0.000000
3322.680204,1480.411884,-9622.677246,383.047749
3322.680532,666.185348,-9770.718434,1072.533697
3322.680859,592.164754,-9844.739029,0.000000
3322.681187,1702.473667,-9474.636058,-1302.362347
3322.681515,3108.864956,-10066.800811,-2145.067394
3322.681842,2590.720797,-13027.624579,-229.828649
3322.682170,740.205942,-12065.356855,1302.362347
3322.682497,0.000000,-9548.656652,0.000000
3322.682825,-2294.638420,-9770.718434,-2451.505594
3322.683152,-3849.070898,-11325.150913,-2374.896044
3322.683480,-3775.050304,-9474.636058,-1532.190996
3322.683808,-2368.659014,-8956.491898,-1149.143247
3322.684135,-2146.597232,-8734.430116,-689.485948
3322.684463,-1554.432478,-8290.306550,-459.657299
3322.684790,0.000000,-8660.409521,689.485948
3322.685118,1110.308913,-9178.553681,1532.190996
3322.685446,518.144159,-9474.636058,919.314598
3322.685773,0.000000,-9252.574275,306.438199
3322.686101,-1406.391290,-8586.388927,842.705048
3322.686428,-592.164754,-9474.636058,459.657299
3322.686756,0.000000,-10510.924376,229.828649
3322.687083,-1702.473667,-12139.377449,459.657299
3322.687411,-1480.411884,-9992.780217,0.000000
3322.687739,-518.144159,-8734.430116,-2374.896044
3322.688066,-1480.411884,-9696.697840,-1149.143247
3322.688394,-814.226536,-9030.512492,153.219100
3322.688721,-370.102971,-7105.977043,0.000000
3322.689049,-1998.556043,-8438.347739,2145.067394
3322.689377,-1850.514855,-10362.883188,1378.971896
3322.689704,-148.041188,-9548.656652,-1685.410096
3322.690032,740.205942,-9326.594869,-2681.334243
3322.690359,2072.576638,-10807.006753,-2451.505594
3322.690687,2220.617826,-11103.089130,-919.314598
3322.691014,1924.535449,-12065.356855,2145.067394
3322.691342,1850.514855,-10584.944971,995.924147
3322.691670,2516.700203,-10584.944971,-1378.971896
3322.691997,518.144159,-10510.924376,-1838.629195
3322.692325,-444.123565,-9474.636058,-1378.971896
3322.692652,-296.082377,-8660.409521,-459.657299
3322.692980,-296.082377,-8660.409521,0.000000
3322.693308,0.000000,-8882.471304,1149.143247
3322.693635,2368.659014,-8512.368333,919.314598
3322.693963,3775.050304,-9178.553681,0.000000
3322.694290,2960.823768,-11769.274478,919.314598
3322.694618,2590.720797,-9918.759623,689.485948
3322.694945,1850.514855,-9474.636058,0.000000
3322.695273,1924.535449,-9770.718434,995.924147
3322.695601,3108.864956,-8364.327145,383.047749
3322.695928,1480.411884,-9548.656652,995.924147
3322.696256,-1406.391290,-10955.047942,1378.971896
3322.696583,-814.226536,-10214.842000,-1378.971896
3322.696911,814.226536,-8734.430116,-3677.258390
3322.697239,666.185348,-9178.553681,-1378.971896
3322.697566,1332.370696,-9918.759623,919.314598
3322.697894,1332.370696,-8364.327145,2374.896044
3322.698221,2960.823768,-8808.450710,1225.752797
3322.698549,2960.823768,-9992.780217,-459.657299
3322.698876,666.185348,-10658.965565,-229.828649
3322.699204,-962.267725,-10436.903782,1149.143247
3322.699532,0.000000,-9326.594869,0.000000
3322.699859,1332.370696,-9844.739029,-1991.848295
3322.700187,296.082377,-11325.150913,-612.876398
3322.700514,-370.102971,-10955.047942,612.876398
3322.700842,666.185348,-10140.821405,0.000000
3322.701170,0.000000,-11547.212695,-995.924147
3322.701497,-1480.411884,-11695.253884,-995.924147
3322.701825,-2590.720797,-8660.409521,-1302.362347
3322.702152,-3478.967927,-7698.141797,-689.485948
3322.702480,-3256.906145,-9770.718434,-995.924147
3322.702807,-2368.659014,-10066.800811,-306.438199
3322.703135,-1332.370696,-9178.553681,-383.047749
3322.703463,-1258.350101,-9104.533087,-383.047749
3322.703790,-1776.494261,-9696.697840,-383.047749
3322.704118,-2368.659014,-10140.821405,76.609550
3322.704445,-518.144159,-9770.718434,-459.657299
3322.704773,148.041188,-9400.615463,-1072.533697
3322.705101,1110.308913,-10510.924376,-1072.533697
3322.705428,0.000000,-10436.903782,383.047749
3322.705756,148.041188,-9548.656652,1532.190996
3322.706083,888.247130,-8216.285956,229.828649
3322.706411,518.144159,-9548.656652,0.000000
3322.706738,-666.185348,-9548.656652,766.095498
3322.707066,-296.082377,-6365.771101,76.609550
3322.707394,-1110.308913,-7105.977043,-995.924147
3322.707721,-444.123565,-10066.800811,-229.828649
3322.708049,-370.102971,-9844.739029,-766.095498
3322.708376,-1258.350101,-9770.718434,306.438199
3322.708704,-1480.411884,-11399.171507,-383.047749
3322.709032,0.000000,-11621.233289,-2757.943793
3322.709359,1258.350101,-10214.842000,-3600.648841
3322.709687,3478.967927,-10955.047942,-2145.067394
3322.710014,3627.009116,-10362.883188,842.705048
3322.710342,3256.906145,-10436.903782,3217.601092
3322.710670,3108.864956,-9326.594869,2757.943793
3322.710997,2738.761985,-9326.594869,0.000000
3322.711325,1036.288319,-9326.594869,-995.924147
3322.711652,222.061783,-8734.430116,-1608.800546
3322.711980,-444.123565,-8808.450710,-1225.752797
3322.712307,444.123565,-10214.842000,-995.924147
3322.712635,1480.411884,-10732.986159,-689.485948
3322.712963,2368.659014,-10362.883188,229.828649
3322.713290,1924.535449,-9844.739029,0.000000
3322.713618,2442.679609,-10881.027347,-229.828649
3322.713945,2590.720797,-10807.006753,383.047749
3322.714273,2220.617826,-9400.615463,536.266849
3322.714601,1406.391290,-8512.368333,1149.143247
3322.714928,2072.576638,-8290.306550,1685.410096
3322.715256,1480.411884,-8512.368333,1991.848295
3322.715583,-666.185348,-10362.883188,1532.190996
3322.715911,-1998.556043,-9326.594869,-1378.971896
3322.716238,-1110.308913,-8956.491898,-2681.334243
3322.716566,-740.205942,-9918.759623,-2451.505594
3322.716893,-888.247130,-10214.842000,689.485948
3322.717221,666.185348,-9178.553681,1685.410096
3322.717548,2220.617826,-9326.594869,1302.362347
3322.717876,2072.576638,-11029.068536,1302.362347
3322.718203,444.123565,-11251.130318,766.095498
3322.718531,370.102971,-9622.677246,76.609550
3322.718858,222.061783,-7994.224174,-919.314598
3322.719186,0.000000,-10066.800811,-689.485948
3322.719513,-1850.514855,-9770.718434,-536.266849
3322.719841,-1406.391290,-9474.636058,0.000000
3322.720168,-370.102971,-9252.574275,-1149.143247
3322.720496,148.041188,-10066.800811,-1608.800546
3322.720823,-962.267725,-11991.336260,689.485948
3322.721151,-444.123565,-9474.636058,0.000000
3322.721478,-370.102971,-7624.121203,-995.924147
3322.721806,-1184.329507,-8734.430116,-229.828649
3322.722133,-2146.597232,-10584.944971,306.438199
3322.722461,-1332.370696,-9770.718434,689.485948
3322.722788,-666.185348,-8290.306550,-919.314598
3322.723116,-2368.659014,-9104.533087,-919.314598
3322.723444,-2516.700203,-10510.924376,-1149.143247
3322.723771,-1036.288319,-9770.718434,-1762.019645
3322.724099,0.000000,-10140.821405,-1685.410096
3322.724426,296.082377,-10362.883188,-1072.533697
3322.724754,1036.288319,-10214.842000,153.219100
3322.725081,1184.329507,-9030.512492,383.047749
3322.725409,1184.329507,-9178.553681,995.924147
3322.725736,1258.350101,-8660.409521,1685.410096
3322.726064,148.041188,-10066.800811,1838.629195
3322.726391,148.041188,-9622.677246,-153.219100
3322.726719,222.061783,-8142.265362,-1838.629195
3322.727046,0.000000,-9474.636058,-1225.752797
3322.727374,0.000000,-11029.068536,306.438199
3322.727701,-888.247130,-10732.986159,306.438199
3322.728029,296.082377,-10955.047942,-1455.581446
3322.728356,296.082377,-12139.377449,-2451.505594
3322.728684,962.267725,-10436.903782,-2298.286494
3322.729011,2886.803174,-8956.491898,-1762.019645
3322.729339,2442.679609,-10140.821405,1072.533697
3322.729666,2516.700203,-11103.089130,3140.991542
3322.729994,2368.659014,-8290.306550,2298.286494
3322.730321,1998.556043,-8438.347739,306.438199
3322.730649,-296.082377,-9178.553681,153.219100
3322.730976,370.102971,-8512.368333,-766.095498
3322.731304,518.144159,-7772.162391,-1072.533697
3322.731631,592.164754,-9844.739029,-612.876398
3322.731959,1258.350101,-10881.027347,0.000000
3322.732286,1702.473667,-9400.615463,612.876398
3322.732614,1850.514855,-9992.780217,1302.362347
3322.732941,2516.700203,-10140.821405,-306.438199
3322.733269,1850.514855,-10584.944971,0.000000
3322.733596,962.267725,-10140.821405,383.047749
3322.733924,1332.370696,-8734.430116,76.609550
3322.734251,2590.720797,-7624.121203,153.219100
3322.734579,3108.864956,-8364.327145,1455.581446
3322.734906,592.164754,-9770.718434,2528.115143
3322.735234,-2368.659014,-9992.780217,-306.438199
3322.735561,-3627.009116,-9474.636058,-2451.505594
3322.735889,-888.247130,-9252.574275,-3907.087040
3322.736216,518.144159,-10881.027347,-2374.896044
3322.736544,296.082377,-11769.274478,1455.581446
3322.736871,2072.576638,-9548.656652,1915.238745
3322.737199,2812.782580,-9326.594869,0.000000
3322.737526,1406.391290,-11103.089130,-536.266849
3322.737854,-888.247130,-9992.780217,-229.828649
3322.738181,-1702.473667,-8068.244768,-766.095498
3322.738509,-2220.617826,-8364.327145,-1991.848295
3322.738836,-1850.514855,-10658.965565,-1915.238745
3322.739164,-962.267725,-11399.171507,-1762.019645
3322.739491,222.061783,-11547.212695,-459.657299
3322.739819,666.185348,-11769.274478,-766.095498
3322.740147,518.144159,-11325.150913,-1302.362347
3322.740474,-296.082377,-10658.965565,-689.485948
3322.740802,-814.226536,-8364.327145,-995.924147
3322.741129,-740.205942,-7772.162391,-536.266849
3322.741457,-1628.453072,-8142.265362,919.314598
3322.741784,-1702.473667,-9474.636058,1608.800546
3322.742112,-740.205942,-9400.615463,919.314598
3322.742439,-740.205942,-9104.533087,-1225.752797
3322.742767,-1850.514855,-9252.574275,-1532.190996
3322.743094,-1998.556043,-9622.677246,-1302.362347
3322.743422,0.000000,-9548.656652,-1532.190996
3322.743749,2368.659014,-9770.718434,-919.314598
3322.744077,2294.638420,-10584.944971,842.705048
3322.744404,1036.288319,-10066.800811,2068.457845
3322.744732,0.000000,-8290.306550,1762.019645
3322.745059,888.247130,-7772.162391,995.924147
3322.745387,74.020594,-8882.471304,0.000000
3322.745714,-888.247130,-10658.965565,76.609550
3322.746042,-444.123565,-8512.368333,-689.485948
3322.746369,444.123565,-8808.450710,-1072.533697
3322.746697,962.267725,-11103.089130,-229.828649
3322.747024,1702.473667,-9918.759623,0.000000
3322.747352,592.164754,-10066.800811,766.095498
3322.747679,148.041188,-11325.150913,76.609550
3322.748007,74.020594,-11621.233289,-1915.238745
3322.748334,222.061783,-10288.862594,-2834.553343
3322.748662,1406.391290,-9030.512492,-2451.505594
3322.748989,1480.411884,-9030.512492,689.485948
3322.749317,1184.329507,-9474.636058,2145.067394
3322.749644,1924.535449,-11399.171507,919.314598
3322.749972,3404.947333,-11251.130318,-1378.971896
3322.750299,1628.453072,-9474.636058,-2145.067394
3322.750627,666.185348,-9252.574275,-842.705048
3322.750954,0.000000,-9252.574275,0.000000
3322.751282,-148.041188,-9400.615463,0.000000
3322.751609,592.164754,-8956.491898,383.047749
3322.751937,962.267725,-9770.718434,612.876398
3322.752264,1628.453072,-9918.759623,842.705048
3322.752592,1406.391290,-9474.636058,612.876398
3322.752919,666.185348,-9474.636058,383.047749
3322.753247,-296.082377,-8808.450710,-229.828649
3322.753574,962.267725,-8808.450710,76.609550
3322.753902,2516.700203,-8068.244768,-306.438199
3322.754229,2368.659014,-7402.059420,842.705048
3322.754557,518.144159,-9474.636058,2221.676944
3322.754884,-1628.453072,-10214.842000,1685.410096
3322.755212,-1554.432478,-10584.944971,0.000000
3322.755539,-1924.535449,-9474.636058,-1915.238745
3322.755867,-1110.308913,-8956.491898,-2757.943793
3322.756195,-1036.288319,-9030.512492,-766.095498
3322.756522,148.041188,-9400.615463,0.000000
3322.756850,1480.411884,-9178.553681,306.438199
3322.757177,666.185348,-9474.636058,229.828649
3322.757505,-1332.370696,-9696.697840,842.705048
3322.757832,-962.267725,-9770.718434,229.828649
3322.758160,-296.082377,-10807.006753,-1455.581446
3322.758487,222.061783,-11547.212695,-1532.190996
3322.758815,296.082377,-11917.315666,-919.314598
3322.759142,1554.432478,-11399.171507,-306.438199
3322.759470,1850.514855,-10658.965565,-766.095498
3322.759797,814.226536,-10436.903782,0.000000
3322.760125,-222.061783,-9474.636058,-919.314598
3322.760452,-814.226536,-8882.471304,-612.876398
3322.760780,-444.123565,-9326.594869,-612.876398
3322.761107,-814.226536,-8734.430116,-612.876398
3322.761435,-1554.432478,-9252.574275,306.438199
3322.761762,-888.247130,-10658.965565,0.000000
3322.762090,0.000000,-10732.986159,-766.095498
3322.762417,814.226536,-9252.574275,-1532.190996
3322.762745,0.000000,-7920.203579,-1378.971896
3322.763072,-148.041188,-9622.677246,76.609550
3322.763400,666.185348,-9326.594869,612.876398
3322.763727,-74.020594,-8734.430116,1378.971896
3322.764055,-222.061783,-9252.574275,1149.143247
3322.764382,592.164754,-9548.656652,76.609550
3322.764710,814.226536,-9474.636058,-229.828649
3322.765037,518.144159,-9474.636058,76.609550
3322.765365,-592.164754,-9844.739029,689.485948
3322.765692,1332.370696,-9252.574275,-306.438199
3322.766020,1184.329507,-9326.594869,-306.438199
3322.766347,666.185348,-9844.739029,-459.657299
3322.766675,-1036.288319,-8142.265362,1149.143247
3322.767002,-1184.329507,-9474.636058,919.314598
3322.767330,-814.226536,-10510.924376,-1532.190996
3322.767657,0.000000,-11177.109724,-2757.943793
3322.767985,1332.370696,-9770.718434,-1532.190996
3322.768312,1776.494261,-10214.842000,-383.047749
3322.768640,2294.638420,-11473.192101,1225.752797
3322.768967,2738.761985,-10584.944971,1225.752797
3322.769295,2886.803174,-10214.842000,-229.828649
3322.769622,1110.308913,-10658.965565,-459.657299
3322.769950,0.000000,-9252.574275,76.609550
3322.770277,-592.164754,-7550.100608,-1149.143247
3322.770605,-592.164754,-8364.327145,-766.095498
3322.770932,-666.185348,-10362.883188,229.828649
3322.771260,370.102971,-9770.718434,612.876398
3322.771587,1332.370696,-9474.636058,0.000000
3322.771915,2294.638420,-10066.800811,-536.266849
3322.772243,1258.350101,-10510.924376,-306.438199
3322.772570,666.185348,-9992.780217,536.266849
3322.772898,0.000000,-8808.450710,0.000000
3322.773225,1332.370696,-9326.594869,229.828649
3322.773553,3108.864956,-8438.347739,689.485948
3322.773880,1776.494261,-8068.244768,2221.676944
3322.774208,-962.267725,-10288.862594,3140.991542
3322.774535,-2368.659014,-10066.800811,612.876398
3322.774863,-666.185348,-9696.697840,-2221.676944
3322.775190,-518.144159,-9104.533087,-3140.991542
3322.775518,-1702.473667,-9474.636058,-995.924147
3322.775845,-1110.308913,-8068.244768,1991.848295
3322.776173,148.041188,-8068.244768,1378.971896
3322.776500,1480.411884,-10066.800811,459.657299
3322.776828,222.061783,-10881.027347,0.000000
3322.777155,-296.082377,-9252.574275,76.609550
3322.777483,518.144159,-10214.842000,-459.657299
3322.777810,-148.041188,-12139.377449,-229.828649
3322.778138,296.082377,-10510.924376,-1302.362347
3322.778465,592.164754,-10214.842000,-766.095498
3322.778793,1850.514855,-10658.965565,-919.314598
3322.779120,0.000000,-10436.903782,306.438199
3322.779448,-888.247130,-10881.027347,0.000000
3322.779775,-666.185348,-8068.244768,-1378.971896
3322.780103,-740.205942,-9400.615463,-1838.629195
3322.780430,-518.144159,-9548.656652,-995.924147
3322.780758,-1258.350101,-9104.533087,919.314598
3322.781085,0.000000,-10288.862594,306.438199
3322.781413,1258.350101,-10510.924376,-1532.190996
3322.781740,740.205942,-11325.150913,-459.657299
3322.782068,74.020594,-9622.677246,383.047749
3322.782395,-222.061783,-8438.347739,0.000000
3322.782723,-222.061783,-9400.615463,-229.828649
3322.783050,-222.061783,-8808.450710,229.828649
3322.783378,74.020594,-9326.594869,-612.876398
3322.783705,592.164754,-9474.636058,-383.047749
3322.784033,222.061783,-9326.594869,383.047749
3322.784360,1702.473667,-9252.574275,306.438199
3322.784688,1850.514855,-10732.986159,612.876398
3322.785015,666.185348,-10214.842000,1378.971896
3322.785343,444.123565,-6661.853478,0.000000
3322.785670,148.041188,-7994.224174,-536.266849
3322.785998,592.164754,-9622.677246,-383.047749
3322.786325,-888.247130,-9178.553681,306.438199
3322.786653,-1924.535449,-8586.388927,766.095498
3322.786980,-1702.473667,-10362.883188,-1455.581446
3322.787308,0.000000,-13101.645173,-3600.648841
3322.787635,1332.370696,-10584.944971,-3753.867940
3322.787963,1776.494261,-9844.739029,-1149.143247
3322.788290,2664.741391,-10510.924376,612.876398
3322.788618,2072.576638,-11177.109724,2604.724693
3322.788946,2072.576638,-9770.718434,2068.457845
3322.789273,2146.597232,-8586.388927,0.000000
3322.789601,148.041188,-9548.656652,-1302.362347
3322.789928,-1258.350101,-9326.594869,-1455.581446
3322.790256,-1554.432478,-9178.553681,-995.924147
3322.790583,0.000000,-8808.450710,-766.095498
3322.790911,1036.288319,-10066.800811,-383.047749
3322.791238,1406.391290,-11621.233289,1149.143247
3322.791566,1850.514855,-10955.047942,383.047749
3322.791893,1924.535449,-10288.862594,-229.828649
3322.792221,1628.453072,-9326.594869,-689.485948
3322.792548,518.144159,-8660.409521,0.000000
3322.792876,370.102971,-8882.471304,1302.362347
3322.793203,1776.494261,-7846.182985,2298.286494
3322.793531,2664.741391,-7698.141797,1685.410096
3322.793858,296.082377,-9252.574275,1225.752797
3322.794186,-2072.576638,-11325.150913,459.657299
3322.794513,-1776.494261,-10584.944971,-995.924147
3322.794841,-962.267725,-8660.409521,-3447.429741
3322.795168,-2368.659014,-8586.388927,-1838.629195
3322.795496,-1332.370696,-9622.677246,-383.047749
3322.795823,148.041188,-9178.553681,1149.143247
3322.796151,1184.329507,-8956.491898,612.876398
3322.796478,444.123565,-9770.718434,-536.266849
3322.796806,1036.288319,-9474.636058,-612.876398
3322.797133,740.205942,-9474.636058,459.657299
3322.797461,518.144159,-10584.944971,766.095498
3322.797788,74.020594,-10807.006753,0.000000
3322.798116,518.144159,-11325.150913,-995.924147
3322.798443,1036.288319,-10807.006753,-1915.238745
3322.798771,888.247130,-11251.130318,-1838.629195
3322.799098,-518.144159,-9992.780217,0.000000
3322.799426,-888.247130,-8586.388927,-383.047749
3322.799753,0.000000,-8512.368333,-766.095498
3322.800081,592.164754,-9918.759623,-689.485948
3322.800408,518.144159,-10214.842000,0.000000
3322.800736,0.000000,-9844.739029,383.047749
3322.801063,-1110.308913,-9918.759623,-229.828649
3322.801391,-518.144159,-10955.047942,-612.876398
3322.801718,-518.144159,-9918.759623,-1608.800546
3322.802046,-370.102971,-9252.574275,-689.485948
3322.802373,0.000000,-9696.697840,0.000000
3322.802701,814.226536,-10140.821405,-689.485948
3322.803028,1776.494261,-9252.574275,-919.314598
3322.803356,1480.411884,-8438.347739,153.219100
3322.803683,1258.350101,-9474.636058,2298.286494
3322.804011,74.020594,-8956.491898,1838.629195
3322.804338,296.082377,-9474.636058,689.485948
3322.804666,296.082377,-8438.347739,-536.266849
3322.804994,-592.164754,-8068.244768,-383.047749
3322.805321,518.144159,-9030.512492,76.609550
3322.805649,-740.205942,-9104.533087,1608.800546
3322.805976,-2072.576638,-8808.450710,383.047749
3322.806304,-1332.370696,-9622.677246,-2221.676944
3322.806631,0.000000,-11251.130318,-3983.696590
3322.806959,814.226536,-10288.862594,-2604.724693
3322.807286,1850.514855,-9770.718434,-1072.533697
3322.807614,1554.432478,-11473.192101,1838.629195
3322.807941,2220.617826,-11029.068536,2528.115143
3322.808269,2664.741391,-8808.450710,536.266849
3322.808596,1702.473667,-9030.512492,-306.438199
3322.808924,-814.226536,-9844.739029,0.000000
3322.809251,74.020594,-9030.512492,-1532.190996
3322.809579,444.123565,-8290.306550,-2451.505594
3322.809906,0.000000,-9918.759623,-842.705048
3322.810234,222.061783,-10436.903782,1149.143247
3322.810561,222.061783,-10214.842000,1838.629195
3322.810889,1776.494261,-11251.130318,-306.438199
3322.811216,1036.288319,-12139.377449,-1685.410096
3322.811544,592.164754,-10732.986159,-1608.800546
3322.811871,0.000000,-9474.636058,-1225.752797
3322.812199,1110.308913,-8586.388927,153.219100
3322.812526,3627.009116,-7698.141797,459.657299
3322.812854,2368.659014,-8364.327145,2298.286494
3322.813181,0.000000,-10140.821405,2757.943793
3322.813509,-1850.514855,-9918.759623,0.000000
3322.813836,-962.267725,-10807.006753,-2145.067394
3322.814164,-592.164754,-9918.759623,-2451.505594
3322.814491,-1702.473667,-9326.594869,-1072.533697
3322.814819,-2368.659014,-9548.656652,1685.410096
3322.815146,-1332.370696,-8364.327145,536.266849
3322.815474,740.205942,-8216.285956,-689.485948
3322.815801,1110.308913,-9400.615463,-306.438199
3322.816129,-888.247130,-9030.512492,1072.533697
3322.816456,-1332.370696,-8512.368333,1149.143247
3322.816784,-888.247130,-9030.512492,-383.047749
3322.817111,74.020594,-11103.089130,-689.485948
3322.817439,1110.308913,-11399.171507,-995.924147
3322.817767,1998.556043,-10658.965565,-459.657299
3322.818094,1850.514855,-11547.212695,0.000000
3322.818422,1332.370696,-11843.295072,-306.438199
3322.818750,1110.308913,-9474.636058,-995.924147
3322.819077,222.061783,-7846.182985,-612.876398
3322.819405,74.020594,-8142.265362,-306.438199
3322.819733,-296.082377,-9326.594869,536.266849
3322.820060,592.164754,-10066.800811,459.657299
3322.820388,2220.617826,-10658.965565,-459.657299
3322.820715,518.144159,-10881.027347,-1302.362347
3322.821043,0.000000,-11103.089130,-766.095498
3322.821371,74.020594,-9918.759623,-919.314598
3322.821698,1924.535449,-9326.594869,-1378.971896
3322.822026,2146.597232,-9178.553681,-2528.115143
3322.822354,1258.350101,-10214.842000,306.438199
3322.822681,1628.453072,-9252.574275,1378.971896
3322.823009,1702.473667,-9400.615463,1378.971896
3322.823337,1406.391290,-10732.986159,689.485948
3322.823664,0.000000,-9548.656652,-229.828649
3322.823992,-1110.308913,-8586.388927,-919.314598
3322.824320,-1332.370696,-8512.368333,-995.924147
3322.824647,-518.144159,-8660.409521,-306.438199
3322.824975,1998.556043,-9622.677246,-689.485948
3322.825302,0.000000,-9400.615463,1072.533697
3322.825630,-1406.391290,-10288.862594,2068.457845
3322.825958,-1924.535449,-9400.615463,-536.266849
3322.826285,-2368.659014,-10140.821405,-2834.553343
3322.826613,-1184.329507,-9622.677246,-2068.457845
3322.826941,518.144159,-9252.574275,-1378.971896
3322.827268,888.247130,-10881.027347,1532.190996
3322.827596,962.267725,-11029.068536,2987.772442
3322.827924,2220.617826,-9844.739029,1072.533697
3322.828251,2368.659014,-9696.697840,-1378.971896
3322.828579,-444.123565,-10214.842000,0.000000
3322.828907,-1332.370696,-7772.162391,-459.657299
3322.829234,-1258.350101,-6587.832884,-1225.752797
3322.829562,-444.123565,-9400.615463,76.609550
3322.829889,0.000000,-9770.718434,1225.752797
3322.830217,518.144159,-10807.006753,1455.581446
3322.830545,444.123565,-11325.150913,153.219100
3322.830872,518.144159,-10955.047942,-1762.019645
3322.831200,814.226536,-8808.450710,-3064.381992
3322.831528,148.041188,-8660.409521,-1685.410096
3322.831855,1480.411884,-9696.697840,689.485948
3322.832183,3627.009116,-9030.512492,2068.457845
3322.832511,2442.679609,-9326.594869,2451.505594
3322.832838,444.123565,-11251.130318,1532.190996
3322.833166,-1554.432478,-10807.006753,-612.876398
3322.833494,-962.267725,-9992.780217,-2374.896044
3322.833821,-1036.288319,-9622.677246,-2221.676944
3322.834149,-740.205942,-8956.491898,-1838.629195
3322.834476,222.061783,-8586.388927,-842.705048
3322.834804,0.000000,-9474.636058,1149.143247
3322.835132,888.247130,-9548.656652,1072.533697
3322.835459,222.061783,-8512.368333,-459.657299
3322.835787,-592.164754,-8438.347739,76.609550
3322.836115,-962.267725,-8882.471304,-459.657299
3322.836442,1110.308913,-10658.965565,-536.266849
3322.836770,1184.329507,-11769.274478,229.828649
3322.837098,1628.453072,-11547.212695,383.047749
3322.837425,3034.844362,-9992.780217,-383.047749
3322.837753,2220.617826,-10140.821405,-995.924147
3322.838081,592.164754,-10362.883188,612.876398
3322.838408,0.000000,-7624.121203,-612.876398
3322.838736,-518.144159,-7105.977043,0.000000
3322.839063,296.082377,-9178.553681,306.438199
3322.839391,0.000000,-10658.965565,153.219100
3322.839719,0.000000,-10066.800811,459.657299
3322.840046,-444.123565,-9770.718434,-153.219100
3322.840374,592.164754,-11029.068536,-2221.676944
3322.840702,1554.432478,-9548.656652,-1915.238745
3322.841029,1998.556043,-9696.697840,-153.219100
3322.841357,1406.391290,-9252.574275,1685.410096
3322.841685,444.123565,-9696.697840,1072.533697
3322.842012,0.000000,-10066.800811,612.876398
3322.842340,74.020594,-9252.574275,-1072.533697
3322.842668,-592.164754,-9844.739029,0.000000
3322.842995,0.000000,-10362.883188,383.047749
3322.843323,-222.061783,-9992.780217,-306.438199
3322.843650,296.082377,-10140.821405,-1302.362347
3322.843978,74.020594,-9548.656652,-1149.143247
3322.844306,518.144159,-9844.739029,919.314598
3322.844633,148.041188,-8216.285956,1915.238745
3322.844961,-2072.576638,-7846.182985,1762.019645
3322.845289,-3182.885551,-8808.450710,-383.047749
3322.845616,-3256.906145,-9474.636058,-2451.505594
3322.845944,-1924.535449,-9918.759623,-2528.115143
3322.846272,-444.123565,-10066.800811,-1915.238745
3322.846599,518.144159,-10732.986159,-536.266849
3322.846927,2368.659014,-11843.295072,536.266849
3322.847255,2294.638420,-11325.150913,1225.752797
3322.847582,2294.638420,-10362.883188,-229.828649
3322.847910,148.041188,-9548.656652,842.705048
3322.848237,-1110.308913,-7624.121203,-229.828649
3322.848565,-1332.370696,-7031.956449,-919.314598
3322.848893,-1036.288319,-8512.368333,-766.095498
3322.849220,0.000000,-10140.821405,0.000000
3322.849548,0.000000,-9992.780217,1072.533697
3322.849876,2442.679609,-10436.903782,-1072.533697
3322.850203,1628.453072,-9696.697840,-1149.143247
3322.850531,1036.288319,-10066.800811,-1378.971896
3322.850859,0.000000,-9030.512492,-612.876398
3322.851186,962.267725,-9326.594869,-383.047749
3322.851514,3997.112087,-9400.615463,0.000000
3322.851842,4367.215058,-9622.677246,1991.848295
3322.852169,2516.700203,-9844.739029,3753.867940
3322.852497,-1110.308913,-10732.986159,1608.800546
3322.852824,-1110.308913,-9474.636058,-2221.676944
3322.853152,518.144159,-8512.368333,-4290.134789
3322.853480,0.000000,-9770.718434,-2451.505594
3322.853807,-592.164754,-9474.636058,766.095498
3322.854135,-370.102971,-8438.347739,1685.410096
3322.854463,1480.411884,-9326.594869,306.438199
3322.854790,1924.535449,-10732.986159,-229.828649
3322.855118,-222.061783,-9844.739029,0.000000
3322.855446,-1036.288319,-7920.203579,0.000000
3322.855773,0.000000,-10066.800811,-995.924147
3322.856101,1776.494261,-11473.192101,-1225.752797
3322.856429,2664.741391,-10436.903782,76.609550
3322.856756,2146.597232,-10436.903782,2374.896044
3322.857084,666.185348,-9918.759623,2221.676944
3322.857412,296.082377,-10584.944971,-919.314598
3322.857739,-666.185348,-9696.697840,-2451.505594
3322.858067,-1702.473667,-8142.265362,-2681.334243
3322.858394,-1110.308913,-8216.285956,-766.095498
3322.858722,-222.061783,-10436.903782,1608.800546
3322.859050,0.000000,-10881.027347,1685.410096
3322.859377,1998.556043,-9622.677246,0.000000
3322.859705,0.000000,-10658.965565,-1072.533697
3322.860033,-1110.308913,-10881.027347,-766.095498
3322.860360,-1702.473667,-9252.574275,-1378.971896
3322.860688,-1628.453072,-8142.265362,-612.876398
3322.861016,-962.267725,-7920.203579,-306.438199
3322.861343,-1110.308913,-8882.471304,536.266849
3322.861671,-222.061783,-10288.862594,766.095498
3322.861999,-222.061783,-10881.027347,0.000000
3322.862326,1258.350101,-9770.718434,-1225.752797
3322.862654,888.247130,-9696.697840,-1378.971896
3322.862981,-592.164754,-9844.739029,306.438199
3322.863309,-222.061783,-9178.553681,536.266849
3322.863637,0.000000,-8882.471304,689.485948
3322.863964,1628.453072,-9844.739029,-612.876398
3322.864292,222.061783,-8956.491898,0.000000
3322.864620,-1184.329507,-9400.615463,459.657299
3322.864947,-1480.411884,-10288.862594,-229.828649
3322.865275,-1406.391290,-10584.944971,-1455.581446
3322.865603,518.144159,-9474.636058,-2451.505594
3322.865930,370.102971,-9918.759623,-995.924147
3322.866258,740.205942,-10140.821405,1225.752797
3322.866586,1480.411884,-10066.800811,995.924147
3322.866913,1110.308913,-10214.842000,919.314598
3322.867241,518.144159,-9844.739029,995.924147
3322.867568,-740.205942,-9252.574275,0.000000
3322.867896,-1110.308913,-9030.512492,-612.876398
3322.868224,-2072.576638,-8734.430116,-1991.848295
3322.868551,444.123565,-9844.739029,-2068.457845
3322.868879,2294.638420,-10807.006753,-842.705048
3322.869207,1554.432478,-11473.192101,1762.019645
3322.869534,2442.679609,-9918.759623,1532.190996
3322.869862,1998.556043,-9326.594869,-459.657299
3322.870190,148.041188,-10288.862594,-383.047749
3322.870517,0.000000,-8216.285956,-842.705048
3322.870845,-222.061783,-7179.997637,-383.047749
3322.871173,148.041188,-8586.388927,612.876398
3322.871500,1332.370696,-10140.821405,1302.362347
3322.871828,2812.782580,-10140.821405,995.924147
3322.872155,2072.576638,-9992.780217,153.219100
3322.872483,1554.432478,-9696.697840,-306.438199
3322.872811,0.000000,-9474.636058,-919.314598
3322.873138,-1924.535449,-8808.450710,-1225.752797
3322.873466,222.061783,-7698.141797,-766.095498
3322.873794,1850.514855,-7994.224174,1072.533697
3322.874121,1702.473667,-8734.430116,3140.991542
3322.874449,370.102971,-10658.965565,2451.505594
3322.874777,296.082377,-11029.068536,-995.924147
3322.875104,1702.473667,-11325.150913,-4673.182538
3322.875432,1776.494261,-10658.965565,-2451.505594
3322.875760,666.185348,-9696.697840,-689.485948
3322.876087,0.000000,-9622.677246,1532.190996
3322.876415,1110.308913,-10436.903782,1608.800546
3322.876742,1628.453072,-10066.800811,-459.657299
3322.877070,518.144159,-10436.903782,-995.924147
3322.877398,-1554.432478,-9474.636058,-612.876398
3322.877725,-2220.617826,-8142.265362,-1149.143247
3322.878053,-296.082377,-10288.862594,-919.314598
3322.878381,814.226536,-11325.150913,-459.657299
3322.878708,592.164754,-10140.821405,536.266849
3322.879036,444.123565,-9844.739029,306.438199
3322.879364,-592.164754,-9992.780217,-229.828649
3322.879691,0.000000,-11029.068536,-1608.800546
3322.880019,-1554.432478,-8734.430116,-1915.238745
3322.880347,-1850.514855,-7550.100608,-1378.971896
3322.880674,-1850.514855,-9104.533087,-612.876398
3322.881002,-592.164754,-10436.903782,536.266849
3322.881329,1110.308913,-9770.718434,0.000000
3322.881657,1628.453072,-10732.986159,-229.828649
3322.881985,296.082377,-9992.780217,0.000000
3322.882312,-222.061783,-8808.450710,-229.828649
3322.882640,-370.102971,-8660.409521,766.095498
3322.882968,592.164754,-8142.265362,383.047749
3322.883295,-1036.288319,-8660.409521,919.314598
3322.883623,-962.267725,-8882.471304,689.485948
3322.883951,-1628.453072,-7698.141797,-383.047749
3322.884278,148.041188,-9474.636058,-1608.800546
3322.884606,222.061783,-10732.986159,-1532.190996
3322.884934,0.000000,-10807.006753,-689.485948
3322.885261,296.082377,-9474.636058,153.219100
3322.885589,444.123565,-10066.800811,0.000000
3322.885916,888.247130,-10362.883188,0.000000
3322.886244,1036.288319,-8956.491898,612.876398
3322.886572,0.000000,-8808.450710,1915.238745
3322.886899,-1406.391290,-10658.965565,612.876398
3322.887227,-962.267725,-10214.842000,-1838.629195
3322.887555,0.000000,-8734.430116,-3064.381992
3322.887882,1184.329507,-10510.924376,-1991.848295
3322.888210,1776.494261,-11843.295072,536.266849
3322.888538,444.123565,-11325.150913,2374.896044
3322.888865,1480.411884,-8956.491898,383.047749
3322.889193,2072.576638,-9326.594869,-1532.190996
3322.889521,296.082377,-10362.883188,-536.266849
3322.889848,-592.164754,-9178.553681,919.314598
3322.890176,-666.185348,-8142.265362,0.000000
3322.890503,1110.308913,-8438.347739,-1532.190996
3322.890831,1924.535449,-10066.800811,-842.705048
3322.891159,2072.576638,-10732.986159,1915.238745
3322.891486,1554.432478,-10140.821405,1838.629195
3322.891814,962.267725,-10436.903782,459.657299
3322.892142,1258.350101,-9992.780217,-995.924147
3322.892469,74.020594,-8956.491898,-1302.362347
3322.892797,0.000000,-8216.285956,612.876398
3322.893125,518.144159,-6513.812290,766.095498
3322.893452,74.020594,-8734.430116,919.314598
3322.893780,370.102971,-10584.944971,689.485948
3322.894108,1554.432478,-10807.006753,-766.095498
3322.894435,1628.453072,-10140.821405,-842.705048
3322.894763,962.267725,-10140.821405,-766.095498
3322.895090,0.000000,-10510.924376,-689.485948
3322.895418,740.205942,-9400.615463,-1915.238745
3322.895746,222.061783,-9252.574275,0.000000
3322.896073,592.164754,-10807.006753,2068.457845
3322.896401,-592.164754,-10288.862594,995.924147
3322.896729,444.123565,-9252.574275,-306.438199
3322.897056,1184.329507,-9104.533087,-1762.019645
3322.897384,740.205942,-11325.150913,-383.047749
3322.897712,-518.144159,-10881.027347,919.314598
3322.898039,0.000000,-9474.636058,0.000000
3322.898367,1110.308913,-9178.553681,-919.314598
3322.898695,-518.144159,-11029.068536,-689.485948
3322.899022,-1480.411884,-11029.068536,76.609550
3322.899350,-1554.432478,-9030.512492,-383.047749
3322.899677,-666.185348,-8734.430116,-1762.019645
3322.900005,148.041188,-10584.944971,-919.314598
3322.900333,296.082377,-11177.109724,-689.485948
3322.900660,444.123565,-9326.594869,459.657299
3322.900988,1036.288319,-9548.656652,0.000000
3322.901316,370.102971,-10436.903782,0.000000
3322.901643,-518.144159,-8216.285956,-536.266849
3322.901971,-1110.308913,-8438.347739,612.876398
3322.902299,-740.205942,-9844.739029,1302.362347
3322.902626,-1258.350101,-9252.574275,306.438199
3322.902954,74.020594,-9474.636058,0.000000
3322.903282,666.185348,-8808.450710,-842.705048
3322.903609,0.000000,-9770.718434,306.438199
3322.903937,-592.164754,-9474.636058,766.095498
3322.904264,-888.247130,-9252.574275,0.000000
3322.904592,-370.102971,-9030.512492,-1302.362347
3322.904920,148.041188,-10807.006753,-689.485948
3322.905247,0.000000,-10140.821405,1302.362347
3322.905575,444.123565,-9326.594869,459.657299
3322.905903,0.000000,-9400.615463,0.000000
3322.906230,-222.061783,-11177.109724,-766.095498
3322.906558,-296.082377,-10436.903782,-1915.238745
3322.906886,370.102971,-9326.594869,-1915.238745
3322.907213,1406.391290,-9400.615463,-1455.581446
3322.907541,2072.576638,-10140.821405,842.705048
3322.907869,2146.597232,-11399.171507,2451.505594
3322.908196,1480.411884,-10214.842000,1608.800546
3322.908524,2220.617826,-9474.636058,-766.095498
3322.908852,74.020594,-9400.615463,-1302.362347
3322.909179,-444.123565,-9104.533087,-1378.971896
3322.909507,0.000000,-8142.265362,-1608.800546
3322.909834,444.123565,-8290.306550,-1072.533697
3322.910162,666.185348,-9696.697840,689.485948
3322.910490,1332.370696,-11251.130318,1455.581446
3322.910817,2960.823768,-10658.965565,459.657299
3322.911145,1776.494261,-10955.047942,-306.438199
3322.911473,740.205942,-9844.739029,-612.876398
3322.911800,-444.123565,-9104.533087,-1378.971896
3322.912128,-962.267725,-7772.162391,-689.485948
3322.912456,1776.494261,-6661.853478,-306.438199
3322.912783,814.226536,-8290.306550,842.705048
3322.913111,0.000000,-11399.171507,2374.896044
3322.913439,666.185348,-10732.986159,76.609550
3322.913766,1850.514855,-10066.800811,-2911.162892
3322.914094,962.267725,-10140.821405,-1762.019645
3322.914421,-740.205942,-10510.924376,0.000000
3322.914749,370.102971,-9474.636058,306.438199
3322.915077,1036.288319,-9178.553681,0.000000
3322.915404,1850.514855,-10288.862594,0.000000
3322.915732,888.247130,-10362.883188,76.609550
3322.916060,0.000000,-9030.512492,689.485948
3322.916388,74.020594,-8364.327145,229.828649
3322.916715,-740.205942,-9474.636058,-842.705048
3322.917043,-296.082377,-10732.986159,-383.047749
3322.917371,-740.205942,-9696.697840,-995.924147
3322.917698,0.000000,-10140.821405,-1225.752797
3322.918026,-592.164754,-11177.109724,-919.314598
3322.918354,-814.226536,-11029.068536,-689.485948
3322.918681,222.061783,-9030.512492,-766.095498
3322.919009,74.020594,-7846.182985,0.000000
3322.919337,296.082377,-10140.821405,383.047749
3322.919665,-814.226536,-10214.842000,1072.533697
3322.919992,-740.205942,-8956.491898,76.609550
3322.920320,222.061783,-9474.636058,-1072.533697
3322.920648,-888.247130,-10658.965565,0.000000
3322.920975,0.000000,-9400.615463,-689.485948
3322.921303,0.000000,-9474.636058,-536.266849
3322.921631,666.185348,-10214.842000,-766.095498
3322.921959,592.164754,-9622.677246,-383.047749
3322.922286,-148.041188,-8216.285956,459.657299
3322.922614,0.000000,-8438.347739,1225.752797
3322.922942,-740.205942,-9400.615463,919.314598
3322.923269,-296.082377,-9622.677246,0.000000
3322.923597,-666.185348,-8956.491898,-1378.971896
3322.923925,0.000000,-9696.697840,-1149.143247
3322.924253,592.164754,-10807.006753,0.000000
3322.924580,0.000000,-10436.903782,0.000000
3322.924908,1036.288319,-8808.450710,-995.924147
3322.925236,-444.123565,-9252.574275,-153.219100
3322.925563,0.000000,-12583.501014,536.266849
3322.925891,296.082377,-10584.944971,-459.657299
3322.926219,-370.102971,-8586.388927,-995.924147
3322.926547,1628.453072,-8734.430116,-1378.971896
3322.926874,1850.514855,-11473.192101,153.219100
3322.927202,1554.432478,-12139.377449,2834.553343
3322.927530,1332.370696,-9474.636058,919.314598
3322.927857,1480.411884,-8660.409521,-1072.533697
3322.928185,74.020594,-9474.636058,-1915.238745
3322.928513,-148.041188,-9474.636058,-1225.752797
3322.928841,-222.061783,-8882.471304,-612.876398
3322.929168,-148.041188,-8882.471304,0.000000
3322.929496,814.226536,-9548.656652,383.047749
3322.929824,1554.432478,-9474.636058,1225.752797
3322.930151,2294.638420,-10436.903782,766.095498
3322.930479,1702.473667,-10288.862594,1072.533697
3322.930807,1406.391290,-9844.739029,-229.828649
3322.931134,1332.370696,-8290.306550,-1149.143247
3322.931462,888.247130,-7254.018232,-306.438199
3322.931790,888.247130,-7031.956449,1302.362347
3322.932118,0.000000,-8586.388927,2145.067394
3322.932445,-1924.535449,-11251.130318,2221.676944
3322.932773,0.000000,-10881.027347,-1762.019645
3322.933101,-222.061783,-9178.553681,-3370.820191
3322.933428,148.041188,-10066.800811,-1532.190996
3322.933756,-666.185348,-10214.842000,0.000000
3322.934084,592.164754,-9992.780217,306.438199
3322.934412,3182.885551,-9474.636058,-229.828649
3322.934739,2442.679609,-11103.089130,-306.438199
3322.935067,370.102971,-11103.089130,1455.581446
3322.935395,-1258.350101,-8438.347739,612.876398
3322.935722,-1110.308913,-8512.368333,-536.266849
3322.936050,-592.164754,-9992.780217,-1762.019645
3322.936378,-1850.514855,-10066.800811,-766.095498
3322.936706,-370.102971,-9696.697840,0.000000
3322.937033,444.123565,-10066.800811,-459.657299
3322.937361,1924.535449,-11177.109724,-919.314598
3322.937689,888.247130,-11029.068536,-459.657299
3322.938016,-444.123565,-9474.636058,612.876398
3322.938344,-444.123565,-8512.368333,459.657299
3322.938672,-1184.329507,-8364.327145,-229.828649
3322.939000,-740.205942,-9400.615463,0.000000
3322.939327,0.000000,-10658.965565,766.095498
3322.939655,444.123565,-10436.903782,459.657299
3322.939983,-962.267725,-9622.677246,-919.314598
3322.940310,-1184.329507,-9474.636058,-1302.362347
3322.940638,1258.350101,-9992.780217,-1991.848295
3322.940966,1184.329507,-10436.903782,0.000000
3322.941294,2146.597232,-10066.800811,1915.238745
3322.941621,370.102971,-8512.368333,1532.190996
3322.941949,222.061783,-9030.512492,2374.896044
3322.942277,444.123565,-9474.636058,1225.752797
3322.942604,-592.164754,-9252.574275,229.828649
3322.942932,-1110.308913,-8660.409521,-306.438199
3322.943260,-1554.432478,-8290.306550,-2451.505594
3322.943588,74.020594,-9178.553681,-2451.505594
3322.943915,1036.288319,-10807.006753,-1762.019645
3322.944243,666.185348,-10732.986159,842.705048
3322.944571,1480.411884,-10436.903782,1378.971896
3322.944898,0.000000,-8956.491898,1072.533697
3322.945226,-962.267725,-9474.636058,919.314598
3322.945554,-1850.514855,-8660.409521,-459.657299
3322.945881,-222.061783,-7994.224174,-1991.848295
3322.946209,148.041188,-8882.471304,-2911.162892
3322.946537,1406.391290,-10214.842000,-1225.752797
3322.946865,2072.576638,-11029.068536,229.828649
3322.947192,2072.576638,-10955.047942,612.876398
3322.947520,1998.556043,-10066.800811,0.000000
3322.947848,1110.308913,-10288.862594,-1302.362347
3322.948175,-592.164754,-11103.089130,-306.438199
3322.948503,-370.102971,-9992.780217,-766.095498
3322.948831,0.000000,-8142.265362,0.000000
3322.949159,518.144159,-8586.388927,76.609550
3322.949486,370.102971,-10066.800811,153.219100
3322.949814,1184.329507,-10066.800811,76.609550
3322.950142,1998.556043,-9178.553681,-842.705048
3322.950469,2368.659014,-11029.068536,-383.047749
3322.950797,2294.638420,-10807.006753,0.000000
3322.951125,-518.144159,-8142.265362,1608.800546
3322.951453,0.000000,-7846.182985,1838.629195
3322.951780,222.061783,-8142.265362,689.485948
3322.952108,-1036.288319,-9696.697840,689.485948
3322.952436,-1776.494261,-10066.800811,-383.047749
3322.952763,-962.267725,-8438.347739,-2528.115143
3322.953091,1480.411884,-9548.656652,-2911.162892
3322.953419,1406.391290,-9696.697840,-1072.533697
3322.953747,1110.308913,-10362.883188,995.924147
3322.954074,518.144159,-9918.759623,2145.067394
3322.954402,518.144159,-10362.883188,1302.362347
3322.954730,148.041188,-10362.883188,-383.047749
3322.955057,-592.164754,-9400.615463,-1302.362347
3322.955385,-1702.473667,-8364.327145,-766.095498
3322.955713,-1036.288319,-8438.347739,-919.314598
3322.956041,518.144159,-9548.656652,-1149.143247
3322.956368,592.164754,-11325.150913,-689.485948
3322.956696,962.267725,-10584.944971,-536.266849
3322.957024,1332.370696,-11177.109724,0.000000
3322.957351,222.061783,-11695.253884,1072.533697
3322.957679,74.020594,-9252.574275,153.219100
3322.958007,-1406.391290,-8660.409521,-1608.800546
3322.958335,-1184.329507,-9474.636058,-612.876398
3322.958662,-444.123565,-10658.965565,-919.314598
3322.958990,-666.185348,-10732.986159,-1149.143247
3322.959318,962.267725,-10066.800811,-1302.362347
3322.959645,962.267725,-10140.821405,-1838.629195
3322.959973,962.267725,-9918.759623,76.609550
3322.960301,740.205942,-9696.697840,1149.143247
3322.960628,1776.494261,-9548.656652,689.485948
3322.960956,666.185348,-9918.759623,842.705048
3322.961284,-666.185348,-8956.491898,842.705048
3322.961612,-444.123565,-8364.327145,766.095498
3322.961939,-518.144159,-7846.182985,-153.219100
3322.962267,-148.041188,-9030.512492,-919.314598
3322.962595,-518.144159,-9844.739029,-383.047749
3322.962922,666.185348,-9696.697840,-536.266849
3322.963250,1628.453072,-9030.512492,-842.705048
3322.963578,370.102971,-10140.821405,383.047749
3322.963906,370.102971,-10584.944971,1149.143247
3322.964233,148.041188,-9252.574275,1608.800546
3322.964561,-370.102971,-10066.800811,919.314598
3322.964889,-1258.350101,-10584.944971,-1302.362347
3322.965216,-1776.494261,-8660.409521,-2145.067394
3322.965544,1332.370696,-8438.347739,-2451.505594
3322.965872,2146.597232,-9844.739029,-1302.362347
3322.966200,1850.514855,-12139.377449,2068.457845
3322.966527,1628.453072,-9918.759623,1455.581446
3322.966855,1554.432478,-9400.615463,0.000000
3322.967183,1110.308913,-10362.883188,-995.924147
3322.967510,148.041188,-10214.842000,-842.705048
3322.967838,-1628.453072,-8660.409521,153.219100
3322.968166,-962.267725,-8512.368333,-766.095498
3322.968494,518.144159,-8660.409521,-2298.286494
3322.968821,1776.494261,-10807.006753,-1149.143247
3322.969149,1850.514855,-11325.150913,229.828649
3322.969477,2368.659014,-11029.068536,306.438199
3322.969804,592.164754,-9622.677246,-459.657299
3322.970132,888.247130,-10214.842000,-689.485948
3322.970460,740.205942,-9400.615463,-536.266849
3322.970788,666.185348,-8956.491898,1915.238745
3322.971115,888.247130,-8216.285956,2681.334243
3322.971443,-1036.288319,-9400.615463,1532.190996
3322.971771,-592.164754,-10214.842000,-1072.533697
3322.972098,-444.123565,-9548.656652,-4519.963438
3322.972426,-222.061783,-9548.656652,-2068.457845
3322.972754,740.205942,-9696.697840,-459.657299
3322.973081,370.102971,-10288.862594,842.705048
3322.973409,1702.473667,-9474.636058,1762.019645
3322.973737,1480.411884,-9770.718434,153.219100
3322.974065,814.226536,-11621.233289,1225.752797
3322.974392,-1480.411884,-10066.800811,306.438199
3322.974720,-740.205942,-6883.915261,-2145.067394
3322.975048,666.185348,-7920.203579,-2068.457845
3322.975375,0.000000,-10807.006753,-153.219100
3322.975703,740.205942,-10658.965565,1608.800546
3322.976031,814.226536,-9178.553681,1072.533697
3322.976359,1036.288319,-9252.574275,-229.828649
3322.976686,0.000000,-11695.253884,-766.095498
3322.977014,-1184.329507,-10732.986159,-689.485948
3322.977342,-1480.411884,-8068.244768,-766.095498
3322.977669,-1406.391290,-8808.450710,-1838.629195
3322.977997,814.226536,-10584.944971,-1149.143247
3322.978325,740.205942,-10881.027347,-306.438199
3322.978653,962.267725,-10214.842000,1532.190996
3322.978980,444.123565,-9474.636058,306.438199
3322.979308,-222.061783,-9844.739029,-689.485948
3322.979636,370.102971,-9030.512492,-1455.581446
3322.979963,148.041188,-9474.636058,-536.266849
3322.980291,148.041188,-9474.636058,1072.533697
3322.980619,296.082377,-9770.718434,229.828649
3322.980947,0.000000,-9178.553681,153.219100
3322.981274,1258.350101,-9844.739029,-1149.143247
3322.981602,666.185348,-10140.821405,-459.657299
3322.981930,666.185348,-10066.800811,1225.752797
3322.982257,296.082377,-8734.430116,229.828649
3322.982585,74.020594,-8438.347739,-689.485948
3322.982913,1850.514855,-10288.862594,-842.705048
3322.983241,222.061783,-9770.718434,383.047749
3322.983568,-888.247130,-9548.656652,2298.286494
3322.983896,-2812.782580,-9770.718434,-459.657299
3322.984224,-1776.494261,-10288.862594,-3140.991542
3322.984551,-814.226536,-9400.615463,-3983.696590
3322.984879,74.020594,-8808.450710,-1225.752797
3322.985207,1184.329507,-10436.903782,2221.676944
3322.985535,1406.391290,-11029.068536,3217.601092
3322.985862,3256.906145,-9918.759623,536.266849
3322.986190,962.267725,-10066.800811,-229.828649
3322.986518,-666.185348,-8956.491898,0.000000
3322.986845,-1258.350101,-7698.141797,-842.705048
3322.987173,-2072.576638,-8068.244768,-995.924147
3322.987501,-296.082377,-8142.265362,-1532.190996
3322.987828,-518.144159,-9548.656652,-153.219100
3322.988156,888.247130,-10584.944971,2145.067394
3322.988484,2516.700203,-10881.027347,153.219100
3322.988812,2368.659014,-11843.295072,-919.314598
3322.989139,1702.473667,-10510.924376,-842.705048
3322.989467,1184.329507,-8660.409521,-689.485948
3322.989795,1702.473667,-8882.471304,766.095498
3322.990122,1998.556043,-8068.244768,1838.629195
3322.990450,1628.453072,-7994.224174,2451.505594
3322.990778,-444.123565,-9770.718434,1455.581446
3322.991106,-666.185348,-10955.047942,-1915.238745
3322.991433,444.123565,-11177.109724,-3447.429741
3322.991761,-222.061783,-9474.636058,-2834.553343
3322.992089,740.205942,-9030.512492,-995.924147
3322.992416,222.061783,-9400.615463,0.000000
3322.992744,888.247130,-8734.430116,1455.581446
3322.993072,1554.432478,-11547.212695,1685.410096
3322.993400,74.020594,-12139.377449,1532.190996
3322.993727,370.102971,-9178.553681,-766.095498
3322.994055,0.000000,-7328.038826,-2221.676944
3322.994383,592.164754,-9474.636058,-1302.362347
3322.994710,-370.102971,-10658.965565,536.266849
3322.995038,-962.267725,-9622.677246,995.924147
3322.995366,518.144159,-8882.471304,-766.095498
3322.995694,148.041188,-10362.883188,-1685.410096
3322.996021,-370.102971,-12583.501014,0.000000
3322.996349,-1110.308913,-10362.883188,0.000000
3322.996677,-518.144159,-6661.853478,-842.705048
3322.997004,444.123565,-7772.162391,-2145.067394
3322.997332,0.000000,-11029.068536,306.438199
3322.997660,0.000000,-9770.718434,2068.457845
3322.997988,74.020594,-8290.306550,1378.971896
3322.998315,370.102971,-9622.677246,-229.828649
3322.998643,74.020594,-10510.924376,-766.095498
3322.998971,-296.082377,-9252.574275,-612.876398
3322.999298,0.000000,-9178.553681,-306.438199
3322.999626,-222.061783,-10214.842000,0.000000
3322.999954,1036.288319,-10140.821405,-1608.800546
3323.000281,296.082377,-10436.903782,-1378.971896
3323.000609,0.000000,-10732.986159,842.705048
3323.000937,1110.308913,-8808.450710,1149.143247
3323.001265,-518.144159,-8734.430116,1532.190996
3323.001592,296.082377,-9474.636058,0.000000
3323.001920,-518.144159,-9548.656652,-1302.362347
3323.002248,-296.082377,-9622.677246,-459.657299
3323.002575,-592.164754,-8586.388927,-383.047749
3323.002903,-1332.370696,-9178.553681,-536.266849
3323.003231,-962.267725,-10881.027347,-1532.190996
3323.003559,-1184.329507,-12657.521608,-1685.410096
3323.003886,518.144159,-11103.089130,-2451.505594
3323.004214,1628.453072,-9400.615463,-1991.848295
3323.004542,1776.494261,-10584.944971,919.314598
3323.004869,1776.494261,-10288.862594,2911.162892
3323.005197,1480.411884,-9030.512492,2068.457845
3323.005525,518.144159,-8364.327145,153.219100
3323.005853,-740.205942,-7550.100608,-1915.238745
3323.006180,518.144159,-8882.471304,-2298.286494
3323.006508,-444.123565,-8586.388927,-1378.971896
3323.006836,-222.061783,-9178.553681,383.047749
3323.007163,-592.164754,-9918.759623,1455.581446
3323.007491,1110.308913,-10732.986159,766.095498
3323.007819,3034.844362,-10881.027347,0.000000
3323.008147,2220.617826,-10584.944971,0.000000
3323.008474,2368.659014,-10362.883188,229.828649
3323.008802,962.267725,-8216.285956,0.000000
3323.009130,888.247130,-6513.812290,153.219100
3323.009457,2590.720797,-6957.935855,76.609550
3323.009785,1036.288319,-9030.512492,2221.676944
3323.010113,-740.205942,-11843.295072,3217.601092
3323.010441,-2664.741391,-10140.821405,-689.485948
3323.010768,-222.061783,-9992.780217,-3294.210641
3323.011096,666.185348,-10584.944971,-3217.601092
3323.011424,74.020594,-10732.986159,-459.657299
3323.011751,74.020594,-10140.821405,1455.581446
3323.012079,1036.288319,-9696.697840,229.828649
3323.012407,2220.617826,-8808.450710,-1302.362347
3323.012735,1184.329507,-10584.944971,-459.657299
3323.013062,-1258.350101,-9696.697840,1762.019645
3323.013390,-1332.370696,-7994.224174,766.095498
3323.013718,-1258.350101,-9622.677246,-995.924147
3323.014045,444.123565,-11769.274478,-1685.410096
3323.014373,666.185348,-10807.006753,-1302.362347
3323.014701,888.247130,-10362.883188,459.657299
3323.015028,444.123565,-10214.842000,0.000000
3323.015356,222.061783,-9400.615463,-1838.629195
3323.015684,-296.082377,-8364.327145,-2145.067394
3323.016012,-1776.494261,-8586.388927,536.266849
3323.016339,-222.061783,-9178.553681,1378.971896
3323.016667,0.000000,-10140.821405,689.485948
3323.016995,222.061783,-10658.965565,229.828649
3323.017322,592.164754,-10658.965565,-383.047749
3323.017650,-666.185348,-10288.862594,0.000000
3323.017978,0.000000,-9326.594869,-1378.971896
3323.018306,-1036.288319,-8438.347739,-2068.457845
3323.018633,-148.041188,-8586.388927,-1838.629195
3323.018961,0.000000,-9844.739029,-919.314598
3323.019289,-740.205942,-10362.883188,1455.581446
3323.019617,0.000000,-9474.636058,1915.238745
3323.019944,-296.082377,-9400.615463,1225.752797
3323.020272,740.205942,-9474.636058,0.000000
3323.020600,444.123565,-8364.327145,-1225.752797
3323.020928,-1036.288319,-9474.636058,229.828649
3323.021255,-1480.411884,-9844.739029,-229.828649
3323.021583,1258.350101,-9400.615463,-2145.067394
3323.021911,2146.597232,-8956.491898,-2528.115143
3323.022239,-740.205942,-11325.150913,536.266849
3323.022566,-1480.411884,-11843.295072,1455.581446
3323.022894,-370.102971,-9770.718434,-1838.629195
3323.023222,740.205942,-9252.574275,-3140.991542
3323.023549,666.185348,-9992.780217,-1378.971896
3323.023877,1036.288319,-10658.965565,1762.019645
3323.024205,2220.617826,-10362.883188,3217.601092
3323.024533,1332.370696,-9548.656652,459.657299
3323.024860,1258.350101,-8882.471304,-1838.629195
3323.025188,666.185348,-8512.368333,-1302.362347
3323.025516,-296.082377,-8438.347739,229.828649
3323.025844,74.020594,-9474.636058,766.095498
3323.026171,0.000000,-9178.553681,-229.828649
3323.026499,1110.308913,-9992.780217,153.219100
3323.026827,1702.473667,-10955.047942,689.485948
3323.027155,2664.741391,-10732.986159,1455.581446
3323.027482,2220.617826,-9992.780217,383.047749
3323.027810,1184.329507,-8734.430116,-995.924147
3323.028138,888.247130,-8290.306550,-995.924147
3323.028466,592.164754,-8808.450710,0.000000
3323.028793,2072.576638,-7994.224174,1762.019645
3323.029121,74.020594,-7328.038826,1838.629195
3323.029449,-2368.659014,-10436.903782,1762.019645
3323.029777,-1406.391290,-12805.562797,-1225.752797
3323.030104,74.020594,-10362.883188,-3217.601092
3323.030432,1998.556043,-9178.553681,-1608.800546
3323.030760,1776.494261,-9918.759623,-229.828649
3323.031087,1628.453072,-10510.924376,1455.581446
3323.031415,1850.514855,-10807.006753,995.924147
3323.031743,666.185348,-9400.615463,459.657299
3323.032071,-888.247130,-8586.388927,0.000000
3323.032398,-2812.782580,-8512.368333,-919.314598
3323.032726,-1332.370696,-9622.677246,-1302.362347
3323.033054,-444.123565,-11695.253884,-995.924147
3323.033382,1258.350101,-11917.315666,459.657299
3323.033709,740.205942,-10955.047942,766.095498
3323.034037,1110.308913,-9844.739029,-306.438199
3323.034365,1258.350101,-9474.636058,-1685.410096
3323.034693,-592.164754,-9696.697840,-383.047749
3323.035020,-1036.288319,-8586.388927,689.485948
3323.035348,-666.185348,-8660.409521,0.000000
3323.035676,-370.102971,-8660.409521,229.828649
3323.036004,-296.082377,-9474.636058,842.705048
3323.036331,-1332.370696,-10658.965565,1608.800546
3323.036659,888.247130,-11399.171507,0.000000
3323.036987,222.061783,-10732.986159,-2757.943793
3323.037314,296.082377,-8956.491898,-2681.334243
3323.037642,444.123565,-8142.265362,-1532.190996
3323.037970,0.000000,-10066.800811,229.828649
3323.038298,444.123565,-9178.553681,1762.019645
3323.038625,-962.267725,-8216.285956,1072.533697
3323.038953,-814.226536,-9326.594869,306.438199
3323.039281,296.082377,-9400.615463,-383.047749
3323.039609,74.020594,-8956.491898,0.000000
3323.039936,-296.082377,-9770.718434,459.657299
3323.040264,0.000000,-8586.388927,-1072.533697
3323.040592,1480.411884,-7698.141797,-3217.601092
3323.040920,370.102971,-10436.903782,-1149.143247
3323.041247,1036.288319,-11695.253884,459.657299
3323.041575,1850.514855,-10510.924376,-153.219100
3323.041903,0.000000,-9918.759623,1072.533697
3323.042231,-296.082377,-10436.903782,919.314598
3323.042558,-1702.473667,-10807.006753,0.000000
3323.042886,-740.205942,-9400.615463,-2374.896044
3323.043214,0.000000,-7846.182985,-2911.162892
3323.043541,296.082377,-9844.739029,-2451.505594
3323.043869,1924.535449,-11621.233289,229.828649
3323.044197,2442.679609,-11103.089130,1149.143247
3323.044525,1702.473667,-11029.068536,1915.238745
3323.044852,0.000000,-9474.636058,-383.047749
3323.045180,-370.102971,-8734.430116,-1378.971896
3323.045508,0.000000,-8808.450710,-1072.533697
3323.045836,74.020594,-8364.327145,-689.485948
3323.046163,-296.082377,-8882.471304,995.924147
3323.046491,0.000000,-8808.450710,1378.971896
3323.046819,2664.741391,-9844.739029,306.438199
3323.047147,3404.947333,-11177.109724,-306.438199
3323.047474,1628.453072,-10066.800811,229.828649
3323.047802,-1036.288319,-8586.388927,153.219100
3323.048130,-1332.370696,-7476.080014,-1149.143247
3323.048458,1406.391290,-9474.636058,-766.095498
3323.048785,1702.473667,-9252.574275,2145.067394
3323.049113,1480.411884,-7772.162391,3753.867940
3323.049441,-740.205942,-9992.780217,2298.286494
3323.049768,0.000000,-11325.150913,-1072.533697
3323.050096,1776.494261,-10288.862594,-3524.039291
3323.050424,444.123565,-9326.594869,-1302.362347
3323.050752,592.164754,-7994.224174,995.924147
3323.051079,-814.226536,-9992.780217,1685.410096
3323.051407,-666.185348,-11399.171507,536.266849
3323.051735,-296.082377,-10288.862594,-2221.676944
3323.052063,-1480.411884,-9104.533087,-1608.800546
3323.052390,-1776.494261,-8882.471304,-1225.752797
3323.052718,-1628.453072,-8956.491898,-1532.190996
3323.053046,1110.308913,-9918.759623,-1838.629195
3323.053374,2146.597232,-11029.068536,-1225.752797
3323.053701,1702.473667,-11843.295072,1378.971896
3323.054029,1702.473667,-11029.068536,2145.067394
3323.054357,740.205942,-10140.821405,-766.095498
3323.054685,0.000000,-9844.739029,-1685.410096
3323.055012,-1776.494261,-8882.471304,-1762.019645
3323.055340,-2220.617826,-9178.553681,-612.876398
3323.055668,-1554.432478,-9622.677246,153.219100
3323.055995,0.000000,-9992.780217,0.000000
3323.056323,1924.535449,-9770.718434,-536.266849
3323.056651,1776.494261,-11695.253884,229.828649
3323.056979,1554.432478,-11103.089130,153.219100
3323.057306,370.102971,-8438.347739,-383.047749
3323.057634,-740.205942,-7031.956449,-842.705048
3323.057962,-1628.453072,-9844.739029,-306.438199
3323.058290,-2294.638420,-10214.842000,1455.581446
3323.058617,-666.185348,-9400.615463,1149.143247
3323.058945,74.020594,-8660.409521,-459.657299
3323.059273,962.267725,-8438.347739,-1685.410096
3323.059601,1184.329507,-9474.636058,-383.047749
3323.059928,222.061783,-8956.491898,766.095498
3323.060256,740.205942,-9178.553681,153.219100
3323.060584,444.123565,-9178.553681,-229.828649
3323.060912,814.226536,-9474.636058,459.657299
3323.061239,1628.453072,-9696.697840,1225.752797
3323.061567,1776.494261,-9844.739029,1608.800546
3323.061895,-592.164754,-10807.006753,1378.971896
3323.062222,-888.247130,-10066.800811,-1762.019645
3323.062550,-222.061783,-8142.265362,-4443.353888
3323.062878,0.000000,-8882.471304,-3600.648841
3323.063206,444.123565,-11177.109724,612.876398
3323.063533,518.144159,-12065.356855,1991.848295
3323.063861,2072.576638,-10436.903782,-459.657299
3323.064189,2294.638420,-11473.192101,-919.314598
3323.064517,962.267725,-11325.150913,-229.828649
3323.064844,814.226536,-9178.553681,459.657299
3323.065172,-962.267725,-7698.141797,-766.095498
3323.065500,222.061783,-7550.100608,-1762.019645
3323.065828,444.123565,-8734.430116,-1149.143247
3323.066155,1036.288319,-10658.965565,1838.629195
3323.066483,1702.473667,-10066.800811,2221.676944
3323.066811,1924.535449,-11325.150913,0.000000
3323.067139,1628.453072,-11621.233289,-1225.752797
3323.067466,-370.102971,-9178.553681,-1685.410096
3323.067794,-666.185348,-7624.121203,76.609550
3323.068122,1554.432478,-8290.306550,995.924147
3323.068449,1258.350101,-7698.141797,1991.848295
3323.068777,518.144159,-9400.615463,1838.629195
3323.069105,-296.082377,-9992.780217,919.314598
3323.069433,1776.494261,-10436.903782,-536.266849
3323.069760,888.247130,-9252.574275,-306.438199
3323.070088,-222.061783,-8808.450710,0.000000
3323.070416,-962.267725,-8882.471304,-766.095498
3323.070744,-444.123565,-10436.903782,-306.438199
3323.071071,-1258.350101,-11103.089130,76.609550
3323.071399,-2220.617826,-9474.636058,-612.876398
3323.071727,-666.185348,-8216.285956,-1378.971896
3323.072055,222.061783,-8216.285956,-919.314598
3323.072382,592.164754,-9474.636058,383.047749
3323.072710,814.226536,-10807.006753,1149.143247
3323.073038,518.144159,-10881.027347,1072.533697
3323.073366,1480.411884,-10436.903782,-766.095498
3323.073693,370.102971,-10214.842000,-1685.410096
3323.074021,-962.267725,-9992.780217,-1225.752797
3323.074349,-1998.556043,-9844.739029,-919.314598
3323.074676,-1110.308913,-9474.636058,-1608.800546
3323.075004,1184.329507,-10807.006753,-1455.581446
3323.075332,962.267725,-9992.780217,0.000000
3323.075660,1332.370696,-8364.327145,1225.752797
3323.075987,0.000000,-9548.656652,995.924147
3323.076315,-296.082377,-11547.212695,-306.438199
3323.076643,888.247130,-9474.636058,-2298.286494
3323.076971,0.000000,-7624.121203,-1991.848295
3323.077298,-666.185348,-9918.759623,-306.438199
3323.077626,0.000000,-12065.356855,229.828649
3323.077954,-296.082377,-10436.903782,689.485948
3323.078282,666.185348,-9400.615463,-612.876398
3323.078609,666.185348,-8364.327145,-536.266849
3323.078937,222.061783,-8586.388927,153.219100
3323.079265,-370.102971,-8956.491898,919.314598
3323.079593,814.226536,-9844.739029,1072.533697
3323.079920,1480.411884,-8882.471304,-995.924147
3323.080248,518.144159,-9918.759623,-612.876398
3323.080576,0.000000,-10214.842000,919.314598
3323.080904,0.000000,-8142.265362,612.876398
3323.081231,666.185348,-8808.450710,-995.924147
3323.081559,-222.061783,-11399.171507,-1302.362347
3323.081887,-1036.288319,-10066.800811,-919.314598
3323.082214,-888.247130,-8142.265362,-1532.190996
3323.082542,296.082377,-9474.636058,-689.485948
3323.082870,1480.411884,-11843.295072,383.047749
3323.083198,1110.308913,-11103.089130,766.095498
3323.083525,1258.350101,-10510.924376,1302.362347
3323.083853,814.226536,-9992.780217,-306.438199
3323.084181,1480.411884,-8808.450710,-1378.971896
3323.084509,888.247130,-8068.244768,-1072.533697
3323.084836,-370.102971,-7772.162391,76.609550
3323.085164,-888.247130,-8142.265362,919.314598
3323.085492,-370.102971,-9622.677246,459.657299
3323.085820,1406.391290,-11103.089130,306.438199
3323.086147,2072.576638,-11843.295072,-153.219100
3323.086475,2146.597232,-11251.130318,536.266849
3323.086803,888.247130,-10436.903782,0.000000
3323.087131,-296.082377,-8068.244768,-995.924147
3323.087458,814.226536,-7402.059420,-1608.800546
3323.087786,1258.350101,-8290.306550,0.000000
3323.088114,962.267725,-8438.347739,2145.067394
3323.088441,296.082377,-11251.130318,2451.505594
3323.088769,-370.102971,-11695.253884,536.266849
3323.089097,1850.514855,-9918.759623,-2298.286494
3323.089425,814.226536,-9918.759623,-1838.629195
3323.089752,-370.102971,-10288.862594,153.219100
3323.090080,-1258.350101,-9770.718434,229.828649
3323.090408,-370.102971,-8882.471304,-842.705048
3323.090736,296.082377,-9252.574275,-1378.971896
3323.091063,-444.123565,-9104.533087,0.000000
3323.091391,-592.164754,-8438.347739,1991.848295
3323.091719,-1776.494261,-9104.533087,1762.019645
3323.092047,0.000000,-9474.636058,-306.438199
3323.092374,1036.288319,-11547.212695,-2374.896044
3323.092702,296.082377,-11917.315666,-1149.143247
3323.093030,814.226536,-10807.006753,383.047749
3323.093358,1110.308913,-9844.739029,-995.924147
3323.093685,1776.494261,-9474.636058,-1532.190996
3323.094013,-444.123565,-9326.594869,-459.657299
3323.094341,-1036.288319,-7920.203579,229.828649
3323.094668,-1110.308913,-7772.162391,383.047749
3323.094996,-1480.411884,-9400.615463,459.657299
3323.095324,296.082377,-9622.677246,0.000000
3323.095652,74.020594,-11325.150913,-306.438199
3323.095979,296.082377,-12361.439231,995.924147
3323.096307,666.185348,-10807.006753,-1838.629195
3323.096635,370.102971,-8438.347739,-2757.943793
3323.096963,1036.288319,-10214.842000,-3294.210641
3323.097290,-518.144159,-10955.047942,-1762.019645
3323.097618,-296.082377,-9178.553681,919.314598
3323.097946,-592.164754,-8660.409521,3064.381992
3323.098274,1036.288319,-8438.347739,1762.019645
3323.098601,2368.659014,-9548.656652,229.828649
3323.098929,-444.123565,-10066.800811,689.485948
3323.099257,0.000000,-9622.677246,153.219100
3323.099585,444.123565,-9030.512492,-1991.848295
3323.099912,1776.494261,-9030.512492,-3064.381992
3323.100240,1110.308913,-10584.944971,-689.485948
3323.100568,1702.473667,-9252.574275,1455.581446
3323.100895,2368.659014,-9770.718434,2451.505594
3323.101223,74.020594,-10955.047942,1838.629195
3323.101551,-296.082377,-9326.594869,-612.876398
3323.101879,-1258.350101,-8216.285956,-1762.019645
3323.102206,0.000000,-9030.512492,-306.438199
3323.102534,370.102971,-10807.006753,229.828649
3323.102862,222.061783,-10066.800811,-383.047749
3323.103190,1554.432478,-9770.718434,-1915.238745
3323.103517,814.226536,-10066.800811,-2221.676944
3323.103845,1480.411884,-8734.430116,-536.266849
3323.104173,0.000000,-8956.491898,536.266849
3323.104501,-148.041188,-8660.409521,1225.752797
3323.104828,518.144159,-8512.368333,689.485948
3323.105156,0.000000,-10140.821405,1455.581446
3323.105484,1702.473667,-10732.986159,1225.752797
3323.105812,1184.329507,-10436.903782,-612.876398
3323.106139,1628.453072,-10436.903782,-2451.505594
3323.106467,740.205942,-10881.027347,-2604.724693
3323.106795,74.020594,-8808.450710,-1915.238745
3323.107122,666.185348,-8216.285956,229.828649
3323.107450,-296.082377,-8512.368333,1915.238745
3323.107778,444.123565,-10658.965565,2374.896044
3323.108106,-296.082377,-11769.274478,766.095498
3323.108433,1924.535449,-11251.130318,0.000000
3323.108761,1628.453072,-8956.491898,-995.924147
3323.109089,1406.391290,-8808.450710,-1072.533697
3323.109417,666.185348,-10066.800811,76.609550
3323.109744,-1776.494261,-10214.842000,0.000000
3323.110072,-962.267725,-7698.141797,-153.219100
3323.110400,-2146.597232,-8808.450710,-842.705048
3323.110728,-2516.700203,-9400.615463,-536.266849
3323.111055,-592.164754,-10214.842000,-306.438199
3323.111383,-518.144159,-10288.862594,612.876398
3323.111711,1258.350101,-10658.965565,459.657299
3323.112039,444.123565,-10881.027347,-612.876398
3323.112366,1702.473667,-9696.697840,-919.314598
3323.112694,1924.535449,-9326.594869,-1225.752797
3323.113022,370.102971,-8808.450710,0.000000
3323.113349,0.000000,-8660.409521,1302.362347
3323.113677,-1110.308913,-8808.450710,1378.971896
3323.114005,-296.082377,-8364.327145,842.705048
3323.114333,-518.144159,-9918.759623,0.000000
3323.114660,-592.164754,-10584.944971,-612.876398
3323.114988,148.041188,-11029.068536,-1608.800546
3323.115316,370.102971,-11769.274478,-2528.115143
3323.115644,1258.350101,-10807.006753,-2145.067394
3323.115971,296.082377,-9474.636058,-1149.143247
3323.116299,592.164754,-8438.347739,-842.705048
3323.116627,0.000000,-11177.109724,229.828649
3323.116955,-1554.432478,-10288.862594,1072.533697
3323.117282,-888.247130,-7254.018232,459.657299
3323.117610,-592.164754,-7698.141797,536.266849
3323.117938,1258.350101,-9918.759623,229.828649
3323.118266,-370.102971,-11399.171507,689.485948
3323.118593,814.226536,-9030.512492,-612.876398
3323.118921,1480.411884,-8438.347739,-3217.601092
3323.119249,1184.329507,-10955.047942,-4060.306139
3323.119576,1850.514855,-11103.089130,-689.485948
3323.119904,0.000000,-9770.718434,1762.019645
3323.120232,2146.597232,-9104.533087,1915.238745
3323.120559,3034.844362,-11029.068536,1225.752797
3323.120887,1406.391290,-9770.718434,1838.629195
3323.121215,222.061783,-7772.162391,1455.581446
3323.121542,-1036.288319,-7254.018232,-153.219100
3323.121870,-814.226536,-9252.574275,-1762.019645
3323.122198,-1628.453072,-11399.171507,-2987.772442
3323.122525,-370.102971,-11177.109724,-3140.991542
3323.122853,148.041188,-9918.759623,-1838.629195
3323.123181,666.185348,-9696.697840,383.047749
3323.123508,2664.741391,-11399.171507,1762.019645
3323.123836,2072.576638,-10066.800811,1302.362347
3323.124164,1850.514855,-8586.388927,995.924147
3323.124491,74.020594,-9030.512492,689.485948
3323.124819,0.000000,-9104.533087,-306.438199
3323.125147,888.247130,-9030.512492,-1915.238745
3323.125474,370.102971,-8438.347739,-2068.457845
3323.125802,-592.164754,-9844.739029,-1072.533697
3323.126130,-2146.597232,-10436.903782,612.876398
3323.126458,148.041188,-10436.903782,-306.438199
3323.126785,1702.473667,-10658.965565,-766.095498
3323.127113,1924.535449,-10658.965565,842.705048
3323.127441,888.247130,-10807.006753,2681.334243
3323.127768,-444.123565,-9326.594869,2068.457845
3323.128096,1628.453072,-6217.729913,-1149.143247
3323.128424,444.123565,-7698.141797,-2145.067394
3323.128751,-370.102971,-9622.677246,0.000000
3323.129079,-2072.576638,-10658.965565,1915.238745
3323.129407,-1406.391290,-11103.089130,306.438199
3323.129734,222.061783,-10584.944971,-2451.505594
3323.130062,-888.247130,-8734.430116,-2528.115143
3323.130390,-1554.432478,-10140.821405,306.438199
3323.130717,-1998.556043,-9474.636058,383.047749
3323.131045,740.205942,-9474.636058,-689.485948
3323.131373,2294.638420,-10436.903782,-1149.143247
3323.131700,2368.659014,-11103.089130,229.828649
3323.132028,2590.720797,-10955.047942,2451.505594
3323.132356,1628.453072,-9326.594869,1838.629195
3323.132683,1628.453072,-8216.285956,1225.752797
3323.133011,444.123565,-9030.512492,-612.876398
3323.133339,-1480.411884,-9400.615463,-1149.143247
3323.133666,-1628.453072,-9548.656652,-383.047749
3323.133994,-1184.329507,-9474.636058,-689.485948
3323.134322,1184.329507,-10362.883188,-1378.971896
3323.134649,2516.700203,-12213.398043,-1532.190996
3323.134977,2146.597232,-12583.501014,-766.095498
3323.135305,666.185348,-9770.718434,919.314598
3323.135632,74.020594,-8364.327145,-612.876398
3323.135960,518.144159,-8364.327145,-1838.629195
3323.136288,-1332.370696,-9252.574275,-689.485948
3323.136616,-2368.659014,-8956.491898,2451.505594
3323.136943,-2220.617826,-8660.409521,1915.238745
3323.137271,518.144159,-9770.718434,-1302.362347
3323.137599,1332.370696,-10140.821405,-3140.991542
3323.137926,148.041188,-9992.780217,-1915.238745
3323.138254,444.123565,-9474.636058,842.705048
3323.138582,2072.576638,-9400.615463,612.876398
3323.138909,1998.556043,-9474.636058,0.000000
3323.139237,962.267725,-10288.862594,612.876398
3323.139565,814.226536,-8660.409521,1455.581446
3323.139892,1406.391290,-10140.821405,2068.457845
3323.140220,888.247130,-11103.089130,689.485948
3323.140548,0.000000,-8882.471304,-766.095498
3323.140875,-740.205942,-8660.409521,-2451.505594
3323.141203,-888.247130,-10658.965565,-1762.019645
3323.141531,-666.185348,-10658.965565,-766.095498
3323.141858,-1036.288319,-9030.512492,-383.047749
3323.142186,1258.350101,-10362.883188,-383.047749
3323.142514,888.247130,-10214.842000,76.609550
3323.142841,814.226536,-9918.759623,2221.676944
3323.143169,0.000000,-9992.780217,2528.115143
3323.143497,148.041188,-9326.594869,153.219100
3323.143824,518.144159,-7402.059420,-2911.162892
3323.144152,-2146.597232,-7476.080014,-2451.505594
3323.144480,-1110.308913,-11251.130318,536.266849
3323.144807,296.082377,-11843.295072,383.047749
3323.145135,962.267725,-10436.903782,-153.219100
3323.145463,1036.288319,-10955.047942,-689.485948
3323.145790,0.000000,-10436.903782,-689.485948
3323.146118,-296.082377,-9252.574275,153.219100
3323.146446,-888.247130,-8438.347739,229.828649
3323.146774,148.041188,-7254.018232,-689.485948
3323.147101,888.247130,-8364.327145,-612.876398
3323.147429,2590.720797,-10584.944971,1608.800546
3323.147757,1850.514855,-9992.780217,3064.381992
3323.148084,1184.329507,-9400.615463,1915.238745
3323.148412,518.144159,-8734.430116,-995.924147
3323.148740,-1998.556043,-9696.697840,-1991.848295
3323.149067,-1924.535449,-9252.574275,-1915.238745
3323.149395,-666.185348,-8512.368333,-1378.971896
3323.149723,-592.164754,-8660.409521,-995.924147
3323.150050,666.185348,-11399.171507,-306.438199
3323.150378,1110.308913,-11473.192101,-306.438199
3323.150706,3108.864956,-10066.800811,76.609550
3323.151033,1850.514855,-8882.471304,766.095498
3323.151361,1480.411884,-9844.739029,919.314598
3323.151689,666.185348,-9622.677246,383.047749
3323.152016,0.000000,-8734.430116,-459.657299
3323.152344,-666.185348,-9104.533087,0.000000
3323.152672,-518.144159,-10510.924376,-306.438199
3323.152999,592.164754,-10658.965565,-2145.067394
3323.153327,592.164754,-10881.027347,-1532.190996
3323.153655,1258.350101,-10732.986159,-229.828649
3323.153982,2072.576638,-10658.965565,536.266849
3323.154310,2146.597232,-10955.047942,1225.752797
3323.154638,2368.659014,-10807.006753,-153.219100
3323.154965,74.020594,-9252.574275,76.609550
3323.155293,0.000000,-8068.244768,-612.876398
3323.155621,-1406.391290,-9252.574275,-842.705048
3323.155948,-2146.597232,-9622.677246,-1072.533697
3323.156276,-1480.411884,-9104.533087,-1149.143247
3323.156604,-1480.411884,-9400.615463,-995.924147
3323.156932,0.000000,-9622.677246,-383.047749
3323.157259,0.000000,-9252.574275,0.000000
3323.157587,74.020594,-8586.388927,766.095498
3323.157915,1554.432478,-8808.450710,0.000000
3323.158242,1554.432478,-8808.450710,459.657299
3323.158570,592.164754,-9030.512492,1455.581446
3323.158898,518.144159,-10584.944971,842.705048
3323.159225,1036.288319,-9918.759623,0.000000
3323.159553,1850.514855,-10436.903782,-1608.800546
3323.159881,-148.041188,-9696.697840,-766.095498
3323.160208,-1850.514855,-9474.636058,536.266849
3323.160536,-2072.576638,-9696.697840,0.000000
3323.160864,0.000000,-10732.986159,-842.705048
3323.161191,-296.082377,-10288.862594,-1149.143247
3323.161519,-666.185348,-9622.677246,0.000000
3323.161847,296.082377,-9992.780217,383.047749
3323.162174,592.164754,-9104.533087,153.219100
3323.162502,814.226536,-8438.347739,76.609550
3323.162830,-296.082377,-9622.677246,76.609550
3323.163157,74.020594,-9918.759623,-306.438199
3323.163485,-518.144159,-9400.615463,-459.657299
3323.163813,-592.164754,-9474.636058,-995.924147
3323.164140,740.205942,-10955.047942,-383.047749
3323.164468,1036.288319,-11917.315666,229.828649
3323.164796,444.123565,-10288.862594,229.828649
3323.165123,-222.061783,-10214.842000,-689.485948
3323.165451,-592.164754,-8290.306550,-1532.190996
3323.165779,518.144159,-8364.327145,-1532.190996
3323.166106,-148.041188,-8734.430116,153.219100
3323.166434,0.000000,-9474.636058,2221.676944
3323.166762,444.123565,-10214.842000,2145.067394
3323.167089,2368.659014,-9104.533087,153.219100
3323.167417,1480.411884,-9400.615463,76.609550
3323.167745,-222.061783,-9400.615463,153.219100
3323.168073,-1480.411884,-9104.533087,459.657299
3323.168400,-1480.411884,-8438.347739,-1149.143247
3323.168728,1036.288319,-7920.203579,-3600.648841
3323.169056,592.164754,-10584.944971,-2145.067394
3323.169383,-592.164754,-10214.842000,995.924147
3323.169711,0.000000,-9474.636058,1149.143247
3323.170039,962.267725,-10214.842000,383.047749
3323.170366,3478.967927,-11251.130318,-1455.581446
3323.170694,1702.473667,-11103.089130,-612.876398
3323.171022,1184.329507,-10214.842000,842.705048
3323.171349,1702.473667,-9844.739029,306.438199
3323.171677,2368.659014,-9474.636058,-2298.286494
3323.172005,1776.494261,-8660.409521,-995.924147
3323.172332,-888.247130,-10066.800811,536.266849
3323.172660,370.102971,-9548.656652,919.314598
3323.172988,222.061783,-10140.821405,536.266849
3323.173315,962.267725,-11177.109724,0.000000
3323.173643,2368.659014,-9844.739029,-689.485948
3323.173971,1628.453072,-10732.986159,-459.657299
3323.174298,0.000000,-12287.418637,306.438199
3323.174626,-888.247130,-9992.780217,-1455.581446
3323.174954,0.000000,-7105.977043,-3830.477490
3323.175281,-370.102971,-9252.574275,-2681.334243
3323.175609,-2516.700203,-10214.842000,1149.143247
3323.175937,-2516.700203,-9622.677246,3370.820191
3323.176264,-1110.308913,-7994.224174,1762.019645
3323.176592,740.205942,-7994.224174,-1302.362347
3323.176920,222.061783,-9030.512492,-995.924147
3323.177247,-222.061783,-9252.574275,1225.752797
3323.177575,444.123565,-9548.656652,1762.019645
3323.177903,1998.556043,-9770.718434,-842.705048
3323.178231,1554.432478,-9918.759623,-2221.676944
3323.178558,888.247130,-10214.842000,153.219100
3323.178886,592.164754,-9104.533087,1838.629195
3323.179214,518.144159,-9696.697840,2145.067394
3323.179541,-370.102971,-9252.574275,612.876398
3323.179869,-1036.288319,-9178.553681,-1608.800546
3323.180197,-2368.659014,-9770.718434,-459.657299
3323.180524,-888.247130,-10066.800811,-459.657299
3323.180852,-1110.308913,-9844.739029,-229.828649
3323.181180,-296.082377,-10140.821405,-1991.848295
3323.181507,1406.391290,-9844.739029,-2987.772442
3323.181835,148.041188,-9548.656652,0.000000
3323.182163,0.000000,-9400.615463,2374.896044
3323.182490,222.061783,-10807.006753,1991.848295
3323.182818,962.267725,-9844.739029,153.219100
3323.183146,-222.061783,-8290.306550,-1302.362347
3323.183473,-1110.308913,-10510.924376,-536.266849
3323.183801,74.020594,-11843.295072,-612.876398
3323.184129,1480.411884,-11251.130318,-1225.752797
3323.184456,1036.288319,-10362.883188,-1762.019645
3323.184784,148.041188,-9770.718434,-1762.019645
3323.185112,-222.061783,-9252.574275,-459.657299
3323.185439,-1184.329507,-8290.306550,1149.143247
3323.185767,-1110.308913,-7920.203579,919.314598
3323.186095,0.000000,-8660.409521,459.657299
3323.186422,1406.391290,-10807.006753,536.266849
3323.186750,2294.638420,-10288.862594,1072.533697
3323.187078,1924.535449,-9696.697840,842.705048
3323.187405,1998.556043,-9104.533087,0.000000
3323.187733,1480.411884,-8364.327145,-1455.581446
3323.188061,-1184.329507,-6883.915261,-842.705048
3323.188389,-1406.391290,-7402.059420,0.000000
3323.188716,-1258.350101,-9474.636058,842.705048
3323.189044,222.061783,-10066.800811,536.266849
3323.189372,740.205942,-10732.986159,76.609550
3323.189699,1776.494261,-11473.192101,153.219100
3323.190027,2960.823768,-11399.171507,-383.047749
3323.190355,2146.597232,-10066.800811,-1225.752797
3323.190682,1998.556043,-9178.553681,-1685.410096
3323.191010,1406.391290,-8068.244768,-1072.533697
3323.191338,814.226536,-8438.347739,1455.581446
3323.191665,444.123565,-9992.780217,2221.676944
3323.191993,0.000000,-10584.944971,612.876398
3323.192321,0.000000,-9770.718434,-689.485948
3323.192648,-814.226536,-10658.965565,-1302.362347
3323.192976,444.123565,-11843.295072,-1225.752797
3323.193304,592.164754,-12213.398043,-1608.800546
3323.193631,1110.308913,-10658.965565,-2145.067394
3323.193959,962.267725,-9696.697840,-2221.676944
3323.194287,74.020594,-8586.388927,-306.438199
3323.194614,0.000000,-8364.327145,1302.362347
3323.194942,-1628.453072,-9992.780217,3064.381992
3323.195270,-1776.494261,-9178.553681,1838.629195
3323.195597,-1258.350101,-8512.368333,-612.876398
3323.195925,-814.226536,-9178.553681,-536.266849
3323.196253,-370.102971,-10732.986159,0.000000
3323.196580,222.061783,-9696.697840,612.876398
3323.196908,1036.288319,-8290.306550,-1608.800546
3323.197236,962.267725,-9178.553681,-1608.800546
3323.197563,962.267725,-10140.821405,-612.876398
3323.197891,222.061783,-9252.574275,1532.190996
3323.198219,0.000000,-7846.182985,2681.334243
3323.198547,222.061783,-9252.574275,2987.772442
3323.198874,148.041188,-9992.780217,1455.581446
3323.199202,-444.123565,-9252.574275,689.485948
3323.199530,-2072.576638,-8364.327145,-1302.362347
3323.199857,-592.164754,-10140.821405,-3064.381992
3323.200185,-222.061783,-10140.821405,-3370.820191
3323.200513,-1110.308913,-9474.636058,-1608.800546
3323.200840,-592.164754,-9252.574275,-306.438199
3323.201168,370.102971,-9178.553681,-536.266849
3323.201496,592.164754,-10732.986159,2221.676944
3323.201823,0.000000,-10807.006753,1838.629195
3323.202151,0.000000,-9844.739029,689.485948
3323.202479,74.020594,-9104.533087,-995.924147
3323.202806,148.041188,-9622.677246,-1915.238745
3323.203134,1184.329507,-11399.171507,-1302.362347
3323.203462,3034.844362,-11695.253884,-1532.190996
3323.203789,1554.432478,-9548.656652,-919.314598
3323.204117,296.082377,-9844.739029,-1072.533697
3323.204445,-444.123565,-10066.800811,76.609550
3323.204772,0.000000,-10584.944971,153.219100
3323.205100,296.082377,-9326.594869,306.438199
3323.205428,0.000000,-8882.471304,459.657299
3323.205755,592.164754,-10955.047942,383.047749
3323.206083,3108.864956,-11029.068536,229.828649
3323.206411,3997.112087,-8438.347739,-766.095498
3323.206738,1924.535449,-7994.224174,153.219100
3323.207066,370.102971,-8586.388927,1455.581446
3323.207394,-1480.411884,-7476.080014,766.095498
3323.207721,-962.267725,-8068.244768,-612.876398
3323.208049,0.000000,-9400.615463,-1915.238745
3323.208377,-444.123565,-10436.903782,383.047749
3323.208705,518.144159,-11325.150913,766.095498
3323.209032,666.185348,-9696.697840,-536.266849
3323.209360,3701.029710,-9474.636058,-2451.505594
3323.209688,2146.597232,-9622.677246,-766.095498
3323.210015,1480.411884,-8882.471304,1532.190996
3323.210343,962.267725,-7846.182985,2221.676944
3323.210671,518.144159,-8290.306550,1455.581446
3323.210998,1036.288319,-9844.739029,1302.362347
3323.211326,0.000000,-11177.109724,-306.438199
3323.211654,-666.185348,-10732.986159,-689.485948
3323.211981,-1036.288319,-11103.089130,-1225.752797
3323.212309,296.082377,-10066.800811,-2221.676944
3323.212637,1628.453072,-10732.986159,-2528.115143
3323.212964,962.267725,-11399.171507,-612.876398
3323.213292,1406.391290,-9474.636058,306.438199
3323.213620,0.000000,-8216.285956,1149.143247
3323.213947,-444.123565,-9178.553681,766.095498
3323.214275,-1184.329507,-10066.800811,0.000000
3323.214603,-3182.885551,-10214.842000,-306.438199
3323.214930,-2664.741391,-9770.718434,-1072.533697
3323.215258,-1554.432478,-10066.800811,-2528.115143
3323.215586,814.226536,-8956.491898,-3907.087040
3323.215913,0.000000,-10510.924376,-995.924147
3323.216241,0.000000,-10214.842000,842.705048
3323.216569,1332.370696,-9474.636058,766.095498
3323.216896,518.144159,-9918.759623,995.924147
3323.217224,1184.329507,-9400.615463,919.314598
3323.217552,-814.226536,-7179.997637,1455.581446
3323.217879,148.041188,-9252.574275,1225.752797
3323.218207,-222.061783,-10732.986159,612.876398
3323.218535,-814.226536,-9992.780217,-1455.581446
3323.218862,-444.123565,-8438.347739,-2068.457845
3323.219190,-1110.308913,-8808.450710,-1608.800546
3323.219518,-444.123565,-9844.739029,-766.095498
3323.219845,-2294.638420,-10288.862594,612.876398
3323.220173,370.102971,-9992.780217,306.438199
3323.220501,1184.329507,-9030.512492,306.438199
3323.220828,370.102971,-10658.965565,1225.752797
3323.221156,-592.164754,-10510.924376,1915.238745
3323.221484,-592.164754,-8438.347739,-229.828649
3323.221811,1406.391290,-7550.100608,-3217.601092
3323.222139,740.205942,-9622.677246,-2451.505594
3323.222467,148.041188,-9622.677246,0.000000
3323.222794,1702.473667,-9474.636058,842.705048
3323.223122,1258.350101,-11843.295072,153.219100
3323.223450,2072.576638,-11917.315666,-995.924147
3323.223777,0.000000,-10436.903782,-1149.143247
3323.224105,-222.061783,-9474.636058,383.047749
3323.224433,814.226536,-9474.636058,-459.657299
3323.224760,1036.288319,-10510.924376,-919.314598
3323.225088,2590.720797,-10288.862594,-1225.752797
3323.225416,2294.638420,-9178.553681,612.876398
3323.225743,2590.720797,-9548.656652,1225.752797
3323.226071,1850.514855,-10436.903782,1225.752797
3323.226399,1036.288319,-9326.594869,76.609550
3323.226726,2294.638420,-7624.121203,-459.657299
3323.227054,-1110.308913,-8956.491898,76.609550
3323.227382,-1258.350101,-11473.192101,383.047749
3323.227709,-1554.432478,-10066.800811,229.828649
3323.228037,1628.453072,-8956.491898,-2757.943793
3323.228365,1554.432478,-9252.574275,-2374.896044
3323.228692,-222.061783,-9030.512492,689.485948
3323.229020,0.000000,-8808.450710,1455.581446
3323.229348,1036.288319,-9992.780217,1991.848295
3323.229675,2516.700203,-9770.718434,612.876398
3323.230003,370.102971,-9326.594869,383.047749
3323.230331,-888.247130,-9474.636058,842.705048
3323.230658,0.000000,-10140.821405,-459.657299
3323.230986,-518.144159,-10214.842000,-1302.362347
3323.231314,740.205942,-10066.800811,-1838.629195
3323.231641,-666.185348,-8142.265362,-612.876398
3323.231969,222.061783,-7550.100608,536.266849
3323.232297,0.000000,-10066.800811,1685.410096
3323.232624,-370.102971,-11325.150913,1685.410096
3323.232952,592.164754,-9844.739029,-689.485948
3323.233280,222.061783,-9178.553681,-995.924147
3323.233607,0.000000,-10362.883188,-153.219100
3323.233935,-2590.720797,-10807.006753,-766.095498
3323.234263,-1110.308913,-10362.883188,-1915.238745
3323.234590,-814.226536,-8808.450710,-3217.601092
3323.234918,-1628.453072,-8734.430116,-1915.238745
3323.235246,-814.226536,-9474.636058,766.095498
3323.235573,-518.144159,-9770.718434,2298.286494
3323.235901,1332.370696,-9326.594869,1149.143247
3323.236229,1480.411884,-10436.903782,0.000000
3323.236556,1110.308913,-11103.089130,0.000000
3323.236884,666.185348,-10066.800811,-306.438199
3323.237212,-592.164754,-9030.512492,-1378.971896
3323.237539,296.082377,-9474.636058,-1915.238745
3323.237867,-666.185348,-10362.883188,-612.876398
3323.238195,0.000000,-10066.800811,153.219100
3323.238522,-814.226536,-8364.327145,842.705048
3323.238850,-1480.411884,-8956.491898,1455.581446
3323.239178,370.102971,-9844.739029,459.657299
3323.239505,0.000000,-9474.636058,-919.314598
3323.239833,592.164754,-8438.347739,-1302.362347
3323.240161,-888.247130,-9992.780217,383.047749
3323.240488,74.020594,-10066.800811,306.438199
3323.240816,1406.391290,-7698.141797,-1608.800546
3323.241144,370.102971,-8068.244768,-612.876398
3323.241471,1850.514855,-9918.759623,-229.828649
3323.241799,-296.082377,-11251.130318,1302.362347
3323.242127,1850.514855,-9474.636058,919.314598
3323.242454,2812.782580,-9400.615463,-766.095498
3323.242782,1628.453072,-11251.130318,-536.266849
3323.243110,370.102971,-11251.130318,383.047749
3323.243437,0.000000,-9622.677246,-995.924147
3323.243765,1776.494261,-7920.203579,-3140.991542
3323.244093,814.226536,-9844.739029,-1532.190996
3323.244420,444.123565,-10510.924376,919.314598
3323.244748,888.247130,-9474.636058,1532.190996
3323.245076,1036.288319,-10362.883188,919.314598
3323.245403,2812.782580,-9178.553681,-612.876398
3323.245731,1406.391290,-9918.759623,0.000000
3323.246059,592.164754,-10066.800811,229.828649
3323.246386,1480.411884,-9474.636058,-536.266849
3323.246714,2442.679609,-10584.944971,-1302.362347
3323.247042,2516.700203,-10955.047942,0.000000
3323.247369,740.205942,-10140.821405,1685.410096
3323.247697,666.185348,-9030.512492,2374.896044
3323.248025,-1184.329507,-9918.759623,1149.143247
3323.248352,-962.267725,-9178.553681,-383.047749
3323.248680,-740.205942,-7402.059420,-2298.286494
3323.249008,-2368.659014,-9400.615463,-383.047749
3323.249335,-1184.329507,-9918.759623,536.266849
3323.249663,0.000000,-10140.821405,-995.924147
3323.249991,1702.473667,-9918.759623,-919.314598
3323.250318,1554.432478,-9696.697840,-766.095498
3323.250646,74.020594,-9770.718434,766.095498
3323.250974,296.082377,-9104.533087,1072.533697
3323.251301,74.020594,-9030.512492,1225.752797
3323.251629,962.267725,-8142.265362,229.828649
3323.251957,-444.123565,-8660.409521,766.095498
3323.252284,-1998.556043,-9770.718434,1302.362347
3323.252612,-1406.391290,-9474.636058,-1072.533697
3323.252940,-296.082377,-10436.903782,-2911.162892
3323.253267,888.247130,-12139.377449,-2451.505594
3323.253595,444.123565,-10584.944971,-1302.362347
3323.253923,-222.061783,-9622.677246,383.047749
3323.254250,-740.205942,-9474.636058,1149.143247
3323.254578,-962.267725,-10066.800811,1072.533697
3323.254906,-518.144159,-8660.409521,-306.438199
3323.255233,-1480.411884,-9178.553681,229.828649
3323.255561,-1184.329507,-9770.718434,0.000000
3323.255889,-740.205942,-9474.636058,-1838.629195
3323.256216,666.185348,-10510.924376,-2298.286494
3323.256544,814.226536,-10140.821405,-2221.676944
3323.256872,592.164754,-10510.924376,383.047749
3323.257199,962.267725,-9770.718434,536.266849
3323.257527,370.102971,-9030.512492,919.314598
3323.257855,1406.391290,-9992.780217,229.828649
3323.258182,0.000000,-9326.594869,689.485948
3323.258510,-1036.288319,-8586.388927,2145.067394
3323.258838,370.102971,-8512.368333,0.000000
3323.259165,814.226536,-9474.636058,-2221.676944
3323.259493,-296.082377,-10436.903782,-1302.362347
3323.259821,-1554.432478,-9252.574275,-1149.143247
3323.260148,-666.185348,-10584.944971,-1302.362347
3323.260476,444.123565,-10881.027347,-1378.971896
3323.260804,1628.453072,-9474.636058,-383.047749
3323.261131,592.164754,-9918.759623,1991.848295
3323.261459,2294.638420,-10214.842000,2757.943793
3323.261787,3923.091493,-9474.636058,0.000000
3323.262114,1628.453072,-8956.491898,-842.705048
3323.262442,0.000000,-8808.450710,-919.314598
3323.262770,148.041188,-8068.244768,-995.924147
3323.263097,1258.350101,-8660.409521,-995.924147
3323.263425,0.000000,-9696.697840,536.266849
3323.263753,-296.082377,-11695.253884,1302.362347
3323.264080,1850.514855,-10436.903782,-153.219100
3323.264408,2590.720797,-10436.903782,-1302.362347
3323.264736,1184.329507,-10362.883188,0.000000
3323.265063,370.102971,-8882.471304,153.219100
3323.265391,1406.391290,-8808.450710,-383.047749
3323.265719,2368.659014,-8216.285956,-1072.533697
3323.266046,2072.576638,-8586.388927,-383.047749
3323.266374,2146.597232,-11473.192101,1685.410096
3323.266702,2294.638420,-11843.295072,1838.629195
3323.267029,1850.514855,-9844.739029,0.000000
3323.267357,222.061783,-9178.553681,-766.095498
3323.267685,-2886.803174,-9474.636058,766.095498
3323.268012,-2516.700203,-9992.780217,536.266849
3323.268340,-3108.864956,-8586.388927,-2298.286494
3323.268667,-1480.411884,-9400.615463,-2834.553343
3323.268995,-1554.432478,-9474.636058,-2374.896044
3323.269323,-1184.329507,-9400.615463,-306.438199
3323.269650,74.020594,-10288.862594,689.485948
3323.269978,1332.370696,-11029.068536,1762.019645
3323.270306,2220.617826,-10288.862594,1225.752797
3323.270633,2146.597232,-9474.636058,1225.752797
3323.270961,814.226536,-8734.430116,995.924147
3323.271289,148.041188,-9696.697840,383.047749
3323.271616,-592.164754,-10436.903782,-612.876398
3323.271944,0.000000,-8956.491898,-2145.067394
3323.272272,-1554.432478,-8142.265362,-2145.067394
3323.272599,-1184.329507,-9400.615463,-1072.533697
3323.272927,-1110.308913,-10732.986159,-383.047749
3323.273255,-296.082377,-10658.965565,459.657299
3323.273582,1628.453072,-10955.047942,0.000000
3323.273910,222.061783,-10436.903782,1149.143247
3323.274238,0.000000,-9252.574275,1532.190996
3323.274565,-1332.370696,-8142.265362,-842.705048
3323.274893,-1036.288319,-9474.636058,-2068.457845
3323.275221,0.000000,-9696.697840,-3370.820191
3323.275548,-1184.329507,-9474.636058,-1532.190996
3323.275876,-518.144159,-10881.027347,76.609550
3323.276204,-518.144159,-9548.656652,689.485948
3323.276531,1258.350101,-9474.636058,459.657299
3323.276859,1184.329507,-9770.718434,766.095498
3323.277187,1110.308913,-10510.924376,1149.143247
3323.277514,518.144159,-9400.615463,1149.143247
3323.277842,0.000000,-8290.306550,-383.047749
3323.278170,1554.432478,-7994.224174,-2068.457845
3323.278497,740.205942,-8734.430116,-1608.800546
3323.278825,148.041188,-11177.109724,919.314598
3323.279153,-2072.576638,-11473.192101,1302.362347
3323.279480,-2072.576638,-10732.986159,-1149.143247
3323.279808,444.123565,-8882.471304,-3753.867940
3323.280136,0.000000,-9548.656652,-2068.457845
3323.280463,444.123565,-11473.192101,1608.800546
3323.280791,518.144159,-10214.842000,2451.505594
3323.281119,1184.329507,-8660.409521,459.657299
3323.281446,2368.659014,-9252.574275,-1685.410096
3323.281774,1924.535449,-9326.594869,-1685.410096
3323.282102,444.123565,-7402.059420,1608.800546
3323.282429,-962.267725,-7254.018232,2145.067394
3323.282757,888.247130,-9104.533087,306.438199
3323.283085,1110.308913,-10807.006753,-459.657299
3323.283412,1110.308913,-11399.171507,689.485948
3323.283740,1480.411884,-10510.924376,459.657299
3323.284068,888.247130,-10584.944971,-689.485948
3323.284395,888.247130,-9178.553681,-2068.457845
3323.284723,814.226536,-8956.491898,-2604.724693
3323.285051,222.061783,-8660.409521,0.000000
3323.285378,888.247130,-8586.388927,1532.190996
3323.285706,740.205942,-8956.491898,1532.190996
3323.286034,666.185348,-10214.842000,536.266849
3323.286361,666.185348,-11695.253884,76.609550
3323.286689,2516.700203,-11621.233289,-612.876398
3323.287017,1332.370696,-9474.636058,-459.657299
3323.287344,74.020594,-10214.842000,229.828649
3323.287672,222.061783,-9178.553681,0.000000
3323.288000,-592.164754,-9178.553681,0.000000
3323.288327,-1480.411884,-9474.636058,0.000000
3323.288655,-2072.576638,-9474.636058,0.000000
3323.288983,-666.185348,-8068.244768,-842.705048
3323.289310,-740.205942,-8512.368333,-1225.752797
3323.289638,74.020594,-10732.986159,153.219100
3323.289966,1258.350101,-11769.274478,1149.143247
3323.290293,1110.308913,-11621.233289,689.485948
3323.290621,1924.535449,-10881.027347,-536.266849
3323.290949,2072.576638,-9030.512492,-1991.848295
3323.291276,1332.370696,-8364.327145,-612.876398
3323.291604,0.000000,-8882.471304,2221.676944
3323.291932,-666.185348,-9030.512492,1378.971896
3323.292259,592.164754,-8290.306550,-306.438199
3323.292587,-518.144159,-9474.636058,-612.876398
3323.292915,-888.247130,-11251.130318,-306.438199
3323.293242,-1480.411884,-9918.759623,76.609550
3323.293570,518.144159,-11399.171507,-995.924147
3323.293898,1628.453072,-10288.862594,-2221.676944
3323.294225,222.061783,-9474.636058,-766.095498
3323.294553,-1110.308913,-9104.533087,842.705048
3323.294881,-370.102971,-9548.656652,689.485948
3323.295208,-814.226536,-9252.574275,-1302.362347
3323.295536,-666.185348,-9400.615463,-1532.190996
3323.295864,-2072.576638,-8882.471304,383.047749
3323.296191,-888.247130,-8808.450710,842.705048
3323.296519,-592.164754,-9696.697840,842.705048
3323.296847,1924.535449,-10658.965565,-995.924147
3323.297174,2146.597232,-10214.842000,-2221.676944
3323.297502,0.000000,-10584.944971,0.000000
3323.297830,296.082377,-8586.388927,76.609550
3323.298157,888.247130,-7550.100608,0.000000
3323.298485,962.267725,-9992.780217,229.828649
3323.298813,-814.226536,-11769.274478,995.924147
3323.299140,-740.205942,-10288.862594,76.609550
3323.299468,0.000000,-8290.306550,-2221.676944
3323.299796,296.082377,-11325.150913,-2374.896044
3323.300123,148.041188,-10658.965565,-1302.362347
3323.300451,0.000000,-9326.594869,-842.705048
3323.300779,148.041188,-9474.636058,689.485948
3323.301106,1184.329507,-9178.553681,-536.266849
3323.301434,888.247130,-10584.944971,306.438199
3323.301762,592.164754,-9474.636058,1072.533697
3323.302089,592.164754,-8586.388927,1225.752797
3323.302417,740.205942,-8586.388927,459.657299
3323.302745,0.000000,-9474.636058,153.219100
3323.303072,888.247130,-9844.739029,995.924147
3323.303400,2516.700203,-8808.450710,-1532.190996
3323.303728,1258.350101,-11399.171507,-306.438199
3323.304055,814.226536,-10584.944971,0.000000
3323.304383,148.041188,-8216.285956,-306.438199
3323.304711,444.123565,-8660.409521,-459.657299
3323.305038,370.102971,-8586.388927,0.000000
3323.305366,1628.453072,-9326.594869,1915.238745
3323.305694,1998.556043,-10362.883188,1685.410096
3323.306021,2072.576638,-11769.274478,0.000000
3323.306349,1776.494261,-9400.615463,-1762.019645
3323.306677,148.041188,-9030.512492,-306.438199
3323.307004,-370.102971,-9474.636058,1608.800546
3323.307332,-740.205942,-7550.100608,1455.581446
3323.307660,-2516.700203,-9252.574275,536.266849
3323.307987,-1924.535449,-10214.842000,-612.876398
3323.308315,-1480.411884,-10140.821405,-1762.019645
3323.308643,-1480.411884,-9252.574275,-1532.190996
3323.308970,-2220.617826,-9326.594869,-995.924147
3323.309298,74.020594,-11177.109724,-842.705048
3323.309626,1554.432478,-11251.130318,-536.266849
3323.309953,1924.535449,-11399.171507,919.314598
3323.310281,2664.741391,-9770.718434,766.095498
3323.310609,2442.679609,-9474.636058,1532.190996
3323.310936,1332.370696,-10288.862594,2374.896044
3323.311264,592.164754,-8438.347739,842.705048
3323.311592,-1258.350101,-8660.409521,-689.485948
3323.311919,-2442.679609,-9548.656652,-1991.848295
3323.312247,-1628.453072,-10584.944971,-2451.505594
3323.312575,222.061783,-9844.739029,-2681.334243
3323.312902,1776.494261,-11251.130318,-1378.971896
3323.313230,1406.391290,-14137.933492,1225.752797
3323.313558,370.102971,-9844.739029,1072.533697
3323.313885,0.000000,-6957.935855,153.219100
3323.314213,-296.082377,-7476.080014,459.657299
3323.314541,0.000000,-9252.574275,0.000000
3323.314868,-1776.494261,-8512.368333,229.828649
3323.315196,-1628.453072,-9474.636058,-612.876398
3323.315524,-148.041188,-10436.903782,-2068.457845
3323.315851,814.226536,-9252.574275,-2528.115143
3323.316179,1110.308913,-9548.656652,-766.095498
3323.316507,444.123565,-9918.759623,612.876398
3323.316834,740.205942,-10658.965565,1149.143247
3323.317162,1406.391290,-10732.986159,76.609550
3323.317490,1036.288319,-7550.100608,-612.876398
3323.317817,1258.350101,-8216.285956,766.095498
3323.318145,740.205942,-9770.718434,1915.238745
3323.318473,1110.308913,-9474.636058,1072.533697
3323.318800,592.164754,-7698.141797,-1378.971896
3323.319128,-962.267725,-8586.388927,-1455.581446
3323.319455,-1924.535449,-12287.418637,-1149.143247
3323.319783,-1036.288319,-10214.842000,-1762.019645
3323.320111,-592.164754,-9622.677246,-1378.971896
3323.320438,444.123565,-10140.821405,-766.095498
3323.320766,814.226536,-10584.944971,0.000000
3323.321093,1776.494261,-11029.068536,1149.143247
3323.321421,1924.535449,-8512.368333,459.657299
3323.321749,2738.761985,-9992.780217,0.000000
3323.322076,1258.350101,-9030.512492,-459.657299
3323.322404,-148.041188,-8438.347739,0.000000
3323.322731,-1036.288319,-8142.265362,766.095498
3323.323059,-148.041188,-9622.677246,919.314598
3323.323387,370.102971,-12065.356855,153.219100
3323.323714,1702.473667,-10658.965565,-1225.752797
3323.324042,666.185348,-9252.574275,-1762.019645
3323.324369,-222.061783,-10658.965565,-383.047749
3323.324697,-370.102971,-9844.739029,0.000000
3323.325025,1110.308913,-7994.224174,-995.924147
3323.325352,1924.535449,-8290.306550,-153.219100
3323.325680,2516.700203,-10140.821405,2374.896044
3323.326007,1332.370696,-8586.388927,2451.505594
3323.326335,-1110.308913,-10214.842000,3140.991542
3323.326663,-1258.350101,-9474.636058,0.000000
3323.326990,-592.164754,-8364.327145,-2068.457845
3323.327318,-2368.659014,-9400.615463,-1608.800546
3323.327645,-2886.803174,-8956.491898,-1915.238745
3323.327973,-518.144159,-9622.677246,-1762.019645
3323.328301,814.226536,-9474.636058,-2604.724693
3323.328628,74.020594,-10362.883188,-383.047749
3323.328956,518.144159,-10510.924376,1225.752797
3323.329283,666.185348,-8734.430116,1685.410096
3323.329611,2072.576638,-11177.109724,2145.067394
3323.329939,3034.844362,-9030.512492,0.000000
3323.330266,1776.494261,-9844.739029,459.657299
3323.330594,370.102971,-9918.759623,459.657299
3323.330921,0.000000,-9474.636058,-1378.971896
3323.331249,-962.267725,-10288.862594,-1991.848295
3323.331577,-814.226536,-9622.677246,-2987.772442
3323.331904,-1850.514855,-10214.842000,-2068.457845
3323.332232,-370.102971,-10066.800811,-612.876398
3323.332559,1776.494261,-12361.439231,1302.362347
3323.332887,2368.659014,-12657.521608,1991.848295
3323.333215,1332.370696,-8586.388927,689.485948
3323.333542,-1036.288319,-7846.182985,-459.657299
3323.333870,-1332.370696,-8586.388927,-995.924147
3323.334197,-444.123565,-8586.388927,-1838.629195
3323.334525,-888.247130,-7402.059420,-2298.286494
3323.334853,-1406.391290,-9992.780217,-1302.362347
3323.335180,-1110.308913,-10658.965565,153.219100
3323.335508,148.041188,-10288.862594,459.657299
3323.335835,1776.494261,-10214.842000,1225.752797
3323.336163,2442.679609,-8808.450710,612.876398
3323.336491,1554.432478,-10214.842000,995.924147
3323.336818,1332.370696,-10066.800811,0.000000
3323.337146,1776.494261,-7846.182985,-919.314598
3323.337473,1776.494261,-8586.388927,0.000000
3323.337801,222.061783,-10140.821405,536.266849
3323.338129,74.020594,-10214.842000,1072.533697
3323.338456,-814.226536,-7550.100608,0.000000
3323.338784,-1480.411884,-10658.965565,229.828649
3323.339111,-148.041188,-11547.212695,-842.705048
3323.339439,962.267725,-9326.594869,-1608.800546
3323.339767,0.000000,-9400.615463,0.000000
3323.340094,0.000000,-9474.636058,153.219100
3323.340422,1184.329507,-10510.924376,383.047749
3323.340749,2146.597232,-9252.574275,0.000000
3323.341077,2294.638420,-9622.677246,76.609550
3323.341405,1258.350101,-10584.944971,1225.752797
3323.341732,370.102971,-9844.739029,1455.581446
3323.342060,-666.185348,-9474.636058,919.314598
3323.342387,-1480.411884,-7994.224174,-1455.581446
3323.342715,-1554.432478,-10658.965565,-1225.752797
3323.343043,-370.102971,-11769.274478,0.000000
3323.343370,666.185348,-9474.636058,-1608.800546
3323.343698,888.247130,-9622.677246,-2221.676944
3323.344025,592.164754,-10436.903782,-383.047749
3323.344353,-296.082377,-10436.903782,1455.581446
3323.344681,740.205942,-7476.080014,536.266849
3323.345008,1628.453072,-9030.512492,1072.533697
3323.345336,1998.556043,-10066.800811,1762.019645
3323.345663,814.226536,-9992.780217,1455.581446
3323.345991,-740.205942,-9918.759623,1378.971896
3323.346319,-222.061783,-9178.553681,-1915.238745
3323.346646,-1258.350101,-9178.553681,-1915.238745
3323.346974,-1850.514855,-9104.533087,-2374.896044
3323.347302,-2072.576638,-8660.409521,-2681.334243
3323.347629,-1110.308913,-9474.636058,-1838.629195
3323.347957,-444.123565,-9696.697840,383.047749
3323.348284,0.000000,-10288.862594,1991.848295
3323.348612,1332.370696,-9252.574275,689.485948
3323.348940,1554.432478,-9104.533087,612.876398
3323.349267,962.267725,-9992.780217,919.314598
3323.349595,592.164754,-9696.697840,-689.485948
3323.349922,1406.391290,-9918.759623,-1915.238745
3323.350250,2072.576638,-9400.615463,-2068.457845
3323.350578,814.226536,-11325.150913,-229.828649
3323.350905,-370.102971,-11029.068536,0.000000
3323.351233,-518.144159,-9918.759623,229.828649
3323.351560,444.123565,-9474.636058,-689.485948
3323.351888,888.247130,-9696.697840,-229.828649
3323.352216,1184.329507,-11843.295072,1455.581446
3323.352543,1702.473667,-11473.192101,919.314598
3323.352871,888.247130,-8586.388927,-995.924147
3323.353198,0.000000,-7772.162391,-2451.505594
3323.353526,148.041188,-9474.636058,-2451.505594
3323.353854,-1110.308913,-9770.718434,-919.314598
3323.354181,-1258.350101,-9326.594869,-383.047749
3323.354509,-1258.350101,-10584.944971,0.000000
3323.354836,740.205942,-10066.800811,-459.657299
3323.355164,1776.494261,-10214.842000,689.485948
3323.355492,1406.391290,-10140.821405,1532.190996
3323.355819,222.061783,-9400.615463,1915.238745
3323.356147,1258.350101,-8734.430116,-536.266849
3323.356474,1628.453072,-7476.080014,-2528.115143
3323.356802,148.041188,-8438.347739,-306.438199
3323.357130,0.000000,-9400.615463,1455.581446
3323.357457,518.144159,-10807.006753,2987.772442
3323.357785,1406.391290,-9770.718434,1762.019645
3323.358112,-296.082377,-7476.080014,0.000000
3323.358440,-2590.720797,-10807.006753,1302.362347
