#time,accel_x,accel_y,accel_z
2739.565705,74.020594,-9104.533087,0.000000
2739.566033,222.061783,-9400.615463,0.000000
2739.566361,666.185348,-9178.553681,76.609550
2739.566688,592.164754,-9252.574275,612.876398
2739.567016,592.164754,-9104.533087,536.266849
2739.567344,518.144159,-9030.512492,153.219100
2739.567671,962.267725,-9474.636058,536.266849
2739.567999,0.000000,-9474.636058,0.000000
2739.568327,0.000000,-9326.594869,-459.657299
2739.568654,0.000000,-9844.739029,-459.657299
2739.568982,0.000000,-9696.697840,-842.705048
2739.569310,0.000000,-9992.780217,-995.924147
2739.569637,0.000000,-10214.842000,-689.485948
2739.569965,888.247130,-10510.924376,-842.705048
2739.570293,370.102971,-10140.821405,-766.095498
2739.570620,666.185348,-10436.903782,-689.485948
2739.570948,666.185348,-10288.862594,-383.047749
2739.571276,444.123565,-10140.821405,-766.095498
2739.571603,592.164754,-10066.800811,-229.828649
2739.571931,-148.041188,-9548.656652,-766.095498
2739.572259,74.020594,-9696.697840,-995.924147
2739.572586,-296.082377,-9770.718434,-919.314598
2739.572914,0.000000,-9992.780217,-689.485948
2739.573242,0.000000,-10140.821405,-536.266849
2739.573569,296.082377,-10214.842000,-153.219100
2739.573897,518.144159,-9918.759623,0.000000
2739.574225,888.247130,-9696.697840,153.219100
2739.574552,296.082377,-9178.553681,383.047749
2739.574880,518.144159,-9178.553681,536.266849
2739.575208,296.082377,-9030.512492,689.485948
2739.575535,74.020594,-8956.491898,459.657299
2739.575863,0.000000,-8882.471304,306.438199
2739.576191,-518.144159,-8808.450710,76.609550
2739.576519,0.000000,-8290.306550,229.828649
2739.576846,0.000000,-9030.512492,-383.047749
2739.577174,444.123565,-9400.615463,0.000000
2739.577502,444.123565,-9400.615463,383.047749
2739.577829,592.164754,-9326.594869,383.047749
2739.578157,814.226536,-9474.636058,459.657299
2739.578485,296.082377,-9104.533087,229.828649
2739.578812,592.164754,-9474.636058,0.000000
2739.579140,0.000000,-9030.512492,76.609550
2739.579468,518.144159,-10140.821405,-612.876398
2739.579795,74.020594,-9696.697840,-689.485948
2739.580123,0.000000,-9770.718434,-995.924147
2739.580451,0.000000,-10362.883188,-1072.533697
2739.580778,296.082377,-10288.862594,-612.876398
2739.581106,370.102971,-10732.986159,-153.219100
2739.581434,592.164754,-10436.903782,-689.485948
2739.581761,740.205942,-10436.903782,-536.266849
2739.582089,518.144159,-10214.842000,-383.047749
2739.582417,518.144159,-10510.924376,-383.047749
2739.582744,222.061783,-10214.842000,-536.266849
2739.583072,148.041188,-9770.718434,-919.314598
2739.583400,444.123565,-9844.739029,-766.095498
2739.583727,-370.102971,-9548.656652,-1225.752797
2739.584055,518.144159,-9622.677246,-919.314598
2739.584383,814.226536,-9474.636058,-306.438199
2739.584710,1924.535449,-9696.697840,0.000000
2739.585038,2812.782580,-9252.574275,153.219100
2739.585366,3627.009116,-8586.388927,0.000000
2739.585693,4515.256246,-8586.388927,229.828649
2739.586021,4885.359217,-9474.636058,689.485948
2739.586349,5625.565159,-9474.636058,229.828649
2739.586676,5995.668130,-8660.409521,0.000000
2739.587004,6291.750507,-9326.594869,0.000000
2739.587332,6809.894666,-9918.759623,0.000000
2739.587659,7624.121203,-10214.842000,76.609550
2739.587987,7550.100608,-9992.780217,995.924147
2739.588315,8734.430116,-9474.636058,0.000000
2739.588642,9252.574275,-8956.491898,76.609550
2739.588970,9696.697840,-8808.450710,612.876398
2739.589298,10288.862594,-8290.306550,766.095498
2739.589625,11251.130318,-8512.368333,306.438199
2739.589953,11843.295072,-9252.574275,229.828649
2739.590281,11769.274478,-9622.677246,459.657299
2739.590608,10732.986159,-8438.347739,-306.438199
2739.590936,11251.130318,-10288.862594,-689.485948
2739.591264,11917.315666,-10584.944971,-766.095498
2739.591591,12509.480420,-11325.150913,-1225.752797
2739.591919,13619.789333,-10288.862594,-842.705048
2739.592247,14656.077652,-9844.739029,383.047749
2739.592574,15618.345376,-9474.636058,766.095498
2739.592902,14952.160028,-9622.677246,1685.410096
2739.593230,13693.809927,-9030.512492,1532.190996
2739.593557,12879.583391,-10066.800811,612.876398
2739.593885,11991.336260,-11399.171507,-229.828649
2739.594213,11103.089130,-11029.068536,-383.047749
2739.594540,8586.388927,-10066.800811,612.876398
2739.594868,8068.244768,-8586.388927,-536.266849
2739.595196,7772.162391,-10214.842000,383.047749
2739.595523,6809.894666,-10288.862594,0.000000
2739.595851,4959.379811,-10362.883188,919.314598
2739.596179,4293.194464,-8290.306550,383.047749
2739.596506,2960.823768,-7550.100608,0.000000
2739.596834,2072.576638,-8438.347739,919.314598
2739.597162,2072.576638,-6587.832884,153.219100
2739.597489,2812.782580,-7105.977043,536.266849
2739.597817,4885.359217,-9474.636058,-766.095498
2739.598145,5995.668130,-11621.233289,0.000000
2739.598473,4515.256246,-11843.295072,842.705048
2739.598800,2072.576638,-11325.150913,1302.362347
2739.599128,0.000000,-9918.759623,76.609550
2739.599456,-444.123565,-9030.512492,-1455.581446
2739.599783,-888.247130,-8364.327145,-1225.752797
2739.600111,148.041188,-9252.574275,-306.438199
2739.600439,0.000000,-9178.553681,1838.629195
2739.600766,-888.247130,-10362.883188,2068.457845
2739.601094,-2738.761985,-9918.759623,995.924147
2739.601422,-4145.153275,-7772.162391,-1762.019645
2739.601749,-4737.318029,-7031.956449,-4290.134789
2739.602077,-3701.029710,-8586.388927,-3140.991542
2739.602405,-814.226536,-10881.027347,-1915.238745
2739.602732,1332.370696,-11917.315666,-153.219100
2739.603060,666.185348,-11917.315666,1072.533697
2739.603388,0.000000,-10732.986159,229.828649
2739.603715,-814.226536,-10436.903782,-1532.190996
2739.604043,-1998.556043,-11843.295072,-1991.848295
2739.604371,-1776.494261,-11473.192101,-2757.943793
2739.604698,-1258.350101,-10658.965565,-1608.800546
2739.605026,-1406.391290,-9400.615463,-229.828649
2739.605354,-1110.308913,-7328.038826,995.924147
2739.605681,-1480.411884,-7031.956449,1532.190996
2739.606009,-2072.576638,-7994.224174,689.485948
2739.606337,-148.041188,-8956.491898,-1378.971896
2739.606664,2294.638420,-9474.636058,-1685.410096
2739.606992,3404.947333,-8882.471304,-1302.362347
2739.607320,4071.132681,-8290.306550,306.438199
2739.607647,2664.741391,-9030.512492,2068.457845
2739.607975,3108.864956,-11473.192101,1838.629195
2739.608303,4145.153275,-12139.377449,0.000000
2739.608630,2812.782580,-11029.068536,-1685.410096
2739.608958,2442.679609,-8808.450710,-1608.800546
2739.609286,1628.453072,-7846.182985,-229.828649
2739.609613,592.164754,-8068.244768,1225.752797
2739.609941,666.185348,-9030.512492,1608.800546
2739.610269,1850.514855,-9474.636058,612.876398
2739.610596,3478.967927,-7772.162391,0.000000
2739.610924,4959.379811,-6439.791695,-459.657299
2739.611252,4737.318029,-7402.059420,1608.800546
2739.611579,4589.276840,-11325.150913,2298.286494
2739.611907,3849.070898,-12287.418637,1838.629195
2739.612235,3108.864956,-12657.521608,-229.828649
2739.612562,2442.679609,-11695.253884,-2604.724693
2739.612890,1628.453072,-11103.089130,-2528.115143
2739.613218,-592.164754,-11917.315666,-1225.752797
2739.613545,-2368.659014,-12361.439231,459.657299
2739.613873,-1702.473667,-11473.192101,-306.438199
2739.614201,-592.164754,-10066.800811,-1072.533697
2739.614528,0.000000,-7476.080014,-766.095498
2739.614856,-148.041188,-6587.832884,383.047749
2739.615184,-814.226536,-8364.327145,1991.848295
2739.615511,0.000000,-9474.636058,1762.019645
2739.615839,296.082377,-9400.615463,1149.143247
2739.616167,444.123565,-8290.306550,-153.219100
2739.616494,740.205942,-9770.718434,-383.047749
2739.616822,666.185348,-12213.398043,0.000000
2739.617150,-814.226536,-13619.789333,383.047749
2739.617477,-2294.638420,-13249.686362,0.000000
2739.617805,-3552.988522,-11029.068536,-2145.067394
2739.618133,-3330.926739,-8586.388927,-2451.505594
2739.618460,-3627.009116,-7105.977043,-995.924147
2739.618788,-4071.132681,-7920.203579,229.828649
2739.619116,-3108.864956,-8660.409521,1302.362347
2739.619444,-2738.761985,-7550.100608,1149.143247
2739.619771,-1554.432478,-5699.585753,766.095498
2739.620099,-444.123565,-5329.482782,306.438199
2739.620427,-592.164754,-6587.832884,995.924147
2739.620754,0.000000,-9696.697840,383.047749
2739.621082,-296.082377,-11399.171507,-919.314598
2739.621410,-296.082377,-11029.068536,-1762.019645
2739.621737,0.000000,-11029.068536,-1532.190996
2739.622065,518.144159,-11029.068536,-766.095498
2739.622393,74.020594,-11769.274478,153.219100
2739.622720,-148.041188,-11473.192101,-383.047749
2739.623048,-444.123565,-10066.800811,-383.047749
2739.623376,-296.082377,-7772.162391,-919.314598
2739.623703,222.061783,-5995.668130,-536.266849
2739.624031,296.082377,-6809.894666,0.000000
2739.624359,962.267725,-9178.553681,689.485948
2739.624686,2072.576638,-11251.130318,-1072.533697
2739.625014,2664.741391,-10807.006753,-995.924147
2739.625342,3256.906145,-10436.903782,-1608.800546
2739.625669,3923.091493,-11399.171507,-1685.410096
2739.625997,3330.926739,-13175.665768,-766.095498
2739.626325,3256.906145,-14878.139434,-306.438199
2739.626652,2886.803174,-13989.892304,-842.705048
2739.626980,2368.659014,-9844.739029,-1072.533697
2739.627308,1332.370696,-8364.327145,-842.705048
2739.627635,518.144159,-8068.244768,306.438199
2739.627963,-444.123565,-8438.347739,1762.019645
2739.628291,-296.082377,-8364.327145,842.705048
2739.628618,222.061783,-7476.080014,-229.828649
2739.628946,1184.329507,-7105.977043,0.000000
2739.629274,1850.514855,-7105.977043,919.314598
2739.629601,1850.514855,-8734.430116,2298.286494
2739.629929,1850.514855,-11473.192101,1608.800546
2739.630257,1924.535449,-12953.603985,0.000000
2739.630584,1480.411884,-11177.109724,-766.095498
2739.630912,1184.329507,-9474.636058,-1072.533697
2739.631240,0.000000,-8956.491898,306.438199
2739.631567,-1628.453072,-9770.718434,383.047749
2739.631895,-2146.597232,-9770.718434,459.657299
2739.632223,-1702.473667,-9104.533087,-995.924147
2739.632550,-222.061783,-6957.935855,-1378.971896
2739.632878,666.185348,-5921.647536,-383.047749
2739.633206,444.123565,-7254.018232,1838.629195
2739.633533,814.226536,-9474.636058,2451.505594
2739.633861,1406.391290,-10436.903782,1302.362347
2739.634189,444.123565,-9622.677246,-919.314598
2739.634516,666.185348,-10066.800811,-2145.067394
2739.634844,-518.144159,-10732.986159,-1149.143247
2739.635172,-2146.597232,-12065.356855,-383.047749
2739.635500,-3108.864956,-13619.789333,-1378.971896
2739.635827,-3034.844362,-12805.562797,-3140.991542
2739.636155,-3256.906145,-9992.780217,-3447.429741
2739.636483,-1850.514855,-8512.368333,-2221.676944
2739.636810,-2220.617826,-7994.224174,-612.876398
2739.637138,-1702.473667,-9030.512492,842.705048
2739.637466,-740.205942,-9400.615463,459.657299
2739.637793,-370.102971,-8512.368333,153.219100
2739.638121,222.061783,-7179.997637,689.485948
2739.638449,370.102971,-7772.162391,1225.752797
2739.638776,518.144159,-9918.759623,1072.533697
2739.639104,592.164754,-12213.398043,-689.485948
2739.639432,296.082377,-12657.521608,-1608.800546
2739.639759,74.020594,-10584.944971,-2145.067394
2739.640087,740.205942,-9770.718434,-1991.848295
2739.640415,1110.308913,-9918.759623,-919.314598
2739.640742,222.061783,-9992.780217,689.485948
2739.641070,518.144159,-9622.677246,1072.533697
2739.641398,1406.391290,-7920.203579,689.485948
2739.641725,1628.453072,-6365.771101,919.314598
2739.642053,2072.576638,-6217.729913,1915.238745
2739.642381,1628.453072,-8290.306550,2681.334243
2739.642709,1184.329507,-10362.883188,1762.019645
2739.643036,1332.370696,-10658.965565,-383.047749
2739.643364,962.267725,-9992.780217,-2374.896044
2739.643692,2072.576638,-10288.862594,-2145.067394
2739.644019,1480.411884,-11029.068536,0.000000
2739.644347,444.123565,-11843.295072,1149.143247
2739.644675,1406.391290,-13249.686362,76.609550
2739.645002,1924.535449,-11843.295072,-1991.848295
2739.645330,888.247130,-7994.224174,-1302.362347
2739.645658,740.205942,-7698.141797,-612.876398
2739.645985,296.082377,-8660.409521,766.095498
2739.646313,370.102971,-10140.821405,1149.143247
2739.646641,1184.329507,-10732.986159,229.828649
2739.646968,1776.494261,-9474.636058,-459.657299
2739.647296,1702.473667,-7698.141797,-995.924147
2739.647624,1332.370696,-9474.636058,-612.876398
2739.647951,962.267725,-11991.336260,-306.438199
2739.648279,888.247130,-12583.501014,-689.485948
2739.648607,1184.329507,-11769.274478,-1608.800546
2739.648934,1258.350101,-10140.821405,-1072.533697
2739.649262,1184.329507,-9622.677246,0.000000
2739.649590,296.082377,-9696.697840,766.095498
2739.649918,-1776.494261,-9178.553681,1838.629195
2739.650245,-2368.659014,-9400.615463,0.000000
2739.650573,-1850.514855,-8290.306550,-1302.362347
2739.650901,-1776.494261,-6587.832884,-995.924147
2739.651228,-1702.473667,-7031.956449,689.485948
2739.651556,-1406.391290,-9030.512492,1149.143247
2739.651884,-1258.350101,-11251.130318,536.266849
2739.652211,-518.144159,-11325.150913,-842.705048
2739.652539,-1184.329507,-8512.368333,-1225.752797
2739.652867,-148.041188,-8438.347739,-383.047749
2739.653194,-740.205942,-9474.636058,689.485948
2739.653522,-1184.329507,-10732.986159,689.485948
2739.653850,-1332.370696,-10732.986159,-536.266849
2739.654177,-1258.350101,-9400.615463,-1225.752797
2739.654505,-740.205942,-7698.141797,-1072.533697
2739.654833,0.000000,-7476.080014,0.000000
2739.655160,148.041188,-9918.759623,689.485948
2739.655488,592.164754,-10955.047942,612.876398
2739.655816,888.247130,-10066.800811,0.000000
2739.656144,666.185348,-8956.491898,-229.828649
2739.656471,518.144159,-8586.388927,383.047749
2739.656799,-296.082377,-9844.739029,842.705048
2739.657127,-1258.350101,-11399.171507,459.657299
2739.657454,-1480.411884,-11325.150913,-1685.410096
2739.657782,-1258.350101,-10436.903782,-2528.115143
2739.658110,-814.226536,-9548.656652,-2298.286494
2739.658437,-370.102971,-9178.553681,-995.924147
2739.658765,518.144159,-10066.800811,306.438199
2739.659093,1184.329507,-11251.130318,0.000000
2739.659420,2664.741391,-11177.109724,-383.047749
2739.659748,2368.659014,-8956.491898,0.000000
2739.660076,2516.700203,-7994.224174,306.438199
2739.660403,2664.741391,-8882.471304,1455.581446
2739.660731,2442.679609,-11177.109724,1532.190996
2739.661059,1924.535449,-11251.130318,612.876398
2739.661386,1850.514855,-9622.677246,-536.266849
2739.661714,2072.576638,-8586.388927,-1149.143247
2739.662042,1850.514855,-8734.430116,-306.438199
2739.662369,1554.432478,-9770.718434,459.657299
2739.662697,1406.391290,-10955.047942,689.485948
2739.663025,1406.391290,-10584.944971,0.000000
2739.663353,1554.432478,-8734.430116,-153.219100
2739.663680,1554.432478,-7476.080014,76.609550
2739.664008,1110.308913,-7994.224174,1378.971896
2739.664336,296.082377,-9918.759623,1838.629195
2739.664663,74.020594,-10807.006753,306.438199
2739.664991,-296.082377,-10066.800811,-1225.752797
2739.665319,0.000000,-8586.388927,-1915.238745
2739.665646,-222.061783,-8364.327145,-689.485948
2739.665974,-814.226536,-9770.718434,-153.219100
2739.666302,-148.041188,-11843.295072,-229.828649
2739.666629,74.020594,-11473.192101,-995.924147
2739.666957,666.185348,-9474.636058,-1149.143247
2739.667285,1110.308913,-8660.409521,-229.828649
2739.667612,518.144159,-9104.533087,1149.143247
2739.667940,-592.164754,-9918.759623,1149.143247
2739.668268,-814.226536,-10584.944971,-383.047749
2739.668595,-222.061783,-10732.986159,-1455.581446
2739.668923,74.020594,-8734.430116,-1991.848295
2739.669251,0.000000,-8290.306550,-536.266849
2739.669578,-296.082377,-9844.739029,153.219100
2739.669906,-666.185348,-11843.295072,-153.219100
2739.670234,-962.267725,-12139.377449,-1072.533697
2739.670562,-1332.370696,-10214.842000,-1225.752797
2739.670889,-740.205942,-8438.347739,-1532.190996
2739.671217,-296.082377,-8956.491898,-306.438199
2739.671545,-518.144159,-10214.842000,995.924147
2739.671872,-814.226536,-11473.192101,842.705048
2739.672200,-1184.329507,-9992.780217,-306.438199
2739.672528,-1184.329507,-7698.141797,-1302.362347
2739.672855,-1406.391290,-6883.915261,-1072.533697
2739.673183,-1924.535449,-8068.244768,0.000000
2739.673511,-1258.350101,-10214.842000,-229.828649
2739.673838,-518.144159,-11103.089130,-383.047749
2739.674166,0.000000,-9696.697840,-1149.143247
2739.674494,592.164754,-8586.388927,-612.876398
2739.674821,962.267725,-8734.430116,689.485948
2739.675149,962.267725,-10066.800811,1532.190996
2739.675477,1184.329507,-12213.398043,1149.143247
2739.675804,2072.576638,-10214.842000,0.000000
2739.676132,2072.576638,-8068.244768,-536.266849
2739.676460,1924.535449,-7402.059420,76.609550
2739.676788,1480.411884,-8438.347739,919.314598
2739.677115,592.164754,-10214.842000,995.924147
2739.677443,1036.288319,-10955.047942,-459.657299
2739.677771,1702.473667,-9992.780217,-1915.238745
2739.678098,2516.700203,-9326.594869,-1532.190996
2739.678426,1924.535449,-9474.636058,306.438199
2739.678754,1554.432478,-10807.006753,1608.800546
2739.679081,1258.350101,-11621.233289,842.705048
2739.679409,1258.350101,-11029.068536,-1225.752797
2739.679737,1480.411884,-9548.656652,-1991.848295
2739.680064,1702.473667,-8290.306550,-612.876398
2739.680392,814.226536,-8808.450710,919.314598
2739.680720,444.123565,-11029.068536,1072.533697
2739.681047,296.082377,-11991.336260,-612.876398
2739.681375,74.020594,-10066.800811,-1838.629195
2739.681703,666.185348,-7994.224174,-1532.190996
2739.682030,740.205942,-7846.182985,0.000000
2739.682358,222.061783,-9326.594869,1762.019645
2739.682686,666.185348,-10881.027347,1532.190996
2739.683013,296.082377,-11029.068536,153.219100
2739.683341,740.205942,-9104.533087,-842.705048
2739.683669,370.102971,-7550.100608,-842.705048
2739.683997,0.000000,-7550.100608,-536.266849
2739.684324,-1036.288319,-9992.780217,306.438199
2739.684652,-814.226536,-11251.130318,-383.047749
2739.684980,-296.082377,-10510.924376,-842.705048
2739.685307,-222.061783,-8882.471304,-919.314598
2739.685635,518.144159,-8438.347739,0.000000
2739.685963,-222.061783,-9400.615463,1455.581446
2739.686290,-888.247130,-10140.821405,1378.971896
2739.686618,-814.226536,-10214.842000,0.000000
2739.686946,-1332.370696,-8586.388927,-1302.362347
2739.687273,-1036.288319,-7550.100608,-689.485948
2739.687601,-1110.308913,-8956.491898,0.000000
2739.687929,-1480.411884,-10807.006753,612.876398
2739.688256,-1110.308913,-12287.418637,-919.314598
2739.688584,-740.205942,-11991.336260,-2145.067394
2739.688912,-296.082377,-10288.862594,-1608.800546
2739.689239,0.000000,-8512.368333,-919.314598
2739.689567,-222.061783,-9400.615463,766.095498
2739.689895,-1036.288319,-10732.986159,536.266849
2739.690222,-962.267725,-10881.027347,-612.876398
2739.690550,-666.185348,-8956.491898,-1608.800546
2739.690878,444.123565,-7772.162391,-995.924147
2739.691206,888.247130,-8068.244768,766.095498
2739.691533,370.102971,-9992.780217,1455.581446
2739.691861,666.185348,-11917.315666,995.924147
2739.692189,888.247130,-11399.171507,-1072.533697
2739.692516,1332.370696,-9696.697840,-1991.848295
2739.692844,1332.370696,-8956.491898,-766.095498
2739.693172,1332.370696,-9770.718434,689.485948
2739.693499,1258.350101,-11177.109724,1455.581446
2739.693827,1036.288319,-10807.006753,536.266849
2739.694155,1258.350101,-8734.430116,-383.047749
2739.694482,1258.350101,-7179.997637,-536.266849
2739.694810,1110.308913,-7698.141797,0.000000
2739.695138,592.164754,-9400.615463,306.438199
2739.695465,444.123565,-10807.006753,76.609550
2739.695793,1332.370696,-9770.718434,-766.095498
2739.696121,1924.535449,-8734.430116,-919.314598
2739.696448,1702.473667,-8216.285956,612.876398
2739.696776,1258.350101,-9178.553681,1225.752797
2739.697104,1184.329507,-11695.253884,919.314598
2739.697432,1110.308913,-11991.336260,-536.266849
2739.697759,1184.329507,-10658.965565,-1302.362347
2739.698087,1184.329507,-8216.285956,-1302.362347
2739.698415,1258.350101,-8142.265362,-1455.581446
2739.698742,592.164754,-9474.636058,0.000000
2739.699070,-222.061783,-11103.089130,459.657299
2739.699398,0.000000,-11251.130318,-919.314598
2739.699725,740.205942,-9770.718434,-1685.410096
2739.700053,1110.308913,-8734.430116,-995.924147
2739.700381,1036.288319,-9696.697840,459.657299
2739.700708,74.020594,-10881.027347,1302.362347
2739.701036,296.082377,-11473.192101,612.876398
2739.701364,740.205942,-10732.986159,-995.924147
2739.701691,222.061783,-8882.471304,-1455.581446
2739.702019,-740.205942,-8290.306550,0.000000
2739.702347,-1850.514855,-9030.512492,919.314598
2739.702674,-2072.576638,-10436.903782,0.000000
2739.703002,-2072.576638,-10955.047942,-689.485948
2739.703330,-2220.617826,-9252.574275,-1532.190996
2739.703657,-1850.514855,-7254.018232,-1072.533697
2739.703985,-1406.391290,-7772.162391,-306.438199
2739.704313,-1036.288319,-10140.821405,842.705048
2739.704641,0.000000,-11769.274478,766.095498
2739.704968,1332.370696,-10066.800811,536.266849
2739.705296,2516.700203,-8586.388927,-306.438199
2739.705624,1924.535449,-7772.162391,76.609550
2739.705951,222.061783,-9252.574275,612.876398
2739.706279,-740.205942,-10732.986159,995.924147
2739.706607,-370.102971,-11251.130318,-842.705048
2739.706934,814.226536,-9844.739029,-2298.286494
2739.707262,1184.329507,-7994.224174,-1915.238745
2739.707590,1110.308913,-8586.388927,229.828649
2739.707917,148.041188,-10140.821405,2298.286494
2739.708245,-518.144159,-10584.944971,919.314598
2739.708573,-962.267725,-9622.677246,-1378.971896
2739.708900,-592.164754,-8068.244768,-2451.505594
2739.709228,-592.164754,-7550.100608,-1302.362347
2739.709556,-148.041188,-9178.553681,689.485948
2739.709883,0.000000,-10881.027347,919.314598
2739.710211,296.082377,-11843.295072,459.657299
2739.710539,74.020594,-10881.027347,-1762.019645
2739.710866,592.164754,-9770.718434,-2221.676944
2739.711194,518.144159,-9030.512492,-1149.143247
2739.711522,444.123565,-10066.800811,229.828649
2739.711850,962.267725,-11399.171507,842.705048
2739.712177,2294.638420,-10807.006753,76.609550
2739.712505,2960.823768,-8808.450710,306.438199
2739.712833,2368.659014,-7105.977043,459.657299
2739.713160,1406.391290,-7772.162391,1532.190996
2739.713488,592.164754,-9918.759623,1225.752797
2739.713816,518.144159,-11325.150913,0.000000
2739.714143,814.226536,-10066.800811,-1225.752797
2739.714471,1554.432478,-8808.450710,-1302.362347
2739.714799,1332.370696,-8734.430116,383.047749
2739.715126,518.144159,-10584.944971,1608.800546
2739.715454,148.041188,-11251.130318,1225.752797
2739.715782,0.000000,-10732.986159,-536.266849
2739.716109,0.000000,-8882.471304,-1302.362347
2739.716437,0.000000,-7550.100608,-1149.143247
2739.716765,222.061783,-8364.327145,536.266849
2739.717092,814.226536,-9622.677246,919.314598
2739.717420,0.000000,-10881.027347,-383.047749
2739.717748,-592.164754,-11399.171507,-1225.752797
2739.718075,0.000000,-8956.491898,-1762.019645
2739.718403,74.020594,-7624.121203,-1149.143247
2739.718731,-1554.432478,-9548.656652,306.438199
2739.719059,-1036.288319,-11843.295072,766.095498
2739.719386,-222.061783,-10732.986159,-689.485948
2739.719714,222.061783,-8808.450710,-2068.457845
2739.720042,592.164754,-7920.203579,-1225.752797
2739.720369,592.164754,-8660.409521,306.438199
2739.720697,0.000000,-10436.903782,1838.629195
2739.721025,74.020594,-11325.150913,995.924147
2739.721352,-370.102971,-10066.800811,-2221.676944
2739.721680,0.000000,-8216.285956,-995.924147
2739.722008,0.000000,-8438.347739,0.000000
2739.722335,0.000000,-9474.636058,1225.752797
2739.722663,-296.082377,-10436.903782,1685.410096
2739.722991,-444.123565,-10732.986159,0.000000
2739.723318,0.000000,-9548.656652,-919.314598
2739.723646,0.000000,-8142.265362,-919.314598
2739.723974,-370.102971,-7698.141797,-306.438199
2739.724301,-666.185348,-10140.821405,76.609550
2739.724629,-518.144159,-11621.233289,-153.219100
2739.724957,-222.061783,-10881.027347,-919.314598
2739.725285,74.020594,-8438.347739,-919.314598
2739.725612,296.082377,-7698.141797,0.000000
2739.725940,666.185348,-9400.615463,229.828649
2739.726268,222.061783,-11103.089130,306.438199
2739.726595,666.185348,-11695.253884,-229.828649
2739.726923,1480.411884,-9474.636058,-919.314598
2739.727251,2220.617826,-7550.100608,-766.095498
2739.727578,1628.453072,-7772.162391,536.266849
2739.727906,370.102971,-9622.677246,1991.848295
2739.728234,666.185348,-11177.109724,919.314598
2739.728561,518.144159,-10584.944971,-383.047749
2739.728889,1258.350101,-9178.553681,-1915.238745
2739.729217,1406.391290,-8660.409521,-1225.752797
2739.729544,888.247130,-9770.718434,536.266849
2739.729872,0.000000,-11029.068536,1072.533697
2739.730200,296.082377,-11473.192101,0.000000
2739.730527,666.185348,-10066.800811,-2068.457845
2739.730855,1184.329507,-8512.368333,-1608.800546
2739.731183,1406.391290,-7476.080014,0.000000
2739.731510,740.205942,-9474.636058,1915.238745
2739.731838,666.185348,-11325.150913,1532.190996
2739.732166,296.082377,-10436.903782,-536.266849
2739.732494,444.123565,-7772.162391,-1915.238745
2739.732821,0.000000,-7846.182985,-1455.581446
2739.733149,-666.185348,-10140.821405,-612.876398
2739.733477,444.123565,-12583.501014,383.047749
2739.733804,666.185348,-12213.398043,-229.828649
2739.734132,1184.329507,-10658.965565,-1072.533697
2739.734460,1184.329507,-9252.574275,-459.657299
2739.734787,1332.370696,-8586.388927,459.657299
2739.735115,-518.144159,-8290.306550,689.485948
2739.735443,-1258.350101,-9918.759623,689.485948
2739.735770,-1554.432478,-10140.821405,-536.266849
2739.736098,-370.102971,-8882.471304,-1378.971896
2739.736426,0.000000,-7550.100608,-536.266849
2739.736754,-444.123565,-9400.615463,1149.143247
2739.737081,-666.185348,-11399.171507,1762.019645
2739.737409,0.000000,-11177.109724,0.000000
2739.737737,-370.102971,-9548.656652,-766.095498
2739.738064,148.041188,-8364.327145,-995.924147
2739.738392,-148.041188,-7772.162391,536.266849
2739.738720,-518.144159,-8808.450710,1378.971896
2739.739047,-592.164754,-10214.842000,612.876398
2739.739375,0.000000,-10732.986159,-383.047749
2739.739703,0.000000,-9918.759623,-1149.143247
2739.740031,222.061783,-8660.409521,-766.095498
2739.740358,296.082377,-8956.491898,-919.314598
2739.740686,0.000000,-10732.986159,689.485948
2739.741014,0.000000,-11843.295072,229.828649
2739.741341,666.185348,-10362.883188,-612.876398
2739.741669,1480.411884,-8364.327145,-612.876398
2739.741997,1776.494261,-8142.265362,306.438199
2739.742324,1036.288319,-9844.739029,1378.971896
2739.742652,0.000000,-10955.047942,1149.143247
2739.742980,0.000000,-11103.089130,-842.705048
2739.743308,296.082377,-10066.800811,-2528.115143
2739.743635,444.123565,-8808.450710,-1991.848295
2739.743963,370.102971,-9326.594869,459.657299
2739.744291,444.123565,-10510.924376,1149.143247
2739.744618,0.000000,-11621.233289,612.876398
2739.744946,0.000000,-10807.006753,-919.314598
2739.745274,370.102971,-8808.450710,-995.924147
2739.745601,1110.308913,-7624.121203,0.000000
2739.745929,1184.329507,-8438.347739,1072.533697
2739.746257,1110.308913,-10658.965565,1072.533697
2739.746585,814.226536,-10955.047942,229.828649
2739.746912,444.123565,-9252.574275,-612.876398
2739.747240,518.144159,-7105.977043,-1072.533697
2739.747568,0.000000,-8512.368333,76.609550
2739.747895,-518.144159,-10510.924376,842.705048
2739.748223,-592.164754,-11103.089130,76.609550
2739.748551,148.041188,-10288.862594,-1378.971896
2739.748878,740.205942,-8068.244768,-1378.971896
2739.749206,1184.329507,-7031.956449,153.219100
2739.749534,1332.370696,-8290.306550,536.266849
2739.749862,1110.308913,-10436.903782,1302.362347
2739.750189,1480.411884,-11621.233289,766.095498
2739.750517,2368.659014,-10436.903782,-995.924147
2739.750845,2220.617826,-8808.450710,-995.924147
2739.751172,1184.329507,-8808.450710,0.000000
2739.751500,0.000000,-10066.800811,536.266849
2739.751828,0.000000,-12065.356855,-459.657299
2739.752155,222.061783,-11547.212695,-2221.676944
2739.752483,1480.411884,-9474.636058,-2374.896044
2739.752811,962.267725,-8586.388927,-229.828649
2739.753139,222.061783,-8956.491898,1455.581446
2739.753466,-296.082377,-9696.697840,919.314598
2739.753794,-962.267725,-10510.924376,-612.876398
2739.754122,-1480.411884,-9992.780217,-1532.190996
2739.754449,-1406.391290,-8364.327145,-1838.629195
2739.754777,-888.247130,-8586.388927,-766.095498
2739.755105,-1184.329507,-10436.903782,459.657299
2739.755432,-962.267725,-12361.439231,1149.143247
2739.755760,-814.226536,-11029.068536,-383.047749
2739.756088,-444.123565,-8734.430116,-1225.752797
2739.756416,370.102971,-7624.121203,-1378.971896
2739.756743,370.102971,-8142.265362,383.047749
2739.757071,0.000000,-9548.656652,1762.019645
2739.757399,148.041188,-10436.903782,1378.971896
2739.757726,666.185348,-10066.800811,229.828649
2739.758054,814.226536,-8216.285956,-306.438199
2739.758382,444.123565,-7846.182985,0.000000
2739.758709,-592.164754,-9400.615463,459.657299
2739.759037,-888.247130,-11103.089130,536.266849
2739.759365,-888.247130,-11251.130318,-766.095498
2739.759693,-222.061783,-10066.800811,-1608.800546
2739.760020,296.082377,-8290.306550,-1072.533697
2739.760348,296.082377,-8364.327145,229.828649
2739.760676,0.000000,-9992.780217,1225.752797
2739.761003,222.061783,-10807.006753,0.000000
2739.761331,-222.061783,-10807.006753,-995.924147
2739.761659,74.020594,-9252.574275,-1685.410096
2739.761986,518.144159,-8290.306550,-766.095498
2739.762314,888.247130,-9548.656652,306.438199
2739.762642,740.205942,-11917.315666,383.047749
2739.762970,1110.308913,-12879.583391,-306.438199
2739.763297,1258.350101,-10658.965565,-919.314598
2739.763625,1998.556043,-8512.368333,-1608.800546
2739.763953,1332.370696,-8142.265362,-229.828649
2739.764280,0.000000,-9696.697840,1072.533697
2739.764608,-222.061783,-10955.047942,842.705048
2739.764936,148.041188,-9622.677246,-919.314598
2739.765263,740.205942,-7772.162391,-1608.800546
2739.765591,1110.308913,-7772.162391,-536.266849
2739.765919,1332.370696,-9326.594869,1532.190996
2739.766247,1406.391290,-11103.089130,2068.457845
2739.766574,1628.453072,-11769.274478,229.828649
2739.766902,1702.473667,-10140.821405,-919.314598
2739.767230,1406.391290,-8364.327145,-306.438199
2739.767557,1110.308913,-7624.121203,919.314598
2739.767885,0.000000,-7698.141797,2374.896044
2739.768213,0.000000,-10066.800811,1378.971896
2739.768540,0.000000,-10584.944971,76.609550
2739.768868,222.061783,-8216.285956,-842.705048
2739.769196,444.123565,-6809.894666,-766.095498
2739.769524,-148.041188,-8660.409521,612.876398
2739.769851,-296.082377,-10955.047942,0.000000
2739.770179,0.000000,-11547.212695,-612.876398
2739.770507,296.082377,-10214.842000,-1532.190996
2739.770834,1480.411884,-8364.327145,-1378.971896
2739.771162,1998.556043,-8586.388927,0.000000
2739.771490,1110.308913,-10584.944971,1225.752797
2739.771817,370.102971,-11843.295072,1608.800546
2739.772145,0.000000,-11473.192101,0.000000
2739.772473,-888.247130,-9696.697840,-2757.943793
2739.772801,-740.205942,-7994.224174,-2221.676944
2739.773128,-740.205942,-8438.347739,-383.047749
2739.773456,-1332.370696,-10510.924376,919.314598
2739.773784,-962.267725,-12139.377449,459.657299
2739.774111,-740.205942,-10732.986159,-612.876398
2739.774439,-666.185348,-8290.306550,-1762.019645
2739.774767,-888.247130,-8660.409521,-842.705048
2739.775094,-1036.288319,-9548.656652,0.000000
2739.775422,-666.185348,-11103.089130,-383.047749
2739.775750,-444.123565,-11177.109724,-1149.143247
2739.776078,74.020594,-10140.821405,-1149.143247
2739.776405,518.144159,-8512.368333,229.828649
2739.776733,222.061783,-7920.203579,1302.362347
2739.777061,-740.205942,-9030.512492,919.314598
2739.777388,-666.185348,-10584.944971,0.000000
2739.777716,-222.061783,-9622.677246,-1378.971896
2739.778044,444.123565,-8142.265362,-1225.752797
2739.778371,1110.308913,-7698.141797,229.828649
2739.778699,1184.329507,-9104.533087,1838.629195
2739.779027,1036.288319,-10362.883188,2681.334243
2739.779355,1184.329507,-11473.192101,76.609550
2739.779682,1258.350101,-9918.759623,-1378.971896
2739.780010,1036.288319,-8068.244768,-1149.143247
2739.780338,222.061783,-7772.162391,0.000000
2739.780665,-1480.411884,-9326.594869,1149.143247
2739.780993,-1258.350101,-10066.800811,-459.657299
2739.781321,-222.061783,-10288.862594,-1072.533697
2739.781648,888.247130,-9622.677246,-1455.581446
2739.781976,814.226536,-8586.388927,-229.828649
2739.782304,1480.411884,-9178.553681,1149.143247
2739.782632,1480.411884,-10658.965565,1149.143247
2739.782959,1110.308913,-11547.212695,0.000000
2739.783287,814.226536,-10584.944971,-1149.143247
2739.783615,592.164754,-8438.347739,-1532.190996
2739.783942,1332.370696,-9178.553681,-919.314598
2739.784270,666.185348,-10362.883188,153.219100
2739.784598,296.082377,-12065.356855,0.000000
2739.784925,1110.308913,-11843.295072,-1378.971896
2739.785253,1406.391290,-9770.718434,-2451.505594
2739.785581,1924.535449,-8586.388927,-2068.457845
2739.785909,1702.473667,-9030.512492,153.219100
2739.786236,1406.391290,-10436.903782,919.314598
2739.786564,1554.432478,-10732.986159,536.266849
2739.786892,1184.329507,-9918.759623,0.000000
2739.787219,962.267725,-8364.327145,0.000000
2739.787547,222.061783,-8290.306550,383.047749
2739.787875,0.000000,-9918.759623,995.924147
2739.788202,-370.102971,-11547.212695,229.828649
2739.788530,-814.226536,-10658.965565,-995.924147
2739.788858,-888.247130,-9326.594869,-1532.190996
2739.789186,-666.185348,-8364.327145,-766.095498
2739.789513,-888.247130,-8364.327145,306.438199
2739.789841,-814.226536,-9770.718434,1149.143247
2739.790169,-222.061783,-10362.883188,612.876398
2739.790496,0.000000,-9696.697840,-229.828649
2739.790824,296.082377,-7254.018232,842.705048
2739.791152,0.000000,-7254.018232,842.705048
2739.791479,-296.082377,-9104.533087,1302.362347
2739.791807,-518.144159,-10732.986159,995.924147
2739.792135,-444.123565,-10214.842000,-689.485948
2739.792463,0.000000,-8808.450710,-1302.362347
2739.792790,666.185348,-8364.327145,0.000000
2739.793118,370.102971,-9400.615463,995.924147
2739.793446,-592.164754,-10955.047942,1532.190996
2739.793773,-1036.288319,-11547.212695,0.000000
2739.794101,-1036.288319,-10066.800811,-2221.676944
2739.794429,-592.164754,-8364.327145,-2604.724693
2739.794756,-370.102971,-7846.182985,-995.924147
2739.795084,-222.061783,-9252.574275,919.314598
2739.795412,592.164754,-11399.171507,689.485948
2739.795740,592.164754,-11325.150913,-536.266849
2739.796067,444.123565,-10510.924376,-2145.067394
2739.796395,518.144159,-9252.574275,-1838.629195
2739.796723,592.164754,-9548.656652,-1378.971896
2739.797050,740.205942,-11473.192101,-383.047749
2739.797378,1924.535449,-12953.603985,0.000000
2739.797706,1850.514855,-11177.109724,-689.485948
2739.798033,1480.411884,-8956.491898,-536.266849
2739.798361,888.247130,-8142.265362,229.828649
2739.798689,370.102971,-9030.512492,229.828649
2739.799017,-444.123565,-10436.903782,0.000000
2739.799344,-962.267725,-10362.883188,-459.657299
2739.799672,-148.041188,-8734.430116,-766.095498
2739.800000,592.164754,-8068.244768,-383.047749
2739.800327,666.185348,-8438.347739,383.047749
2739.800655,148.041188,-10066.800811,1225.752797
2739.800983,740.205942,-11325.150913,229.828649
2739.801310,1036.288319,-10732.986159,-383.047749
2739.801638,1036.288319,-8808.450710,-919.314598
2739.801966,1406.391290,-7402.059420,76.609550
2739.802294,518.144159,-7772.162391,1762.019645
2739.802621,296.082377,-10140.821405,2068.457845
2739.802949,518.144159,-11029.068536,766.095498
2739.803277,666.185348,-9474.636058,-1072.533697
2739.803604,444.123565,-7920.203579,-1149.143247
2739.803932,518.144159,-8438.347739,-306.438199
2739.804260,-444.123565,-8882.471304,1991.848295
2739.804587,-370.102971,-10732.986159,842.705048
2739.804915,-222.061783,-11251.130318,-1149.143247
2739.805243,0.000000,-9770.718434,-1915.238745
2739.805571,444.123565,-8734.430116,-1149.143247
2739.805898,370.102971,-9326.594869,153.219100
2739.806226,-592.164754,-10510.924376,1532.190996
2739.806554,-666.185348,-12361.439231,229.828649
2739.806881,-592.164754,-10140.821405,-1532.190996
2739.807209,222.061783,-9178.553681,-3217.601092
2739.807537,296.082377,-8808.450710,-2374.896044
2739.807864,222.061783,-10510.924376,-229.828649
2739.808192,444.123565,-12213.398043,1532.190996
2739.808520,1776.494261,-11769.274478,612.876398
2739.808848,2220.617826,-9548.656652,-306.438199
2739.809175,1332.370696,-8734.430116,-459.657299
2739.809503,296.082377,-9252.574275,229.828649
2739.809831,-1184.329507,-10288.862594,612.876398
2739.810158,-1702.473667,-9844.739029,-536.266849
2739.810486,-1924.535449,-9252.574275,-1608.800546
2739.810814,-1628.453072,-7846.182985,-919.314598
2739.811141,-444.123565,-7550.100608,0.000000
2739.811469,222.061783,-8660.409521,842.705048
2739.811797,0.000000,-10732.986159,995.924147
2739.812125,-370.102971,-10955.047942,0.000000
2739.812452,0.000000,-8734.430116,-842.705048
2739.812780,666.185348,-7105.977043,0.000000
2739.813108,814.226536,-7550.100608,1225.752797
2739.813435,518.144159,-9548.656652,2911.162892
2739.813763,1258.350101,-11177.109724,1991.848295
2739.814091,1036.288319,-9918.759623,153.219100
2739.814418,1110.308913,-9104.533087,-842.705048
2739.814746,296.082377,-8142.265362,-766.095498
2739.815074,74.020594,-9178.553681,-306.438199
2739.815402,296.082377,-10955.047942,0.000000
2739.815729,888.247130,-10807.006753,-229.828649
2739.816057,1628.453072,-9474.636058,-459.657299
2739.816385,2516.700203,-8364.327145,306.438199
2739.816712,1998.556043,-8882.471304,1225.752797
2739.817040,740.205942,-10584.944971,1149.143247
2739.817368,-222.061783,-11843.295072,-229.828649
2739.817695,-222.061783,-11029.068536,-2221.676944
2739.818023,-296.082377,-9400.615463,-3064.381992
2739.818351,0.000000,-7846.182985,-995.924147
2739.818679,0.000000,-9400.615463,306.438199
2739.819006,814.226536,-11695.253884,919.314598
2739.819334,1406.391290,-12139.377449,-229.828649
2739.819662,1110.308913,-11103.089130,-919.314598
2739.819989,814.226536,-8142.265362,-689.485948
2739.820317,444.123565,-6809.894666,0.000000
2739.820645,-444.123565,-8586.388927,1072.533697
2739.820972,222.061783,-10955.047942,1225.752797
2739.821300,518.144159,-10214.842000,76.609550
2739.821628,962.267725,-8586.388927,-459.657299
2739.821956,1110.308913,-7994.224174,-612.876398
2739.822283,814.226536,-9252.574275,0.000000
2739.822611,0.000000,-9770.718434,459.657299
2739.822939,370.102971,-10140.821405,383.047749
2739.823266,666.185348,-10140.821405,-1072.533697
2739.823594,592.164754,-9104.533087,-536.266849
2739.823922,1480.411884,-8808.450710,536.266849
2739.824249,814.226536,-9844.739029,1762.019645
2739.824577,592.164754,-11399.171507,1915.238745
2739.824905,0.000000,-11029.068536,-229.828649
2739.825233,-444.123565,-8808.450710,-1302.362347
2739.825560,-518.144159,-7402.059420,-1532.190996
2739.825888,-1036.288319,-7994.224174,-306.438199
2739.826216,-1850.514855,-9770.718434,153.219100
2739.826543,-1554.432478,-11621.233289,-306.438199
2739.826871,-962.267725,-10955.047942,-1225.752797
2739.827199,0.000000,-9030.512492,-1072.533697
2739.827526,370.102971,-8808.450710,0.000000
2739.827854,0.000000,-10436.903782,229.828649
2739.828182,-222.061783,-11547.212695,459.657299
2739.828510,-296.082377,-11399.171507,-612.876398
2739.828837,-370.102971,-9252.574275,-1608.800546
2739.829165,0.000000,-7994.224174,-1685.410096
2739.829493,-222.061783,-8586.388927,76.609550
2739.829820,0.000000,-10807.006753,536.266849
2739.830148,222.061783,-11843.295072,612.876398
2739.830476,592.164754,-10510.924376,-1149.143247
2739.830803,1036.288319,-9178.553681,-1762.019645
2739.831131,740.205942,-8808.450710,-536.266849
2739.831459,148.041188,-9030.512492,1149.143247
2739.831787,444.123565,-10436.903782,1378.971896
2739.832114,518.144159,-10436.903782,536.266849
2739.832442,296.082377,-8734.430116,-689.485948
2739.832770,222.061783,-7550.100608,-459.657299
2739.833097,0.000000,-8364.327145,76.609550
2739.833425,0.000000,-10658.965565,76.609550
2739.833753,74.020594,-12287.418637,-383.047749
2739.834080,296.082377,-10807.006753,-1455.581446
2739.834408,444.123565,-8586.388927,-1302.362347
2739.834736,888.247130,-8068.244768,-459.657299
2739.835064,592.164754,-8660.409521,1072.533697
2739.835391,444.123565,-9992.780217,1455.581446
2739.835719,814.226536,-10436.903782,766.095498
2739.836047,1406.391290,-9104.533087,-459.657299
2739.836373,1998.556043,-7920.203579,-612.876398
2739.836701,1258.350101,-9030.512492,-842.705048
2739.837028,740.205942,-9474.636058,536.266849
2739.837356,1036.288319,-11029.068536,612.876398
2739.837684,1702.473667,-11325.150913,-842.705048
2739.838011,2590.720797,-10066.800811,-1225.752797
2739.838339,2146.597232,-9326.594869,229.828649
2739.838666,666.185348,-9696.697840,1072.533697
2739.838994,0.000000,-10510.924376,919.314598
2739.839322,-1184.329507,-9844.739029,-612.876398
2739.839649,-1406.391290,-9252.574275,-1991.848295
2739.839977,-888.247130,-8142.265362,-1838.629195
2739.840304,-444.123565,-7698.141797,-1072.533697
2739.840632,0.000000,-9326.594869,76.609550
2739.840959,962.267725,-11251.130318,383.047749
2739.841287,1628.453072,-12435.459826,0.000000
2739.841615,1628.453072,-10140.821405,-383.047749
2739.841942,2072.576638,-9030.512492,-995.924147
2739.842270,1332.370696,-9474.636058,306.438199
2739.842597,444.123565,-10807.006753,1455.581446
2739.842925,962.267725,-10881.027347,612.876398
2739.843253,592.164754,-9844.739029,-306.438199
2739.843580,592.164754,-7994.224174,0.000000
2739.843908,0.000000,-7254.018232,-229.828649
2739.844235,-518.144159,-8660.409521,842.705048
2739.844563,-1554.432478,-9548.656652,306.438199
2739.844890,-1628.453072,-10288.862594,-919.314598
2739.845218,-1110.308913,-9474.636058,-1608.800546
2739.845546,-518.144159,-7698.141797,-383.047749
2739.845873,-296.082377,-8586.388927,766.095498
2739.846201,-1110.308913,-10436.903782,1838.629195
2739.846528,-962.267725,-11325.150913,536.266849
2739.846856,-962.267725,-9844.739029,-1225.752797
2739.847184,-1036.288319,-8438.347739,-1838.629195
2739.847511,-1110.308913,-8438.347739,-1149.143247
2739.847839,-666.185348,-9474.636058,-459.657299
2739.848166,-296.082377,-10732.986159,-459.657299
2739.848494,666.185348,-11473.192101,0.000000
2739.848821,814.226536,-11103.089130,-536.266849
2739.849149,444.123565,-8660.409521,0.000000
2739.849477,222.061783,-8364.327145,536.266849
2739.849804,222.061783,-10362.883188,536.266849
2739.850132,0.000000,-11843.295072,76.609550
2739.850459,0.000000,-10658.965565,-383.047749
2739.850787,1110.308913,-8512.368333,-536.266849
2739.851115,1258.350101,-8660.409521,-306.438199
2739.851442,296.082377,-10066.800811,842.705048
2739.851770,-888.247130,-11251.130318,612.876398
2739.852097,-962.267725,-11029.068536,-1608.800546
2739.852425,0.000000,-9844.739029,-3064.381992
2739.852752,444.123565,-8734.430116,-2068.457845
2739.853080,740.205942,-8660.409521,919.314598
2739.853408,1184.329507,-10066.800811,2451.505594
2739.853735,2072.576638,-11177.109724,1915.238745
2739.854063,2220.617826,-10362.883188,0.000000
2739.854390,1998.556043,-8438.347739,-995.924147
2739.854718,1702.473667,-7624.121203,-919.314598
2739.855046,444.123565,-8216.285956,1302.362347
2739.855373,518.144159,-10288.862594,459.657299
2739.855701,518.144159,-10881.027347,-536.266849
2739.856028,888.247130,-9770.718434,-1532.190996
2739.856356,814.226536,-8216.285956,-612.876398
2739.856683,666.185348,-7994.224174,536.266849
2739.857011,296.082377,-9622.677246,459.657299
2739.857339,888.247130,-11029.068536,0.000000
2739.857666,1036.288319,-9844.739029,306.438199
2739.857994,1702.473667,-8512.368333,-229.828649
2739.858321,2072.576638,-7624.121203,383.047749
2739.858649,1110.308913,-8364.327145,1378.971896
2739.858977,222.061783,-10362.883188,1149.143247
2739.859304,296.082377,-11325.150913,-459.657299
2739.859632,1036.288319,-11843.295072,-2604.724693
2739.859959,444.123565,-9548.656652,-1532.190996
2739.860287,-592.164754,-9030.512492,-612.876398
2739.860614,-666.185348,-10510.924376,383.047749
2739.860942,-814.226536,-11399.171507,306.438199
2739.861270,-518.144159,-10436.903782,-459.657299
2739.861597,0.000000,-8290.306550,-383.047749
2739.861925,296.082377,-7772.162391,-383.047749
2739.862252,148.041188,-9030.512492,0.000000
2739.862580,-1184.329507,-10732.986159,612.876398
2739.862908,-1332.370696,-11843.295072,-689.485948
2739.863235,-1036.288319,-10658.965565,-1915.238745
2739.863563,-592.164754,-9326.594869,-2221.676944
2739.863890,-518.144159,-8290.306550,-995.924147
2739.864218,-370.102971,-10214.842000,995.924147
2739.864545,0.000000,-11843.295072,2221.676944
2739.864873,0.000000,-11325.150913,306.438199
2739.865201,370.102971,-8956.491898,-689.485948
2739.865528,74.020594,-6809.894666,-612.876398
2739.865856,-666.185348,-6883.915261,306.438199
2739.866183,-592.164754,-8586.388927,1685.410096
2739.866511,222.061783,-10066.800811,1378.971896
2739.866839,1036.288319,-9474.636058,-459.657299
2739.867166,888.247130,-8660.409521,-536.266849
2739.867494,740.205942,-8364.327145,0.000000
2739.867821,-148.041188,-10066.800811,459.657299
2739.868149,-814.226536,-11547.212695,0.000000
2739.868476,0.000000,-10362.883188,-1991.848295
2739.868804,814.226536,-8956.491898,-1685.410096
2739.869132,1776.494261,-9178.553681,-1225.752797
2739.869459,1332.370696,-8734.430116,1378.971896
2739.869787,740.205942,-9696.697840,1072.533697
2739.870114,592.164754,-11547.212695,-612.876398
2739.870442,370.102971,-11547.212695,-1838.629195
2739.870770,0.000000,-9400.615463,-2298.286494
2739.871097,0.000000,-7698.141797,-1149.143247
2739.871425,222.061783,-9474.636058,76.609550
2739.871752,148.041188,-11843.295072,383.047749
2739.872080,814.226536,-12361.439231,306.438199
2739.872407,1332.370696,-10732.986159,-612.876398
2739.872735,1998.556043,-8734.430116,-1685.410096
2739.873063,1258.350101,-9104.533087,0.000000
2739.873390,-518.144159,-9622.677246,536.266849
2739.873718,-1406.391290,-9474.636058,536.266849
2739.874045,0.000000,-9844.739029,-612.876398
2739.874373,666.185348,-9918.759623,-919.314598
2739.874701,1036.288319,-9696.697840,-229.828649
2739.875028,814.226536,-9548.656652,1149.143247
2739.875356,814.226536,-10214.842000,1378.971896
2739.875683,222.061783,-10732.986159,0.000000
2739.876011,0.000000,-9178.553681,-995.924147
2739.876338,518.144159,-7846.182985,-689.485948
2739.876666,740.205942,-7179.997637,76.609550
2739.876994,370.102971,-8734.430116,995.924147
2739.877321,0.000000,-10955.047942,1225.752797
2739.877649,0.000000,-10732.986159,229.828649
2739.877976,0.000000,-9326.594869,-1149.143247
2739.878304,0.000000,-8364.327145,-842.705048
2739.878632,-296.082377,-9622.677246,-536.266849
2739.878959,-296.082377,-10881.027347,612.876398
2739.879287,0.000000,-10955.047942,153.219100
2739.879614,444.123565,-10214.842000,0.000000
2739.879942,518.144159,-8586.388927,153.219100
2739.880269,0.000000,-7698.141797,306.438199
2739.880597,-518.144159,-8586.388927,842.705048
2739.880925,-666.185348,-9844.739029,-306.438199
2739.881252,-740.205942,-10955.047942,-1302.362347
2739.881580,148.041188,-10658.965565,-1915.238745
2739.881907,296.082377,-9252.574275,-1378.971896
2739.882235,74.020594,-9030.512492,229.828649
2739.882562,0.000000,-10807.006753,383.047749
2739.882890,740.205942,-11547.212695,459.657299
2739.883218,1628.453072,-10658.965565,-1532.190996
2739.883545,370.102971,-8882.471304,-1072.533697
2739.883873,148.041188,-8660.409521,-306.438199
2739.884200,-592.164754,-9400.615463,153.219100
2739.884528,-740.205942,-10288.862594,229.828649
2739.884856,-888.247130,-10510.924376,-612.876398
2739.885183,-888.247130,-9252.574275,-2374.896044
2739.885511,-370.102971,-7402.059420,-2068.457845
2739.885838,0.000000,-8882.471304,-383.047749
2739.886166,666.185348,-10066.800811,612.876398
2739.886493,1258.350101,-11251.130318,919.314598
2739.886821,2368.659014,-10955.047942,306.438199
2739.887149,2812.782580,-9178.553681,-612.876398
2739.887476,2590.720797,-7698.141797,76.609550
2739.887804,1110.308913,-8660.409521,1225.752797
2739.888131,740.205942,-10510.924376,1072.533697
2739.888459,1480.411884,-11547.212695,-612.876398
2739.888787,1036.288319,-10362.883188,-995.924147
2739.889114,814.226536,-8068.244768,-536.266849
2739.889442,518.144159,-8290.306550,0.000000
2739.889769,74.020594,-10140.821405,689.485948
2739.890097,-148.041188,-10584.944971,306.438199
2739.890424,74.020594,-9770.718434,-689.485948
2739.890752,296.082377,-8734.430116,-306.438199
2739.891080,148.041188,-8216.285956,153.219100
2739.891407,0.000000,-9252.574275,919.314598
2739.891735,-296.082377,-10066.800811,919.314598
2739.892062,-370.102971,-11325.150913,-229.828649
2739.892390,74.020594,-10436.903782,-1915.238745
2739.892718,-296.082377,-9104.533087,-1915.238745
2739.893045,-296.082377,-8808.450710,-689.485948
2739.893373,0.000000,-10066.800811,229.828649
2739.893700,370.102971,-11325.150913,1149.143247
2739.894028,1184.329507,-11029.068536,-536.266849
2739.894355,1480.411884,-8956.491898,-612.876398
2739.894683,1480.411884,-7402.059420,0.000000
2739.895011,592.164754,-8068.244768,1072.533697
2739.895338,0.000000,-9992.780217,1149.143247
2739.895666,74.020594,-11103.089130,0.000000
2739.895993,0.000000,-10288.862594,-689.485948
2739.896321,-296.082377,-9104.533087,-919.314598
2739.896649,-740.205942,-8956.491898,-842.705048
2739.896976,-814.226536,-10140.821405,0.000000
2739.897304,-814.226536,-11399.171507,-383.047749
2739.897631,-740.205942,-10732.986159,-995.924147
2739.897959,0.000000,-9548.656652,-1302.362347
2739.898286,814.226536,-8068.244768,-229.828649
2739.898614,888.247130,-8438.347739,383.047749
2739.898942,370.102971,-9696.697840,1455.581446
2739.899269,222.061783,-10140.821405,459.657299
2739.899597,-296.082377,-9548.656652,-995.924147
2739.899924,0.000000,-8142.265362,-1685.410096
2739.900252,-296.082377,-7772.162391,-1072.533697
2739.900580,-518.144159,-9474.636058,0.000000
2739.900907,222.061783,-12287.418637,536.266849
2739.901235,814.226536,-11917.315666,-153.219100
2739.901562,740.205942,-9326.594869,-689.485948
2739.901890,740.205942,-7476.080014,-766.095498
2739.902217,296.082377,-7994.224174,76.609550
2739.902545,0.000000,-9918.759623,766.095498
2739.902873,222.061783,-10214.842000,153.219100
2739.903200,592.164754,-10140.821405,-383.047749
2739.903528,1332.370696,-9548.656652,0.000000
2739.903855,814.226536,-8586.388927,0.000000
2739.904183,74.020594,-9474.636058,459.657299
2739.904511,-222.061783,-11177.109724,229.828649
2739.904838,0.000000,-11251.130318,-1225.752797
2739.905166,370.102971,-9844.739029,-1838.629195
2739.905493,962.267725,-8290.306550,0.000000
2739.905821,814.226536,-8142.265362,1455.581446
2739.906148,814.226536,-9252.574275,1915.238745
2739.906476,592.164754,-10955.047942,842.705048
2739.906804,666.185348,-10658.965565,-766.095498
2739.907131,296.082377,-8956.491898,-1608.800546
2739.907459,444.123565,-8290.306550,-1915.238745
2739.907786,444.123565,-9548.656652,-689.485948
2739.908114,518.144159,-11843.295072,153.219100
2739.908442,592.164754,-11769.274478,612.876398
2739.908769,1110.308913,-10214.842000,-689.485948
2739.909097,1480.411884,-8586.388927,-536.266849
2739.909424,1110.308913,-8216.285956,306.438199
2739.909752,0.000000,-8364.327145,1302.362347
2739.910079,-222.061783,-10214.842000,1072.533697
2739.910407,-222.061783,-9696.697840,76.609550
2739.910735,740.205942,-9030.512492,-1378.971896
2739.911062,296.082377,-8290.306550,-383.047749
2739.911390,-370.102971,-8882.471304,842.705048
2739.911717,0.000000,-10658.965565,766.095498
2739.912045,370.102971,-11325.150913,0.000000
2739.912373,148.041188,-9622.677246,-1685.410096
2739.912700,444.123565,-8438.347739,-1302.362347
2739.913028,148.041188,-8512.368333,-612.876398
2739.913355,0.000000,-9770.718434,612.876398
2739.913683,-296.082377,-10807.006753,76.609550
2739.914010,-370.102971,-10362.883188,-766.095498
2739.914338,296.082377,-10066.800811,-1072.533697
2739.914666,592.164754,-9252.574275,-536.266849
2739.914993,0.000000,-9326.594869,0.000000
2739.915321,-518.144159,-11399.171507,306.438199
2739.915648,0.000000,-12139.377449,-689.485948
2739.915976,592.164754,-10732.986159,-1302.362347
2739.916304,740.205942,-8438.347739,-1072.533697
2739.916631,444.123565,-7698.141797,76.609550
2739.916959,0.000000,-8808.450710,1378.971896
2739.917286,-296.082377,-10436.903782,1149.143247
2739.917614,0.000000,-10288.862594,76.609550
2739.917941,0.000000,-9252.574275,-1532.190996
2739.918269,0.000000,-8808.450710,-1455.581446
2739.918597,-888.247130,-9474.636058,0.000000
2739.918924,-1776.494261,-9400.615463,995.924147
2739.919252,-962.267725,-10140.821405,689.485948
2739.919579,-296.082377,-10214.842000,-995.924147
2739.919907,518.144159,-9770.718434,-689.485948
2739.920235,74.020594,-8660.409521,383.047749
2739.920562,74.020594,-8882.471304,1302.362347
2739.920890,592.164754,-9992.780217,0.000000
2739.921217,592.164754,-10362.883188,-229.828649
2739.921545,370.102971,-8512.368333,-1455.581446
2739.921872,888.247130,-6883.915261,-689.485948
2739.922200,1184.329507,-8216.285956,0.000000
2739.922528,814.226536,-11029.068536,76.609550
2739.922855,1184.329507,-11991.336260,0.000000
2739.923183,1480.411884,-10807.006753,-536.266849
2739.923510,1628.453072,-9844.739029,-1378.971896
2739.923838,1776.494261,-9252.574275,-383.047749
2739.924166,1258.350101,-9548.656652,-536.266849
2739.924493,222.061783,-10436.903782,1072.533697
2739.924821,222.061783,-11399.171507,0.000000
2739.925148,740.205942,-10436.903782,-1149.143247
2739.925476,666.185348,-9400.615463,-1072.533697
2739.925803,-370.102971,-9104.533087,0.000000
2739.926131,-1332.370696,-9400.615463,995.924147
2739.926459,-1110.308913,-10732.986159,-153.219100
2739.926786,-148.041188,-10288.862594,-1302.362347
2739.927114,296.082377,-9252.574275,-1455.581446
2739.927441,740.205942,-8660.409521,0.000000
2739.927769,962.267725,-9104.533087,1302.362347
2739.928097,962.267725,-10140.821405,1532.190996
2739.928424,444.123565,-10214.842000,306.438199
2739.928752,148.041188,-9474.636058,0.000000
2739.929079,-518.144159,-7105.977043,0.000000
2739.929407,-296.082377,-8216.285956,-229.828649
2739.929734,0.000000,-9696.697840,919.314598
2739.930062,0.000000,-10584.944971,536.266849
2739.930390,-148.041188,-10955.047942,0.000000
2739.930717,518.144159,-8808.450710,-1302.362347
2739.931045,518.144159,-6883.915261,0.000000
2739.931372,444.123565,-8068.244768,842.705048
2739.931700,74.020594,-9918.759623,1455.581446
2739.932028,888.247130,-10436.903782,919.314598
2739.932355,1702.473667,-10362.883188,-383.047749
2739.932683,1850.514855,-9474.636058,0.000000
2739.933010,962.267725,-8956.491898,0.000000
2739.933338,0.000000,-9548.656652,689.485948
2739.933665,-148.041188,-11029.068536,-459.657299
2739.933993,666.185348,-11843.295072,-1915.238745
2739.934321,888.247130,-10066.800811,-2528.115143
2739.934648,518.144159,-8882.471304,-842.705048
2739.934976,222.061783,-9252.574275,842.705048
2739.935303,-296.082377,-9992.780217,1455.581446
2739.935631,148.041188,-10140.821405,-306.438199
2739.935958,-592.164754,-9474.636058,-919.314598
2739.936286,-962.267725,-8882.471304,-1532.190996
2739.936613,-740.205942,-9030.512492,-383.047749
2739.936941,-296.082377,-10584.944971,153.219100
2739.937268,-518.144159,-12065.356855,76.609550
2739.937596,-888.247130,-10955.047942,76.609550
2739.937923,296.082377,-9326.594869,-1685.410096
2739.938251,1332.370696,-8734.430116,-1378.971896
2739.938578,814.226536,-8734.430116,229.828649
2739.938906,296.082377,-9622.677246,1608.800546
2739.939233,592.164754,-10140.821405,1378.971896
2739.939560,1406.391290,-9918.759623,0.000000
2739.939888,1332.370696,-8364.327145,0.000000
2739.940215,0.000000,-7031.956449,0.000000
2739.940543,-592.164754,-7772.162391,612.876398
2739.940870,-296.082377,-10732.986159,842.705048
2739.941198,-370.102971,-10658.965565,0.000000
2739.941525,-592.164754,-9474.636058,-1225.752797
2739.941853,-518.144159,-8734.430116,-1225.752797
2739.942180,0.000000,-9030.512492,-229.828649
2739.942508,74.020594,-10288.862594,0.000000
2739.942835,518.144159,-11399.171507,-536.266849
2739.943163,444.123565,-10658.965565,-842.705048
2739.943490,1110.308913,-9474.636058,-689.485948
2739.943818,1036.288319,-8586.388927,-459.657299
2739.944145,370.102971,-8734.430116,536.266849
2739.944473,74.020594,-9992.780217,76.609550
2739.944800,592.164754,-10436.903782,153.219100
2739.945128,1332.370696,-10658.965565,-1455.581446
2739.945455,1776.494261,-9252.574275,-1149.143247
2739.945783,1554.432478,-8660.409521,153.219100
2739.946110,740.205942,-10066.800811,919.314598
2739.946438,962.267725,-12065.356855,306.438199
2739.946765,666.185348,-12139.377449,-383.047749
2739.947093,518.144159,-10066.800811,-1685.410096
2739.947420,740.205942,-8438.347739,-1378.971896
2739.947748,-740.205942,-8586.388927,76.609550
2739.948075,-1480.411884,-10362.883188,1149.143247
2739.948403,-962.267725,-10955.047942,76.609550
2739.948730,74.020594,-10214.842000,-1455.581446
2739.949058,1036.288319,-9104.533087,-919.314598
2739.949385,814.226536,-8290.306550,229.828649
2739.949713,74.020594,-8808.450710,1762.019645
2739.950040,0.000000,-9770.718434,995.924147
2739.950368,222.061783,-10066.800811,0.000000
2739.950695,592.164754,-8808.450710,-536.266849
2739.951023,444.123565,-8142.265362,76.609550
2739.951350,-296.082377,-8364.327145,995.924147
2739.951678,-518.144159,-9918.759623,1149.143247
2739.952005,-222.061783,-11251.130318,76.609550
2739.952333,74.020594,-10362.883188,-1455.581446
2739.952660,814.226536,-8808.450710,-1302.362347
2739.952988,1406.391290,-8290.306550,-536.266849
2739.953315,1110.308913,-9474.636058,536.266849
2739.953643,592.164754,-10732.986159,842.705048
2739.953970,296.082377,-10807.006753,612.876398
2739.954298,1258.350101,-9474.636058,-459.657299
2739.954625,592.164754,-8364.327145,-229.828649
2739.954953,-222.061783,-8882.471304,0.000000
2739.955280,-1184.329507,-10066.800811,459.657299
2739.955608,-962.267725,-11029.068536,-459.657299
2739.955935,-592.164754,-10584.944971,-1302.362347
2739.956263,-296.082377,-9548.656652,-1378.971896
2739.956590,666.185348,-9030.512492,-459.657299
2739.956918,296.082377,-9474.636058,536.266849
2739.957245,444.123565,-11251.130318,229.828649
2739.957573,370.102971,-11103.089130,-766.095498
2739.957900,518.144159,-9474.636058,-1302.362347
2739.958228,222.061783,-7698.141797,-995.924147
2739.958555,-370.102971,-8216.285956,153.219100
2739.958883,-518.144159,-10436.903782,459.657299
2739.959210,0.000000,-11621.233289,-229.828649
2739.959538,1036.288319,-10362.883188,-1302.362347
2739.959865,1406.391290,-9474.636058,-1225.752797
2739.960193,1258.350101,-9178.553681,229.828649
2739.960520,1036.288319,-9548.656652,842.705048
2739.960848,666.185348,-10584.944971,536.266849
2739.961175,962.267725,-11251.130318,-306.438199
2739.961503,888.247130,-9770.718434,-919.314598
2739.961830,1110.308913,-8068.244768,0.000000
2739.962158,148.041188,-7550.100608,1225.752797
2739.962485,-1036.288319,-9252.574275,1532.190996
2739.962813,-1554.432478,-11029.068536,0.000000
2739.963140,-1036.288319,-10288.862594,-1838.629195
2739.963468,-888.247130,-7920.203579,-2298.286494
2739.963795,0.000000,-8068.244768,-1685.410096
2739.964122,-296.082377,-9400.615463,459.657299
2739.964450,296.082377,-10584.944971,1072.533697
2739.964777,962.267725,-10881.027347,306.438199
2739.965105,1406.391290,-10584.944971,-459.657299
2739.965432,1406.391290,-9622.677246,-536.266849
2739.965760,222.061783,-8438.347739,229.828649
2739.966087,296.082377,-9696.697840,76.609550
2739.966415,592.164754,-11325.150913,-306.438199
2739.966742,518.144159,-11103.089130,-689.485948
2739.967070,1184.329507,-9548.656652,-1149.143247
2739.967397,1850.514855,-8438.347739,-306.438199
2739.967725,1184.329507,-9178.553681,229.828649
2739.968052,666.185348,-10955.047942,689.485948
2739.968380,666.185348,-12139.377449,383.047749
2739.968707,1184.329507,-10584.944971,-995.924147
2739.969035,1110.308913,-8882.471304,-995.924147
2739.969362,222.061783,-8734.430116,229.828649
2739.969690,-1036.288319,-9622.677246,1149.143247
2739.970017,-888.247130,-10140.821405,842.705048
2739.970345,-740.205942,-10510.924376,-536.266849
2739.970672,0.000000,-9992.780217,-1991.848295
2739.971000,-148.041188,-8512.368333,-1149.143247
2739.971327,-740.205942,-8364.327145,612.876398
2739.971655,-1258.350101,-9326.594869,1225.752797
2739.971982,-518.144159,-9844.739029,0.000000
2739.972310,444.123565,-9844.739029,-612.876398
2739.972637,888.247130,-9104.533087,-76.609550
2739.972965,1184.329507,-7772.162391,689.485948
2739.973292,222.061783,-8660.409521,1915.238745
2739.973620,74.020594,-9992.780217,919.314598
2739.973947,74.020594,-9992.780217,-536.266849
2739.974275,444.123565,-8808.450710,-1915.238745
2739.974602,814.226536,-8586.388927,-1532.190996
2739.974930,1776.494261,-9770.718434,-919.314598
2739.975257,888.247130,-10658.965565,536.266849
2739.975585,296.082377,-11103.089130,689.485948
2739.975912,296.082377,-10288.862594,-306.438199
2739.976240,444.123565,-9400.615463,-1455.581446
2739.976567,74.020594,-8216.285956,-1225.752797
2739.976895,-962.267725,-8364.327145,0.000000
2739.977222,-740.205942,-9918.759623,919.314598
2739.977550,-888.247130,-11103.089130,-536.266849
2739.977877,592.164754,-10732.986159,-1762.019645
2739.978205,962.267725,-9844.739029,-1532.190996
2739.978532,814.226536,-9844.739029,-689.485948
2739.978860,1184.329507,-10955.047942,-229.828649
2739.979187,1628.453072,-11991.336260,-689.485948
2739.979515,1110.308913,-11325.150913,-1225.752797
2739.979842,1184.329507,-9622.677246,-689.485948
2739.980170,1110.308913,-8512.368333,0.000000
2739.980497,296.082377,-8438.347739,689.485948
2739.980825,148.041188,-10140.821405,919.314598
2739.981152,-444.123565,-10214.842000,459.657299
2739.981480,-370.102971,-8586.388927,-536.266849
2739.981807,0.000000,-7772.162391,-1149.143247
2739.982135,0.000000,-8808.450710,76.609550
2739.982462,-518.144159,-9622.677246,1149.143247
2739.982790,0.000000,-10881.027347,536.266849
2739.983117,518.144159,-10732.986159,-459.657299
2739.983445,1480.411884,-9992.780217,-689.485948
2739.983772,1332.370696,-8142.265362,0.000000
2739.984100,222.061783,-8216.285956,2298.286494
2739.984427,0.000000,-9844.739029,1991.848295
2739.984755,222.061783,-9844.739029,153.219100
2739.985082,0.000000,-9030.512492,-1455.581446
2739.985410,0.000000,-8512.368333,-1072.533697
2739.985737,222.061783,-8438.347739,0.000000
2739.986065,0.000000,-8660.409521,919.314598
2739.986392,592.164754,-11177.109724,0.000000
2739.986720,74.020594,-11769.274478,-612.876398
2739.987047,0.000000,-9918.759623,-1225.752797
2739.987375,-518.144159,-8290.306550,-842.705048
2739.987702,-592.164754,-8956.491898,-612.876398
2739.988030,-222.061783,-10881.027347,-306.438199
2739.988357,0.000000,-11843.295072,-306.438199
2739.988684,740.205942,-11177.109724,-612.876398
2739.989012,1776.494261,-10955.047942,-1302.362347
2739.989339,1776.494261,-9548.656652,-1225.752797
2739.989667,592.164754,-10140.821405,-459.657299
2739.989994,222.061783,-11473.192101,229.828649
2739.990322,888.247130,-11177.109724,-459.657299
2739.990649,1258.350101,-9400.615463,-766.095498
2739.990977,1924.535449,-8216.285956,-766.095498
2739.991304,592.164754,-8142.265362,1302.362347
2739.991632,-222.061783,-9770.718434,1991.848295
2739.991959,-370.102971,-10658.965565,536.266849
2739.992287,-296.082377,-10214.842000,-1455.581446
2739.992614,-666.185348,-8364.327145,-1762.019645
2739.992942,-888.247130,-7254.018232,-919.314598
2739.993269,-1184.329507,-8586.388927,153.219100
2739.993597,-1110.308913,-10066.800811,536.266849
2739.993924,-592.164754,-10658.965565,0.000000
2739.994252,74.020594,-9474.636058,-536.266849
2739.994579,740.205942,-8216.285956,0.000000
2739.994907,1184.329507,-8068.244768,842.705048
2739.995234,518.144159,-9178.553681,2298.286494
2739.995562,1036.288319,-10140.821405,459.657299
2739.995889,814.226536,-9474.636058,-689.485948
2739.996217,1036.288319,-8512.368333,-995.924147
2739.996544,962.267725,-7994.224174,-459.657299
2739.996872,592.164754,-9326.594869,229.828649
2739.997199,74.020594,-10510.924376,842.705048
2739.997527,1184.329507,-12213.398043,-612.876398
2739.997854,1406.391290,-10881.027347,-1455.581446
2739.998182,1776.494261,-9696.697840,-1455.581446
2739.998509,666.185348,-9474.636058,0.000000
2739.998837,0.000000,-10807.006753,995.924147
2739.999164,74.020594,-11399.171507,306.438199
2739.999492,0.000000,-10732.986159,-1225.752797
2739.999819,0.000000,-9474.636058,-1762.019645
2740.000147,370.102971,-8882.471304,-1072.533697
2740.000474,-888.247130,-9104.533087,306.438199
2740.000802,-518.144159,-10658.965565,76.609550
2740.001129,-296.082377,-11547.212695,-842.705048
2740.001457,222.061783,-10732.986159,-1149.143247
2740.001784,740.205942,-8808.450710,-306.438199
2740.002112,1110.308913,-8290.306550,229.828649
2740.002439,814.226536,-9030.512492,1838.629195
2740.002767,740.205942,-10807.006753,1225.752797
2740.003094,962.267725,-10140.821405,153.219100
2740.003422,962.267725,-8660.409521,-459.657299
2740.003749,814.226536,-7624.121203,-612.876398
2740.004077,0.000000,-8290.306550,1225.752797
2740.004404,-740.205942,-9474.636058,766.095498
2740.004732,0.000000,-10214.842000,-306.438199
2740.005059,814.226536,-9918.759623,-689.485948
2740.005387,1258.350101,-9400.615463,-689.485948
2740.005714,962.267725,-8586.388927,689.485948
2740.006042,296.082377,-9548.656652,2068.457845
2740.006369,-222.061783,-10732.986159,1149.143247
2740.006697,-444.123565,-9992.780217,-612.876398
2740.007024,0.000000,-8512.368333,-1072.533697
2740.007352,-148.041188,-7772.162391,-1378.971896
2740.007679,-296.082377,-9178.553681,229.828649
2740.008007,-740.205942,-10510.924376,1072.533697
2740.008334,-518.144159,-11621.233289,-383.047749
2740.008662,-592.164754,-11399.171507,-2374.896044
2740.008989,148.041188,-9326.594869,-2834.553343
2740.009317,74.020594,-8586.388927,-1608.800546
2740.009644,296.082377,-10288.862594,459.657299
2740.009972,0.000000,-10732.986159,995.924147
2740.010299,370.102971,-10807.006753,153.219100
2740.010627,962.267725,-9992.780217,-766.095498
2740.010954,962.267725,-8216.285956,-919.314598
2740.011282,444.123565,-8660.409521,-536.266849
2740.011609,74.020594,-10066.800811,76.609550
2740.011937,592.164754,-11325.150913,-76.609550
2740.012264,962.267725,-10955.047942,-1378.971896
2740.012592,1702.473667,-9178.553681,-1149.143247
2740.012919,1184.329507,-8586.388927,229.828649
2740.013246,962.267725,-9992.780217,1225.752797
2740.013574,666.185348,-10955.047942,2068.457845
2740.013901,518.144159,-10214.842000,76.609550
2740.014229,0.000000,-8438.347739,-919.314598
2740.014556,0.000000,-7328.038826,-766.095498
2740.014884,-444.123565,-7846.182985,536.266849
2740.015211,-666.185348,-9178.553681,612.876398
2740.015539,-666.185348,-11029.068536,536.266849
2740.015866,-222.061783,-11029.068536,-1378.971896
2740.016194,444.123565,-9400.615463,-842.705048
2740.016521,-370.102971,-7402.059420,-76.609550
2740.016849,-296.082377,-8216.285956,919.314598
2740.017176,296.082377,-10436.903782,1225.752797
2740.017504,1110.308913,-11473.192101,229.828649
2740.017831,1628.453072,-10066.800811,-612.876398
2740.018159,1850.514855,-8660.409521,-459.657299
2740.018486,1184.329507,-8142.265362,842.705048
2740.018814,370.102971,-9474.636058,1608.800546
2740.019141,74.020594,-10807.006753,0.000000
2740.019469,148.041188,-10584.944971,-1378.971896
2740.019796,814.226536,-9844.739029,-1991.848295
2740.020124,1184.329507,-8956.491898,-612.876398
2740.020451,1184.329507,-9696.697840,459.657299
2740.020779,370.102971,-11251.130318,2221.676944
2740.021106,296.082377,-11325.150913,536.266849
2740.021434,74.020594,-9770.718434,-1838.629195
2740.021761,0.000000,-8216.285956,-2145.067394
2740.022089,-740.205942,-8068.244768,-536.266849
2740.022416,-962.267725,-9474.636058,1072.533697
2740.022744,-296.082377,-10584.944971,76.609550
2740.023071,0.000000,-11325.150913,-1149.143247
2740.023399,518.144159,-10214.842000,-1608.800546
2740.023726,370.102971,-8808.450710,-1225.752797
2740.024054,222.061783,-8808.450710,383.047749
2740.024381,814.226536,-10658.965565,766.095498
2740.024709,1110.308913,-11029.068536,689.485948
2740.025036,1776.494261,-10214.842000,229.828649
2740.025364,2072.576638,-8734.430116,0.000000
2740.025691,1628.453072,-8660.409521,766.095498
2740.026019,666.185348,-8882.471304,1455.581446
2740.026346,0.000000,-9326.594869,612.876398
2740.026674,-888.247130,-9696.697840,-842.705048
2740.027001,-296.082377,-9252.574275,-1762.019645
2740.027329,0.000000,-7920.203579,-1378.971896
2740.027656,-740.205942,-8438.347739,383.047749
2740.027984,-666.185348,-10288.862594,1838.629195
2740.028311,-296.082377,-11103.089130,689.485948
2740.028639,0.000000,-9844.739029,-1225.752797
2740.028966,-296.082377,-8734.430116,-1915.238745
2740.029294,-518.144159,-8290.306550,-1149.143247
2740.029621,-666.185348,-8216.285956,76.609550
2740.029949,0.000000,-10362.883188,306.438199
2740.030276,592.164754,-11917.315666,-459.657299
2740.030604,740.205942,-10658.965565,-1225.752797
2740.030931,1110.308913,-8586.388927,-919.314598
2740.031259,296.082377,-8882.471304,229.828649
2740.031586,-222.061783,-10362.883188,919.314598
2740.031914,-740.205942,-10881.027347,0.000000
2740.032241,-370.102971,-10510.924376,-689.485948
2740.032569,296.082377,-9178.553681,-1532.190996
2740.032896,1332.370696,-8512.368333,-995.924147
2740.033224,1480.411884,-9400.615463,919.314598
2740.033551,962.267725,-10807.006753,1455.581446
2740.033879,518.144159,-11103.089130,76.609550
2740.034206,814.226536,-11103.089130,-1149.143247
2740.034534,518.144159,-9548.656652,-2068.457845
2740.034861,148.041188,-9474.636058,-842.705048
2740.035189,-740.205942,-9770.718434,919.314598
2740.035516,-296.082377,-10881.027347,766.095498
2740.035844,592.164754,-10140.821405,0.000000
2740.036171,1110.308913,-8512.368333,-536.266849
2740.036499,1110.308913,-7402.059420,383.047749
2740.036826,518.144159,-7476.080014,1302.362347
2740.037154,518.144159,-9252.574275,995.924147
2740.037481,592.164754,-10955.047942,-306.438199
2740.037808,740.205942,-10140.821405,-1225.752797
2740.038136,962.267725,-8586.388927,-1072.533697
2740.038463,518.144159,-8660.409521,306.438199
2740.038791,0.000000,-9992.780217,689.485948
2740.039118,148.041188,-11029.068536,0.000000
2740.039446,0.000000,-10732.986159,-1608.800546
2740.039773,740.205942,-9474.636058,-1762.019645
2740.040101,1036.288319,-7624.121203,-919.314598
2740.040428,1110.308913,-7698.141797,536.266849
2740.040756,518.144159,-9252.574275,1838.629195
2740.041083,592.164754,-10658.965565,766.095498
2740.041411,888.247130,-10140.821405,-689.485948
2740.041738,1258.350101,-9844.739029,-2221.676944
2740.042066,518.144159,-9474.636058,-536.266849
2740.042393,0.000000,-10955.047942,153.219100
2740.042721,148.041188,-12287.418637,229.828649
2740.043048,296.082377,-11769.274478,-995.924147
2740.043376,518.144159,-9992.780217,-1991.848295
2740.043703,0.000000,-8660.409521,-1455.581446
2740.044031,-296.082377,-8734.430116,0.000000
2740.044358,-1184.329507,-8808.450710,306.438199
2740.044686,-370.102971,-11103.089130,76.609550
2740.045013,-222.061783,-10584.944971,-689.485948
2740.045341,-222.061783,-8882.471304,-1302.362347
2740.045668,-518.144159,-7624.121203,-229.828649
2740.045996,-962.267725,-8956.491898,1149.143247
2740.046323,-370.102971,-10658.965565,689.485948
2740.046651,222.061783,-11325.150913,76.609550
2740.046978,1110.308913,-9770.718434,-919.314598
2740.047306,1628.453072,-8216.285956,-383.047749
2740.047633,1332.370696,-8068.244768,1149.143247
2740.047961,296.082377,-9104.533087,2145.067394
2740.048288,0.000000,-9918.759623,153.219100
2740.048616,-370.102971,-9400.615463,-612.876398
2740.048943,0.000000,-7698.141797,-2221.676944
2740.049271,0.000000,-7550.100608,-1302.362347
2740.049598,-518.144159,-9622.677246,919.314598
2740.049926,-444.123565,-11251.130318,1991.848295
2740.050253,814.226536,-10807.006753,612.876398
2740.050581,1110.308913,-10362.883188,-1915.238745
2740.050908,370.102971,-8660.409521,-1378.971896
2740.051236,-148.041188,-7846.182985,-153.219100
2740.051563,-740.205942,-9474.636058,1072.533697
2740.051891,0.000000,-11843.295072,76.609550
2740.052218,74.020594,-11843.295072,-919.314598
2740.052546,0.000000,-9252.574275,-1225.752797
2740.052873,74.020594,-9030.512492,-1455.581446
2740.053201,296.082377,-9622.677246,-306.438199
2740.053528,444.123565,-11843.295072,153.219100
2740.053856,222.061783,-11621.233289,-536.266849
2740.054183,888.247130,-9622.677246,-1302.362347
2740.054511,1480.411884,-8290.306550,-1685.410096
2740.054838,1480.411884,-8512.368333,-306.438199
2740.055166,518.144159,-9326.594869,2451.505594
2740.055493,148.041188,-10436.903782,536.266849
2740.055821,1406.391290,-12139.377449,-1072.533697
2740.056148,1258.350101,-10807.006753,-2451.505594
2740.056476,592.164754,-9178.553681,-1302.362347
2740.056803,-296.082377,-9104.533087,766.095498
2740.057131,0.000000,-10510.924376,1302.362347
2740.057458,518.144159,-10140.821405,76.609550
2740.057786,962.267725,-9400.615463,-689.485948
2740.058113,1110.308913,-7476.080014,-459.657299
2740.058441,962.267725,-7254.018232,1455.581446
2740.058768,592.164754,-8216.285956,1838.629195
2740.059096,0.000000,-9992.780217,842.705048
2740.059423,-444.123565,-10362.883188,0.000000
2740.059751,222.061783,-9548.656652,-2068.457845
2740.060078,592.164754,-8290.306550,-1225.752797
2740.060406,444.123565,-9474.636058,536.266849
2740.060733,148.041188,-11029.068536,919.314598
2740.061061,148.041188,-11769.274478,612.876398
2740.061388,296.082377,-10584.944971,-842.705048
2740.061716,1332.370696,-8956.491898,-1149.143247
2740.062043,888.247130,-7624.121203,0.000000
2740.062371,518.144159,-8586.388927,1378.971896
2740.062698,-222.061783,-9770.718434,1608.800546
2740.063025,74.020594,-10510.924376,0.000000
2740.063353,592.164754,-9918.759623,-1608.800546
2740.063680,222.061783,-9474.636058,-1838.629195
2740.064008,0.000000,-9696.697840,-689.485948
2740.064335,-814.226536,-11029.068536,-306.438199
2740.064663,148.041188,-11843.295072,0.000000
2740.064990,-148.041188,-10436.903782,-1532.190996
2740.065318,-296.082377,-9030.512492,-1532.190996
2740.065645,-296.082377,-8734.430116,-536.266849
2740.065973,0.000000,-9770.718434,689.485948
2740.066300,0.000000,-10732.986159,0.000000
2740.066628,-592.164754,-10362.883188,76.609550
2740.066955,-740.205942,-9548.656652,-766.095498
2740.067283,-444.123565,-7772.162391,-1378.971896
2740.067610,-962.267725,-8068.244768,-229.828649
2740.067938,-888.247130,-9696.697840,153.219100
2740.068265,370.102971,-11325.150913,0.000000
2740.068593,1184.329507,-10955.047942,-459.657299
2740.068920,2590.720797,-9918.759623,-612.876398
2740.069248,2812.782580,-9030.512492,612.876398
2740.069575,1998.556043,-8438.347739,2068.457845
2740.069903,1184.329507,-9918.759623,1762.019645
2740.070230,222.061783,-10955.047942,306.438199
2740.070558,-222.061783,-9622.677246,-689.485948
2740.070885,0.000000,-7772.162391,-1225.752797
2740.071213,-518.144159,-7476.080014,-459.657299
2740.071540,-962.267725,-9030.512492,1608.800546
2740.071868,-740.205942,-11029.068536,0.000000
2740.072195,296.082377,-10807.006753,-1455.581446
2740.072523,666.185348,-8808.450710,-1685.410096
2740.072850,814.226536,-8142.265362,-459.657299
2740.073178,592.164754,-8808.450710,1302.362347
2740.073505,592.164754,-10362.883188,1685.410096
2740.073833,1184.329507,-11399.171507,383.047749
2740.074160,888.247130,-11547.212695,-1149.143247
2740.074488,1184.329507,-9548.656652,-1072.533697
2740.074815,888.247130,-9178.553681,-689.485948
2740.075143,-148.041188,-9770.718434,229.828649
2740.075470,0.000000,-11473.192101,-612.876398
2740.075798,444.123565,-11769.274478,-1225.752797
2740.076125,1554.432478,-10288.862594,-1302.362347
2740.076453,1480.411884,-7624.121203,-766.095498
2740.076780,1850.514855,-7920.203579,995.924147
2740.077108,1036.288319,-9992.780217,2068.457845
2740.077435,-148.041188,-11769.274478,1455.581446
2740.077763,-592.164754,-10362.883188,-612.876398
2740.078090,0.000000,-9252.574275,-2451.505594
2740.078418,-370.102971,-8808.450710,-2221.676944
2740.078745,0.000000,-10140.821405,-689.485948
2740.079073,-592.164754,-11621.233289,919.314598
2740.079400,0.000000,-11547.212695,383.047749
2740.079728,1184.329507,-9696.697840,-842.705048
2740.080055,740.205942,-7846.182985,-612.876398
2740.080383,0.000000,-7476.080014,459.657299
2740.080710,-518.144159,-8364.327145,1225.752797
2740.081038,-148.041188,-9474.636058,766.095498
2740.081365,-296.082377,-9696.697840,-229.828649
2740.081693,0.000000,-7846.182985,-306.438199
2740.082020,0.000000,-7402.059420,229.828649
2740.082348,0.000000,-9696.697840,919.314598
2740.082675,0.000000,-11695.253884,612.876398
2740.083003,0.000000,-11843.295072,-1072.533697
2740.083330,592.164754,-9474.636058,-1991.848295
2740.083658,1258.350101,-8364.327145,-1455.581446
2740.083985,1406.391290,-8734.430116,995.924147
2740.084313,888.247130,-9918.759623,2911.162892
2740.084640,1110.308913,-10955.047942,1685.410096
2740.084968,518.144159,-10584.944971,-842.705048
2740.085295,148.041188,-9474.636058,-2221.676944
2740.085623,370.102971,-8438.347739,-1532.190996
2740.085950,-444.123565,-8808.450710,76.609550
2740.086278,-666.185348,-10732.986159,383.047749
2740.086605,-518.144159,-11695.253884,-306.438199
2740.086933,0.000000,-10140.821405,-1608.800546
2740.087260,-222.061783,-8216.285956,-1302.362347
2740.087588,0.000000,-8734.430116,76.609550
2740.087915,74.020594,-9992.780217,1149.143247
2740.088243,518.144159,-11177.109724,536.266849
2740.088570,888.247130,-10955.047942,-612.876398
2740.088897,1036.288319,-9326.594869,-1149.143247
2740.089225,962.267725,-8216.285956,-459.657299
2740.089552,-148.041188,-8290.306550,76.609550
2740.089880,-370.102971,-10362.883188,919.314598
2740.090207,-222.061783,-10881.027347,-229.828649
2740.090535,370.102971,-9918.759623,-1455.581446
2740.090862,1332.370696,-8734.430116,-1149.143247
2740.091190,1406.391290,-7846.182985,0.000000
2740.091517,1110.308913,-9400.615463,1532.190996
2740.091845,666.185348,-10658.965565,1455.581446
2740.092172,1184.329507,-10881.027347,306.438199
2740.092500,888.247130,-9030.512492,-1302.362347
2740.092827,592.164754,-7920.203579,-995.924147
2740.093155,74.020594,-9030.512492,612.876398
2740.093482,-148.041188,-10510.924376,1302.362347
2740.093810,0.000000,-10436.903782,-229.828649
2740.094137,222.061783,-10362.883188,-612.876398
2740.094465,296.082377,-9030.512492,-1378.971896
2740.094792,0.000000,-7846.182985,0.000000
2740.095120,-592.164754,-8216.285956,1225.752797
2740.095447,-592.164754,-10510.924376,766.095498
2740.095775,0.000000,-11769.274478,0.000000
2740.096102,1036.288319,-10807.006753,-1149.143247
2740.096430,888.247130,-8660.409521,-229.828649
2740.096757,296.082377,-8882.471304,459.657299
2740.097085,0.000000,-11251.130318,229.828649
2740.097412,-296.082377,-11843.295072,-229.828649
2740.097740,148.041188,-10881.027347,-1455.581446
2740.098067,592.164754,-8882.471304,-1838.629195
2740.098395,666.185348,-7698.141797,-306.438199
2740.098722,592.164754,-9326.594869,1072.533697
2740.099050,222.061783,-10436.903782,842.705048
2740.099377,0.000000,-10214.842000,0.000000
2740.099705,592.164754,-9770.718434,-1149.143247
2740.100032,518.144159,-8882.471304,-1455.581446
2740.100360,-296.082377,-8512.368333,229.828649
2740.100687,-444.123565,-9474.636058,1149.143247
2740.101015,-814.226536,-10066.800811,1149.143247
2740.101342,74.020594,-10140.821405,-766.095498
2740.101670,-370.102971,-8956.491898,-1072.533697
2740.101997,-148.041188,-8586.388927,-306.438199
2740.102325,222.061783,-9326.594869,306.438199
2740.102652,888.247130,-10881.027347,383.047749
2740.102980,740.205942,-10658.965565,-612.876398
2740.103307,444.123565,-9104.533087,-842.705048
2740.103635,370.102971,-8068.244768,-612.876398
2740.103962,444.123565,-7846.182985,76.609550
2740.104290,222.061783,-9622.677246,689.485948
2740.104617,444.123565,-10807.006753,0.000000
2740.104945,666.185348,-10955.047942,-766.095498
2740.105272,962.267725,-9844.739029,-919.314598
2740.105600,1480.411884,-9474.636058,-536.266849
2740.105927,666.185348,-9474.636058,612.876398
2740.106255,74.020594,-10510.924376,612.876398
2740.106582,148.041188,-11547.212695,-383.047749
2740.106910,1036.288319,-10584.944971,-1072.533697
2740.107237,1036.288319,-8808.450710,-1225.752797
2740.107565,74.020594,-9400.615463,536.266849
2740.107892,-592.164754,-9622.677246,1455.581446
2740.108220,-370.102971,-10510.924376,536.266849
2740.108547,148.041188,-10214.842000,-1149.143247
2740.108875,74.020594,-9474.636058,-2145.067394
2740.109202,0.000000,-8364.327145,-1149.143247
2740.109530,296.082377,-8364.327145,689.485948
2740.109857,740.205942,-10140.821405,1225.752797
2740.110185,1258.350101,-11621.233289,306.438199
2740.110512,1184.329507,-10510.924376,-306.438199
2740.110840,1406.391290,-8586.388927,0.000000
2740.111167,666.185348,-8512.368333,0.000000
2740.111495,0.000000,-9770.718434,995.924147
2740.111822,-666.185348,-10584.944971,229.828649
2740.112150,-370.102971,-10214.842000,-612.876398
2740.112477,962.267725,-9400.615463,-2068.457845
2740.112805,1258.350101,-7846.182985,-1149.143247
2740.113132,1258.350101,-7920.203579,1149.143247
2740.113460,370.102971,-9400.615463,1455.581446
2740.113787,518.144159,-11103.089130,76.609550
2740.114114,666.185348,-10732.986159,-1378.971896
2740.114442,1110.308913,-9474.636058,-1685.410096
2740.114769,444.123565,-8290.306550,-229.828649
2740.115097,666.185348,-9474.636058,1915.238745
2740.115424,518.144159,-11251.130318,1072.533697
2740.115752,222.061783,-11843.295072,-842.705048
2740.116079,222.061783,-9918.759623,-2298.286494
2740.116407,0.000000,-8586.388927,-2145.067394
2740.116734,-370.102971,-9030.512492,229.828649
2740.117062,-592.164754,-9770.718434,1149.143247
2740.117389,0.000000,-10510.924376,842.705048
2740.117717,-518.144159,-10362.883188,-459.657299
2740.118044,-1184.329507,-8586.388927,-842.705048
2740.118372,-1258.350101,-8068.244768,0.000000
2740.118699,-1332.370696,-8956.491898,306.438199
2740.119027,-1110.308913,-10658.965565,0.000000
2740.119354,-814.226536,-10881.027347,-306.438199
2740.119682,370.102971,-9918.759623,-612.876398
2740.120009,1776.494261,-9030.512492,-612.876398
2740.120337,1628.453072,-9400.615463,0.000000
2740.120664,1036.288319,-10140.821405,1149.143247
2740.120992,962.267725,-11251.130318,689.485948
2740.121319,962.267725,-10955.047942,-306.438199
2740.121647,1776.494261,-9030.512492,-766.095498
2740.121974,1406.391290,-7328.038826,76.609550
2740.122302,0.000000,-8290.306550,1991.848295
2740.122629,-1036.288319,-10066.800811,1915.238745
2740.122957,-1702.473667,-10436.903782,-766.095498
2740.123284,-1924.535449,-9252.574275,-3064.381992
2740.123612,-1554.432478,-8142.265362,-3294.210641
2740.123939,-444.123565,-9104.533087,-1378.971896
2740.124267,888.247130,-10584.944971,1302.362347
2740.124594,2294.638420,-12213.398043,766.095498
2740.124922,2294.638420,-12065.356855,-383.047749
2740.125249,1554.432478,-10510.924376,-1072.533697
2740.125577,814.226536,-8438.347739,-842.705048
2740.125904,370.102971,-8290.306550,0.000000
2740.126232,0.000000,-9474.636058,383.047749
2740.126559,-74.020594,-10140.821405,76.609550
2740.126887,666.185348,-9770.718434,0.000000
2740.127214,2146.597232,-8290.306550,-536.266849
2740.127542,1776.494261,-8142.265362,-153.219100
2740.127869,814.226536,-10214.842000,229.828649
2740.128197,444.123565,-11769.274478,153.219100
2740.128524,1110.308913,-10955.047942,-229.828649
2740.128852,2072.576638,-9770.718434,-766.095498
2740.129179,1554.432478,-8660.409521,-306.438199
2740.129507,1036.288319,-9252.574275,1455.581446
2740.129834,0.000000,-10658.965565,1455.581446
2740.130162,-444.123565,-11991.336260,-383.047749
2740.130489,-962.267725,-11029.068536,-2374.896044
2740.130817,-888.247130,-8586.388927,-1991.848295
2740.131144,-148.041188,-7550.100608,-1149.143247
2740.131472,0.000000,-8142.265362,919.314598
2740.131799,74.020594,-10066.800811,1378.971896
2740.132127,0.000000,-10658.965565,766.095498
2740.132454,0.000000,-9474.636058,-153.219100
2740.132782,0.000000,-8290.306550,-536.266849
2740.133109,0.000000,-8808.450710,612.876398
2740.133437,0.000000,-9400.615463,1608.800546
2740.133764,0.000000,-10807.006753,612.876398
2740.134092,666.185348,-10584.944971,-919.314598
2740.134419,1480.411884,-9326.594869,-1302.362347
2740.134747,1184.329507,-8734.430116,-842.705048
2740.135074,0.000000,-9474.636058,766.095498
2740.135402,-444.123565,-10066.800811,1149.143247
2740.135729,0.000000,-10732.986159,0.000000
2740.136057,148.041188,-9918.759623,-1072.533697
2740.136384,370.102971,-7994.224174,-536.266849
2740.136712,222.061783,-7772.162391,1149.143247
2740.137039,-592.164754,-9400.615463,2374.896044
2740.137367,-1184.329507,-10510.924376,919.314598
2740.137694,-1036.288319,-9844.739029,-1149.143247
2740.138022,-1480.411884,-8734.430116,-1991.848295
2740.138349,-444.123565,-9030.512492,-2068.457845
2740.138677,-370.102971,-9992.780217,153.219100
2740.139004,592.164754,-11251.130318,766.095498
2740.139332,1036.288319,-11843.295072,-306.438199
2740.139660,962.267725,-10955.047942,-919.314598
2740.139987,444.123565,-8216.285956,-1149.143247
2740.140315,-592.164754,-7254.018232,306.438199
2740.140642,-962.267725,-9030.512492,1072.533697
2740.140970,-370.102971,-10955.047942,0.000000
2740.141297,444.123565,-10732.986159,-766.095498
2740.141625,1776.494261,-9474.636058,-766.095498
2740.141953,1554.432478,-8364.327145,-306.438199
2740.142280,888.247130,-8660.409521,459.657299
2740.142608,370.102971,-10436.903782,612.876398
2740.142935,222.061783,-11251.130318,-612.876398
2740.143263,962.267725,-10436.903782,-2221.676944
2740.143591,1554.432478,-8956.491898,-1302.362347
2740.143918,1036.288319,-8808.450710,689.485948
2740.144246,296.082377,-9770.718434,2298.286494
2740.144573,222.061783,-10732.986159,1225.752797
2740.144901,0.000000,-10732.986159,-1149.143247
2740.145228,0.000000,-8808.450710,-3140.991542
2740.145556,-444.123565,-7179.997637,-2451.505594
2740.145884,0.000000,-8216.285956,0.000000
2740.146211,740.205942,-9622.677246,1608.800546
2740.146539,1332.370696,-11399.171507,919.314598
2740.146866,1406.391290,-10955.047942,-612.876398
2740.147194,814.226536,-9326.594869,-919.314598
2740.147521,1110.308913,-8734.430116,-612.876398
2740.147849,1036.288319,-9548.656652,0.000000
2740.148177,740.205942,-11325.150913,536.266849
2740.148504,1554.432478,-10955.047942,0.000000
2740.148832,2146.597232,-9474.636058,-766.095498
2740.149159,1998.556043,-8586.388927,-612.876398
2740.149487,666.185348,-8438.347739,536.266849
2740.149815,-518.144159,-9252.574275,766.095498
2740.150142,-1036.288319,-10732.986159,-229.828649
2740.150470,0.000000,-11251.130318,-1685.410096
2740.150797,592.164754,-9622.677246,-1302.362347
2740.151125,962.267725,-8512.368333,612.876398
2740.151452,740.205942,-9548.656652,1915.238745
2740.151780,518.144159,-12213.398043,459.657299
2740.152108,-518.144159,-11251.130318,-153.219100
2740.152435,-1628.453072,-8808.450710,-1838.629195
2740.152763,-1258.350101,-7846.182985,-1762.019645
2740.153090,-1258.350101,-8068.244768,76.609550
2740.153418,-1036.288319,-9252.574275,1532.190996
2740.153745,-222.061783,-11029.068536,919.314598
2740.154073,148.041188,-10955.047942,-1072.533697
2740.154401,0.000000,-9474.636058,-919.314598
2740.154728,-370.102971,-7550.100608,-536.266849
2740.155056,-888.247130,-7698.141797,1378.971896
2740.155383,-370.102971,-9548.656652,1378.971896
2740.155711,296.082377,-10732.986159,536.266849
2740.156039,370.102971,-9918.759623,-306.438199
2740.156366,1406.391290,-8438.347739,-919.314598
2740.156694,814.226536,-9326.594869,-306.438199
2740.157021,-666.185348,-10066.800811,0.000000
2740.157349,-814.226536,-11547.212695,-842.705048
2740.157676,0.000000,-11325.150913,-1838.629195
2740.158004,1258.350101,-9844.739029,-1838.629195
2740.158332,962.267725,-8660.409521,-229.828649
2740.158659,740.205942,-9400.615463,1762.019645
2740.158987,74.020594,-9696.697840,1608.800546
2740.159314,0.000000,-10881.027347,-689.485948
2740.159642,74.020594,-9918.759623,-2221.676944
2740.159969,0.000000,-8512.368333,-2451.505594
2740.160297,148.041188,-8956.491898,-383.047749
2740.160625,740.205942,-9844.739029,1149.143247
2740.160952,888.247130,-11843.295072,-153.219100
2740.161280,518.144159,-11917.315666,-842.705048
2740.161607,444.123565,-10140.821405,-1302.362347
2740.161935,1332.370696,-8956.491898,-919.314598
2740.162263,1258.350101,-8882.471304,229.828649
2740.162590,814.226536,-9770.718434,1685.410096
2740.162918,666.185348,-10510.924376,1762.019645
2740.163245,962.267725,-9178.553681,153.219100
2740.163573,370.102971,-7624.121203,-1225.752797
2740.163900,0.000000,-7031.956449,-306.438199
2740.164228,-666.185348,-8142.265362,459.657299
2740.164556,-814.226536,-10066.800811,306.438199
2740.164883,74.020594,-11399.171507,-919.314598
2740.165211,1480.411884,-10140.821405,-2451.505594
2740.165538,1258.350101,-8660.409521,-536.266849
2740.165866,1406.391290,-9474.636058,1149.143247
2740.166193,1110.308913,-10362.883188,1455.581446
2740.166521,1184.329507,-10807.006753,536.266849
2740.166849,962.267725,-9918.759623,-612.876398
2740.167176,1110.308913,-8660.409521,-1225.752797
2740.167504,888.247130,-7402.059420,153.219100
2740.167831,-296.082377,-8142.265362,1838.629195
2740.168159,-1258.350101,-9992.780217,1149.143247
2740.168487,-888.247130,-11695.253884,-612.876398
2740.168814,-592.164754,-10732.986159,-2681.334243
2740.169142,-148.041188,-9030.512492,-2757.943793
2740.169469,0.000000,-9326.594869,-842.705048
2740.169797,222.061783,-11325.150913,689.485948
2740.170124,444.123565,-11843.295072,1302.362347
2740.170452,1036.288319,-10881.027347,-306.438199
2740.170780,1406.391290,-9696.697840,-1302.362347
2740.171107,814.226536,-9030.512492,-1072.533697
2740.171435,-592.164754,-9326.594869,153.219100
2740.171762,-888.247130,-9548.656652,229.828649
2740.172090,-518.144159,-9770.718434,0.000000
2740.172417,148.041188,-9548.656652,-612.876398
2740.172745,444.123565,-8882.471304,-766.095498
2740.173073,222.061783,-8364.327145,1149.143247
2740.173400,0.000000,-9252.574275,2298.286494
2740.173728,0.000000,-10214.842000,842.705048
2740.174055,0.000000,-9844.739029,-459.657299
2740.174383,74.020594,-8142.265362,-1225.752797
2740.174711,0.000000,-7846.182985,0.000000
2740.175038,296.082377,-8808.450710,1455.581446
2740.175366,0.000000,-10658.965565,612.876398
2740.175693,-370.102971,-11621.233289,-76.609550
2740.176021,-1036.288319,-10140.821405,-1608.800546
2740.176348,-592.164754,-8586.388927,-1838.629195
2740.176676,-296.082377,-7846.182985,-306.438199
2740.177004,296.082377,-9326.594869,919.314598
2740.177331,444.123565,-10288.862594,2221.676944
2740.177659,1480.411884,-10436.903782,612.876398
2740.177986,1628.453072,-9474.636058,-306.438199
2740.178314,1628.453072,-8660.409521,-842.705048
2740.178641,740.205942,-8882.471304,0.000000
2740.178969,74.020594,-10510.924376,612.876398
2740.179297,296.082377,-12139.377449,-766.095498
2740.179624,1332.370696,-11399.171507,-1991.848295
2740.179952,1332.370696,-9696.697840,-2374.896044
2740.180279,592.164754,-9474.636058,-995.924147
2740.180607,222.061783,-10436.903782,689.485948
2740.180935,444.123565,-11251.130318,459.657299
2740.181262,0.000000,-10362.883188,-536.266849
2740.181590,222.061783,-8364.327145,-1455.581446
2740.181917,148.041188,-7402.059420,-766.095498
2740.182245,0.000000,-8068.244768,1072.533697
2740.182572,0.000000,-9474.636058,1225.752797
2740.182900,0.000000,-10732.986159,306.438199
2740.183228,370.102971,-11399.171507,-1072.533697
2740.183555,888.247130,-9770.718434,-995.924147
2740.183883,814.226536,-7994.224174,612.876398
2740.184210,296.082377,-9252.574275,1838.629195
2740.184538,222.061783,-10732.986159,1072.533697
2740.184865,518.144159,-10807.006753,76.609550
2740.185193,370.102971,-8882.471304,-536.266849
2740.185521,222.061783,-7179.997637,-229.828649
2740.185848,-592.164754,-7624.121203,842.705048
2740.186176,-222.061783,-9474.636058,1455.581446
2740.186503,0.000000,-10658.965565,-766.095498
2740.186831,222.061783,-10436.903782,-1149.143247
2740.187159,592.164754,-9474.636058,-1532.190996
2740.187486,0.000000,-9030.512492,-536.266849
2740.187814,-518.144159,-9474.636058,1378.971896
2740.188141,-222.061783,-10214.842000,842.705048
2740.188469,-296.082377,-11177.109724,-306.438199
2740.188796,-148.041188,-9992.780217,-1225.752797
2740.189124,0.000000,-9178.553681,-1072.533697
2740.189452,74.020594,-8808.450710,76.609550
2740.189779,-370.102971,-9474.636058,536.266849
2740.190107,-666.185348,-10807.006753,-383.047749
2740.190434,-592.164754,-10658.965565,-1838.629195
2740.190762,0.000000,-9178.553681,-2451.505594
2740.191089,-148.041188,-9326.594869,-995.924147
2740.191417,296.082377,-9770.718434,689.485948
2740.191745,74.020594,-11103.089130,1225.752797
2740.192072,518.144159,-11843.295072,229.828649
2740.192400,1036.288319,-10732.986159,-1378.971896
2740.192727,962.267725,-9030.512492,-1532.190996
2740.193055,370.102971,-7994.224174,-689.485948
2740.193383,296.082377,-9030.512492,1072.533697
2740.193710,222.061783,-10436.903782,536.266849
2740.194038,962.267725,-10658.965565,-229.828649
2740.194365,1258.350101,-9252.574275,-1225.752797
2740.194693,888.247130,-8142.265362,-459.657299
2740.195020,444.123565,-8364.327145,612.876398
2740.195348,148.041188,-9696.697840,842.705048
2740.195676,370.102971,-10955.047942,153.219100
2740.196003,444.123565,-9844.739029,-1225.752797
2740.196331,740.205942,-8364.327145,-1302.362347
2740.196658,666.185348,-7846.182985,153.219100
2740.196986,74.020594,-9030.512492,1455.581446
2740.197313,-222.061783,-10436.903782,919.314598
2740.197641,0.000000,-10584.944971,-689.485948
2740.197969,0.000000,-9178.553681,-1532.190996
2740.198296,222.061783,-8216.285956,-1608.800546
2740.198624,444.123565,-8660.409521,995.924147
2740.198951,1036.288319,-10214.842000,1838.629195
2740.199279,1332.370696,-11177.109724,612.876398
2740.199607,2368.659014,-11103.089130,-1072.533697
2740.199934,1998.556043,-8956.491898,-1302.362347
2740.200262,962.267725,-8142.265362,-1149.143247
2740.200589,0.000000,-8068.244768,1685.410096
2740.200917,-518.144159,-10362.883188,995.924147
2740.201244,-296.082377,-11473.192101,-766.095498
2740.201572,148.041188,-10066.800811,-2451.505594
2740.201900,0.000000,-8734.430116,-1915.238745
2740.202227,74.020594,-10066.800811,-306.438199
2740.202555,-592.164754,-10955.047942,153.219100
2740.202882,-1036.288319,-10807.006753,0.000000
2740.203210,-444.123565,-10288.862594,-1149.143247
2740.203538,370.102971,-9326.594869,-1532.190996
2740.203865,592.164754,-8364.327145,-306.438199
2740.204193,0.000000,-8956.491898,1532.190996
2740.204520,-222.061783,-9622.677246,1608.800546
2740.204848,-370.102971,-11473.192101,-689.485948
2740.205175,0.000000,-10658.965565,-1762.019645
2740.205503,-370.102971,-8808.450710,-919.314598
2740.205831,-296.082377,-8438.347739,536.266849
2740.206158,0.000000,-9844.739029,1072.533697
2740.206486,518.144159,-11473.192101,536.266849
2740.206813,740.205942,-10436.903782,76.609550
2740.207141,148.041188,-8808.450710,-536.266849
2740.207468,1036.288319,-7179.997637,-229.828649
2740.207796,74.020594,-7994.224174,1225.752797
2740.208124,-518.144159,-9474.636058,1608.800546
2740.208451,-444.123565,-9918.759623,153.219100
2740.208779,0.000000,-9178.553681,-1302.362347
2740.209106,-148.041188,-8512.368333,-1225.752797
2740.209434,0.000000,-9030.512492,229.828649
2740.209762,-1036.288319,-10214.842000,1378.971896
2740.210089,-1406.391290,-11177.109724,229.828649
2740.210417,-1258.350101,-10214.842000,-1532.190996
2740.210744,0.000000,-8956.491898,-2374.896044
2740.211072,0.000000,-7624.121203,-689.485948
2740.211399,74.020594,-8660.409521,1378.971896
2740.211727,518.144159,-9992.780217,995.924147
2740.212055,814.226536,-11399.171507,-383.047749
2740.212382,1258.350101,-11103.089130,-1455.581446
2740.212710,1998.556043,-9474.636058,-1685.410096
2740.213037,1110.308913,-8660.409521,-306.438199
2740.213365,148.041188,-10362.883188,1225.752797
2740.213692,666.185348,-11769.274478,689.485948
2740.214020,592.164754,-10955.047942,-1149.143247
2740.214348,1184.329507,-9474.636058,-1915.238745
2740.214675,1258.350101,-8364.327145,-1685.410096
2740.215003,962.267725,-9030.512492,459.657299
2740.215330,666.185348,-10510.924376,1302.362347
2740.215658,888.247130,-10881.027347,459.657299
2740.215986,1184.329507,-10214.842000,-995.924147
2740.216313,740.205942,-9770.718434,-1915.238745
2740.216641,0.000000,-9178.553681,-842.705048
2740.216968,0.000000,-9622.677246,229.828649
2740.217296,0.000000,-10807.006753,383.047749
2740.217623,296.082377,-10658.965565,-229.828649
2740.217951,1332.370696,-8882.471304,-459.657299
2740.218279,1776.494261,-7550.100608,306.438199
2740.218606,1036.288319,-6957.935855,1532.190996
2740.218934,740.205942,-8438.347739,842.705048
2740.219261,592.164754,-9844.739029,-229.828649
2740.219589,222.061783,-10066.800811,-995.924147
2740.219916,148.041188,-8660.409521,-689.485948
2740.220244,296.082377,-7846.182985,1072.533697
2740.220572,0.000000,-8956.491898,1225.752797
2740.220899,222.061783,-11769.274478,995.924147
2740.221227,74.020594,-11843.295072,-1225.752797
2740.221554,814.226536,-10807.006753,-2221.676944
2740.221882,814.226536,-8882.471304,-1762.019645
2740.222210,296.082377,-8142.265362,459.657299
2740.222537,0.000000,-9030.512492,2145.067394
2740.222865,666.185348,-9844.739029,1225.752797
2740.223192,1036.288319,-10288.862594,-689.485948
2740.223520,1110.308913,-9770.718434,-995.924147
2740.223847,740.205942,-9844.739029,-1225.752797
2740.224175,0.000000,-9992.780217,0.000000
2740.224503,-444.123565,-11325.150913,229.828649
2740.224830,-296.082377,-11399.171507,-919.314598
2740.225158,-296.082377,-9474.636058,-1838.629195
2740.225485,0.000000,-8660.409521,-1608.800546
2740.225813,0.000000,-8290.306550,0.000000
2740.226140,-148.041188,-9400.615463,536.266849
2740.226468,-518.144159,-10881.027347,0.000000
2740.226796,-666.185348,-10732.986159,-689.485948
2740.227123,-296.082377,-8882.471304,-1762.019645
2740.227451,-370.102971,-7550.100608,76.609550
2740.227778,-666.185348,-8808.450710,1149.143247
2740.228106,0.000000,-10732.986159,1072.533697
2740.228434,444.123565,-11621.233289,229.828649
2740.228761,740.205942,-9770.718434,-842.705048
2740.229089,1036.288319,-8216.285956,-612.876398
2740.229416,1036.288319,-7994.224174,1685.410096
2740.229744,296.082377,-8586.388927,2298.286494
2740.230071,814.226536,-9770.718434,1225.752797
2740.230399,592.164754,-9178.553681,76.609550
2740.230727,666.185348,-8956.491898,-1762.019645
2740.231054,222.061783,-7920.203579,-689.485948
2740.231382,-518.144159,-8808.450710,0.000000
2740.231709,-740.205942,-11177.109724,1302.362347
2740.232037,74.020594,-11917.315666,-766.095498
2740.232364,1554.432478,-10955.047942,-1838.629195
2740.232692,1628.453072,-9252.574275,-1302.362347
2740.233020,1332.370696,-8512.368333,229.828649
2740.233347,740.205942,-9474.636058,1762.019645
2740.233675,962.267725,-11029.068536,766.095498
2740.234002,518.144159,-11177.109724,-766.095498
2740.234330,592.164754,-9992.780217,-1608.800546
2740.234658,0.000000,-8586.388927,-383.047749
2740.234985,-888.247130,-8734.430116,229.828649
2740.235313,-148.041188,-10807.006753,0.000000
2740.235640,370.102971,-11843.295072,-1072.533697
2740.235968,518.144159,-11251.130318,-1762.019645
2740.236295,1628.453072,-9474.636058,-1532.190996
2740.236623,1776.494261,-8216.285956,-459.657299
2740.236950,222.061783,-8512.368333,1685.410096
2740.237278,-888.247130,-9252.574275,1762.019645
2740.237605,-592.164754,-10436.903782,0.000000
2740.237932,-296.082377,-10214.842000,-1302.362347
2740.238260,-148.041188,-9474.636058,-1608.800546
2740.238587,-592.164754,-9548.656652,0.000000
2740.238915,-592.164754,-9770.718434,1072.533697
2740.239242,148.041188,-9918.759623,229.828649
2740.239570,592.164754,-9622.677246,-1762.019645
2740.239897,296.082377,-7994.224174,-919.314598
2740.240225,370.102971,-6957.935855,383.047749
2740.240552,148.041188,-8068.244768,2068.457845
2740.240880,74.020594,-9992.780217,1991.848295
2740.241207,0.000000,-10436.903782,306.438199
2740.241534,148.041188,-9844.739029,-766.095498
2740.241862,0.000000,-9326.594869,-842.705048
2740.242189,0.000000,-9474.636058,0.000000
2740.242517,-888.247130,-10140.821405,229.828649
2740.242844,-666.185348,-10881.027347,-689.485948
2740.243172,-592.164754,-11843.295072,-1378.971896
2740.243499,1036.288319,-9474.636058,-1455.581446
2740.243827,666.185348,-7254.018232,76.609550
2740.244154,1480.411884,-8956.491898,1685.410096
2740.244482,222.061783,-10510.924376,1838.629195
2740.244809,148.041188,-10881.027347,0.000000
2740.245136,444.123565,-9178.553681,-1915.238745
2740.245464,666.185348,-9178.553681,-2145.067394
2740.245791,74.020594,-9474.636058,0.000000
2740.246119,-148.041188,-10436.903782,1455.581446
2740.246446,74.020594,-10436.903782,383.047749
2740.246774,1406.391290,-11325.150913,-1991.848295
2740.247101,666.185348,-10362.883188,-1838.629195
2740.247429,148.041188,-8660.409521,-1302.362347
2740.247756,-370.102971,-8512.368333,229.828649
2740.248084,444.123565,-10140.821405,0.000000
2740.248411,1258.350101,-10807.006753,-766.095498
2740.248739,1628.453072,-10362.883188,-995.924147
2740.249066,444.123565,-7624.121203,536.266849
2740.249393,666.185348,-7328.038826,383.047749
2740.249721,-222.061783,-9474.636058,612.876398
2740.250048,0.000000,-11251.130318,-995.924147
2740.250376,740.205942,-9992.780217,-995.924147
2740.250703,1258.350101,-9252.574275,-1225.752797
2740.251031,1850.514855,-9104.533087,229.828649
2740.251358,1628.453072,-9178.553681,2374.896044
2740.251686,740.205942,-9474.636058,2145.067394
2740.252013,1036.288319,-10436.903782,0.000000
2740.252341,1258.350101,-10658.965565,-1915.238745
2740.252668,1036.288319,-9326.594869,-2068.457845
2740.252995,148.041188,-7846.182985,612.876398
2740.253323,-370.102971,-9252.574275,2451.505594
2740.253650,-592.164754,-10955.047942,1225.752797
2740.253978,-666.185348,-10584.944971,-995.924147
2740.254305,-740.205942,-9252.574275,-2681.334243
2740.254633,-592.164754,-8660.409521,-2145.067394
2740.254960,-370.102971,-9252.574275,229.828649
2740.255288,-592.164754,-10510.924376,1455.581446
2740.255615,-222.061783,-10066.800811,0.000000
2740.255943,-296.082377,-10584.944971,-612.876398
2740.256270,-592.164754,-9696.697840,-919.314598
2740.256597,-814.226536,-8512.368333,-1072.533697
2740.256925,-444.123565,-9474.636058,-306.438199
2740.257252,-148.041188,-11399.171507,0.000000
2740.257580,592.164754,-11991.336260,-1225.752797
2740.257907,1184.329507,-10881.027347,-766.095498
2740.258235,1628.453072,-8956.491898,-536.266849
2740.258562,962.267725,-8734.430116,612.876398
2740.258890,0.000000,-9474.636058,1608.800546
2740.259217,-296.082377,-10066.800811,919.314598
2740.259545,74.020594,-9400.615463,-919.314598
2740.259872,518.144159,-8734.430116,-995.924147
2740.260199,0.000000,-9548.656652,306.438199
2740.260527,-592.164754,-9252.574275,1149.143247
2740.260854,-814.226536,-9992.780217,842.705048
2740.261182,-1258.350101,-10362.883188,-1225.752797
2740.261509,-1554.432478,-9400.615463,-2298.286494
2740.261837,-592.164754,-8586.388927,-1991.848295
2740.262164,-296.082377,-7772.162391,0.000000
2740.262492,518.144159,-9844.739029,842.705048
2740.262819,1184.329507,-11029.068536,842.705048
2740.263147,1554.432478,-11399.171507,229.828649
2740.263474,1258.350101,-9252.574275,-612.876398
2740.263802,222.061783,-7254.018232,-383.047749
2740.264129,0.000000,-7624.121203,383.047749
2740.264456,888.247130,-10436.903782,-383.047749
2740.264784,888.247130,-11177.109724,-919.314598
2740.265111,1702.473667,-10732.986159,-689.485948
2740.265439,2516.700203,-10140.821405,-1149.143247
2740.265766,1776.494261,-9178.553681,229.828649
2740.266094,518.144159,-10066.800811,1225.752797
2740.266421,-222.061783,-10584.944971,0.000000
2740.266749,-296.082377,-10140.821405,-1225.752797
2740.267076,666.185348,-9992.780217,-3217.601092
2740.267404,592.164754,-9326.594869,-1608.800546
2740.267731,296.082377,-9548.656652,995.924147
2740.268058,444.123565,-10584.944971,2681.334243
2740.268386,1332.370696,-11103.089130,229.828649
2740.268713,1184.329507,-10140.821405,-2374.896044
2740.269041,592.164754,-9622.677246,-2374.896044
2740.269368,74.020594,-8438.347739,-536.266849
2740.269696,592.164754,-9030.512492,1149.143247
2740.270023,888.247130,-10214.842000,1302.362347
2740.270351,666.185348,-10510.924376,842.705048
2740.270678,148.041188,-9400.615463,229.828649
2740.271006,592.164754,-8290.306550,-766.095498
2740.271333,74.020594,-7772.162391,766.095498
2740.271660,-666.185348,-9474.636058,689.485948
2740.271988,-222.061783,-10658.965565,-306.438199
2740.272315,222.061783,-10140.821405,-766.095498
2740.272643,370.102971,-8586.388927,-383.047749
2740.272970,592.164754,-8290.306550,766.095498
2740.273298,74.020594,-8734.430116,2298.286494
2740.273625,-444.123565,-9844.739029,842.705048
2740.273953,-296.082377,-10214.842000,-766.095498
2740.274280,740.205942,-9918.759623,-1532.190996
2740.274608,592.164754,-9104.533087,-919.314598
2740.274935,-148.041188,-8956.491898,1149.143247
2740.275263,-1036.288319,-9252.574275,1991.848295
2740.275590,0.000000,-10214.842000,76.609550
2740.275917,74.020594,-11103.089130,-1915.238745
2740.276245,-592.164754,-9696.697840,-2451.505594
2740.276572,-370.102971,-8808.450710,-1455.581446
2740.276900,222.061783,-9548.656652,229.828649
2740.277227,222.061783,-11251.130318,459.657299
2740.277555,740.205942,-11547.212695,-536.266849
2740.277882,740.205942,-10214.842000,-919.314598
2740.278210,148.041188,-8586.388927,-536.266849
2740.278537,0.000000,-8290.306550,0.000000
2740.278865,-592.164754,-10362.883188,766.095498
2740.279192,0.000000,-11843.295072,153.219100
2740.279519,888.247130,-11177.109724,-1532.190996
2740.279847,1036.288319,-9622.677246,-1378.971896
2740.280174,888.247130,-8438.347739,-306.438199
2740.280502,814.226536,-9178.553681,2145.067394
2740.280829,0.000000,-9844.739029,919.314598
2740.281157,296.082377,-9992.780217,76.609550
2740.281484,962.267725,-9696.697840,-459.657299
2740.281812,1480.411884,-8586.388927,0.000000
2740.282139,1036.288319,-8142.265362,1378.971896
2740.282467,0.000000,-8882.471304,2145.067394
2740.282794,-222.061783,-8956.491898,2374.896044
2740.283121,-222.061783,-9030.512492,-766.095498
2740.283449,0.000000,-8438.347739,-2221.676944
2740.283776,-370.102971,-7624.121203,-1378.971896
2740.284104,-740.205942,-9104.533087,459.657299
2740.284431,296.082377,-10881.027347,536.266849
2740.284759,1776.494261,-11251.130318,-842.705048
2740.285086,2294.638420,-10881.027347,-383.047749
2740.285414,2220.617826,-9474.636058,-229.828649
2740.285741,1258.350101,-8068.244768,306.438199
2740.286069,1332.370696,-9474.636058,0.000000
2740.286396,814.226536,-11399.171507,0.000000
2740.286723,666.185348,-10955.047942,-612.876398
2740.287051,444.123565,-9474.636058,-536.266849
2740.287378,740.205942,-9844.739029,-689.485948
2740.287706,296.082377,-9104.533087,76.609550
2740.288033,-370.102971,-10807.006753,0.000000
2740.288361,-592.164754,-11325.150913,-995.924147
2740.288688,0.000000,-11029.068536,-2451.505594
2740.289016,74.020594,-10140.821405,-2145.067394
2740.289343,0.000000,-8882.471304,-229.828649
2740.289671,-888.247130,-8956.491898,1762.019645
2740.289998,-518.144159,-10510.924376,1685.410096
2740.290326,-1110.308913,-10362.883188,-842.705048
2740.290653,-1332.370696,-9622.677246,-1762.019645
2740.290980,-1110.308913,-8512.368333,-1762.019645
2740.291308,-740.205942,-8808.450710,-536.266849
2740.291635,-518.144159,-9770.718434,383.047749
2740.291963,0.000000,-10288.862594,919.314598
2740.292290,-296.082377,-9770.718434,229.828649
2740.292618,148.041188,-8808.450710,153.219100
2740.292945,-222.061783,-7846.182985,459.657299
2740.293273,-222.061783,-8808.450710,842.705048
2740.293600,-370.102971,-10584.944971,612.876398
2740.293928,592.164754,-10362.883188,0.000000
2740.294255,518.144159,-9474.636058,-383.047749
2740.294582,740.205942,-8364.327145,-689.485948
2740.294910,0.000000,-8364.327145,229.828649
2740.295237,0.000000,-9622.677246,383.047749
2740.295565,222.061783,-10955.047942,-536.266849
2740.295892,370.102971,-10955.047942,-1455.581446
2740.296220,1184.329507,-10066.800811,-995.924147
2740.296547,1258.350101,-8882.471304,-459.657299
2740.296875,148.041188,-8956.491898,2145.067394
2740.297202,74.020594,-10140.821405,1608.800546
2740.297530,740.205942,-10510.924376,-919.314598
2740.297857,518.144159,-10140.821405,-2221.676944
2740.298184,222.061783,-9104.533087,-2221.676944
2740.298512,296.082377,-8734.430116,76.609550
2740.298839,0.000000,-10214.842000,2068.457845
2740.299167,814.226536,-11399.171507,-306.438199
2740.299494,1110.308913,-11621.233289,-1532.190996
2740.299822,592.164754,-10066.800811,-1455.581446
2740.300149,814.226536,-8808.450710,-383.047749
2740.300477,518.144159,-9252.574275,229.828649
2740.300804,74.020594,-10214.842000,536.266849
2740.301132,592.164754,-10584.944971,229.828649
2740.301459,1036.288319,-10732.986159,-689.485948
2740.301786,962.267725,-8882.471304,-1149.143247
2740.302114,1036.288319,-7920.203579,-306.438199
2740.302441,444.123565,-9104.533087,842.705048
2740.302769,962.267725,-11473.192101,612.876398
2740.303096,1776.494261,-11177.109724,-229.828649
2740.303424,2072.576638,-9770.718434,-842.705048
2740.303751,1924.535449,-8660.409521,229.828649
2740.304079,962.267725,-8216.285956,1762.019645
2740.304406,148.041188,-9326.594869,2374.896044
2740.304734,74.020594,-9770.718434,995.924147
2740.305061,0.000000,-9474.636058,-919.314598
2740.305389,0.000000,-8586.388927,-1378.971896
2740.305716,-518.144159,-8586.388927,76.609550
2740.306043,0.000000,-9326.594869,0.000000
2740.306371,-888.247130,-10066.800811,-536.266849
2740.306698,-592.164754,-10955.047942,-1378.971896
2740.307026,-592.164754,-10140.821405,-1608.800546
2740.307353,-148.041188,-8808.450710,-842.705048
2740.307681,74.020594,-8364.327145,-536.266849
2740.308008,296.082377,-9992.780217,1225.752797
2740.308336,814.226536,-11843.295072,0.000000
2740.308663,740.205942,-10955.047942,-842.705048
2740.308991,666.185348,-8660.409521,-1455.581446
2740.309318,370.102971,-8068.244768,-229.828649
2740.309645,-296.082377,-9474.636058,766.095498
2740.309973,-666.185348,-10955.047942,612.876398
2740.310300,518.144159,-11029.068536,-919.314598
2740.310628,592.164754,-10510.924376,-1838.629195
2740.310955,370.102971,-10140.821405,-612.876398
2740.311283,-518.144159,-9104.533087,383.047749
2740.311610,-1702.473667,-9474.636058,1455.581446
2740.311938,-1110.308913,-10584.944971,0.000000
2740.312265,-148.041188,-10214.842000,-1991.848295
2740.312593,-296.082377,-9252.574275,-1532.190996
2740.312920,74.020594,-8216.285956,-459.657299
2740.313247,888.247130,-9400.615463,842.705048
2740.313575,518.144159,-11029.068536,1225.752797
2740.313902,666.185348,-11103.089130,-153.219100
2740.314230,814.226536,-10140.821405,-1532.190996
2740.314557,518.144159,-8438.347739,-842.705048
2740.314885,222.061783,-7994.224174,-153.219100
2740.315212,74.020594,-9326.594869,1915.238745
2740.315540,888.247130,-11103.089130,1685.410096
2740.315867,1776.494261,-10066.800811,0.000000
2740.316195,1554.432478,-8956.491898,-459.657299
2740.316522,1406.391290,-7698.141797,-229.828649
2740.316850,962.267725,-7624.121203,536.266849
2740.317177,74.020594,-9400.615463,1532.190996
2740.317504,666.185348,-11325.150913,-842.705048
2740.317832,1776.494261,-11325.150913,-1378.971896
2740.318159,1850.514855,-9622.677246,-612.876398
2740.318487,1184.329507,-8438.347739,919.314598
2740.318814,222.061783,-10288.862594,2374.896044
2740.319142,74.020594,-11251.130318,536.266849
2740.319469,148.041188,-9844.739029,-1302.362347
2740.319797,-148.041188,-8216.285956,-2528.115143
2740.320124,0.000000,-7698.141797,-1455.581446
2740.320452,-370.102971,-8660.409521,1072.533697
2740.320779,-592.164754,-10584.944971,1608.800546
2740.321106,370.102971,-11251.130318,-536.266849
2740.321434,444.123565,-10732.986159,-2068.457845
2740.321761,666.185348,-10436.903782,-2298.286494
2740.322089,148.041188,-8660.409521,-1532.190996
2740.322416,296.082377,-9622.677246,306.438199
2740.322744,740.205942,-11251.130318,919.314598
2740.323071,1184.329507,-10955.047942,229.828649
2740.323399,1258.350101,-9178.553681,-459.657299
2740.323726,222.061783,-7179.997637,-306.438199
2740.324054,296.082377,-8882.471304,689.485948
2740.324381,-518.144159,-11029.068536,153.219100
2740.324708,-740.205942,-10436.903782,-1072.533697
2740.325036,-592.164754,-9622.677246,-2145.067394
2740.325363,148.041188,-9918.759623,-1532.190996
2740.325691,148.041188,-9622.677246,383.047749
2740.326018,-148.041188,-8808.450710,2145.067394
2740.326346,-370.102971,-9474.636058,1302.362347
2740.326673,296.082377,-9992.780217,-383.047749
2740.327001,0.000000,-9104.533087,-1149.143247
2740.327328,-888.247130,-7476.080014,-383.047749
2740.327656,-1184.329507,-7031.956449,459.657299
2740.327983,-1776.494261,-9696.697840,919.314598
2740.328310,-1332.370696,-11473.192101,-612.876398
2740.328638,-296.082377,-10881.027347,-2374.896044
2740.328965,518.144159,-10510.924376,-1991.848295
2740.329293,1036.288319,-9696.697840,-919.314598
2740.329620,962.267725,-10140.821405,919.314598
2740.329948,444.123565,-10807.006753,1225.752797
2740.330275,1036.288319,-10140.821405,0.000000
2740.330603,1184.329507,-8882.471304,-1762.019645
2740.330930,370.102971,-7698.141797,-919.314598
2740.331258,296.082377,-7920.203579,0.000000
2740.331585,74.020594,-9474.636058,1225.752797
2740.331913,962.267725,-11843.295072,306.438199
2740.332240,1628.453072,-12065.356855,-1685.410096
2740.332567,1628.453072,-11251.130318,-1685.410096
2740.332895,814.226536,-9474.636058,-919.314598
2740.333222,296.082377,-9178.553681,1072.533697
2740.333550,-666.185348,-10288.862594,1455.581446
2740.333877,222.061783,-9622.677246,76.609550
2740.334205,1258.350101,-8660.409521,-383.047749
2740.334532,1332.370696,-8808.450710,153.219100
2740.334860,592.164754,-8586.388927,1149.143247
2740.335187,0.000000,-9474.636058,1532.190996
2740.335515,-962.267725,-10066.800811,-919.314598
2740.335842,148.041188,-9844.739029,-3217.601092
2740.336169,518.144159,-8734.430116,-2604.724693
2740.336497,148.041188,-8364.327145,-306.438199
2740.336824,1184.329507,-9474.636058,1762.019645
2740.337152,1924.535449,-11103.089130,2221.676944
2740.337479,2146.597232,-11547.212695,919.314598
2740.337807,1554.432478,-9622.677246,-306.438199
2740.338134,888.247130,-8142.265362,-612.876398
2740.338462,592.164754,-7624.121203,-995.924147
2740.338789,0.000000,-9474.636058,0.000000
2740.339117,-296.082377,-11325.150913,919.314598
2740.339444,444.123565,-10807.006753,-383.047749
2740.339772,296.082377,-10214.842000,-1149.143247
2740.340099,0.000000,-9548.656652,-1149.143247
2740.340427,-1036.288319,-9104.533087,-229.828649
2740.340754,-1036.288319,-9548.656652,306.438199
2740.341082,-370.102971,-10510.924376,0.000000
2740.341409,296.082377,-10066.800811,-689.485948
2740.341736,592.164754,-9326.594869,0.000000
2740.342064,74.020594,-8438.347739,842.705048
2740.342391,-518.144159,-9548.656652,689.485948
2740.342719,-74.020594,-11473.192101,459.657299
2740.343046,0.000000,-10807.006753,-2374.896044
2740.343374,-666.185348,-9918.759623,-2374.896044
2740.343701,-370.102971,-9326.594869,-1149.143247
2740.344029,444.123565,-9474.636058,306.438199
2740.344356,518.144159,-10362.883188,1378.971896
2740.344684,1332.370696,-10732.986159,383.047749
2740.345011,1258.350101,-9622.677246,229.828649
2740.345339,1036.288319,-8512.368333,-383.047749
2740.345666,-296.082377,-7179.997637,306.438199
2740.345994,-666.185348,-8142.265362,919.314598
2740.346321,-888.247130,-9844.739029,842.705048
2740.346649,-222.061783,-10140.821405,-612.876398
2740.346976,74.020594,-10584.944971,-2068.457845
2740.347304,222.061783,-9474.636058,-766.095498
2740.347631,740.205942,-9474.636058,0.000000
2740.347959,74.020594,-10288.862594,1302.362347
2740.348286,74.020594,-10140.821405,459.657299
2740.348613,962.267725,-9548.656652,-689.485948
2740.348941,666.185348,-9030.512492,-995.924147
2740.349268,740.205942,-7772.162391,229.828649
2740.349596,74.020594,-7550.100608,1532.190996
2740.349923,74.020594,-9844.739029,766.095498
2740.350251,148.041188,-10807.006753,-383.047749
2740.350578,518.144159,-10584.944971,-2145.067394
2740.350906,444.123565,-9992.780217,-1762.019645
2740.351233,592.164754,-9474.636058,-689.485948
2740.351561,888.247130,-10658.965565,306.438199
2740.351888,518.144159,-11695.253884,0.000000
2740.352216,888.247130,-11029.068536,-919.314598
2740.352543,962.267725,-9474.636058,-995.924147
2740.352871,1332.370696,-8660.409521,-306.438199
2740.353198,1406.391290,-9326.594869,995.924147
2740.353526,592.164754,-10362.883188,1302.362347
2740.353853,666.185348,-10510.924376,-306.438199
2740.354181,296.082377,-9474.636058,-1685.410096
2740.354508,740.205942,-8734.430116,-1991.848295
2740.354836,0.000000,-8290.306550,-459.657299
2740.355163,-296.082377,-10140.821405,1378.971896
2740.355490,0.000000,-11399.171507,1302.362347
2740.355818,592.164754,-10807.006753,-153.219100
2740.356145,-222.061783,-9178.553681,-689.485948
2740.356473,-962.267725,-7846.182985,-459.657299
2740.356800,-666.185348,-7254.018232,383.047749
2740.357128,-592.164754,-9474.636058,306.438199
2740.357455,-296.082377,-11103.089130,0.000000
2740.357783,592.164754,-10288.862594,-919.314598
2740.358110,592.164754,-9326.594869,-536.266849
2740.358438,370.102971,-8808.450710,459.657299
2740.358765,296.082377,-9252.574275,919.314598
2740.359093,-370.102971,-10288.862594,153.219100
2740.359420,592.164754,-10510.924376,-1838.629195
2740.359748,1110.308913,-9104.533087,-1991.848295
2740.360075,1332.370696,-8290.306550,-153.219100
2740.360403,1036.288319,-8586.388927,1608.800546
2740.360730,0.000000,-10362.883188,2145.067394
2740.361058,444.123565,-10955.047942,-689.485948
2740.361385,370.102971,-9918.759623,-2834.553343
2740.361712,222.061783,-9770.718434,-2604.724693
2740.362040,0.000000,-8808.450710,-1072.533697
2740.362367,296.082377,-9548.656652,383.047749
2740.362695,74.020594,-11547.212695,1378.971896
2740.363022,444.123565,-11695.253884,-153.219100
2740.363350,222.061783,-9474.636058,-1532.190996
2740.363677,0.000000,-8364.327145,-766.095498
2740.364005,-296.082377,-8512.368333,0.000000
2740.364332,-592.164754,-9474.636058,306.438199
2740.364660,-740.205942,-10288.862594,306.438199
2740.364987,0.000000,-9770.718434,-1149.143247
2740.365315,-222.061783,-9548.656652,-689.485948
2740.365642,74.020594,-9548.656652,306.438199
2740.365970,0.000000,-9474.636058,383.047749
2740.366297,0.000000,-10658.965565,459.657299
2740.366625,518.144159,-10807.006753,-383.047749
2740.366952,1480.411884,-9770.718434,-1762.019645
2740.367280,1628.453072,-9252.574275,-229.828649
2740.367607,1480.411884,-8660.409521,1072.533697
2740.367935,1628.453072,-9474.636058,2298.286494
2740.368262,962.267725,-10214.842000,1302.362347
2740.368589,740.205942,-9548.656652,-766.095498
2740.368917,370.102971,-8956.491898,-1302.362347
2740.369244,0.000000,-8438.347739,-229.828649
2740.369572,-296.082377,-9252.574275,919.314598
2740.369899,-444.123565,-10288.862594,919.314598
2740.370227,296.082377,-10732.986159,0.000000
2740.370554,518.144159,-9474.636058,-1532.190996
2740.370882,666.185348,-8956.491898,-612.876398
2740.371209,740.205942,-8290.306550,612.876398
2740.371537,-296.082377,-8438.347739,842.705048
2740.371864,-518.144159,-9918.759623,383.047749
2740.372192,74.020594,-9696.697840,-1149.143247
2740.372519,0.000000,-9326.594869,-1378.971896
2740.372847,-888.247130,-8882.471304,-306.438199
2740.373174,-1036.288319,-9104.533087,0.000000
2740.373502,-814.226536,-11621.233289,-229.828649
2740.373829,518.144159,-12509.480420,-1149.143247
2740.374157,1776.494261,-10584.944971,-2068.457845
2740.374484,1480.411884,-9326.594869,-842.705048
2740.374812,1628.453072,-9474.636058,995.924147
2740.375139,1110.308913,-9400.615463,919.314598
2740.375466,222.061783,-9844.739029,689.485948
2740.375794,222.061783,-9622.677246,-995.924147
2740.376121,148.041188,-9252.574275,-2374.896044
2740.376449,0.000000,-9178.553681,-842.705048
2740.376776,-444.123565,-9548.656652,0.000000
2740.377104,-592.164754,-11103.089130,766.095498
2740.377431,74.020594,-11843.295072,0.000000
2740.377759,888.247130,-10584.944971,-1915.238745
2740.378086,0.000000,-9030.512492,-1532.190996
