#time,accel_x,accel_y,accel_z
2650.294747,444.123565,-10881.027347,-842.705048
2650.295074,148.041188,-10214.842000,-612.876398
2650.295402,740.205942,-10807.006753,-536.266849
2650.295729,814.226536,-10436.903782,-459.657299
2650.296057,814.226536,-10362.883188,-459.657299
2650.296384,444.123565,-9918.759623,-766.095498
2650.296712,0.000000,-9992.780217,-383.047749
2650.297039,0.000000,-9548.656652,-229.828649
2650.297367,0.000000,-9400.615463,-383.047749
2650.297695,-296.082377,-9844.739029,-383.047749
2650.298022,-148.041188,-9918.759623,-612.876398
2650.298350,0.000000,-10066.800811,-536.266849
2650.298677,74.020594,-9844.739029,-229.828649
2650.299005,444.123565,-10140.821405,0.000000
2650.299332,592.164754,-9844.739029,76.609550
2650.299660,740.205942,-9548.656652,459.657299
2650.299987,592.164754,-9474.636058,612.876398
2650.300315,296.082377,-9178.553681,536.266849
2650.300642,222.061783,-9178.553681,383.047749
2650.300970,148.041188,-8956.491898,459.657299
2650.301297,0.000000,-8660.409521,0.000000
2650.301625,-296.082377,-8364.327145,229.828649
2650.301952,74.020594,-9178.553681,-766.095498
2650.302280,74.020594,-9474.636058,-383.047749
2650.302607,296.082377,-9474.636058,-229.828649
2650.302935,592.164754,-9844.739029,229.828649
2650.303262,814.226536,-9474.636058,612.876398
2650.303590,592.164754,-9474.636058,229.828649
2650.303917,592.164754,-9326.594869,-153.219100
2650.304245,666.185348,-9474.636058,536.266849
2650.304572,444.123565,-9474.636058,229.828649
2650.304900,148.041188,-9400.615463,0.000000
2650.305227,0.000000,-9474.636058,-306.438199
2650.305555,0.000000,-9696.697840,0.000000
2650.305883,0.000000,-9918.759623,-689.485948
2650.306210,444.123565,-9992.780217,-919.314598
2650.306538,222.061783,-10584.944971,-766.095498
2650.306865,666.185348,-10658.965565,-306.438199
2650.307193,666.185348,-10362.883188,-306.438199
2650.307520,444.123565,-10066.800811,-459.657299
2650.307848,518.144159,-9918.759623,-612.876398
2650.308175,1036.288319,-9696.697840,-306.438199
2650.308503,0.000000,-9252.574275,-766.095498
2650.308830,518.144159,-9326.594869,-842.705048
2650.309158,1110.308913,-9474.636058,-383.047749
2650.309485,2220.617826,-8956.491898,-612.876398
2650.309813,3182.885551,-9030.512492,-229.828649
2650.310140,3997.112087,-9252.574275,-383.047749
2650.310468,4811.338623,-9992.780217,689.485948
2650.310795,6143.709319,-9844.739029,689.485948
2650.311123,7105.977043,-9400.615463,229.828649
2650.311450,7179.997637,-9622.677246,383.047749
2650.311778,7550.100608,-9770.718434,459.657299
2650.312105,7476.080014,-9844.739029,459.657299
2650.312433,6883.915261,-9400.615463,766.095498
2650.312760,7772.162391,-8438.347739,0.000000
2650.313088,8660.409521,-7994.224174,-229.828649
2650.313415,9030.512492,-8364.327145,229.828649
2650.313743,10362.883188,-8734.430116,0.000000
2650.314071,11473.192101,-9030.512492,536.266849
2650.314398,11991.336260,-9844.739029,766.095498
2650.314726,12731.542202,-9918.759623,842.705048
2650.315053,12361.439231,-9252.574275,689.485948
2650.315381,12435.459826,-9548.656652,153.219100
2650.315708,12583.501014,-10510.924376,0.000000
2650.316036,13249.686362,-10362.883188,-306.438199
2650.316363,13323.706956,-10658.965565,383.047749
2650.316691,13841.851115,-10584.944971,229.828649
2650.317018,13027.624579,-10140.821405,383.047749
2650.317346,11251.130318,-9622.677246,612.876398
2650.317673,10732.986159,-9992.780217,0.000000
2650.318001,9548.656652,-9770.718434,-306.438199
2650.318328,8808.450710,-10510.924376,153.219100
2650.318656,8216.285956,-10732.986159,536.266849
2650.318983,7105.977043,-9770.718434,612.876398
2650.319311,5847.626942,-9030.512492,306.438199
2650.319638,4589.276840,-9474.636058,306.438199
2650.319966,3923.091493,-9178.553681,-306.438199
2650.320293,3256.906145,-9326.594869,-1302.362347
2650.320621,3552.988522,-9104.533087,-536.266849
2650.320948,4219.173869,-9474.636058,-306.438199
2650.321276,3552.988522,-9918.759623,229.828649
2650.321603,3404.947333,-9770.718434,766.095498
2650.321931,3330.926739,-9474.636058,-306.438199
2650.322259,3552.988522,-10066.800811,0.000000
2650.322586,4071.132681,-11103.089130,0.000000
2650.322914,3108.864956,-11177.109724,995.924147
2650.323241,1184.329507,-10066.800811,1915.238745
2650.323569,-1702.473667,-10214.842000,1378.971896
2650.323896,-4515.256246,-9474.636058,383.047749
2650.324224,-5033.400406,-6883.915261,-995.924147
2650.324551,-4589.276840,-7105.977043,-2145.067394
2650.324879,-4219.173869,-8438.347739,-612.876398
2650.325206,-3182.885551,-9400.615463,229.828649
2650.325534,-2220.617826,-9696.697840,0.000000
2650.325861,-3108.864956,-9474.636058,-229.828649
2650.326189,-3775.050304,-9844.739029,-1378.971896
2650.326516,-4219.173869,-9326.594869,-1838.629195
2650.326844,-3182.885551,-9030.512492,-2374.896044
2650.327171,-296.082377,-9770.718434,-1455.581446
2650.327499,1628.453072,-11473.192101,-766.095498
2650.327826,1406.391290,-12435.459826,919.314598
2650.328154,0.000000,-11621.233289,919.314598
2650.328481,-1258.350101,-9696.697840,-1378.971896
2650.328809,-2072.576638,-7550.100608,-2298.286494
2650.329136,-1406.391290,-7402.059420,-2757.943793
2650.329464,888.247130,-8660.409521,-1838.629195
2650.329791,3034.844362,-10732.986159,536.266849
2650.330119,3108.864956,-10214.842000,2834.553343
2650.330447,2664.741391,-9474.636058,1378.971896
2650.330774,0.000000,-9104.533087,-995.924147
2650.331102,-1184.329507,-9622.677246,-1225.752797
2650.331429,666.185348,-10362.883188,-3064.381992
2650.331757,1998.556043,-10807.006753,-2374.896044
2650.332084,3108.864956,-11621.233289,-766.095498
2650.332412,2738.761985,-9474.636058,842.705048
2650.332739,592.164754,-8438.347739,995.924147
2650.333067,-740.205942,-8364.327145,766.095498
2650.333394,666.185348,-7846.182985,-1072.533697
2650.333722,3923.091493,-7846.182985,-2681.334243
2650.334049,5477.523971,-9474.636058,-229.828649
2650.334377,5551.544565,-10288.862594,2911.162892
2650.334704,5403.503377,-9104.533087,3447.429741
2650.335032,2886.803174,-8290.306550,2451.505594
2650.335359,2294.638420,-9992.780217,76.609550
2650.335687,3849.070898,-11325.150913,-2298.286494
2650.336014,3775.050304,-12065.356855,-1915.238745
2650.336342,3552.988522,-12435.459826,0.000000
2650.336669,2368.659014,-11251.130318,536.266849
2650.336997,-222.061783,-9326.594869,536.266849
2650.337324,-1850.514855,-8660.409521,536.266849
2650.337652,-222.061783,-8142.265362,-1608.800546
2650.337979,2220.617826,-9400.615463,-2145.067394
2650.338307,2368.659014,-11177.109724,153.219100
2650.338635,2220.617826,-10288.862594,2374.896044
2650.338962,370.102971,-9178.553681,3217.601092
2650.339290,-1998.556043,-8956.491898,1608.800546
2650.339617,-2072.576638,-11843.295072,-1149.143247
2650.339945,0.000000,-13767.830521,-2451.505594
2650.340272,518.144159,-11621.233289,-2068.457845
2650.340600,74.020594,-10436.903782,153.219100
2650.340927,-1702.473667,-10140.821405,1225.752797
2650.341255,-4367.215058,-8660.409521,1532.190996
2650.341582,-5255.462188,-7846.182985,229.828649
2650.341910,-4071.132681,-7105.977043,-1455.581446
2650.342237,-1702.473667,-7920.203579,-1991.848295
2650.342565,-592.164754,-9178.553681,-229.828649
2650.342892,-1480.411884,-7624.121203,842.705048
2650.343220,-3701.029710,-6883.915261,1608.800546
2650.343547,-3923.091493,-8586.388927,842.705048
2650.343875,-2368.659014,-10510.924376,-1225.752797
2650.344202,-814.226536,-11399.171507,-1991.848295
2650.344530,-518.144159,-11399.171507,-1072.533697
2650.344857,148.041188,-11399.171507,-306.438199
2650.345185,-2072.576638,-8734.430116,459.657299
2650.345512,-2590.720797,-7624.121203,0.000000
2650.345840,-2812.782580,-7624.121203,-919.314598
2650.346167,-740.205942,-8142.265362,-1532.190996
2650.346495,1850.514855,-9844.739029,-1455.581446
2650.346823,2590.720797,-10584.944971,0.000000
2650.347150,1332.370696,-8512.368333,1072.533697
2650.347478,74.020594,-7698.141797,766.095498
2650.347805,-296.082377,-9622.677246,-306.438199
2650.348133,740.205942,-11991.336260,-1608.800546
2650.348460,2442.679609,-12509.480420,-2604.724693
2650.348788,2812.782580,-12731.542202,-2221.676944
2650.349115,2072.576638,-12139.377449,-1225.752797
2650.349443,370.102971,-9252.574275,-306.438199
2650.349770,-1036.288319,-9252.574275,-1225.752797
2650.350098,-740.205942,-9770.718434,-2451.505594
2650.350425,2442.679609,-9474.636058,-3140.991542
2650.350753,4737.318029,-9844.739029,-919.314598
2650.351080,4663.297435,-9992.780217,2298.286494
2650.351408,4737.318029,-9474.636058,3370.820191
2650.351735,2590.720797,-9030.512492,3140.991542
2650.352063,1110.308913,-8882.471304,1149.143247
2650.352390,3182.885551,-10214.842000,-1302.362347
2650.352718,3775.050304,-11399.171507,-459.657299
2650.353045,2960.823768,-11029.068536,1532.190996
2650.353373,1776.494261,-10214.842000,1915.238745
2650.353700,-1406.391290,-7846.182985,612.876398
2650.354028,-2664.741391,-8660.409521,-536.266849
2650.354355,-1554.432478,-8956.491898,-2221.676944
2650.354683,1110.308913,-9104.533087,-1685.410096
2650.355011,2812.782580,-9326.594869,919.314598
2650.355338,3923.091493,-8660.409521,3064.381992
2650.355666,1406.391290,-6735.874072,3830.477490
2650.355993,0.000000,-7550.100608,2451.505594
2650.356321,444.123565,-8956.491898,612.876398
2650.356648,1702.473667,-10288.862594,-995.924147
2650.356976,1628.453072,-10955.047942,-153.219100
2650.357303,1184.329507,-10955.047942,0.000000
2650.357631,-1850.514855,-10658.965565,0.000000
2650.357958,-4219.173869,-10288.862594,-842.705048
2650.358286,-3775.050304,-10066.800811,-2451.505594
2650.358613,-2812.782580,-9474.636058,-2987.772442
2650.358941,-592.164754,-9474.636058,-2374.896044
2650.359268,1110.308913,-9918.759623,-306.438199
2650.359596,0.000000,-9400.615463,2068.457845
2650.359924,-2442.679609,-6957.935855,1685.410096
2650.360251,-2960.823768,-7920.203579,-612.876398
2650.360579,-2368.659014,-10214.842000,-2451.505594
2650.360906,-740.205942,-11325.150913,-3294.210641
2650.361234,0.000000,-11917.315666,-2221.676944
2650.361561,-518.144159,-11917.315666,-383.047749
2650.361889,-1406.391290,-10584.944971,-1149.143247
2650.362216,-2220.617826,-10732.986159,-2145.067394
2650.362544,-2812.782580,-11251.130318,-1532.190996
2650.362871,-370.102971,-9696.697840,-1838.629195
2650.363199,2368.659014,-9696.697840,-1072.533697
2650.363526,1776.494261,-9474.636058,612.876398
2650.363854,518.144159,-7624.121203,2834.553343
2650.364182,0.000000,-5921.647536,2451.505594
2650.364509,-962.267725,-8068.244768,1685.410096
2650.364837,592.164754,-10510.924376,-766.095498
2650.365164,2072.576638,-10510.924376,-1378.971896
2650.365492,74.020594,-10288.862594,-612.876398
2650.365819,-592.164754,-9918.759623,76.609550
2650.366147,-888.247130,-9104.533087,383.047749
2650.366474,-2368.659014,-9030.512492,306.438199
2650.366802,-370.102971,-10436.903782,-766.095498
2650.367129,3478.967927,-10362.883188,-1838.629195
2650.367457,4293.194464,-9844.739029,0.000000
2650.367785,2886.803174,-8808.450710,2834.553343
2650.368112,666.185348,-6439.791695,3600.648841
2650.368440,-296.082377,-6217.729913,1455.581446
2650.368767,740.205942,-8956.491898,-689.485948
2650.369095,3108.864956,-10955.047942,-1685.410096
2650.369422,5107.421000,-12065.356855,-689.485948
2650.369750,4959.379811,-12657.521608,842.705048
2650.370077,2368.659014,-11177.109724,1455.581446
2650.370405,-296.082377,-9844.739029,76.609550
2650.370732,-888.247130,-10881.027347,-1915.238745
2650.371060,444.123565,-10436.903782,-2987.772442
2650.371387,2664.741391,-10214.842000,-2451.505594
2650.371715,3627.009116,-11029.068536,229.828649
2650.372043,2368.659014,-9474.636058,2911.162892
2650.372370,444.123565,-7105.977043,2451.505594
2650.372698,-1110.308913,-7698.141797,612.876398
2650.373025,-666.185348,-10140.821405,-2374.896044
2650.373353,1480.411884,-11621.233289,-2528.115143
2650.373680,2590.720797,-11029.068536,-1302.362347
2650.374008,1184.329507,-10436.903782,1072.533697
2650.374335,-1184.329507,-9400.615463,2987.772442
2650.374663,-2886.803174,-8808.450710,1455.581446
2650.374990,-3478.967927,-9622.677246,-536.266849
2650.375318,-1924.535449,-9104.533087,-2145.067394
2650.375646,370.102971,-9104.533087,-2451.505594
2650.375973,444.123565,-9918.759623,153.219100
2650.376301,-1258.350101,-8068.244768,2451.505594
2650.376628,-3256.906145,-6439.791695,2528.115143
2650.376956,-3330.926739,-8512.368333,766.095498
2650.377283,-1776.494261,-9696.697840,-1149.143247
2650.377611,-222.061783,-9770.718434,-2451.505594
2650.377938,296.082377,-10584.944971,-1072.533697
2650.378266,-518.144159,-10881.027347,1302.362347
2650.378593,-1702.473667,-9252.574275,1378.971896
2650.378921,-3108.864956,-8586.388927,536.266849
2650.379249,-2738.761985,-9030.512492,-1072.533697
2650.379576,222.061783,-8364.327145,-2528.115143
2650.379904,1776.494261,-9622.677246,-2528.115143
2650.380231,1110.308913,-10436.903782,459.657299
2650.380559,-296.082377,-8808.450710,1762.019645
2650.380886,-1406.391290,-7920.203579,842.705048
2650.381214,-962.267725,-10510.924376,0.000000
2650.381541,740.205942,-11843.295072,-2374.896044
2650.381869,2516.700203,-11769.274478,-2757.943793
2650.382196,1702.473667,-11177.109724,-766.095498
2650.382524,74.020594,-10584.944971,536.266849
2650.382851,-1776.494261,-9104.533087,76.609550
2650.383179,-2886.803174,-9474.636058,-689.485948
2650.383507,-1406.391290,-9844.739029,-1762.019645
2650.383834,1702.473667,-8660.409521,-3677.258390
2650.384162,2812.782580,-9622.677246,-1225.752797
2650.384489,2072.576638,-10436.903782,1149.143247
2650.384817,1110.308913,-8438.347739,2068.457845
2650.385144,74.020594,-7772.162391,1149.143247
2650.385472,666.185348,-9992.780217,0.000000
2650.385799,2886.803174,-11103.089130,-919.314598
2650.386127,4219.173869,-10955.047942,229.828649
2650.386454,4071.132681,-11621.233289,995.924147
2650.386782,1554.432478,-9622.677246,1838.629195
2650.387110,-444.123565,-8734.430116,689.485948
2650.387437,-370.102971,-9252.574275,-536.266849
2650.387765,888.247130,-8586.388927,-1455.581446
2650.388092,3034.844362,-7994.224174,-1915.238745
2650.388420,3849.070898,-9622.677246,0.000000
2650.388747,3330.926739,-9770.718434,2298.286494
2650.389075,1702.473667,-7031.956449,3753.867940
2650.389402,0.000000,-8734.430116,1378.971896
2650.389730,962.267725,-11177.109724,-383.047749
2650.390057,2738.761985,-11177.109724,-2451.505594
2650.390385,2368.659014,-10955.047942,-2145.067394
2650.390712,-222.061783,-11399.171507,612.876398
2650.391040,-1480.411884,-10140.821405,383.047749
2650.391368,-1776.494261,-9992.780217,-995.924147
2650.391695,-2368.659014,-10658.965565,-1915.238745
2650.392023,-148.041188,-9474.636058,-3064.381992
2650.392350,2368.659014,-10214.842000,-2145.067394
2650.392678,2072.576638,-10140.821405,919.314598
2650.393005,592.164754,-8290.306550,1532.190996
2650.393333,-592.164754,-7994.224174,2068.457845
2650.393660,-1036.288319,-9030.512492,1455.581446
2650.393988,148.041188,-10732.986159,-1225.752797
2650.394315,1628.453072,-11251.130318,-1915.238745
2650.394643,444.123565,-10807.006753,-306.438199
2650.394971,-1036.288319,-10362.883188,1072.533697
2650.395298,-2516.700203,-9992.780217,-306.438199
2650.395626,-3627.009116,-9474.636058,-1378.971896
2650.395953,-2146.597232,-9326.594869,-1685.410096
2650.396281,222.061783,-8660.409521,-1685.410096
2650.396608,666.185348,-9548.656652,0.000000
2650.396936,222.061783,-9918.759623,1991.848295
2650.397263,-666.185348,-8142.265362,1915.238745
2650.397591,-2220.617826,-7476.080014,1072.533697
2650.397918,-1406.391290,-9474.636058,612.876398
2650.398246,518.144159,-10658.965565,-766.095498
2650.398573,666.185348,-11251.130318,-1378.971896
2650.398901,-296.082377,-10732.986159,-306.438199
2650.399229,-1628.453072,-9696.697840,-383.047749
2650.399556,-3404.947333,-9474.636058,-306.438199
2650.399884,-3182.885551,-9474.636058,-766.095498
2650.400211,370.102971,-9770.718434,-1608.800546
2650.400539,2368.659014,-9252.574275,-1685.410096
2650.400866,2590.720797,-9548.656652,229.828649
2650.401194,2146.597232,-9770.718434,2068.457845
2650.401521,444.123565,-8290.306550,2145.067394
2650.401849,-814.226536,-8068.244768,766.095498
2650.402176,888.247130,-9918.759623,-919.314598
2650.402504,2960.823768,-11621.233289,-2221.676944
2650.402832,3701.029710,-12435.459826,-842.705048
2650.403159,2294.638420,-12139.377449,536.266849
2650.403487,1406.391290,-10732.986159,459.657299
2650.403814,148.041188,-9474.636058,-229.828649
2650.404142,0.000000,-9548.656652,-842.705048
2650.404469,1702.473667,-8364.327145,-1762.019645
2650.404797,3997.112087,-8216.285956,-2298.286494
2650.405124,2664.741391,-9474.636058,1455.581446
2650.405452,1406.391290,-9326.594869,2451.505594
2650.405779,0.000000,-7105.977043,2221.676944
2650.406107,-1702.473667,-7698.141797,0.000000
2650.406435,444.123565,-11325.150913,-2145.067394
2650.406762,3108.864956,-11621.233289,-2604.724693
2650.407090,2664.741391,-10584.944971,-536.266849
2650.407417,1036.288319,-10807.006753,1685.410096
2650.407745,296.082377,-10288.862594,995.924147
2650.408072,-1406.391290,-8956.491898,229.828649
2650.408400,-1258.350101,-8882.471304,-919.314598
2650.408727,1258.350101,-8364.327145,-2068.457845
2650.409055,1924.535449,-8956.491898,-842.705048
2650.409382,2368.659014,-9844.739029,153.219100
2650.409710,1036.288319,-9104.533087,1838.629195
2650.410037,-1258.350101,-8512.368333,1378.971896
2650.410365,-2072.576638,-9252.574275,-383.047749
2650.410693,-666.185348,-10881.027347,-2681.334243
2650.411020,1184.329507,-12287.418637,-2528.115143
2650.411348,148.041188,-10955.047942,-383.047749
2650.411675,0.000000,-10732.986159,842.705048
2650.412003,-1480.411884,-9474.636058,76.609550
2650.412330,-2368.659014,-9178.553681,-536.266849
2650.412658,-1480.411884,-8956.491898,-1378.971896
2650.412985,518.144159,-8808.450710,-2145.067394
2650.413313,1850.514855,-9918.759623,-1225.752797
2650.413640,1258.350101,-9992.780217,1149.143247
2650.413968,-666.185348,-8586.388927,2451.505594
2650.414296,-962.267725,-9178.553681,1149.143247
2650.414623,-444.123565,-11325.150913,0.000000
2650.414951,370.102971,-11917.315666,-1838.629195
2650.415278,1036.288319,-11399.171507,-1685.410096
2650.415606,222.061783,-11325.150913,-383.047749
2650.415933,-1110.308913,-9992.780217,536.266849
2650.416261,-2590.720797,-7846.182985,612.876398
2650.416588,-3182.885551,-8586.388927,612.876398
2650.416916,-592.164754,-8808.450710,-1915.238745
2650.417243,1110.308913,-8290.306550,-2221.676944
2650.417571,1776.494261,-9474.636058,229.828649
2650.417898,1184.329507,-9030.512492,2451.505594
2650.418226,296.082377,-7624.121203,2145.067394
2650.418554,-296.082377,-9178.553681,689.485948
2650.418881,148.041188,-10584.944971,-1608.800546
2650.419209,1628.453072,-10807.006753,-1685.410096
2650.419536,1924.535449,-11103.089130,-306.438199
2650.419864,1036.288319,-10955.047942,689.485948
2650.420191,148.041188,-9400.615463,383.047749
2650.420519,-888.247130,-8216.285956,0.000000
2650.420846,-592.164754,-8734.430116,-1149.143247
2650.421174,1480.411884,-8586.388927,-1838.629195
2650.421501,3775.050304,-9770.718434,-1378.971896
2650.421829,3330.926739,-10436.903782,919.314598
2650.422157,2220.617826,-10288.862594,2145.067394
2650.422484,1258.350101,-8660.409521,842.705048
2650.422812,148.041188,-9622.677246,0.000000
2650.423139,1110.308913,-11621.233289,-842.705048
2650.423467,1924.535449,-11769.274478,-2068.457845
2650.423794,1702.473667,-10510.924376,-1302.362347
2650.424122,0.000000,-10288.862594,0.000000
2650.424449,-1628.453072,-8734.430116,-383.047749
2650.424777,-2442.679609,-8956.491898,-919.314598
2650.425104,-1110.308913,-9770.718434,-1532.190996
2650.425432,1628.453072,-8438.347739,-1685.410096
2650.425759,3034.844362,-9178.553681,-383.047749
2650.426087,2294.638420,-9622.677246,2528.115143
2650.426415,1036.288319,-9178.553681,2911.162892
2650.426742,-296.082377,-9548.656652,919.314598
2650.427070,-1332.370696,-10362.883188,-1149.143247
2650.427397,148.041188,-10658.965565,-1915.238745
2650.427725,1332.370696,-10881.027347,-1685.410096
2650.428052,-222.061783,-10807.006753,0.000000
2650.428380,-814.226536,-9918.759623,1455.581446
2650.428707,-1850.514855,-8734.430116,-306.438199
2650.429035,-2960.823768,-7994.224174,-1225.752797
2650.429362,-1480.411884,-8586.388927,-1378.971896
2650.429690,1998.556043,-8364.327145,-1532.190996
2650.430018,2368.659014,-8808.450710,306.438199
2650.430345,1850.514855,-9400.615463,3294.210641
2650.430673,1258.350101,-7994.224174,2757.943793
2650.431000,-962.267725,-8438.347739,1149.143247
2650.431328,-1036.288319,-11251.130318,-459.657299
2650.431655,296.082377,-11177.109724,-1991.848295
2650.431983,592.164754,-10362.883188,-1685.410096
2650.432310,-518.144159,-11029.068536,-536.266849
2650.432638,-1776.494261,-9548.656652,-153.219100
2650.432965,-2368.659014,-9104.533087,-842.705048
2650.433293,-1998.556043,-9178.553681,-766.095498
2650.433621,444.123565,-9104.533087,-1608.800546
2650.433948,2442.679609,-9474.636058,-1378.971896
2650.434276,3182.885551,-10140.821405,612.876398
2650.434603,1702.473667,-8586.388927,2911.162892
2650.434931,0.000000,-8142.265362,2068.457845
2650.435258,-1258.350101,-9474.636058,153.219100
2650.435586,-740.205942,-11251.130318,-1838.629195
2650.435913,444.123565,-11399.171507,-2604.724693
2650.436241,740.205942,-11917.315666,-2221.676944
2650.436568,74.020594,-11621.233289,-459.657299
2650.436896,-740.205942,-9844.739029,-229.828649
2650.437223,-1480.411884,-8808.450710,-995.924147
2650.437551,-518.144159,-8512.368333,-766.095498
2650.437879,2368.659014,-8142.265362,-612.876398
2650.438206,3923.091493,-8808.450710,459.657299
2650.438534,3108.864956,-9844.739029,2451.505594
2650.438861,1702.473667,-8882.471304,3064.381992
2650.439189,148.041188,-7476.080014,1302.362347
2650.439516,-518.144159,-9400.615463,153.219100
2650.439844,1110.308913,-11473.192101,-2374.896044
2650.440171,1702.473667,-11251.130318,-2298.286494
2650.440499,814.226536,-11399.171507,-1149.143247
2650.440826,-370.102971,-11029.068536,0.000000
2650.441154,-1998.556043,-9104.533087,0.000000
2650.441482,-3627.009116,-8068.244768,153.219100
2650.441809,-1036.288319,-9178.553681,-1532.190996
2650.442137,2368.659014,-8586.388927,-1072.533697
2650.442464,2664.741391,-8956.491898,0.000000
2650.442792,1628.453072,-9844.739029,2451.505594
2650.443119,148.041188,-8956.491898,2451.505594
2650.443447,-1110.308913,-8364.327145,536.266849
2650.443774,-962.267725,-10584.944971,-842.705048
2650.444102,0.000000,-10881.027347,-2451.505594
2650.444429,2146.597232,-11547.212695,-2604.724693
2650.444757,1702.473667,-12065.356855,-383.047749
2650.445084,222.061783,-10436.903782,1072.533697
2650.445412,-1110.308913,-8956.491898,919.314598
2650.445740,-888.247130,-8142.265362,-536.266849
2650.446067,666.185348,-8512.368333,-1378.971896
2650.446395,2590.720797,-9326.594869,-1149.143247
2650.446722,2960.823768,-10214.842000,995.924147
2650.447050,1554.432478,-9548.656652,2298.286494
2650.447377,592.164754,-8512.368333,1532.190996
2650.447705,-1406.391290,-8956.491898,995.924147
2650.448032,-1554.432478,-10658.965565,-383.047749
2650.448360,296.082377,-11251.130318,-2145.067394
2650.448687,1332.370696,-11843.295072,-2221.676944
2650.449015,-1258.350101,-10214.842000,0.000000
2650.449343,-2220.617826,-9252.574275,229.828649
2650.449670,-2664.741391,-8364.327145,689.485948
2650.449998,-1924.535449,-8438.347739,0.000000
2650.450325,888.247130,-8290.306550,-1532.190996
2650.450653,2442.679609,-8438.347739,-1149.143247
2650.450980,740.205942,-9548.656652,1532.190996
2650.451308,814.226536,-9252.574275,1608.800546
2650.451635,-1628.453072,-8586.388927,1072.533697
2650.451963,-2368.659014,-9992.780217,-153.219100
2650.452290,74.020594,-11029.068536,-1532.190996
2650.452618,1702.473667,-10288.862594,-2145.067394
2650.452945,1776.494261,-11843.295072,-383.047749
2650.453273,444.123565,-11621.233289,919.314598
2650.453601,-296.082377,-8734.430116,919.314598
2650.453928,-1554.432478,-7624.121203,-383.047749
2650.454256,-222.061783,-8734.430116,-1455.581446
2650.454583,1998.556043,-8956.491898,-1838.629195
2650.454911,3330.926739,-9770.718434,0.000000
2650.455238,3182.885551,-10288.862594,2681.334243
2650.455566,1924.535449,-9770.718434,2681.334243
2650.455893,1036.288319,-9696.697840,1225.752797
2650.456221,0.000000,-10584.944971,-459.657299
2650.456548,888.247130,-11473.192101,-1532.190996
2650.456876,1110.308913,-10732.986159,-1838.629195
2650.457204,0.000000,-10436.903782,-842.705048
2650.457531,-2072.576638,-9400.615463,0.000000
2650.457859,-2664.741391,-8216.285956,153.219100
2650.458186,-2368.659014,-8068.244768,-919.314598
2650.458514,-666.185348,-9252.574275,-1302.362347
2650.458841,2146.597232,-8882.471304,-1685.410096
2650.459169,3108.864956,-9474.636058,-536.266849
2650.459496,1258.350101,-10066.800811,1838.629195
2650.459824,518.144159,-9400.615463,2681.334243
2650.460151,-222.061783,-8586.388927,1225.752797
2650.460479,0.000000,-9326.594869,-689.485948
2650.460806,1776.494261,-12065.356855,-1991.848295
2650.461134,2146.597232,-11991.336260,-1532.190996
2650.461461,666.185348,-11029.068536,0.000000
2650.461789,-962.267725,-10066.800811,536.266849
2650.462116,-2442.679609,-8364.327145,0.000000
2650.462444,-2146.597232,-8586.388927,-1455.581446
2650.462771,296.082377,-8290.306550,-2451.505594
2650.463099,2516.700203,-9252.574275,-1455.581446
2650.463427,2368.659014,-10362.883188,919.314598
2650.463754,1036.288319,-9474.636058,2681.334243
2650.464082,-888.247130,-8068.244768,2145.067394
2650.464409,-962.267725,-9474.636058,0.000000
2650.464737,0.000000,-11769.274478,-1991.848295
2650.465064,740.205942,-11621.233289,-1838.629195
2650.465392,1406.391290,-10881.027347,-1608.800546
2650.465719,666.185348,-10288.862594,0.000000
2650.466047,-2072.576638,-9696.697840,612.876398
2650.466374,-2812.782580,-9104.533087,0.000000
2650.466702,-1258.350101,-8512.368333,-1532.190996
2650.467029,592.164754,-7994.224174,-536.266849
2650.467357,3627.009116,-9252.574275,-995.924147
2650.467684,3108.864956,-9918.759623,2221.676944
2650.468012,962.267725,-9104.533087,3524.039291
2650.468339,-1036.288319,-8068.244768,2068.457845
2650.468667,-1332.370696,-9400.615463,-153.219100
2650.468994,222.061783,-10214.842000,-2604.724693
2650.469322,1850.514855,-11103.089130,-2604.724693
2650.469649,1184.329507,-11843.295072,-995.924147
2650.469977,-370.102971,-11399.171507,1072.533697
2650.470304,-1258.350101,-9474.636058,689.485948
2650.470632,-2368.659014,-8290.306550,-612.876398
2650.470959,-518.144159,-9400.615463,-1225.752797
2650.471287,2072.576638,-8882.471304,-1378.971896
2650.471615,3034.844362,-9844.739029,-459.657299
2650.471942,2664.741391,-9400.615463,2604.724693
2650.472270,1998.556043,-8290.306550,2451.505594
2650.472597,0.000000,-7846.182985,1915.238745
2650.472925,74.020594,-10288.862594,0.000000
2650.473252,1776.494261,-11621.233289,-2145.067394
2650.473580,2220.617826,-11177.109724,-2681.334243
2650.473907,1184.329507,-11399.171507,-1378.971896
2650.474235,-444.123565,-11843.295072,459.657299
2650.474562,-2072.576638,-10214.842000,0.000000
2650.474890,-1702.473667,-9252.574275,-766.095498
2650.475217,-666.185348,-8734.430116,-1915.238745
2650.475545,1776.494261,-8586.388927,-1991.848295
2650.475872,2442.679609,-8586.388927,153.219100
2650.476200,666.185348,-8512.368333,2834.553343
2650.476527,-592.164754,-7846.182985,2374.896044
2650.476855,-1184.329507,-7846.182985,229.828649
2650.477182,-74.020594,-9844.739029,-1915.238745
2650.477510,1702.473667,-11917.315666,-2451.505594
2650.477837,2886.803174,-12583.501014,-1225.752797
2650.478165,2516.700203,-13101.645173,0.000000
2650.478492,74.020594,-10510.924376,1915.238745
2650.478820,-1480.411884,-8734.430116,-383.047749
2650.479147,-1850.514855,-8808.450710,-842.705048
2650.479475,74.020594,-8882.471304,-919.314598
2650.479803,1480.411884,-7846.182985,-383.047749
2650.480130,1406.391290,-8734.430116,1149.143247
2650.480458,0.000000,-7920.203579,2451.505594
2650.480785,-1110.308913,-7550.100608,2145.067394
2650.481113,-1480.411884,-8956.491898,229.828649
2650.481440,-518.144159,-10436.903782,-1838.629195
2650.481768,1036.288319,-11547.212695,-2528.115143
2650.482095,592.164754,-12213.398043,-1915.238745
2650.482423,0.000000,-11843.295072,76.609550
2650.482750,-1850.514855,-9770.718434,1838.629195
2650.483078,-2516.700203,-8882.471304,689.485948
2650.483405,-1406.391290,-9400.615463,-766.095498
2650.483733,1036.288319,-9178.553681,-2374.896044
2650.484060,2368.659014,-7920.203579,-1225.752797
2650.484388,1406.391290,-9104.533087,1378.971896
2650.484715,-148.041188,-9178.553681,2528.115143
2650.485043,-1258.350101,-8290.306550,919.314598
2650.485370,-1110.308913,-8586.388927,-1149.143247
2650.485698,962.267725,-11177.109724,-1762.019645
2650.486025,2442.679609,-11843.295072,-2145.067394
2650.486353,2442.679609,-12731.542202,-459.657299
2650.486680,814.226536,-11325.150913,766.095498
2650.487008,-962.267725,-9474.636058,0.000000
2650.487336,-1406.391290,-8956.491898,-995.924147
2650.487663,-1110.308913,-9696.697840,-1378.971896
2650.487991,1702.473667,-9178.553681,-1532.190996
2650.488318,3108.864956,-9474.636058,-1302.362347
2650.488646,2072.576638,-9770.718434,1455.581446
2650.488973,814.226536,-8512.368333,2681.334243
2650.489301,0.000000,-7920.203579,1455.581446
2650.489628,296.082377,-9474.636058,-306.438199
2650.489956,1998.556043,-10881.027347,-1762.019645
2650.490283,2590.720797,-11177.109724,-1838.629195
2650.490611,1628.453072,-11103.089130,306.438199
2650.490938,0.000000,-9696.697840,1838.629195
2650.491266,-1480.411884,-9326.594869,1378.971896
2650.491593,-2294.638420,-8734.430116,153.219100
2650.491921,-222.061783,-8660.409521,-2221.676944
2650.492248,1776.494261,-8512.368333,-2911.162892
2650.492576,1036.288319,-8290.306550,-842.705048
2650.492903,0.000000,-8512.368333,1991.848295
2650.493231,-814.226536,-7994.224174,2681.334243
2650.493558,-888.247130,-8586.388927,842.705048
2650.493886,444.123565,-11177.109724,-612.876398
2650.494213,2146.597232,-10732.986159,-1532.190996
2650.494541,2220.617826,-11399.171507,-612.876398
2650.494868,444.123565,-12065.356855,76.609550
2650.495196,-1110.308913,-9844.739029,0.000000
2650.495524,-1998.556043,-8956.491898,-459.657299
2650.495851,-1332.370696,-9770.718434,-919.314598
2650.496179,444.123565,-8956.491898,-2221.676944
2650.496506,2294.638420,-9474.636058,-2451.505594
2650.496834,2072.576638,-10066.800811,0.000000
2650.497161,888.247130,-9178.553681,2374.896044
2650.497489,-296.082377,-7402.059420,2374.896044
2650.497816,0.000000,-9178.553681,689.485948
2650.498144,962.267725,-11399.171507,-612.876398
2650.498471,2368.659014,-11399.171507,-1608.800546
2650.498799,1258.350101,-11103.089130,-995.924147
2650.499126,-1850.514855,-11621.233289,689.485948
2650.499454,-1480.411884,-10066.800811,0.000000
2650.499781,-2220.617826,-8956.491898,-536.266849
2650.500109,-2072.576638,-8290.306550,-1225.752797
2650.500436,370.102971,-8956.491898,-2068.457845
2650.500764,1776.494261,-9622.677246,-1302.362347
2650.501091,592.164754,-9178.553681,1685.410096
2650.501419,-444.123565,-8068.244768,2145.067394
2650.501746,-1480.411884,-7624.121203,1991.848295
2650.502074,-814.226536,-9030.512492,689.485948
2650.502401,1850.514855,-11029.068536,-919.314598
2650.502729,1998.556043,-11251.130318,-842.705048
2650.503056,148.041188,-11769.274478,0.000000
2650.503384,-444.123565,-11399.171507,383.047749
2650.503712,-2294.638420,-8956.491898,0.000000
2650.504039,-3256.906145,-7698.141797,-536.266849
2650.504367,-1036.288319,-8956.491898,-1608.800546
2650.504694,2220.617826,-9474.636058,-1685.410096
2650.505022,2368.659014,-9474.636058,0.000000
2650.505349,2664.741391,-10288.862594,1915.238745
2650.505677,962.267725,-8068.244768,2834.553343
2650.506004,-814.226536,-7698.141797,1532.190996
2650.506332,444.123565,-10066.800811,-612.876398
2650.506659,518.144159,-11029.068536,-1915.238745
2650.506987,1702.473667,-11769.274478,-1991.848295
2650.507314,1998.556043,-12065.356855,-1072.533697
2650.507642,-222.061783,-10881.027347,306.438199
2650.507969,-962.267725,-9992.780217,0.000000
2650.508297,-592.164754,-9178.553681,76.609550
2650.508624,444.123565,-8808.450710,-1455.581446
2650.508952,2220.617826,-8956.491898,-1838.629195
2650.509279,2368.659014,-9474.636058,689.485948
2650.509607,518.144159,-8512.368333,2834.553343
2650.509934,-518.144159,-7772.162391,2604.724693
2650.510262,-1184.329507,-8438.347739,766.095498
2650.510589,-740.205942,-10288.862594,-689.485948
2650.510917,518.144159,-10955.047942,-1838.629195
2650.511244,1480.411884,-11621.233289,-2911.162892
2650.511572,0.000000,-11399.171507,-842.705048
2650.511900,-148.041188,-9992.780217,153.219100
2650.512227,-740.205942,-7846.182985,0.000000
2650.512555,-444.123565,-8438.347739,459.657299
2650.512882,2146.597232,-9030.512492,-536.266849
2650.513210,3108.864956,-9178.553681,-383.047749
2650.513537,2738.761985,-10288.862594,1149.143247
2650.513865,1554.432478,-8586.388927,2451.505594
2650.514192,0.000000,-7179.997637,1532.190996
2650.514520,-666.185348,-9178.553681,842.705048
2650.514847,518.144159,-11103.089130,-536.266849
2650.515175,1406.391290,-11843.295072,-2528.115143
2650.515502,0.000000,-11399.171507,-2145.067394
2650.515830,-1332.370696,-10436.903782,0.000000
2650.516157,-2442.679609,-9178.553681,-383.047749
2650.516485,-1998.556043,-9770.718434,-766.095498
2650.516812,-814.226536,-9622.677246,-919.314598
2650.517140,1406.391290,-8364.327145,-1532.190996
2650.517467,2220.617826,-8734.430116,0.000000
2650.517795,1036.288319,-9400.615463,1149.143247
2650.518122,-222.061783,-8660.409521,2068.457845
2650.518450,-1184.329507,-8808.450710,766.095498
2650.518777,-888.247130,-10140.821405,-612.876398
2650.519105,1036.288319,-11843.295072,-1991.848295
2650.519433,2294.638420,-11917.315666,-1762.019645
2650.519760,1850.514855,-11547.212695,-536.266849
2650.520088,-296.082377,-10288.862594,689.485948
2650.520415,-888.247130,-8882.471304,-689.485948
2650.520743,-1628.453072,-8290.306550,-612.876398
2650.521070,-222.061783,-7624.121203,-1225.752797
2650.521398,1998.556043,-8660.409521,-1302.362347
2650.521725,1998.556043,-9992.780217,536.266849
2650.522053,962.267725,-9474.636058,1838.629195
2650.522380,-296.082377,-8068.244768,1685.410096
2650.522708,-1554.432478,-8956.491898,306.438199
2650.523035,-740.205942,-11103.089130,-1072.533697
2650.523363,666.185348,-12213.398043,-1915.238745
2650.523690,592.164754,-11177.109724,-1532.190996
2650.524018,0.000000,-10658.965565,-612.876398
2650.524345,-1406.391290,-8734.430116,1072.533697
2650.524673,-2146.597232,-8068.244768,459.657299
2650.525000,-1110.308913,-8216.285956,153.219100
2650.525328,962.267725,-7476.080014,-1378.971896
2650.525655,2294.638420,-8142.265362,-1762.019645
2650.525983,2294.638420,-9992.780217,459.657299
2650.526310,518.144159,-9622.677246,1762.019645
2650.526638,-296.082377,-9474.636058,1532.190996
2650.526965,518.144159,-10732.986159,0.000000
2650.527293,888.247130,-11251.130318,-1762.019645
2650.527621,1776.494261,-11769.274478,-2221.676944
2650.527948,1184.329507,-11251.130318,-1302.362347
2650.528276,0.000000,-11029.068536,-612.876398
2650.528603,-1480.411884,-9252.574275,-229.828649
2650.528931,-2516.700203,-6883.915261,-1378.971896
2650.529258,-888.247130,-8142.265362,-2145.067394
2650.529586,1850.514855,-9326.594869,-1532.190996
2650.529913,3034.844362,-9474.636058,-766.095498
2650.530241,3034.844362,-10658.965565,1838.629195
2650.530568,2368.659014,-9696.697840,2834.553343
2650.530896,1406.391290,-8808.450710,1302.362347
2650.531223,148.041188,-10362.883188,612.876398
2650.531551,0.000000,-11325.150913,-536.266849
2650.531878,1332.370696,-11177.109724,-1685.410096
2650.532206,518.144159,-10732.986159,-995.924147
2650.532533,-2368.659014,-9548.656652,229.828649
2650.532861,-2368.659014,-8512.368333,153.219100
2650.533188,-2516.700203,-8216.285956,0.000000
2650.533516,-1924.535449,-7772.162391,-766.095498
2650.533843,740.205942,-8512.368333,-1225.752797
2650.534171,1998.556043,-9770.718434,-689.485948
2650.534498,444.123565,-9252.574275,1915.238745
2650.534826,0.000000,-8882.471304,2528.115143
2650.535153,-222.061783,-9178.553681,1685.410096
2650.535481,0.000000,-9770.718434,689.485948
2650.535809,1998.556043,-10881.027347,-1685.410096
2650.536136,1628.453072,-11251.130318,-1149.143247
2650.536464,-148.041188,-12213.398043,-766.095498
2650.536791,-592.164754,-10732.986159,-536.266849
2650.537119,-1850.514855,-8364.327145,-995.924147
2650.537446,-1850.514855,-7846.182985,-1225.752797
2650.537774,1406.391290,-8734.430116,-1302.362347
2650.538101,2738.761985,-9252.574275,-383.047749
2650.538429,3108.864956,-11029.068536,1149.143247
2650.538756,2294.638420,-9770.718434,1762.019645
2650.539084,222.061783,-8142.265362,1838.629195
2650.539411,-666.185348,-9400.615463,383.047749
2650.539739,-370.102971,-11917.315666,-1072.533697
2650.540066,962.267725,-11695.253884,-2221.676944
2650.540394,370.102971,-11029.068536,-2987.772442
2650.540721,-370.102971,-11473.192101,-1455.581446
2650.541049,-1628.453072,-9770.718434,-766.095498
2650.541376,-2294.638420,-8512.368333,-229.828649
2650.541704,-1258.350101,-8438.347739,-459.657299
2650.542031,1184.329507,-8660.409521,-1532.190996
2650.542359,2812.782580,-8364.327145,-766.095498
2650.542686,2368.659014,-8734.430116,1915.238745
2650.543014,1480.411884,-8956.491898,3294.210641
2650.543342,444.123565,-8512.368333,1225.752797
2650.543669,-296.082377,-9622.677246,76.609550
2650.543997,0.000000,-11177.109724,-1149.143247
2650.544324,1406.391290,-10955.047942,-2221.676944
2650.544652,444.123565,-11177.109724,-1455.581446
2650.544979,-1110.308913,-11029.068536,-612.876398
2650.545307,-2294.638420,-8956.491898,-229.828649
2650.545634,-1554.432478,-8586.388927,-995.924147
2650.545962,148.041188,-9252.574275,-1072.533697
2650.546289,2072.576638,-9474.636058,-306.438199
2650.546617,3108.864956,-10140.821405,536.266849
2650.546944,2072.576638,-9326.594869,2681.334243
2650.547272,0.000000,-7179.997637,2604.724693
2650.547599,-222.061783,-8216.285956,1149.143247
2650.547927,-740.205942,-10510.924376,-306.438199
2650.548254,370.102971,-11917.315666,-2068.457845
2650.548582,962.267725,-11473.192101,-2987.772442
2650.548909,148.041188,-11473.192101,-1762.019645
2650.549237,-444.123565,-10732.986159,0.000000
2650.549564,-370.102971,-9178.553681,612.876398
2650.549892,-444.123565,-8882.471304,0.000000
2650.550219,1184.329507,-8660.409521,-1072.533697
2650.550547,3108.864956,-8586.388927,-1072.533697
2650.550874,2812.782580,-9252.574275,842.705048
2650.551202,1110.308913,-9030.512492,2757.943793
2650.551530,0.000000,-9104.533087,1915.238745
2650.551857,-1036.288319,-9326.594869,689.485948
2650.552185,-444.123565,-10288.862594,-1532.190996
2650.552512,666.185348,-11029.068536,-2911.162892
2650.552840,222.061783,-12435.459826,-2298.286494
2650.553167,-592.164754,-12361.439231,-306.438199
2650.553495,-1184.329507,-10288.862594,229.828649
2650.553822,-2294.638420,-7476.080014,383.047749
2650.554150,-1332.370696,-7994.224174,0.000000
2650.554477,1036.288319,-8586.388927,-306.438199
2650.554805,1702.473667,-7846.182985,459.657299
2650.555132,1628.453072,-9400.615463,1072.533697
2650.555460,74.020594,-8660.409521,1915.238745
2650.555787,-1258.350101,-7846.182985,766.095498
2650.556115,-1850.514855,-9622.677246,-459.657299
2650.556442,222.061783,-11325.150913,-1838.629195
2650.556770,2146.597232,-11769.274478,-1608.800546
2650.557097,1406.391290,-11695.253884,-1762.019645
2650.557425,740.205942,-10955.047942,153.219100
2650.557752,-814.226536,-9474.636058,1072.533697
2650.558080,-1628.453072,-8216.285956,459.657299
2650.558407,0.000000,-8290.306550,-919.314598
2650.558735,2146.597232,-8438.347739,-1608.800546
2650.559062,3182.885551,-8438.347739,-995.924147
2650.559390,1924.535449,-9548.656652,1455.581446
2650.559718,666.185348,-9844.739029,2528.115143
2650.560045,444.123565,-9252.574275,919.314598
2650.560373,666.185348,-10584.944971,-1072.533697
2650.560700,1480.411884,-11843.295072,-1685.410096
2650.561028,2442.679609,-11029.068536,-2145.067394
2650.561356,1850.514855,-11325.150913,-766.095498
2650.561684,-148.041188,-10584.944971,1072.533697
2650.562011,-1406.391290,-8142.265362,766.095498
2650.562339,-1406.391290,-7476.080014,0.000000
2650.562667,-888.247130,-7846.182985,-919.314598
2650.562994,1850.514855,-9104.533087,-1915.238745
2650.563322,3182.885551,-9178.553681,0.000000
2650.563650,2738.761985,-9474.636058,1608.800546
2650.563978,1554.432478,-8882.471304,2681.334243
2650.564305,1480.411884,-9104.533087,1608.800546
2650.564633,592.164754,-11029.068536,0.000000
2650.564961,2220.617826,-12879.583391,-1685.410096
2650.565288,2960.823768,-12213.398043,-1991.848295
2650.565616,1332.370696,-11325.150913,-689.485948
2650.565944,0.000000,-9696.697840,1455.581446
2650.566272,-1850.514855,-7328.038826,2145.067394
2650.566599,-2072.576638,-7254.018232,459.657299
2650.566927,148.041188,-8512.368333,-1762.019645
2650.567255,1332.370696,-8956.491898,-2451.505594
2650.567582,-370.102971,-8956.491898,0.000000
2650.567910,-814.226536,-9696.697840,2068.457845
2650.568238,-1998.556043,-8438.347739,1455.581446
2650.568565,-1998.556043,-9252.574275,612.876398
2650.568893,0.000000,-11103.089130,-1149.143247
2650.569221,962.267725,-11769.274478,-2068.457845
2650.569549,1184.329507,-12435.459826,-1608.800546
2650.569876,0.000000,-11695.253884,-612.876398
2650.570204,-2368.659014,-9474.636058,-766.095498
2650.570532,-4071.132681,-7698.141797,-1225.752797
2650.570859,-1850.514855,-8438.347739,-995.924147
2650.571187,0.000000,-8808.450710,-1072.533697
2650.571515,2368.659014,-10066.800811,-383.047749
2650.571843,2590.720797,-11103.089130,1225.752797
2650.572170,296.082377,-9474.636058,2298.286494
2650.572498,-1110.308913,-7920.203579,919.314598
2650.572826,-1258.350101,-8660.409521,0.000000
2650.573153,-444.123565,-10658.965565,-1991.848295
2650.573481,888.247130,-11029.068536,-2068.457845
2650.573809,1184.329507,-11251.130318,-995.924147
2650.574137,-592.164754,-11251.130318,536.266849
2650.574464,-1110.308913,-9474.636058,689.485948
2650.574792,-2590.720797,-8364.327145,-842.705048
2650.575120,-1998.556043,-8586.388927,-842.705048
2650.575447,888.247130,-8438.347739,-2528.115143
2650.575775,2664.741391,-8882.471304,-1608.800546
2650.576103,1924.535449,-10066.800811,1149.143247
2650.576431,1184.329507,-8438.347739,3140.991542
2650.576758,444.123565,-7328.038826,2681.334243
2650.577086,-296.082377,-8808.450710,842.705048
2650.577414,1924.535449,-10584.944971,-1762.019645
2650.577741,2516.700203,-11695.253884,-2757.943793
2650.578069,2072.576638,-12139.377449,-1608.800546
2650.578397,1406.391290,-11547.212695,383.047749
2650.578724,0.000000,-9474.636058,919.314598
2650.579052,-592.164754,-10066.800811,306.438199
2650.579380,1036.288319,-10510.924376,-1149.143247
2650.579708,1776.494261,-8808.450710,-2221.676944
2650.580035,1850.514855,-9474.636058,-689.485948
2650.580363,592.164754,-8586.388927,1608.800546
2650.580691,-888.247130,-7328.038826,1685.410096
2650.581018,-1850.514855,-7846.182985,842.705048
2650.581346,-962.267725,-9474.636058,-536.266849
2650.581674,1036.288319,-11103.089130,-1685.410096
2650.582002,2220.617826,-11843.295072,-2451.505594
2650.582329,814.226536,-11843.295072,-689.485948
2650.582657,-666.185348,-11177.109724,0.000000
2650.582985,-666.185348,-9992.780217,459.657299
2650.583312,-666.185348,-9400.615463,306.438199
2650.583640,370.102971,-8956.491898,-306.438199
2650.583968,2590.720797,-9104.533087,-1072.533697
2650.584296,1998.556043,-9030.512492,919.314598
2650.584623,0.000000,-8586.388927,2604.724693
2650.584951,-1110.308913,-7328.038826,1991.848295
2650.585279,-2072.576638,-7624.121203,1072.533697
2650.585606,-666.185348,-9474.636058,-536.266849
2650.585934,1406.391290,-11029.068536,-2221.676944
2650.586262,666.185348,-11917.315666,-1915.238745
2650.586590,0.000000,-12065.356855,0.000000
2650.586917,-666.185348,-10436.903782,0.000000
2650.587245,-1850.514855,-8956.491898,459.657299
2650.587573,-518.144159,-9474.636058,-612.876398
2650.587900,1998.556043,-8882.471304,-1072.533697
2650.588228,2146.597232,-8290.306550,-536.266849
2650.588556,1554.432478,-9918.759623,1378.971896
2650.588883,666.185348,-8142.265362,2145.067394
2650.589211,-1480.411884,-7105.977043,1225.752797
2650.589539,-1258.350101,-9252.574275,76.609550
2650.589867,370.102971,-10807.006753,-1915.238745
2650.590194,1924.535449,-11621.233289,-2451.505594
2650.590522,1480.411884,-12065.356855,-1072.533697
2650.590850,0.000000,-11325.150913,536.266849
2650.591177,-1184.329507,-9104.533087,383.047749
2650.591505,-1776.494261,-8512.368333,-919.314598
2650.591833,-592.164754,-9548.656652,-1608.800546
2650.592161,1258.350101,-9474.636058,-2451.505594
2650.592488,2220.617826,-9770.718434,-1455.581446
2650.592816,814.226536,-9770.718434,919.314598
2650.593144,-444.123565,-8660.409521,2068.457845
2650.593471,-962.267725,-8216.285956,76.609550
2650.593799,-740.205942,-9400.615463,-229.828649
2650.594127,1406.391290,-11103.089130,-1455.581446
2650.594455,2294.638420,-11399.171507,-1915.238745
2650.594782,1628.453072,-11695.253884,306.438199
2650.595110,296.082377,-10584.944971,1532.190996
2650.595438,222.061783,-8734.430116,842.705048
2650.595765,-814.226536,-7031.956449,689.485948
2650.596093,148.041188,-8734.430116,-1302.362347
2650.596421,2146.597232,-8956.491898,-1991.848295
2650.596749,1332.370696,-9326.594869,-459.657299
2650.597076,0.000000,-9474.636058,1149.143247
2650.597404,-370.102971,-8512.368333,919.314598
2650.597732,-666.185348,-8808.450710,842.705048
2650.598059,1110.308913,-11473.192101,-383.047749
2650.598387,2368.659014,-11769.274478,-1532.190996
2650.598715,2294.638420,-11695.253884,-995.924147
2650.599042,1036.288319,-10881.027347,919.314598
2650.599370,-518.144159,-8808.450710,1378.971896
2650.599698,-2368.659014,-7698.141797,1072.533697
2650.600026,-2220.617826,-7846.182985,0.000000
2650.600353,-518.144159,-7698.141797,-1532.190996
2650.600681,1480.411884,-9178.553681,-1302.362347
2650.601009,1850.514855,-10510.924376,229.828649
2650.601336,1628.453072,-9696.697840,1149.143247
2650.601664,222.061783,-9326.594869,1378.971896
2650.601992,0.000000,-9770.718434,0.000000
2650.602320,1406.391290,-11029.068536,-1225.752797
2650.602647,2220.617826,-10807.006753,-1455.581446
2650.602975,1554.432478,-11547.212695,-689.485948
2650.603303,518.144159,-11621.233289,689.485948
2650.603630,-1036.288319,-9326.594869,766.095498
2650.603958,-1850.514855,-8216.285956,-229.828649
2650.604286,-1554.432478,-8734.430116,-1378.971896
2650.604614,0.000000,-8734.430116,-2374.896044
2650.604941,1480.411884,-9548.656652,-1762.019645
2650.605269,814.226536,-9474.636058,842.705048
2650.605597,74.020594,-8808.450710,1455.581446
2650.605924,74.020594,-8438.347739,1991.848295
2650.606252,-222.061783,-9548.656652,1302.362347
2650.606580,1110.308913,-11473.192101,-612.876398
2650.606907,1332.370696,-11103.089130,-1378.971896
2650.607235,-148.041188,-10881.027347,-995.924147
2650.607563,-888.247130,-10881.027347,0.000000
2650.607891,-2442.679609,-9030.512492,229.828649
2650.608218,-3256.906145,-7698.141797,-536.266849
2650.608546,-962.267725,-8660.409521,-1378.971896
2650.608874,1406.391290,-8882.471304,-1608.800546
2650.609201,1702.473667,-9178.553681,-612.876398
2650.609529,1480.411884,-10436.903782,2145.067394
2650.609857,0.000000,-7994.224174,2834.553343
2650.610185,-666.185348,-7994.224174,1378.971896
2650.610512,814.226536,-9992.780217,-689.485948
2650.610840,1628.453072,-11325.150913,-1532.190996
2650.611168,1702.473667,-11843.295072,-995.924147
2650.611495,2072.576638,-12213.398043,229.828649
2650.611823,518.144159,-11843.295072,-306.438199
2650.612151,-1036.288319,-9252.574275,-459.657299
2650.612479,-1036.288319,-8290.306550,-919.314598
2650.612806,0.000000,-8660.409521,-1149.143247
2650.613134,2368.659014,-8956.491898,-1149.143247
2650.613462,3034.844362,-9326.594869,306.438199
2650.613789,1036.288319,-8882.471304,2451.505594
2650.614117,0.000000,-8068.244768,2911.162892
2650.614445,0.000000,-8438.347739,1072.533697
2650.614773,0.000000,-10066.800811,-689.485948
2650.615100,740.205942,-11769.274478,-1838.629195
2650.615428,518.144159,-11325.150913,-2451.505594
2650.615756,0.000000,-11103.089130,-842.705048
2650.616083,-1036.288319,-10140.821405,229.828649
2650.616411,-1850.514855,-8808.450710,153.219100
2650.616739,-518.144159,-9548.656652,-842.705048
2650.617066,2146.597232,-9326.594869,-1302.362347
2650.617394,3775.050304,-9326.594869,-1072.533697
2650.617722,3552.988522,-10658.965565,1149.143247
2650.618050,1554.432478,-8956.491898,3217.601092
2650.618377,-444.123565,-6661.853478,2374.896044
2650.618705,-296.082377,-7624.121203,76.609550
2650.619033,74.020594,-10510.924376,-1378.971896
2650.619360,592.164754,-11325.150913,-2528.115143
2650.619688,666.185348,-11843.295072,-1991.848295
2650.620016,-370.102971,-11843.295072,-383.047749
2650.620344,-1258.350101,-10436.903782,-536.266849
2650.620671,-1258.350101,-9474.636058,-766.095498
2650.620999,-1184.329507,-8512.368333,-1225.752797
2650.621327,1036.288319,-7920.203579,-1991.848295
2650.621654,2516.700203,-9548.656652,-612.876398
2650.621982,814.226536,-10140.821405,1762.019645
2650.622310,-518.144159,-8438.347739,2681.334243
2650.622638,-1036.288319,-7772.162391,1225.752797
2650.622965,-1184.329507,-10288.862594,-229.828649
2650.623293,74.020594,-11991.336260,-2221.676944
2650.623621,1554.432478,-11029.068536,-2451.505594
2650.623948,148.041188,-11251.130318,-1838.629195
2650.624276,-740.205942,-10881.027347,306.438199
2650.624604,-1480.411884,-8660.409521,612.876398
2650.624932,-2146.597232,-7624.121203,612.876398
2650.625259,0.000000,-8586.388927,-229.828649
2650.625587,2442.679609,-9030.512492,-1072.533697
2650.625915,2072.576638,-9992.780217,383.047749
2650.626242,222.061783,-9770.718434,2298.286494
2650.626570,-814.226536,-8438.347739,1915.238745
2650.626898,-2146.597232,-8660.409521,459.657299
2650.627225,-1258.350101,-10732.986159,-1225.752797
2650.627553,888.247130,-11621.233289,-2451.505594
2650.627881,1480.411884,-11547.212695,-2298.286494
2650.628209,740.205942,-11251.130318,536.266849
2650.628536,-296.082377,-10140.821405,995.924147
2650.628864,-1628.453072,-8068.244768,919.314598
2650.629192,-740.205942,-7920.203579,76.609550
2650.629519,1258.350101,-7550.100608,-995.924147
2650.629847,2812.782580,-8068.244768,-919.314598
2650.630175,3256.906145,-9326.594869,612.876398
2650.630503,1554.432478,-9696.697840,2374.896044
2650.630830,666.185348,-9178.553681,2221.676944
2650.631158,0.000000,-9918.759623,306.438199
2650.631486,370.102971,-12583.501014,-1302.362347
2650.631813,1480.411884,-11917.315666,-3064.381992
2650.632141,1332.370696,-9474.636058,-3140.991542
2650.632469,-1258.350101,-9548.656652,-689.485948
2650.632797,-2442.679609,-9252.574275,689.485948
2650.633124,-2442.679609,-7402.059420,612.876398
2650.633452,-1110.308913,-7254.018232,-766.095498
2650.633780,1776.494261,-9178.553681,-2374.896044
2650.634107,2812.782580,-10140.821405,-1762.019645
2650.634435,2516.700203,-10658.965565,842.705048
2650.634763,962.267725,-9252.574275,2528.115143
2650.635091,222.061783,-9326.594869,2068.457845
2650.635418,0.000000,-10436.903782,0.000000
2650.635746,1258.350101,-11399.171507,-1302.362347
2650.636074,2590.720797,-12213.398043,-1991.848295
2650.636401,2072.576638,-11917.315666,-919.314598
2650.636729,-222.061783,-9918.759623,842.705048
2650.637057,-2368.659014,-7846.182985,766.095498
2650.637384,-2516.700203,-6587.832884,229.828649
2650.637712,-592.164754,-7624.121203,-919.314598
2650.638040,1036.288319,-8512.368333,-1915.238745
2650.638368,1776.494261,-10288.862594,-842.705048
2650.638695,1184.329507,-10140.821405,1532.190996
2650.639023,-296.082377,-8882.471304,2451.505594
2650.639351,-592.164754,-9844.739029,1608.800546
2650.639678,-148.041188,-10955.047942,0.000000
2650.640006,1702.473667,-11769.274478,-1685.410096
2650.640334,1924.535449,-11177.109724,-2145.067394
2650.640662,-148.041188,-10436.903782,-306.438199
2650.640989,-1702.473667,-9548.656652,919.314598
2650.641317,-2146.597232,-7328.038826,1225.752797
2650.641645,-2146.597232,-6587.832884,0.000000
2650.641972,222.061783,-8068.244768,-1378.971896
2650.642300,1998.556043,-9474.636058,-1532.190996
2650.642628,1998.556043,-9844.739029,0.000000
2650.642956,962.267725,-9770.718434,1455.581446
2650.643283,-296.082377,-8956.491898,1762.019645
2650.643611,-1258.350101,-9622.677246,229.828649
2650.643939,592.164754,-11843.295072,-2145.067394
2650.644266,1332.370696,-11325.150913,-2374.896044
2650.644594,1702.473667,-11843.295072,-2374.896044
2650.644922,592.164754,-12213.398043,-766.095498
2650.645249,-1036.288319,-9844.739029,459.657299
2650.645577,-2516.700203,-7550.100608,0.000000
2650.645905,-962.267725,-8586.388927,-1532.190996
2650.646233,1036.288319,-8586.388927,-1838.629195
2650.646560,2368.659014,-8956.491898,-919.314598
2650.646888,2738.761985,-10214.842000,766.095498
2650.647216,1258.350101,-9770.718434,2987.772442
2650.647543,0.000000,-9104.533087,2834.553343
2650.647871,-296.082377,-9400.615463,612.876398
2650.648199,-666.185348,-10436.903782,-1072.533697
2650.648527,-518.144159,-10658.965565,-2451.505594
2650.648854,518.144159,-10881.027347,-2451.505594
2650.649182,-962.267725,-11029.068536,-842.705048
2650.649510,-2590.720797,-9252.574275,0.000000
2650.649837,-1332.370696,-8808.450710,-229.828649
2650.650165,0.000000,-9400.615463,-306.438199
2650.650493,1776.494261,-8512.368333,-1149.143247
2650.650821,3775.050304,-8882.471304,0.000000
2650.651148,2146.597232,-8956.491898,2528.115143
2650.651476,0.000000,-7846.182985,3294.210641
2650.651804,-518.144159,-7328.038826,2145.067394
2650.652131,-666.185348,-9178.553681,536.266849
2650.652459,666.185348,-10807.006753,-1225.752797
2650.652787,2368.659014,-11325.150913,-2298.286494
2650.653115,1110.308913,-11917.315666,-1072.533697
2650.653442,222.061783,-11473.192101,-766.095498
2650.653770,-592.164754,-9400.615463,-689.485948
2650.654098,-1258.350101,-8512.368333,-229.828649
2650.654425,0.000000,-8216.285956,-842.705048
2650.654753,3182.885551,-8734.430116,-1302.362347
2650.655081,2886.803174,-9622.677246,919.314598
2650.655408,1258.350101,-9696.697840,2987.772442
2650.655736,666.185348,-9104.533087,1915.238745
2650.656064,-962.267725,-9178.553681,612.876398
2650.656392,-1258.350101,-10510.924376,-536.266849
2650.656719,222.061783,-11843.295072,-2757.943793
2650.657047,0.000000,-11621.233289,-2681.334243
2650.657375,-666.185348,-10955.047942,-919.314598
2650.657702,-1258.350101,-10066.800811,229.828649
2650.658030,-1850.514855,-8290.306550,766.095498
2650.658358,-814.226536,-8512.368333,612.876398
2650.658686,962.267725,-8956.491898,-1072.533697
2650.659013,1480.411884,-8956.491898,-1302.362347
2650.659341,1628.453072,-9918.759623,76.609550
2650.659669,592.164754,-9030.512492,1991.848295
2650.659996,-1406.391290,-7624.121203,1991.848295
2650.660324,-1480.411884,-8808.450710,689.485948
2650.660652,-370.102971,-10436.903782,-995.924147
2650.660979,1184.329507,-11103.089130,-2451.505594
2650.661307,1480.411884,-12065.356855,-1762.019645
2650.661635,592.164754,-11843.295072,-306.438199
2650.661963,-296.082377,-9844.739029,612.876398
2650.662290,74.020594,-8216.285956,1838.629195
2650.662618,444.123565,-7031.956449,383.047749
2650.662946,1702.473667,-8586.388927,306.438199
2650.663273,3108.864956,-9474.636058,-153.219100
2650.663601,2146.597232,-9474.636058,689.485948
2650.663929,444.123565,-9474.636058,1838.629195
2650.664256,-148.041188,-8882.471304,1302.362347
2650.664584,-888.247130,-9844.739029,0.000000
2650.664912,222.061783,-11621.233289,-1532.190996
2650.665240,1480.411884,-11547.212695,-2911.162892
2650.665567,444.123565,-11399.171507,-1149.143247
2650.665895,-592.164754,-10436.903782,1072.533697
2650.666223,-1924.535449,-8068.244768,1685.410096
2650.666550,-2516.700203,-7179.997637,1225.752797
2650.666878,-666.185348,-8808.450710,-459.657299
2650.667206,592.164754,-8512.368333,-1608.800546
2650.667533,444.123565,-8734.430116,-1225.752797
2650.667861,814.226536,-9622.677246,-153.219100
2650.668189,0.000000,-9474.636058,766.095498
2650.668517,-666.185348,-9844.739029,76.609550
2650.668844,962.267725,-11251.130318,-689.485948
2650.669172,2960.823768,-12361.439231,-1455.581446
2650.669500,3404.947333,-11843.295072,-1762.019645
2650.669827,2812.782580,-12953.603985,-306.438199
2650.670155,1110.308913,-10732.986159,612.876398
2650.670483,-1184.329507,-7624.121203,919.314598
2650.670810,-1850.514855,-7179.997637,229.828649
2650.671138,-296.082377,-7772.162391,-612.876398
2650.671466,1850.514855,-8216.285956,-1225.752797
2650.671794,1924.535449,-9030.512492,-306.438199
2650.672121,148.041188,-9918.759623,766.095498
2650.672449,-444.123565,-9400.615463,1455.581446
2650.672777,-888.247130,-8364.327145,-459.657299
2650.673104,-592.164754,-10732.986159,-1532.190996
2650.673432,370.102971,-11325.150913,-1532.190996
2650.673760,1480.411884,-11399.171507,-1685.410096
2650.674087,74.020594,-10658.965565,229.828649
2650.674415,-592.164754,-10732.986159,1149.143247
2650.674743,-1850.514855,-8512.368333,1072.533697
2650.675071,-1702.473667,-7846.182985,306.438199
2650.675398,-296.082377,-8956.491898,-1762.019645
2650.675726,1554.432478,-9252.574275,-2298.286494
2650.676054,1406.391290,-9326.594869,-153.219100
2650.676381,592.164754,-9400.615463,1608.800546
2650.676709,0.000000,-7994.224174,1838.629195
2650.677037,-222.061783,-8956.491898,612.876398
2650.677364,1258.350101,-11103.089130,-689.485948
2650.677692,1850.514855,-11843.295072,-1685.410096
2650.678020,962.267725,-12435.459826,-1149.143247
2650.678348,222.061783,-11917.315666,0.000000
2650.678675,-1332.370696,-9252.574275,0.000000
2650.679003,-2516.700203,-8882.471304,-383.047749
2650.679331,-888.247130,-9400.615463,-1072.533697
2650.679658,888.247130,-8956.491898,-1225.752797
2650.679986,1776.494261,-9622.677246,-612.876398
2650.680314,1998.556043,-10732.986159,612.876398
2650.680641,518.144159,-8882.471304,1991.848295
2650.680969,-518.144159,-7105.977043,689.485948
2650.681297,0.000000,-8364.327145,766.095498
2650.681625,1850.514855,-10955.047942,-536.266849
2650.681952,2590.720797,-11251.130318,-919.314598
2650.682280,2072.576638,-11399.171507,-306.438199
2650.682608,222.061783,-11177.109724,229.828649
2650.682935,-814.226536,-9770.718434,-229.828649
2650.683263,-1184.329507,-9696.697840,-1072.533697
2650.683591,-444.123565,-9104.533087,-1225.752797
2650.683918,1110.308913,-8438.347739,-2298.286494
2650.684246,1850.514855,-9474.636058,-995.924147
2650.684574,740.205942,-8586.388927,1455.581446
2650.684902,444.123565,-7698.141797,1915.238745
2650.685229,-518.144159,-7476.080014,1225.752797
2650.685557,-518.144159,-8734.430116,76.609550
2650.685885,2738.761985,-11325.150913,-919.314598
2650.686212,3330.926739,-12287.418637,-1149.143247
2650.686540,1628.453072,-12805.562797,76.609550
2650.686868,370.102971,-10955.047942,536.266849
2650.687195,-1036.288319,-9178.553681,-689.485948
2650.687523,-1406.391290,-9992.780217,-612.876398
2650.687851,518.144159,-10214.842000,-1149.143247
2650.688179,1702.473667,-8882.471304,-1532.190996
2650.688506,1184.329507,-9548.656652,536.266849
2650.688834,222.061783,-9030.512492,1915.238745
2650.689162,-1332.370696,-7179.997637,1455.581446
2650.689489,-2294.638420,-7550.100608,766.095498
2650.689817,-1258.350101,-9844.739029,-766.095498
2650.690145,444.123565,-11103.089130,-2068.457845
2650.690472,444.123565,-11325.150913,-919.314598
2650.690800,-740.205942,-11695.253884,-229.828649
2650.691128,-1776.494261,-10881.027347,229.828649
2650.691456,-1850.514855,-9992.780217,0.000000
2650.691783,-1406.391290,-9400.615463,-689.485948
2650.692111,592.164754,-8808.450710,-1378.971896
2650.692439,2146.597232,-8290.306550,-536.266849
2650.692766,814.226536,-8586.388927,1072.533697
2650.693094,-370.102971,-7994.224174,2604.724693
2650.693422,-1480.411884,-6809.894666,1991.848295
2650.693749,-740.205942,-8142.265362,76.609550
2650.694077,962.267725,-10362.883188,-1378.971896
2650.694405,1998.556043,-11621.233289,-1685.410096
2650.694733,1924.535449,-12139.377449,-2221.676944
2650.695060,222.061783,-11547.212695,229.828649
2650.695388,-740.205942,-10436.903782,76.609550
2650.695716,-1554.432478,-8734.430116,-383.047749
2650.696043,-296.082377,-8956.491898,-1532.190996
2650.696371,2294.638420,-9844.739029,-1685.410096
2650.696699,2960.823768,-9770.718434,-919.314598
2650.697026,1406.391290,-9400.615463,2451.505594
2650.697354,0.000000,-8364.327145,2604.724693
2650.697682,-1110.308913,-7846.182985,995.924147
2650.698010,0.000000,-9474.636058,-919.314598
2650.698337,814.226536,-10807.006753,-1455.581446
2650.698665,1924.535449,-11843.295072,-1762.019645
2650.698993,2146.597232,-12361.439231,-536.266849
2650.699320,-296.082377,-11251.130318,1685.410096
2650.699648,-2072.576638,-8660.409521,1685.410096
2650.699976,-1702.473667,-8956.491898,-766.095498
2650.700303,-666.185348,-8956.491898,-1991.848295
2650.700631,740.205942,-8216.285956,-2451.505594
2650.700959,2220.617826,-9178.553681,-919.314598
2650.701287,814.226536,-9696.697840,2145.067394
2650.701614,0.000000,-8808.450710,2451.505594
2650.701942,444.123565,-7994.224174,689.485948
2650.702270,814.226536,-9844.739029,-689.485948
2650.702597,2368.659014,-11251.130318,-1762.019645
2650.702925,3256.906145,-11325.150913,-1378.971896
2650.703253,1258.350101,-11399.171507,689.485948
2650.703580,0.000000,-9918.759623,2068.457845
2650.703908,-592.164754,-7772.162391,1225.752797
2650.704236,-1850.514855,-7920.203579,-306.438199
2650.704564,148.041188,-9178.553681,-1685.410096
2650.704891,2442.679609,-9326.594869,-2145.067394
2650.705219,1628.453072,-9918.759623,-306.438199
2650.705547,74.020594,-9696.697840,2145.067394
2650.705874,0.000000,-8142.265362,1149.143247
2650.706202,0.000000,-8956.491898,-383.047749
2650.706530,222.061783,-10658.965565,-383.047749
2650.706857,2220.617826,-11695.253884,-2374.896044
2650.707185,2146.597232,-11399.171507,-1455.581446
2650.707513,296.082377,-11103.089130,306.438199
2650.707841,-1332.370696,-9770.718434,1072.533697
2650.708168,-1776.494261,-8660.409521,459.657299
2650.708496,-2368.659014,-7698.141797,-1838.629195
2650.708824,296.082377,-8438.347739,-2451.505594
2650.709151,1702.473667,-9844.739029,-2604.724693
2650.709479,518.144159,-10658.965565,306.438199
2650.709807,0.000000,-9474.636058,2374.896044
2650.710134,-518.144159,-8438.347739,1455.581446
2650.710462,-962.267725,-9326.594869,0.000000
2650.710790,518.144159,-11843.295072,-919.314598
2650.711118,2072.576638,-11769.274478,-1915.238745
2650.711445,740.205942,-11325.150913,-842.705048
2650.711773,0.000000,-10732.986159,689.485948
2650.712101,-1184.329507,-8734.430116,766.095498
2650.712428,-2072.576638,-8290.306550,536.266849
2650.712756,-1258.350101,-7624.121203,-689.485948
2650.713084,1110.308913,-8216.285956,-2451.505594
2650.713411,1480.411884,-9696.697840,-1302.362347
2650.713739,740.205942,-9326.594869,766.095498
2650.714067,370.102971,-7846.182985,1838.629195
2650.714395,-222.061783,-7772.162391,1762.019645
2650.714722,370.102971,-10066.800811,536.266849
2650.715050,1850.514855,-11547.212695,-689.485948
2650.715378,2072.576638,-11399.171507,-995.924147
2650.715705,740.205942,-11325.150913,-306.438199
2650.716033,-518.144159,-10807.006753,153.219100
2650.716361,-1776.494261,-9252.574275,0.000000
2650.716688,-2368.659014,-7994.224174,-842.705048
2650.717016,0.000000,-8734.430116,-1915.238745
2650.717344,1924.535449,-9474.636058,-1532.190996
2650.717672,1998.556043,-9770.718434,0.000000
2650.717999,962.267725,-9252.574275,1838.629195
2650.718327,0.000000,-7846.182985,2145.067394
2650.718655,-296.082377,-7772.162391,1149.143247
2650.718982,814.226536,-10140.821405,-536.266849
2650.719310,1332.370696,-11251.130318,-1455.581446
2650.719638,1406.391290,-11325.150913,-1072.533697
2650.719965,296.082377,-11621.233289,-1149.143247
2650.720293,-592.164754,-11399.171507,-459.657299
2650.720621,-1850.514855,-9770.718434,-919.314598
2650.720948,-444.123565,-9548.656652,-1302.362347
2650.721276,1850.514855,-10214.842000,-1378.971896
2650.721604,3256.906145,-10214.842000,-919.314598
2650.721932,3182.885551,-10436.903782,1302.362347
2650.722259,1480.411884,-9252.574275,2757.943793
2650.722587,888.247130,-7698.141797,2451.505594
2650.722915,0.000000,-7624.121203,1532.190996
2650.723242,74.020594,-9918.759623,0.000000
2650.723570,962.267725,-10881.027347,-1225.752797
2650.723898,1110.308913,-11325.150913,-1455.581446
2650.724225,-888.247130,-10436.903782,-842.705048
2650.724553,-2368.659014,-8808.450710,0.000000
2650.724881,-2146.597232,-9400.615463,-766.095498
2650.725209,-888.247130,-8808.450710,-1762.019645
2650.725536,962.267725,-8586.388927,-1532.190996
2650.725864,1998.556043,-8808.450710,-612.876398
2650.726192,888.247130,-9104.533087,2068.457845
2650.726519,-814.226536,-7994.224174,2528.115143
2650.726847,-666.185348,-7698.141797,1225.752797
2650.727175,-962.267725,-9474.636058,-1225.752797
2650.727502,814.226536,-11177.109724,-1685.410096
2650.727830,2294.638420,-11917.315666,-2221.676944
2650.728158,814.226536,-11991.336260,-1149.143247
2650.728486,-518.144159,-11621.233289,229.828649
2650.728813,-740.205942,-9400.615463,-612.876398
2650.729141,-1332.370696,-8734.430116,-919.314598
2650.729469,370.102971,-8734.430116,-919.314598
2650.729796,2442.679609,-8438.347739,-536.266849
2650.730124,1998.556043,-9622.677246,459.657299
2650.730452,888.247130,-10066.800811,2221.676944
2650.730779,-518.144159,-8438.347739,1762.019645
2650.731107,-1480.411884,-7846.182985,459.657299
2650.731435,-1184.329507,-10436.903782,-1225.752797
2650.731763,740.205942,-13027.624579,-2298.286494
2650.732090,296.082377,-11843.295072,-2451.505594
2650.732418,-518.144159,-11473.192101,-536.266849
2650.732746,-888.247130,-10288.862594,383.047749
2650.733073,-1776.494261,-8586.388927,766.095498
2650.733401,-1184.329507,-8142.265362,536.266849
2650.733729,666.185348,-8290.306550,-1149.143247
2650.734056,2886.803174,-8438.347739,-536.266849
2650.734384,1628.453072,-8660.409521,1072.533697
2650.734712,814.226536,-9252.574275,2834.553343
2650.735040,-296.082377,-8734.430116,2068.457845
2650.735367,0.000000,-9104.533087,-383.047749
2650.735695,962.267725,-10807.006753,-1915.238745
2650.736023,1924.535449,-11399.171507,-2834.553343
2650.736350,1924.535449,-11547.212695,-1762.019645
2650.736678,592.164754,-11103.089130,-612.876398
2650.737006,-962.267725,-9104.533087,766.095498
2650.737333,-1184.329507,-7254.018232,0.000000
2650.737661,518.144159,-7772.162391,-919.314598
2650.737989,2072.576638,-8216.285956,-1072.533697
2650.738317,2590.720797,-9326.594869,-383.047749
2650.738644,2516.700203,-10436.903782,995.924147
2650.738972,1110.308913,-9474.636058,2298.286494
2650.739300,0.000000,-8882.471304,995.924147
2650.739627,-814.226536,-10362.883188,-153.219100
2650.739955,296.082377,-12435.459826,-2068.457845
2650.740283,1628.453072,-12435.459826,-2451.505594
2650.740610,1110.308913,-10881.027347,-1225.752797
2650.740938,-740.205942,-10436.903782,995.924147
2650.741266,-2442.679609,-7846.182985,1378.971896
2650.741594,-2664.741391,-7402.059420,-153.219100
2650.741921,-1332.370696,-8216.285956,-1685.410096
2650.742249,592.164754,-8216.285956,-1915.238745
2650.742577,1406.391290,-8660.409521,-229.828649
2650.742904,148.041188,-9326.594869,2374.896044
2650.743232,-370.102971,-9326.594869,2604.724693
2650.743560,-222.061783,-10140.821405,76.609550
2650.743887,-518.144159,-10955.047942,-1072.533697
2650.744215,962.267725,-11547.212695,-1915.238745
2650.744543,2294.638420,-11251.130318,-1838.629195
2650.744871,666.185348,-11177.109724,153.219100
2650.745198,-370.102971,-10214.842000,1532.190996
2650.745526,-444.123565,-8364.327145,1149.143247
2650.745854,-962.267725,-6809.894666,76.609550
2650.746181,518.144159,-8512.368333,-919.314598
2650.746509,2146.597232,-9918.759623,-1149.143247
2650.746837,1480.411884,-9400.615463,0.000000
2650.747164,296.082377,-8808.450710,1455.581446
2650.747492,0.000000,-8364.327145,2298.286494
2650.747820,-814.226536,-8586.388927,919.314598
2650.748148,0.000000,-10881.027347,-306.438199
2650.748475,1480.411884,-12361.439231,-1532.190996
2650.748803,1628.453072,-12213.398043,-1838.629195
2650.749131,0.000000,-10955.047942,-612.876398
2650.749458,-1480.411884,-8882.471304,-306.438199
2650.749786,-2442.679609,-7550.100608,306.438199
2650.750114,-1702.473667,-7846.182985,0.000000
2650.750441,888.247130,-8882.471304,-2221.676944
2650.750769,2072.576638,-9696.697840,-1532.190996
2650.751097,1776.494261,-10140.821405,306.438199
2650.751425,592.164754,-10140.821405,1838.629195
2650.751752,74.020594,-9178.553681,2298.286494
2650.752080,-740.205942,-9326.594869,-459.657299
2650.752408,666.185348,-10436.903782,-1378.971896
2650.752735,962.267725,-11325.150913,-1455.581446
2650.753063,814.226536,-11621.233289,-1378.971896
2650.753391,74.020594,-11621.233289,-612.876398
2650.753718,-1184.329507,-9474.636058,-229.828649
2650.754046,-1554.432478,-8290.306550,-842.705048
2650.754374,296.082377,-8660.409521,-689.485948
2650.754702,2442.679609,-9474.636058,-1532.190996
2650.755029,3404.947333,-9844.739029,0.000000
2650.755357,2664.741391,-10510.924376,1225.752797
2650.755685,222.061783,-9178.553681,3140.991542
2650.756012,-1110.308913,-7920.203579,1838.629195
2650.756340,-666.185348,-9030.512492,0.000000
2650.756668,-222.061783,-10362.883188,-1455.581446
2650.756995,1258.350101,-10584.944971,-1302.362347
2650.757323,1628.453072,-10881.027347,-1302.362347
2650.757651,-222.061783,-10436.903782,612.876398
2650.757979,-1480.411884,-9104.533087,536.266849
2650.758306,-962.267725,-8364.327145,-459.657299
2650.758634,0.000000,-8808.450710,-842.705048
2650.758962,2072.576638,-8216.285956,-1072.533697
2650.759289,2590.720797,-9104.533087,76.609550
2650.759617,1628.453072,-10362.883188,2221.676944
2650.759945,0.000000,-9326.594869,2681.334243
2650.760273,-444.123565,-8586.388927,536.266849
2650.760601,-888.247130,-9474.636058,-919.314598
2650.760928,0.000000,-10955.047942,-2451.505594
2650.761256,814.226536,-11547.212695,-1915.238745
2650.761583,444.123565,-11769.274478,0.000000
2650.761911,-814.226536,-10066.800811,766.095498
2650.762239,-444.123565,-9474.636058,0.000000
2650.762566,-296.082377,-9622.677246,-153.219100
2650.762894,1332.370696,-9474.636058,-459.657299
2650.763221,2738.761985,-9696.697840,-612.876398
2650.763549,1554.432478,-10362.883188,306.438199
2650.763876,1184.329507,-10140.821405,1608.800546
2650.764204,-296.082377,-7624.121203,1991.848295
2650.764532,-1406.391290,-8216.285956,383.047749
2650.764859,-592.164754,-10807.006753,-536.266849
2650.765187,1110.308913,-11769.274478,-2221.676944
2650.765514,518.144159,-11399.171507,-2221.676944
2650.765842,-888.247130,-10658.965565,0.000000
2650.766169,-962.267725,-9326.594869,0.000000
2650.766497,-1702.473667,-7994.224174,0.000000
2650.766825,-814.226536,-8364.327145,-229.828649
2650.767152,1776.494261,-8956.491898,-536.266849
2650.767480,2664.741391,-9474.636058,76.609550
2650.767807,1924.535449,-9992.780217,1378.971896
2650.768135,1110.308913,-9326.594869,1762.019645
2650.768462,-592.164754,-7846.182985,1302.362347
2650.768790,-1406.391290,-8364.327145,0.000000
2650.769118,740.205942,-11029.068536,-1915.238745
2650.769445,1924.535449,-12139.377449,-1915.238745
2650.769773,1258.350101,-11399.171507,-536.266849
2650.770100,518.144159,-10584.944971,612.876398
2650.770428,-962.267725,-8586.388927,1608.800546
2650.770755,-814.226536,-7179.997637,153.219100
2650.771083,0.000000,-7920.203579,-612.876398
2650.771411,1480.411884,-8660.409521,-1225.752797
2650.771738,1628.453072,-8808.450710,-995.924147
2650.772066,592.164754,-9770.718434,612.876398
2650.772393,-592.164754,-9474.636058,1532.190996
2650.772721,-888.247130,-9474.636058,766.095498
2650.773048,518.144159,-10955.047942,-995.924147
2650.773376,2072.576638,-12879.583391,-1915.238745
2650.773704,1702.473667,-12435.459826,-2451.505594
2650.774031,1702.473667,-11769.274478,-766.095498
2650.774359,-592.164754,-10214.842000,1072.533697
2650.774686,-1702.473667,-8808.450710,1302.362347
2650.775014,-1332.370696,-7698.141797,153.219100
2650.775342,-296.082377,-7476.080014,-1149.143247
2650.775669,1258.350101,-7772.162391,-1149.143247
2650.775997,2146.597232,-9474.636058,-689.485948
2650.776324,-222.061783,-10066.800811,1838.629195
2650.776652,-2072.576638,-8142.265362,1608.800546
2650.776979,-1258.350101,-8660.409521,-1225.752797
2650.777307,-518.144159,-11103.089130,-1685.410096
2650.777635,962.267725,-11029.068536,-3064.381992
2650.777962,1258.350101,-10732.986159,-1149.143247
2650.778290,1258.350101,-12139.377449,919.314598
2650.778617,-222.061783,-10214.842000,2068.457845
2650.778945,-962.267725,-7698.141797,612.876398
2650.779272,-814.226536,-7402.059420,-383.047749
2650.779600,518.144159,-8142.265362,-1225.752797
2650.779928,2516.700203,-8660.409521,-1991.848295
2650.780255,2072.576638,-9844.739029,766.095498
2650.780583,370.102971,-9400.615463,2145.067394
2650.780910,0.000000,-8068.244768,1532.190996
2650.781238,-370.102971,-9178.553681,0.000000
2650.781565,518.144159,-11843.295072,-1302.362347
2650.781893,1998.556043,-11621.233289,-2221.676944
2650.782221,1036.288319,-10436.903782,-1149.143247
2650.782548,-444.123565,-10955.047942,919.314598
2650.782876,-1258.350101,-9474.636058,995.924147
2650.783203,-2294.638420,-8142.265362,0.000000
2650.783531,-2072.576638,-8808.450710,-995.924147
2650.783858,0.000000,-9178.553681,-2604.724693
2650.784186,1258.350101,-9548.656652,-2145.067394
2650.784514,1332.370696,-10436.903782,229.828649
2650.784841,222.061783,-9178.553681,1455.581446
2650.785169,-740.205942,-8290.306550,1991.848295
2650.785496,-296.082377,-9178.553681,229.828649
2650.785824,1480.411884,-10214.842000,-1532.190996
2650.786151,2368.659014,-11029.068536,-1685.410096
2650.786479,1480.411884,-11399.171507,0.000000
2650.786807,1480.411884,-11177.109724,1302.362347
2650.787134,296.082377,-9770.718434,1149.143247
2650.787462,-1184.329507,-8586.388927,0.000000
2650.787789,370.102971,-9326.594869,-995.924147
2650.788117,2146.597232,-9104.533087,-2145.067394
2650.788444,2072.576638,-9770.718434,-1302.362347
2650.788772,1924.535449,-10214.842000,612.876398
2650.789100,740.205942,-7994.224174,1302.362347
2650.789427,-740.205942,-7105.977043,1685.410096
2650.789755,-148.041188,-9104.533087,689.485948
2650.790082,444.123565,-11103.089130,-1225.752797
2650.790410,1258.350101,-11251.130318,-1915.238745
2650.790737,666.185348,-10584.944971,-1532.190996
2650.791065,-1702.473667,-9696.697840,0.000000
2650.791393,-2368.659014,-8660.409521,383.047749
2650.791720,-962.267725,-8956.491898,-612.876398
2650.792048,0.000000,-9474.636058,-1608.800546
2650.792375,2368.659014,-10584.944971,-1225.752797
2650.792703,1998.556043,-10436.903782,-229.828649
2650.793030,-148.041188,-9474.636058,1838.629195
2650.793358,-1406.391290,-8586.388927,1532.190996
2650.793686,-1332.370696,-7920.203579,0.000000
2650.794013,-740.205942,-8808.450710,-612.876398
2650.794341,1036.288319,-10140.821405,-1149.143247
2650.794668,1110.308913,-11843.295072,-1685.410096
2650.794996,518.144159,-13027.624579,0.000000
2650.795324,-1110.308913,-10510.924376,383.047749
2650.795651,-2072.576638,-7846.182985,-689.485948
2650.795979,-814.226536,-9104.533087,-766.095498
2650.796306,1924.535449,-10510.924376,-1991.848295
2650.796634,2442.679609,-9992.780217,-536.266849
2650.796961,2590.720797,-10066.800811,1072.533697
2650.797289,1110.308913,-8956.491898,2451.505594
2650.797617,-592.164754,-7550.100608,2374.896044
2650.797944,-1258.350101,-8438.347739,612.876398
2650.798272,0.000000,-10214.842000,-1532.190996
2650.798599,1036.288319,-10732.986159,-2681.334243
2650.798927,1628.453072,-11621.233289,-1915.238745
2650.799254,-444.123565,-10732.986159,76.609550
2650.799582,-1554.432478,-9474.636058,1455.581446
2650.799910,-1554.432478,-8068.244768,76.609550
2650.800237,-1258.350101,-8956.491898,-919.314598
2650.800565,1554.432478,-9474.636058,-1608.800546
2650.800892,2664.741391,-8808.450710,-2145.067394
2650.801220,1036.288319,-9548.656652,1532.190996
2650.801547,-666.185348,-9400.615463,2911.162892
2650.801875,-666.185348,-8068.244768,919.314598
2650.802203,-740.205942,-9030.512492,-1149.143247
2650.802530,666.185348,-10288.862594,-1608.800546
2650.802858,2072.576638,-11843.295072,-2221.676944
2650.803185,1924.535449,-12805.562797,-306.438199
2650.803513,-296.082377,-11917.315666,1149.143247
2650.803840,-1554.432478,-9474.636058,536.266849
2650.804168,-1554.432478,-7846.182985,-612.876398
2650.804496,148.041188,-8364.327145,-1302.362347
2650.804823,2664.741391,-8956.491898,-2221.676944
2650.805151,2960.823768,-9400.615463,-536.266849
2650.805478,1628.453072,-9918.759623,2451.505594
2650.805806,1110.308913,-9030.512492,2604.724693
2650.806133,-296.082377,-7624.121203,306.438199
2650.806461,-296.082377,-9844.739029,-1532.190996
2650.806789,518.144159,-11843.295072,-1991.848295
2650.807116,1480.411884,-11695.253884,-2528.115143
2650.807444,962.267725,-11843.295072,-612.876398
2650.807771,-666.185348,-9844.739029,1149.143247
2650.808099,-1850.514855,-8068.244768,1608.800546
2650.808426,-888.247130,-8438.347739,766.095498
2650.808754,0.000000,-7846.182985,-995.924147
2650.809082,1480.411884,-8734.430116,-2145.067394
2650.809409,1850.514855,-9622.677246,-459.657299
2650.809737,0.000000,-8290.306550,1991.848295
2650.810064,-814.226536,-7402.059420,1991.848295
2650.810392,-444.123565,-8882.471304,306.438199
2650.810719,592.164754,-11029.068536,-1532.190996
2650.811047,1850.514855,-11843.295072,-2604.724693
2650.811375,1924.535449,-12509.480420,-2221.676944
2650.811702,814.226536,-11843.295072,459.657299
2650.812030,74.020594,-9844.739029,1378.971896
2650.812357,-1554.432478,-7402.059420,1225.752797
2650.812685,-148.041188,-8512.368333,-229.828649
2650.813012,1406.391290,-8438.347739,-1378.971896
2650.813340,1924.535449,-8660.409521,-1378.971896
2650.813668,814.226536,-10436.903782,153.219100
2650.813995,-296.082377,-9252.574275,2068.457845
2650.814323,-1332.370696,-7698.141797,1838.629195
2650.814650,-962.267725,-10214.842000,76.609550
2650.814978,740.205942,-12065.356855,-2221.676944
2650.815306,2072.576638,-12139.377449,-2987.772442
2650.815633,1184.329507,-11843.295072,-1149.143247
2650.815961,-666.185348,-11103.089130,842.705048
2650.816288,-2072.576638,-8290.306550,536.266849
2650.816616,-2220.617826,-7624.121203,-459.657299
2650.816943,-1480.411884,-7920.203579,-995.924147
2650.817271,814.226536,-8512.368333,-1838.629195
2650.817599,1776.494261,-8882.471304,-919.314598
2650.817926,518.144159,-9770.718434,1455.581446
2650.818254,-518.144159,-9474.636058,2145.067394
2650.818581,-666.185348,-8364.327145,919.314598
2650.818909,296.082377,-10140.821405,-383.047749
2650.819236,1776.494261,-11399.171507,-1225.752797
2650.819564,2516.700203,-11843.295072,-1455.581446
2650.819892,1776.494261,-11843.295072,0.000000
2650.820219,592.164754,-10732.986159,995.924147
2650.820547,-666.185348,-8438.347739,612.876398
2650.820874,-1628.453072,-7254.018232,-229.828649
2650.821202,0.000000,-7994.224174,-1302.362347
2650.821529,1554.432478,-8068.244768,-2068.457845
2650.821857,1554.432478,-9326.594869,-76.609550
2650.822185,962.267725,-10066.800811,2145.067394
2650.822512,592.164754,-9030.512492,2528.115143
2650.822840,0.000000,-9104.533087,1608.800546
2650.823167,740.205942,-10066.800811,0.000000
2650.823495,1776.494261,-10881.027347,-1762.019645
2650.823822,1184.329507,-10584.944971,-1302.362347
2650.824150,-666.185348,-10584.944971,-919.314598
2650.824478,-1850.514855,-10362.883188,0.000000
2650.824805,-1776.494261,-9770.718434,0.000000
2650.825133,-1258.350101,-8956.491898,-1225.752797
2650.825460,888.247130,-9326.594869,-2221.676944
2650.825788,1776.494261,-9548.656652,-1915.238745
2650.826115,1258.350101,-9252.574275,76.609550
2650.826443,222.061783,-9326.594869,1762.019645
2650.826771,-1258.350101,-8068.244768,2528.115143
2650.827098,-1332.370696,-8882.471304,1072.533697
2650.827426,518.144159,-10362.883188,-689.485948
2650.827753,1480.411884,-10881.027347,-1302.362347
2650.828081,296.082377,-11473.192101,-1455.581446
2650.828408,0.000000,-12953.603985,-153.219100
2650.828736,-1406.391290,-9622.677246,-842.705048
2650.829064,-1628.453072,-8068.244768,-1532.190996
2650.829391,0.000000,-9030.512492,-1378.971896
2650.829719,1776.494261,-9400.615463,-1225.752797
2650.830046,2738.761985,-9104.533087,-612.876398
2650.830374,2368.659014,-10214.842000,2221.676944
2650.830701,888.247130,-9178.553681,3064.381992
2650.831029,222.061783,-7698.141797,1685.410096
2650.831357,-296.082377,-9030.512492,0.000000
2650.831684,666.185348,-11473.192101,-1225.752797
2650.832012,1628.453072,-11325.150913,-2221.676944
2650.832339,444.123565,-11177.109724,-919.314598
2650.832667,-666.185348,-10955.047942,76.609550
2650.832994,-1924.535449,-8956.491898,459.657299
2650.833322,-2294.638420,-7994.224174,-842.705048
2650.833650,-592.164754,-8956.491898,-1762.019645
2650.833977,2146.597232,-9252.574275,-2145.067394
2650.834305,2516.700203,-10066.800811,-536.266849
2650.834632,1332.370696,-10658.965565,2528.115143
2650.834960,0.000000,-9400.615463,3370.820191
2650.835287,-370.102971,-8290.306550,1072.533697
2650.835615,-296.082377,-9918.759623,-1378.971896
2650.835943,222.061783,-11325.150913,-1991.848295
2650.836270,1110.308913,-11843.295072,-2374.896044
2650.836598,444.123565,-12361.439231,-306.438199
2650.836925,-1036.288319,-9918.759623,995.924147
2650.837253,-1480.411884,-8364.327145,229.828649
2650.837581,0.000000,-8438.347739,-536.266849
2650.837908,962.267725,-7772.162391,-1378.971896
2650.838236,2442.679609,-8956.491898,-995.924147
2650.838563,2294.638420,-9918.759623,842.705048
2650.838891,740.205942,-9326.594869,2911.162892
2650.839218,0.000000,-8512.368333,2451.505594
2650.839546,0.000000,-8956.491898,459.657299
2650.839874,148.041188,-10807.006753,-2145.067394
2650.840201,1480.411884,-11621.233289,-2681.334243
2650.840529,1258.350101,-11621.233289,-2221.676944
2650.840856,-518.144159,-11029.068536,-383.047749
2650.841184,-1480.411884,-9474.636058,383.047749
2650.841511,-1702.473667,-8290.306550,229.828649
2650.841839,-1184.329507,-8068.244768,-153.219100
2650.842167,1850.514855,-8438.347739,-1225.752797
2650.842494,2664.741391,-9178.553681,-689.485948
2650.842822,1776.494261,-10288.862594,1532.190996
2650.843149,296.082377,-10066.800811,2145.067394
2650.843477,-444.123565,-9326.594869,919.314598
2650.843804,-592.164754,-9844.739029,-459.657299
2650.844132,74.020594,-11547.212695,-2451.505594
2650.844460,962.267725,-12435.459826,-2604.724693
2650.844787,518.144159,-11769.274478,-1838.629195
2650.845115,-296.082377,-10807.006753,153.219100
2650.845442,-1776.494261,-8586.388927,766.095498
2650.845770,-1480.411884,-7550.100608,153.219100
2650.846097,296.082377,-7994.224174,-459.657299
2650.846425,2072.576638,-8660.409521,-1225.752797
2650.846753,2590.720797,-9326.594869,0.000000
2650.847080,1628.453072,-9474.636058,1455.581446
2650.847408,0.000000,-9400.615463,2451.505594
2650.847735,-370.102971,-9252.574275,919.314598
2650.848063,148.041188,-10510.924376,-1072.533697
2650.848390,888.247130,-12287.418637,-2298.286494
2650.848718,1850.514855,-11991.336260,-2298.286494
2650.849046,1036.288319,-10288.862594,-766.095498
2650.849373,-1184.329507,-9104.533087,1685.410096
2650.849701,-1998.556043,-7476.080014,1685.410096
2650.850028,-1258.350101,-7254.018232,0.000000
2650.850356,0.000000,-7920.203579,-1072.533697
2650.850683,2072.576638,-8290.306550,-1532.190996
2650.851011,1628.453072,-8882.471304,153.219100
2650.851339,222.061783,-10214.842000,2911.162892
2650.851666,-962.267725,-9622.677246,1532.190996
2650.851994,-740.205942,-9104.533087,-229.828649
2650.852321,0.000000,-11103.089130,-1915.238745
2650.852649,1480.411884,-13101.645173,-1915.238745
2650.852976,2072.576638,-12213.398043,-1991.848295
2650.853304,518.144159,-11325.150913,-842.705048
2650.853632,-962.267725,-9770.718434,1302.362347
2650.853959,-1110.308913,-7994.224174,153.219100
2650.854287,-888.247130,-7328.038826,-459.657299
2650.854614,518.144159,-8216.285956,-1225.752797
2650.854942,1702.473667,-8734.430116,-995.924147
2650.855269,1924.535449,-9918.759623,-306.438199
2650.855597,814.226536,-9992.780217,2451.505594
2650.855925,0.000000,-9326.594869,1838.629195
2650.856252,814.226536,-10066.800811,-306.438199
2650.856580,592.164754,-11547.212695,-1608.800546
2650.856907,1184.329507,-11917.315666,-1915.238745
2650.857235,444.123565,-11029.068536,-1302.362347
2650.857563,-1406.391290,-10658.965565,689.485948
2650.857890,-2812.782580,-8660.409521,0.000000
2650.858218,-1924.535449,-7550.100608,-766.095498
2650.858545,-1702.473667,-8364.327145,-842.705048
2650.858873,962.267725,-8882.471304,-1608.800546
2650.859200,2886.803174,-9474.636058,-1225.752797
2650.859528,1998.556043,-10807.006753,1225.752797
2650.859856,666.185348,-9326.594869,3294.210641
2650.860183,-444.123565,-7698.141797,2374.896044
2650.860511,0.000000,-8808.450710,-612.876398
2650.860838,962.267725,-10584.944971,-1225.752797
2650.861166,1480.411884,-11473.192101,-1991.848295
2650.861493,1702.473667,-11325.150913,-689.485948
2650.861821,0.000000,-10732.986159,919.314598
2650.862148,-592.164754,-8882.471304,689.485948
2650.862476,-740.205942,-7402.059420,-612.876398
2650.862803,814.226536,-8512.368333,-2451.505594
2650.863131,2368.659014,-9326.594869,-1378.971896
2650.863458,2886.803174,-10066.800811,-383.047749
2650.863785,2664.741391,-10288.862594,2221.676944
2650.864113,1184.329507,-9030.512492,2757.943793
2650.864440,592.164754,-8660.409521,1455.581446
2650.864768,444.123565,-10807.006753,-459.657299
2650.865095,296.082377,-11325.150913,-2451.505594
2650.865423,1258.350101,-10955.047942,-3447.429741
2650.865750,-444.123565,-10658.965565,-1685.410096
2650.866078,-1776.494261,-10140.821405,842.705048
2650.866405,-1924.535449,-8216.285956,536.266849
2650.866732,-1184.329507,-7994.224174,-1225.752797
2650.867060,1184.329507,-10066.800811,-842.705048
2650.867387,2590.720797,-9770.718434,-995.924147
2650.867715,2368.659014,-9992.780217,0.000000
2650.868042,74.020594,-10140.821405,2451.505594
2650.868370,-592.164754,-8660.409521,1915.238745
2650.868697,-148.041188,-8734.430116,229.828649
2650.869024,-296.082377,-10140.821405,-689.485948
2650.869352,1184.329507,-11399.171507,-2145.067394
2650.869679,1480.411884,-11843.295072,-1838.629195
2650.870007,0.000000,-11251.130318,-536.266849
2650.870334,-1554.432478,-9844.739029,-153.219100
2650.870662,-1184.329507,-7994.224174,-153.219100
2650.870989,-518.144159,-7402.059420,0.000000
2650.871317,1406.391290,-8882.471304,0.000000
2650.871644,3478.967927,-9770.718434,229.828649
2650.871971,2738.761985,-9548.656652,1762.019645
2650.872299,962.267725,-9030.512492,2757.943793
2650.872626,-592.164754,-8068.244768,1685.410096
2650.872954,-1332.370696,-8290.306550,-153.219100
2650.873281,296.082377,-10658.965565,-1915.238745
2650.873609,1110.308913,-11177.109724,-2528.115143
2650.873936,-370.102971,-11029.068536,-1072.533697
2650.874263,-592.164754,-10658.965565,842.705048
2650.874591,-1406.391290,-8956.491898,383.047749
2650.874918,-1998.556043,-8142.265362,-383.047749
2650.875246,0.000000,-9030.512492,-842.705048
2650.875573,1776.494261,-8882.471304,-1225.752797
2650.875901,2368.659014,-9104.533087,0.000000
2650.876228,1036.288319,-9622.677246,1378.971896
2650.876555,-1258.350101,-9252.574275,2374.896044
2650.876883,-2368.659014,-8882.471304,1378.971896
2650.877210,-518.144159,-10140.821405,-1991.848295
2650.877538,666.185348,-11473.192101,-3447.429741
2650.877865,1258.350101,-12657.521608,-2604.724693
2650.878193,1184.329507,-13027.624579,-842.705048
2650.878520,148.041188,-10658.965565,995.924147
2650.878848,-1036.288319,-7846.182985,689.485948
2650.879175,-1036.288319,-8068.244768,0.000000
2650.879502,370.102971,-8586.388927,-459.657299
2650.879830,2072.576638,-8438.347739,-689.485948
2650.880157,2812.782580,-9918.759623,612.876398
2650.880485,1480.411884,-10584.944971,2451.505594
2650.880812,0.000000,-9474.636058,2911.162892
2650.881140,222.061783,-9030.512492,766.095498
2650.881467,148.041188,-10066.800811,-2451.505594
2650.881794,518.144159,-11843.295072,-2604.724693
2650.882122,888.247130,-11621.233289,-2374.896044
2650.882449,-1110.308913,-10214.842000,-306.438199
2650.882777,-2072.576638,-8734.430116,1455.581446
2650.883104,-1702.473667,-7328.038826,1072.533697
2650.883432,-1628.453072,-7328.038826,-306.438199
2650.883759,962.267725,-8660.409521,0.000000
2650.884087,2812.782580,-8290.306550,-1838.629195
2650.884414,2294.638420,-9252.574275,76.609550
2650.884741,888.247130,-9992.780217,2145.067394
2650.885069,222.061783,-8586.388927,1455.581446
2650.885396,296.082377,-9104.533087,0.000000
2650.885724,1110.308913,-10955.047942,-1149.143247
2650.886051,2812.782580,-12583.501014,-2757.943793
2650.886379,2664.741391,-13027.624579,-1991.848295
2650.886706,814.226536,-11473.192101,229.828649
2650.887033,-1554.432478,-9326.594869,689.485948
2650.887361,-1850.514855,-8068.244768,0.000000
2650.887688,-962.267725,-7550.100608,-612.876398
2650.888016,1184.329507,-8882.471304,-1378.971896
2650.888343,2072.576638,-9400.615463,-919.314598
2650.888671,1406.391290,-9992.780217,1225.752797
2650.888998,148.041188,-9844.739029,1838.629195
2650.889326,-888.247130,-9474.636058,842.705048
2650.889653,-592.164754,-9474.636058,-689.485948
2650.889980,592.164754,-11473.192101,-2298.286494
2650.890308,2220.617826,-12213.398043,-2374.896044
2650.890635,1406.391290,-11399.171507,0.000000
2650.890963,-518.144159,-10658.965565,1685.410096
2650.891290,-888.247130,-8808.450710,1762.019645
2650.891618,-1924.535449,-7402.059420,306.438199
2650.891945,-962.267725,-7920.203579,-995.924147
2650.892272,444.123565,-8734.430116,-1608.800546
2650.892600,1184.329507,-9178.553681,-995.924147
2650.892927,0.000000,-9474.636058,1455.581446
2650.893255,-666.185348,-9104.533087,2145.067394
2650.893582,-1258.350101,-7994.224174,1378.971896
2650.893910,-370.102971,-10066.800811,-229.828649
2650.894237,1702.473667,-12065.356855,-1608.800546
2650.894565,1850.514855,-11769.274478,-2298.286494
2650.894892,592.164754,-11621.233289,0.000000
2650.895219,-518.144159,-10066.800811,1149.143247
2650.895547,-1628.453072,-8068.244768,1225.752797
2650.895874,-1776.494261,-7476.080014,76.609550
2650.896202,0.000000,-9178.553681,-1225.752797
2650.896529,1184.329507,-9548.656652,-1762.019645
2650.896857,1924.535449,-9770.718434,-459.657299
2650.897184,1258.350101,-9770.718434,1685.410096
2650.897511,-148.041188,-8808.450710,2145.067394
2650.897839,0.000000,-9104.533087,1225.752797
2650.898166,962.267725,-10658.965565,-919.314598
2650.898494,1702.473667,-12139.377449,-1991.848295
2650.898821,1406.391290,-11917.315666,-1608.800546
2650.899149,-296.082377,-11399.171507,-536.266849
2650.899476,-2368.659014,-9622.677246,383.047749
2650.899804,-2738.761985,-8068.244768,-536.266849
2650.900131,-1406.391290,-8660.409521,-1608.800546
2650.900458,444.123565,-9104.533087,-1685.410096
2650.900786,1628.453072,-8660.409521,-1072.533697
2650.901113,2072.576638,-9326.594869,383.047749
2650.901441,666.185348,-8734.430116,2987.772442
2650.901768,74.020594,-7920.203579,2068.457845
2650.902096,222.061783,-8438.347739,459.657299
2650.902423,1628.453072,-10288.862594,-919.314598
2650.902750,2664.741391,-11029.068536,-1532.190996
2650.903078,1850.514855,-12213.398043,-1149.143247
2650.903405,444.123565,-12065.356855,153.219100
2650.903733,-740.205942,-9474.636058,-306.438199
2650.904060,-1998.556043,-7402.059420,0.000000
2650.904388,-814.226536,-8734.430116,-842.705048
2650.904715,1332.370696,-9178.553681,-1685.410096
2650.905042,2368.659014,-9252.574275,0.000000
2650.905370,1998.556043,-9696.697840,1838.629195
2650.905697,740.205942,-8956.491898,2681.334243
2650.906025,0.000000,-7920.203579,1302.362347
2650.906352,-592.164754,-9030.512492,-536.266849
2650.906680,-148.041188,-10732.986159,-1762.019645
2650.907007,1036.288319,-11325.150913,-2451.505594
2650.907335,444.123565,-11991.336260,-1225.752797
2650.907662,-592.164754,-11325.150913,76.609550
2650.907989,-1924.535449,-9770.718434,612.876398
2650.908317,-2738.761985,-8586.388927,-383.047749
2650.908644,-1036.288319,-9548.656652,-1762.019645
2650.908972,444.123565,-9104.533087,-2451.505594
2650.909299,888.247130,-8808.450710,-1149.143247
2650.909627,-296.082377,-9030.512492,1455.581446
2650.909954,-666.185348,-9178.553681,2145.067394
2650.910281,0.000000,-8660.409521,459.657299
2650.910609,1184.329507,-10510.924376,-919.314598
2650.910936,1924.535449,-11917.315666,-1762.019645
2650.911264,1702.473667,-12065.356855,-2451.505594
2650.911591,740.205942,-11991.336260,-919.314598
2650.911919,-444.123565,-10584.944971,76.609550
2650.912246,-1554.432478,-8734.430116,919.314598
2650.912574,-962.267725,-7328.038826,306.438199
2650.912901,666.185348,-7846.182985,0.000000
2650.913228,2590.720797,-8882.471304,-612.876398
2650.913556,2220.617826,-8438.347739,306.438199
2650.913883,444.123565,-7920.203579,1838.629195
2650.914211,0.000000,-7920.203579,1838.629195
2650.914538,-666.185348,-8290.306550,536.266849
2650.914866,592.164754,-10066.800811,-1225.752797
2650.915193,1776.494261,-11621.233289,-1455.581446
2650.915520,1110.308913,-12583.501014,-1838.629195
2650.915848,1258.350101,-12657.521608,-306.438199
2650.916175,-740.205942,-10288.862594,612.876398
2650.916503,-1998.556043,-8882.471304,-306.438199
2650.916830,-888.247130,-8438.347739,-1378.971896
2650.917158,296.082377,-8068.244768,-1762.019645
2650.917485,1332.370696,-8438.347739,-766.095498
2650.917813,1406.391290,-8734.430116,2451.505594
2650.918140,0.000000,-8660.409521,2451.505594
2650.918467,-740.205942,-8586.388927,1302.362347
2650.918795,-296.082377,-9622.677246,-766.095498
2650.919122,888.247130,-11991.336260,-2068.457845
2650.919450,1924.535449,-12953.603985,-2221.676944
2650.919777,1998.556043,-12361.439231,-1072.533697
2650.920105,296.082377,-11843.295072,0.000000
2650.920432,-592.164754,-9104.533087,0.000000
2650.920759,-1110.308913,-8438.347739,-383.047749
2650.921087,-888.247130,-8438.347739,-612.876398
2650.921414,1036.288319,-8290.306550,-1378.971896
2650.921742,2368.659014,-9178.553681,-842.705048
2650.922069,1184.329507,-9252.574275,919.314598
2650.922397,148.041188,-8290.306550,2528.115143
2650.922724,-370.102971,-7550.100608,1225.752797
2650.923052,370.102971,-9918.759623,0.000000
2650.923379,1480.411884,-12213.398043,-766.095498
2650.923706,2368.659014,-11769.274478,-1532.190996
2650.924034,1184.329507,-11103.089130,-383.047749
2650.924361,0.000000,-10732.986159,842.705048
2650.924689,-1332.370696,-9474.636058,766.095498
2650.925016,-2220.617826,-8142.265362,-306.438199
2650.925344,-1258.350101,-7328.038826,-1838.629195
2650.925671,370.102971,-7328.038826,-1991.848295
2650.925998,666.185348,-8808.450710,-842.705048
2650.926326,0.000000,-9474.636058,1762.019645
2650.926653,-888.247130,-7772.162391,2298.286494
2650.926981,-592.164754,-8512.368333,0.000000
2650.927308,1184.329507,-11177.109724,0.000000
2650.927636,2294.638420,-12213.398043,-1302.362347
2650.927963,1702.473667,-10584.944971,-1225.752797
2650.928291,148.041188,-11029.068536,-306.438199
2650.928618,-888.247130,-11251.130318,0.000000
2650.928945,-1184.329507,-8956.491898,-1072.533697
2650.929273,-1480.411884,-8512.368333,-1302.362347
2650.929600,666.185348,-9474.636058,-766.095498
2650.929928,2220.617826,-10066.800811,-1225.752797
2650.930255,1480.411884,-9844.739029,0.000000
2650.930583,-148.041188,-9252.574275,1302.362347
2650.930910,0.000000,-8216.285956,1149.143247
2650.931237,-222.061783,-8586.388927,0.000000
2650.931565,888.247130,-11399.171507,-459.657299
2650.931892,2368.659014,-12139.377449,-842.705048
2650.932220,2368.659014,-11547.212695,-459.657299
2650.932547,296.082377,-11103.089130,459.657299
2650.932875,-962.267725,-10214.842000,229.828649
2650.933202,-1332.370696,-8660.409521,-1149.143247
2650.933530,-1480.411884,-7402.059420,-1915.238745
2650.933857,444.123565,-8956.491898,-1838.629195
2650.934184,1628.453072,-9770.718434,-1225.752797
2650.934512,518.144159,-9178.553681,1762.019645
2650.934839,-1258.350101,-8660.409521,3370.820191
2650.935167,-1184.329507,-8438.347739,1915.238745
2650.935494,0.000000,-9104.533087,-153.219100
2650.935822,1406.391290,-10584.944971,-1225.752797
2650.936149,2664.741391,-10955.047942,-1762.019645
2650.936476,814.226536,-11547.212695,0.000000
2650.936804,370.102971,-11621.233289,919.314598
2650.937131,-1036.288319,-8660.409521,306.438199
2650.937459,-1406.391290,-7624.121203,-995.924147
2650.937786,74.020594,-8734.430116,-1532.190996
2650.938114,1406.391290,-8734.430116,-1532.190996
2650.938441,2072.576638,-9400.615463,-229.828649
2650.938768,1628.453072,-9918.759623,2221.676944
2650.939096,-296.082377,-8660.409521,2451.505594
2650.939423,222.061783,-8586.388927,766.095498
2650.939751,74.020594,-9992.780217,-306.438199
2650.940078,1110.308913,-11991.336260,-1072.533697
2650.940406,1184.329507,-11695.253884,-1991.848295
2650.940733,0.000000,-11695.253884,0.000000
2650.941061,-2294.638420,-10807.006753,-459.657299
2650.941388,-2294.638420,-9252.574275,-1072.533697
2650.941715,-2220.617826,-8660.409521,-1685.410096
2650.942043,-666.185348,-8512.368333,-1532.190996
2650.942370,1702.473667,-8808.450710,-1685.410096
2650.942698,1480.411884,-9252.574275,766.095498
2650.943025,-222.061783,-8734.430116,3600.648841
2650.943353,0.000000,-7994.224174,2987.772442
2650.943680,0.000000,-8438.347739,689.485948
2650.944007,222.061783,-10732.986159,-1225.752797
2650.944335,1702.473667,-11547.212695,-1838.629195
2650.944662,1184.329507,-11103.089130,-1762.019645
2650.944990,444.123565,-11473.192101,-536.266849
2650.945317,-222.061783,-10732.986159,0.000000
2650.945645,-1406.391290,-8142.265362,-689.485948
2650.945972,0.000000,-8882.471304,-383.047749
2650.946300,1702.473667,-9178.553681,-1149.143247
2650.946627,2368.659014,-8882.471304,-383.047749
2650.946954,2072.576638,-9770.718434,1378.971896
2650.947282,296.082377,-8586.388927,2757.943793
2650.947609,-666.185348,-7476.080014,1302.362347
2650.947937,148.041188,-9104.533087,153.219100
2650.948264,148.041188,-10807.006753,-995.924147
2650.948592,1554.432478,-11769.274478,-1532.190996
2650.948919,1628.453072,-12065.356855,-1532.190996
2650.949246,0.000000,-11029.068536,-612.876398
2650.949574,-1406.391290,-9474.636058,536.266849
2650.949901,-1184.329507,-8216.285956,-612.876398
2650.950229,74.020594,-8808.450710,-1149.143247
2650.950556,1554.432478,-9326.594869,-1225.752797
2650.950884,2664.741391,-9770.718434,0.000000
2650.951211,1258.350101,-10066.800811,1762.019645
2650.951539,-592.164754,-9548.656652,2145.067394
2650.951866,-1258.350101,-8586.388927,76.609550
2650.952193,-1406.391290,-9178.553681,-1608.800546
2650.952521,-296.082377,-10436.903782,-2298.286494
2650.952848,1480.411884,-11769.274478,-2834.553343
2650.953176,1184.329507,-11621.233289,-536.266849
2650.953503,0.000000,-10584.944971,1455.581446
2650.953831,0.000000,-9474.636058,766.095498
2650.954158,0.000000,-8068.244768,-153.219100
2650.954485,518.144159,-8142.265362,-1608.800546
2650.954813,2220.617826,-8586.388927,-383.047749
2650.955140,1850.514855,-9696.697840,229.828649
2650.955468,740.205942,-9770.718434,2221.676944
2650.955795,-222.061783,-8438.347739,1991.848295
2650.956123,-1110.308913,-8216.285956,229.828649
2650.956450,-592.164754,-10140.821405,-383.047749
2650.956778,962.267725,-11769.274478,-1685.410096
2650.957105,888.247130,-11399.171507,-1378.971896
2650.957432,0.000000,-10362.883188,-689.485948
2650.957760,-814.226536,-9474.636058,612.876398
2650.958087,-2072.576638,-8364.327145,1072.533697
2650.958415,-2146.597232,-7772.162391,612.876398
2650.958742,296.082377,-8438.347739,-842.705048
2650.959070,1998.556043,-8734.430116,-1455.581446
2650.959397,444.123565,-9474.636058,766.095498
2650.959724,-962.267725,-10214.842000,1378.971896
2650.960052,-2146.597232,-9104.533087,689.485948
2650.960379,-1480.411884,-9474.636058,-1225.752797
2650.960707,296.082377,-10881.027347,-2451.505594
2650.961034,1258.350101,-11843.295072,-2145.067394
2650.961362,2146.597232,-11843.295072,-459.657299
2650.961689,1258.350101,-11251.130318,689.485948
2650.962017,444.123565,-9992.780217,0.000000
2650.962344,-592.164754,-8068.244768,-689.485948
2650.962671,-296.082377,-8068.244768,-1378.971896
2650.962999,1332.370696,-9548.656652,-1455.581446
2650.963326,2664.741391,-10140.821405,-612.876398
2650.963654,1850.514855,-10214.842000,306.438199
2650.963981,888.247130,-10214.842000,2145.067394
2650.964309,0.000000,-8438.347739,1072.533697
2650.964636,148.041188,-9252.574275,-536.266849
2650.964964,666.185348,-11621.233289,-1225.752797
2650.965291,1776.494261,-10881.027347,-1991.848295
2650.965619,1702.473667,-9770.718434,-1149.143247
2650.965946,-370.102971,-8734.430116,842.705048
2650.966274,-740.205942,-8068.244768,1608.800546
2650.966601,-888.247130,-7624.121203,459.657299
2650.966929,-222.061783,-8142.265362,-995.924147
2650.967256,1332.370696,-8882.471304,-2298.286494
2650.967584,2960.823768,-10362.883188,-1378.971896
2650.967911,1628.453072,-11029.068536,1225.752797
2650.968239,74.020594,-10140.821405,2528.115143
2650.968566,0.000000,-8142.265362,842.705048
2650.968894,0.000000,-8956.491898,-689.485948
2650.969221,518.144159,-10510.924376,-689.485948
2650.969549,1480.411884,-10066.800811,-995.924147
2650.969876,222.061783,-10584.944971,0.000000
2650.970204,-814.226536,-10362.883188,1302.362347
2650.970531,-1184.329507,-8438.347739,-306.438199
2650.970859,-1406.391290,-8068.244768,-995.924147
2650.971186,-518.144159,-9622.677246,-1225.752797
2650.971514,1406.391290,-10362.883188,-1608.800546
2650.971841,1776.494261,-11399.171507,-689.485948
2650.972169,518.144159,-10066.800811,1455.581446
2650.972496,-592.164754,-8734.430116,1302.362347
2650.972824,-592.164754,-8882.471304,919.314598
2650.973151,74.020594,-10584.944971,-612.876398
2650.973479,888.247130,-11029.068536,-1455.581446
2650.973806,1184.329507,-10732.986159,-1838.629195
2650.974134,-740.205942,-9844.739029,-383.047749
2650.974461,-2220.617826,-9252.574275,229.828649
2650.974789,-2072.576638,-8216.285956,229.828649
2650.975116,-1776.494261,-8882.471304,-612.876398
2650.975444,740.205942,-9252.574275,-1149.143247
2650.975771,2442.679609,-9622.677246,-919.314598
2650.976099,1924.535449,-10510.924376,1149.143247
2650.976426,592.164754,-10066.800811,2145.067394
2650.976754,-1036.288319,-8438.347739,1072.533697
2650.977081,-814.226536,-8364.327145,153.219100
2650.977409,148.041188,-9400.615463,-612.876398
2650.977736,740.205942,-10955.047942,-1302.362347
2650.978064,1332.370696,-11177.109724,-459.657299
2650.978391,296.082377,-10658.965565,383.047749
2650.978719,-962.267725,-8586.388927,229.828649
2650.979046,-962.267725,-7920.203579,-459.657299
2650.979374,0.000000,-8512.368333,-536.266849
2650.979701,1998.556043,-9400.615463,-383.047749
2650.980029,2812.782580,-9622.677246,229.828649
2650.980356,1702.473667,-9844.739029,1378.971896
2650.980684,-148.041188,-8956.491898,1838.629195
2650.981011,-666.185348,-9178.553681,459.657299
2650.981339,0.000000,-10362.883188,-919.314598
2650.981666,1110.308913,-11621.233289,-1991.848295
2650.981994,1998.556043,-11843.295072,-2221.676944
2650.982321,740.205942,-11325.150913,-1225.752797
2650.982649,-518.144159,-10955.047942,459.657299
2650.982976,-1258.350101,-9178.553681,0.000000
2650.983304,-2072.576638,-7846.182985,-766.095498
2650.983631,0.000000,-8882.471304,-1302.362347
2650.983959,1998.556043,-8882.471304,-1072.533697
2650.984286,2516.700203,-9400.615463,459.657299
2650.984614,1406.391290,-10584.944971,1378.971896
2650.984941,0.000000,-9696.697840,1225.752797
2650.985269,-814.226536,-8364.327145,-383.047749
2650.985596,-518.144159,-9548.656652,-1991.848295
2650.985924,518.144159,-11621.233289,-1991.848295
2650.986251,1258.350101,-11621.233289,-1608.800546
2650.986579,740.205942,-11547.212695,-306.438199
2650.986906,-962.267725,-10288.862594,919.314598
2650.987234,-1480.411884,-8216.285956,612.876398
2650.987561,-666.185348,-7698.141797,-459.657299
2650.987889,592.164754,-8882.471304,-536.266849
2650.988216,2368.659014,-9178.553681,-383.047749
2650.988544,2664.741391,-9252.574275,229.828649
2650.988871,740.205942,-9252.574275,2298.286494
2650.989199,-814.226536,-8216.285956,2604.724693
2650.989526,-148.041188,-7698.141797,842.705048
2650.989854,0.000000,-10288.862594,-1455.581446
2650.990181,1184.329507,-12361.439231,-2298.286494
2650.990509,1776.494261,-11325.150913,-1838.629195
2650.990836,1110.308913,-10955.047942,153.219100
2650.991164,-1480.411884,-9844.739029,1762.019645
2650.991491,-1998.556043,-8438.347739,229.828649
2650.991819,-1924.535449,-7772.162391,-1302.362347
2650.992146,-518.144159,-8290.306550,-2068.457845
2650.992474,1554.432478,-9252.574275,-1915.238745
2650.992801,1110.308913,-10214.842000,229.828649
2650.993129,-592.164754,-9622.677246,1685.410096
2650.993456,-1184.329507,-8660.409521,995.924147
2650.993784,-592.164754,-9622.677246,-919.314598
2650.994111,444.123565,-10955.047942,-1378.971896
2650.994439,1850.514855,-11325.150913,-1838.629195
2650.994766,2368.659014,-11917.315666,-995.924147
2650.995094,1406.391290,-11473.192101,1225.752797
2650.995421,296.082377,-9844.739029,1608.800546
2650.995749,-1036.288319,-7772.162391,0.000000
2650.996076,74.020594,-8512.368333,-919.314598
2650.996404,814.226536,-8660.409521,-1685.410096
2650.996731,1184.329507,-9326.594869,-1225.752797
2650.997059,222.061783,-10066.800811,536.266849
2650.997386,-444.123565,-8882.471304,1225.752797
2650.997714,-666.185348,-8068.244768,995.924147
2650.998041,148.041188,-10140.821405,306.438199
2650.998369,1480.411884,-11325.150913,-383.047749
2650.998696,2072.576638,-11029.068536,-1225.752797
2650.999023,888.247130,-11251.130318,0.000000
2650.999351,0.000000,-9918.759623,612.876398
2650.999678,-1332.370696,-8216.285956,766.095498
2651.000006,-1258.350101,-7920.203579,0.000000
2651.000333,-148.041188,-8882.471304,-995.924147
2651.000661,592.164754,-9104.533087,-1532.190996
2651.000988,1110.308913,-8956.491898,-1225.752797
2651.001316,0.000000,-9918.759623,766.095498
2651.001643,-814.226536,-8882.471304,1149.143247
2651.001971,-370.102971,-8586.388927,229.828649
2651.002298,888.247130,-10140.821405,153.219100
2651.002626,2812.782580,-11325.150913,229.828649
2651.002953,2812.782580,-11991.336260,-153.219100
2651.003281,888.247130,-11991.336260,229.828649
2651.003608,-1110.308913,-9770.718434,0.000000
2651.003936,-2146.597232,-7772.162391,-1608.800546
2651.004263,-1850.514855,-8290.306550,-1838.629195
2651.004591,0.000000,-8734.430116,-1072.533697
2651.004918,1702.473667,-9104.533087,-766.095498
2651.005246,2664.741391,-10658.965565,536.266849
2651.005573,1184.329507,-9844.739029,1991.848295
2651.005901,222.061783,-8438.347739,1072.533697
2651.006228,148.041188,-8586.388927,0.000000
2651.006556,1110.308913,-10436.903782,-766.095498
2651.006883,1702.473667,-11843.295072,-612.876398
2651.007211,1776.494261,-11843.295072,153.219100
2651.007538,222.061783,-10584.944971,306.438199
2651.007866,-1628.453072,-9030.512492,0.000000
2651.008193,-2516.700203,-8364.327145,-1225.752797
2651.008521,-2368.659014,-8290.306550,-1915.238745
2651.008848,-444.123565,-8586.388927,-1991.848295
2651.009176,962.267725,-9400.615463,-1302.362347
2651.009503,962.267725,-9252.574275,1302.362347
2651.009831,-740.205942,-8364.327145,2528.115143
2651.010158,-814.226536,-7994.224174,2068.457845
2651.010486,-222.061783,-9252.574275,229.828649
2651.010813,1110.308913,-10658.965565,-1149.143247
2651.011141,2072.576638,-11399.171507,-1378.971896
2651.011468,740.205942,-11695.253884,0.000000
2651.011796,-296.082377,-11325.150913,0.000000
2651.012123,-2294.638420,-9622.677246,612.876398
2651.012451,-2072.576638,-7994.224174,-766.095498
2651.012778,-1332.370696,-8660.409521,-2221.676944
2651.013106,1184.329507,-9474.636058,-2528.115143
2651.013433,1480.411884,-9474.636058,-689.485948
2651.013761,1332.370696,-9400.615463,1915.238745
2651.014088,518.144159,-8586.388927,2834.553343
2651.014416,222.061783,-8586.388927,1455.581446
2651.014743,1258.350101,-10584.944971,-766.095498
2651.015071,962.267725,-11695.253884,-1762.019645
2651.015398,1036.288319,-12065.356855,-1838.629195
2651.015726,518.144159,-11621.233289,-842.705048
2651.016053,-1184.329507,-10732.986159,0.000000
2651.016381,-1998.556043,-9400.615463,459.657299
2651.016708,-1554.432478,-8364.327145,-306.438199
2651.017036,814.226536,-8216.285956,-995.924147
2651.017363,1998.556043,-9400.615463,-842.705048
2651.017691,2072.576638,-8512.368333,612.876398
2651.018018,592.164754,-7994.224174,2298.286494
2651.018346,-222.061783,-7772.162391,2298.286494
2651.018673,222.061783,-8660.409521,536.266849
2651.019001,1554.432478,-9844.739029,-612.876398
2651.019328,2368.659014,-11325.150913,-153.219100
2651.019656,1702.473667,-12139.377449,-1225.752797
2651.019983,1480.411884,-12805.562797,-383.047749
2651.020311,-444.123565,-9918.759623,0.000000
2651.020638,-1258.350101,-7920.203579,-995.924147
2651.020966,-222.061783,-8438.347739,-766.095498
2651.021293,1110.308913,-8068.244768,-383.047749
2651.021621,1924.535449,-7994.224174,0.000000
2651.021948,1554.432478,-8808.450710,1991.848295
2651.022276,-148.041188,-7994.224174,2145.067394
2651.022603,-592.164754,-7772.162391,995.924147
2651.022931,-518.144159,-9474.636058,-995.924147
2651.023258,74.020594,-11843.295072,-1991.848295
2651.023586,1406.391290,-12361.439231,-2068.457845
2651.023913,444.123565,-11769.274478,-1072.533697
2651.024241,-592.164754,-12213.398043,0.000000
2651.024568,-1850.514855,-9696.697840,153.219100
2651.024896,-2368.659014,-7698.141797,-689.485948
2651.025223,-1924.535449,-8660.409521,-1608.800546
2651.025551,370.102971,-9474.636058,-1608.800546
2651.025878,1480.411884,-8512.368333,-919.314598
2651.026206,888.247130,-9104.533087,459.657299
2651.026533,-370.102971,-9178.553681,1991.848295
2651.026861,-592.164754,-8364.327145,689.485948
2651.027188,444.123565,-9992.780217,-766.095498
2651.027516,1702.473667,-12139.377449,-995.924147
2651.027843,2886.803174,-12509.480420,-995.924147
2651.028171,1702.473667,-11917.315666,153.219100
2651.028498,296.082377,-11399.171507,229.828649
2651.028826,-1258.350101,-8734.430116,76.609550
2651.029153,-1036.288319,-7698.141797,-689.485948
2651.029481,-222.061783,-7846.182985,-612.876398
2651.029808,888.247130,-8068.244768,-689.485948
2651.030136,1776.494261,-9030.512492,229.828649
2651.030463,296.082377,-8438.347739,1915.238745
2651.030791,-296.082377,-7698.141797,1455.581446
2651.031118,-370.102971,-8068.244768,229.828649
2651.031446,444.123565,-10214.842000,-612.876398
2651.031773,1554.432478,-11843.295072,-766.095498
2651.032101,2368.659014,-11325.150913,-612.876398
2651.032428,1332.370696,-10066.800811,0.000000
2651.032756,-518.144159,-9696.697840,1455.581446
2651.033083,-2072.576638,-8660.409521,306.438199
2651.033411,-1850.514855,-8512.368333,-1532.190996
2651.033738,296.082377,-9030.512492,-2604.724693
2651.034066,2220.617826,-8882.471304,-1991.848295
2651.034393,1702.473667,-9474.636058,536.266849
2651.034721,370.102971,-10140.821405,2451.505594
2651.035048,0.000000,-8734.430116,1072.533697
2651.035376,222.061783,-9178.553681,-1072.533697
2651.035703,814.226536,-11177.109724,-1455.581446
2651.036031,2368.659014,-11843.295072,-1455.581446
2651.036358,2516.700203,-11843.295072,-306.438199
2651.036686,1332.370696,-11843.295072,919.314598
2651.037013,-296.082377,-10288.862594,842.705048
2651.037341,-1110.308913,-8882.471304,-995.924147
2651.037668,-1258.350101,-9326.594869,-1608.800546
2651.037996,0.000000,-9474.636058,-2221.676944
2651.038323,740.205942,-9400.615463,-1915.238745
2651.038651,296.082377,-9844.739029,536.266849
2651.038978,-666.185348,-9030.512492,2068.457845
2651.039306,-592.164754,-8660.409521,1532.190996
2651.039633,0.000000,-9326.594869,842.705048
2651.039961,1332.370696,-11769.274478,-612.876398
2651.040288,2442.679609,-12213.398043,-842.705048
2651.040616,1184.329507,-10955.047942,-76.609550
2651.040943,-740.205942,-10066.800811,612.876398
2651.041271,-1554.432478,-8290.306550,459.657299
2651.041598,-1998.556043,-6735.874072,153.219100
2651.041926,-888.247130,-7402.059420,-995.924147
2651.042253,148.041188,-8438.347739,-1149.143247
2651.042581,1924.535449,-10214.842000,-459.657299
2651.042908,296.082377,-9622.677246,1532.190996
2651.043236,-1036.288319,-8808.450710,2374.896044
2651.043563,-1184.329507,-7994.224174,919.314598
2651.043891,-296.082377,-9918.759623,-306.438199
2651.044218,444.123565,-11473.192101,-459.657299
2651.044546,2220.617826,-10510.924376,-766.095498
2651.044873,1184.329507,-11177.109724,-153.219100
2651.045201,-518.144159,-11399.171507,306.438199
2651.045528,-2072.576638,-9474.636058,-306.438199
2651.045856,-1998.556043,-8660.409521,-1685.410096
2651.046183,-1036.288319,-8068.244768,-2528.115143
2651.046511,1702.473667,-9548.656652,-1455.581446
2651.046838,3108.864956,-10140.821405,383.047749
2651.047166,1332.370696,-9844.739029,2451.505594
2651.047493,370.102971,-9104.533087,2451.505594
2651.047821,666.185348,-9400.615463,229.828649
2651.048148,296.082377,-10732.986159,-1378.971896
2651.048476,1184.329507,-11695.253884,-2145.067394
2651.048803,1110.308913,-10584.944971,-1302.362347
2651.049131,-518.144159,-11177.109724,-536.266849
2651.049458,-518.144159,-10881.027347,0.000000
2651.049786,-814.226536,-9474.636058,-995.924147
2651.050113,-666.185348,-8660.409521,-1378.971896
2651.050441,888.247130,-9474.636058,-1608.800546
2651.050768,2146.597232,-9696.697840,-919.314598
2651.051096,2294.638420,-9400.615463,919.314598
2651.051423,888.247130,-8660.409521,2451.505594
2651.051751,296.082377,-7624.121203,1991.848295
2651.052078,222.061783,-8290.306550,1225.752797
2651.052406,1036.288319,-10362.883188,-153.219100
2651.052733,2072.576638,-11177.109724,-1149.143247
2651.053061,1554.432478,-11399.171507,-995.924147
2651.053388,296.082377,-11029.068536,-306.438199
2651.053716,-740.205942,-9400.615463,-306.438199
2651.054043,-296.082377,-8660.409521,-1072.533697
2651.054370,0.000000,-8808.450710,-306.438199
2651.054698,1184.329507,-9104.533087,-153.219100
2651.055025,2220.617826,-9178.553681,76.609550
2651.055353,1480.411884,-9252.574275,1149.143247
2651.055680,-592.164754,-8808.450710,1915.238745
2651.056008,-1480.411884,-7920.203579,76.609550
2651.056335,-962.267725,-9400.615463,-612.876398
2651.056663,370.102971,-11103.089130,-1455.581446
2651.056990,1184.329507,-11177.109724,-1685.410096
2651.057318,666.185348,-11177.109724,-306.438199
2651.057645,-444.123565,-11325.150913,306.438199
2651.057973,-814.226536,-9992.780217,-459.657299
2651.058300,-296.082377,-9178.553681,-995.924147
2651.058628,-148.041188,-8290.306550,-1302.362347
2651.058955,1480.411884,-9400.615463,-1149.143247
2651.059283,1702.473667,-9844.739029,306.438199
2651.059610,-296.082377,-9918.759623,1915.238745
2651.059938,-962.267725,-8438.347739,1838.629195
2651.060265,-1184.329507,-7846.182985,-459.657299
2651.060593,-666.185348,-9844.739029,-1762.019645
2651.060920,296.082377,-11547.212695,-2221.676944
2651.061248,1036.288319,-11547.212695,-1608.800546
2651.061575,148.041188,-11621.233289,-383.047749
2651.061903,0.000000,-11103.089130,383.047749
2651.062231,-814.226536,-8216.285956,76.609550
2651.062558,-1406.391290,-7328.038826,76.609550
2651.062886,1332.370696,-9252.574275,-612.876398
2651.063213,2368.659014,-9696.697840,-766.095498
2651.063541,1184.329507,-9474.636058,536.266849
2651.063868,0.000000,-9252.574275,1685.410096
2651.064196,-1110.308913,-8438.347739,1302.362347
2651.064523,-814.226536,-8142.265362,153.219100
2651.064851,518.144159,-10807.006753,-1072.533697
2651.065178,1628.453072,-11251.130318,-1608.800546
2651.065506,2294.638420,-10807.006753,-766.095498
2651.065833,666.185348,-10584.944971,383.047749
2651.066161,-1110.308913,-9474.636058,919.314598
2651.066488,-1332.370696,-7179.997637,-306.438199
2651.066816,-444.123565,-7624.121203,-1455.581446
2651.067144,814.226536,-9474.636058,-1685.410096
2651.067471,2516.700203,-11103.089130,-995.924147
2651.067799,1998.556043,-10362.883188,842.705048
2651.068126,0.000000,-9770.718434,1685.410096
2651.068454,-666.185348,-9252.574275,229.828649
2651.068781,-222.061783,-9474.636058,-1532.190996
2651.069109,518.144159,-11695.253884,-1915.238745
2651.069436,2516.700203,-11473.192101,-1378.971896
2651.069764,2294.638420,-11177.109724,0.000000
2651.070091,1036.288319,-11325.150913,1608.800546
2651.070419,0.000000,-9178.553681,919.314598
2651.070746,-962.267725,-7402.059420,-689.485948
2651.071074,-518.144159,-9030.512492,-995.924147
2651.071401,370.102971,-9548.656652,-1915.238745
2651.071729,1258.350101,-9918.759623,-1608.800546
2651.072057,296.082377,-10214.842000,153.219100
2651.072384,-592.164754,-9474.636058,1455.581446
2651.072712,-592.164754,-9548.656652,919.314598
2651.073039,148.041188,-10362.883188,0.000000
2651.073367,1332.370696,-11251.130318,-919.314598
2651.073694,2146.597232,-10807.006753,-995.924147
2651.074022,592.164754,-9696.697840,-459.657299
2651.074349,-1110.308913,-9104.533087,1762.019645
2651.074677,-1480.411884,-7402.059420,383.047749
2651.075004,-1776.494261,-7105.977043,-612.876398
2651.075332,-814.226536,-7994.224174,-1072.533697
2651.075659,1036.288319,-9548.656652,-1072.533697
2651.075987,1480.411884,-10658.965565,-229.828649
2651.076314,666.185348,-10362.883188,1455.581446
2651.076642,-296.082377,-9178.553681,459.657299
2651.076970,-296.082377,-8290.306550,229.828649
2651.077297,814.226536,-9770.718434,-689.485948
2651.077625,1776.494261,-10955.047942,-689.485948
2651.077952,2368.659014,-11029.068536,-383.047749
2651.078280,1332.370696,-11251.130318,612.876398
2651.078607,0.000000,-10214.842000,689.485948
2651.078935,-1406.391290,-8364.327145,-612.876398
2651.079262,-1554.432478,-8586.388927,-1455.581446
2651.079590,592.164754,-9622.677246,-2145.067394
2651.079917,1850.514855,-10362.883188,-1455.581446
2651.080245,1702.473667,-10584.944971,229.828649
2651.080572,1036.288319,-10066.800811,1915.238745
2651.080900,148.041188,-8586.388927,1838.629195
2651.081227,888.247130,-9992.780217,-153.219100
2651.081555,148.041188,-10066.800811,-612.876398
2651.081882,814.226536,-10584.944971,-919.314598
2651.082210,370.102971,-10436.903782,-919.314598
2651.082538,-1258.350101,-10807.006753,-459.657299
2651.082865,-2738.761985,-9696.697840,-536.266849
2651.083193,-2442.679609,-7846.182985,-1532.190996
2651.083520,-2294.638420,-8216.285956,-1072.533697
2651.083848,74.020594,-9326.594869,-306.438199
2651.084175,1998.556043,-9474.636058,-689.485948
2651.084503,1036.288319,-9474.636058,919.314598
2651.084830,-518.144159,-8438.347739,1991.848295
2651.085158,-444.123565,-8142.265362,536.266849
2651.085485,148.041188,-8364.327145,459.657299
2651.085813,666.185348,-10214.842000,-612.876398
2651.086140,2368.659014,-11177.109724,-1302.362347
2651.086468,2368.659014,-11917.315666,-1149.143247
2651.086795,1036.288319,-11991.336260,76.609550
2651.087123,-370.102971,-9548.656652,0.000000
2651.087451,-444.123565,-8216.285956,-1225.752797
2651.087778,592.164754,-9030.512492,-995.924147
2651.088106,2072.576638,-9326.594869,-1149.143247
2651.088433,2590.720797,-9474.636058,383.047749
2651.088761,1406.391290,-9474.636058,1455.581446
2651.089088,518.144159,-9104.533087,1455.581446
2651.089416,-222.061783,-8956.491898,76.609550
2651.089743,-518.144159,-9400.615463,-1149.143247
2651.090071,740.205942,-11843.295072,-995.924147
2651.090398,1924.535449,-11621.233289,-1685.410096
2651.090726,370.102971,-10436.903782,-1302.362347
2651.091053,-1110.308913,-9918.759623,536.266849
2651.091381,-666.185348,-9030.512492,0.000000
2651.091708,-444.123565,-8586.388927,-689.485948
2651.092036,518.144159,-9178.553681,-612.876398
2651.092364,1776.494261,-9400.615463,-229.828649
2651.092691,1702.473667,-9474.636058,612.876398
2651.093019,888.247130,-10214.842000,1685.410096
2651.093346,-370.102971,-8290.306550,1072.533697
2651.093674,-444.123565,-7698.141797,0.000000
2651.094001,444.123565,-9622.677246,-995.924147
2651.094329,1480.411884,-11399.171507,-1532.190996
2651.094656,1628.453072,-11399.171507,-842.705048
2651.094984,0.000000,-11547.212695,306.438199
2651.095311,-888.247130,-9622.677246,1532.190996
2651.095639,-1554.432478,-8290.306550,153.219100
