#time,accel_x,accel_y,accel_z
3206.339951,0.000000,-9844.739029,-612.876398
3206.340279,148.041188,-10436.903782,-689.485948
3206.340607,518.144159,-10658.965565,-536.266849
3206.340935,592.164754,-10436.903782,-536.266849
3206.341262,740.205942,-10140.821405,-306.438199
3206.341590,518.144159,-10066.800811,-229.828649
3206.341918,444.123565,-9622.677246,-383.047749
3206.342246,74.020594,-9622.677246,-229.828649
3206.342573,0.000000,-9622.677246,0.000000
3206.342901,0.000000,-9474.636058,-612.876398
3206.343229,-148.041188,-9844.739029,-612.876398
3206.343557,0.000000,-9548.656652,-459.657299
3206.343884,148.041188,-9548.656652,-612.876398
3206.344212,-222.061783,-9770.718434,-306.438199
3206.344540,444.123565,-10214.842000,-306.438199
3206.344868,518.144159,-9992.780217,153.219100
3206.345196,444.123565,-9770.718434,153.219100
3206.345523,222.061783,-9474.636058,536.266849
3206.345851,222.061783,-9178.553681,229.828649
3206.346179,-148.041188,-8216.285956,383.047749
3206.346507,-296.082377,-8808.450710,842.705048
3206.346834,-296.082377,-9030.512492,153.219100
3206.347162,-370.102971,-9252.574275,-383.047749
3206.347490,0.000000,-9474.636058,-153.219100
3206.347818,148.041188,-9696.697840,-306.438199
3206.348145,518.144159,-9770.718434,-229.828649
3206.348473,592.164754,-9770.718434,-612.876398
3206.348801,740.205942,-9474.636058,459.657299
3206.349129,888.247130,-9474.636058,459.657299
3206.349456,592.164754,-9474.636058,0.000000
3206.349784,592.164754,-9474.636058,-229.828649
3206.350112,222.061783,-9400.615463,-459.657299
3206.350440,296.082377,-9696.697840,0.000000
3206.350767,-222.061783,-9400.615463,-689.485948
3206.351095,0.000000,-9918.759623,-1302.362347
3206.351423,148.041188,-9992.780217,-766.095498
3206.351751,370.102971,-10510.924376,-536.266849
3206.352078,814.226536,-10584.944971,-536.266849
3206.352406,814.226536,-10362.883188,-306.438199
3206.352734,444.123565,-10214.842000,-229.828649
3206.353062,518.144159,-9548.656652,-383.047749
3206.353390,74.020594,-9696.697840,-459.657299
3206.353717,74.020594,-9474.636058,-459.657299
3206.354045,0.000000,-9622.677246,-383.047749
3206.354373,0.000000,-9474.636058,-842.705048
3206.354701,-148.041188,-9844.739029,-612.876398
3206.355028,0.000000,-9622.677246,-689.485948
3206.355356,74.020594,-9918.759623,-229.828649
3206.355684,222.061783,-9770.718434,0.000000
3206.356012,444.123565,-10066.800811,153.219100
3206.356339,296.082377,-9622.677246,229.828649
3206.356667,296.082377,-9474.636058,306.438199
3206.356995,148.041188,-9252.574275,459.657299
3206.357323,296.082377,-8956.491898,383.047749
3206.357650,148.041188,-8586.388927,229.828649
3206.357978,74.020594,-8290.306550,76.609550
3206.358306,1036.288319,-8956.491898,-459.657299
3206.358634,1702.473667,-9104.533087,76.609550
3206.358961,2812.782580,-9104.533087,0.000000
3206.359289,3701.029710,-8882.471304,153.219100
3206.359617,5107.421000,-8956.491898,229.828649
3206.359945,6291.750507,-9918.759623,0.000000
3206.360272,6735.874072,-9474.636058,-306.438199
3206.360600,7179.997637,-9474.636058,0.000000
3206.360928,7402.059420,-9696.697840,-153.219100
3206.361256,7846.182985,-9844.739029,-229.828649
3206.361584,7328.038826,-10288.862594,0.000000
3206.361911,7846.182985,-10214.842000,-689.485948
3206.362239,8660.409521,-9548.656652,-459.657299
3206.362567,9844.739029,-9548.656652,-842.705048
3206.362895,9844.739029,-9548.656652,-306.438199
3206.363222,11251.130318,-9474.636058,0.000000
3206.363550,11547.212695,-9548.656652,229.828649
3206.363878,11621.233289,-10288.862594,153.219100
3206.364206,11325.150913,-9770.718434,-306.438199
3206.364533,11325.150913,-10066.800811,0.000000
3206.364861,12139.377449,-9548.656652,-1225.752797
3206.365189,12361.439231,-9548.656652,-383.047749
3206.365517,13545.768739,-10955.047942,-306.438199
3206.365844,13545.768739,-10436.903782,229.828649
3206.366172,14359.995275,-9474.636058,0.000000
3206.366500,14730.098246,-8808.450710,-766.095498
3206.366828,13841.851115,-9326.594869,995.924147
3206.367155,13397.727550,-9104.533087,1991.848295
3206.367483,13841.851115,-9326.594869,842.705048
3206.367811,13027.624579,-9844.739029,919.314598
3206.368139,13249.686362,-9992.780217,1149.143247
3206.368466,12361.439231,-8882.471304,1149.143247
3206.368794,12213.398043,-8808.450710,1149.143247
3206.369122,11399.171507,-8068.244768,612.876398
3206.369450,10436.903782,-9474.636058,919.314598
3206.369777,9326.594869,-9992.780217,-153.219100
3206.370105,8808.450710,-10066.800811,0.000000
3206.370433,7846.182985,-8956.491898,76.609550
3206.370761,7624.121203,-7328.038826,-459.657299
3206.371089,8956.491898,-8290.306550,536.266849
3206.371416,10732.986159,-9696.697840,842.705048
3206.371744,11769.274478,-10732.986159,1838.629195
3206.372072,10066.800811,-10584.944971,1685.410096
3206.372400,9400.615463,-9770.718434,766.095498
3206.372727,8438.347739,-8438.347739,-689.485948
3206.373055,7920.203579,-8512.368333,-1225.752797
3206.373383,8142.265362,-10066.800811,-459.657299
3206.373711,7994.224174,-11769.274478,383.047749
3206.374038,8512.368333,-10955.047942,-229.828649
3206.374366,9104.533087,-8734.430116,-1072.533697
3206.374694,7402.059420,-9400.615463,-766.095498
3206.375022,6217.729913,-11029.068536,0.000000
3206.375349,6661.853478,-10288.862594,-919.314598
3206.375677,8660.409521,-8290.306550,-1838.629195
3206.376005,10732.986159,-9400.615463,-1532.190996
3206.376333,10288.862594,-9918.759623,76.609550
3206.376660,8068.244768,-9178.553681,2834.553343
3206.376988,7031.956449,-8586.388927,1762.019645
3206.377316,8808.450710,-9770.718434,-1455.581446
3206.377644,10436.903782,-11103.089130,-3064.381992
3206.377971,9548.656652,-10732.986159,-1378.971896
3206.378299,7476.080014,-10066.800811,1149.143247
3206.378627,7920.203579,-10584.944971,766.095498
3206.378955,7698.141797,-9622.677246,-383.047749
3206.379283,6069.688724,-8956.491898,76.609550
3206.379610,5181.441594,-9104.533087,842.705048
3206.379938,6217.729913,-9252.574275,0.000000
3206.380266,6365.771101,-8808.450710,-842.705048
3206.380594,3997.112087,-8216.285956,536.266849
3206.380921,2738.761985,-7772.162391,459.657299
3206.381249,2516.700203,-6957.935855,76.609550
3206.381577,2886.803174,-7698.141797,-306.438199
3206.381905,4663.297435,-10436.903782,-1072.533697
3206.382232,7476.080014,-11399.171507,-1532.190996
3206.382560,8438.347739,-10066.800811,-306.438199
3206.382888,6735.874072,-10214.842000,1915.238745
3206.383216,5255.462188,-10066.800811,2221.676944
3206.383543,6883.915261,-8956.491898,229.828649
3206.383871,6883.915261,-9770.718434,-1378.971896
3206.384199,6439.791695,-10881.027347,-1532.190996
3206.384527,7328.038826,-10584.944971,76.609550
3206.384854,6661.853478,-10584.944971,2298.286494
3206.385182,4293.194464,-10140.821405,2528.115143
3206.385510,2664.741391,-9474.636058,-536.266849
3206.385838,148.041188,-9992.780217,-919.314598
3206.386165,-740.205942,-10436.903782,0.000000
3206.386493,740.205942,-9104.533087,-1532.190996
3206.386821,-592.164754,-9844.739029,-1302.362347
3206.387149,-2664.741391,-10732.986159,383.047749
3206.387476,-1628.453072,-9178.553681,459.657299
3206.387804,-1776.494261,-9400.615463,-1455.581446
3206.388132,-1998.556043,-11029.068536,-1149.143247
3206.388460,0.000000,-10510.924376,-1455.581446
3206.388788,888.247130,-10140.821405,-2374.896044
3206.389115,-740.205942,-9178.553681,459.657299
3206.389443,592.164754,-10436.903782,1149.143247
3206.389771,-444.123565,-9252.574275,612.876398
3206.390099,-2368.659014,-9252.574275,1838.629195
3206.390426,-1332.370696,-9474.636058,536.266849
3206.390754,-1406.391290,-9474.636058,-842.705048
3206.391082,-2072.576638,-8512.368333,0.000000
3206.391410,-1480.411884,-7772.162391,459.657299
3206.391737,-2368.659014,-7994.224174,995.924147
3206.392065,-1998.556043,-8068.244768,1225.752797
3206.392393,444.123565,-9474.636058,-1302.362347
3206.392721,-962.267725,-9770.718434,-919.314598
3206.393048,-1036.288319,-9252.574275,153.219100
3206.393376,-518.144159,-10214.842000,-919.314598
3206.393704,-1702.473667,-11399.171507,-229.828649
3206.394032,-592.164754,-10214.842000,-1302.362347
3206.394359,0.000000,-11399.171507,-2451.505594
3206.394687,-1702.473667,-12065.356855,919.314598
3206.395015,0.000000,-9992.780217,0.000000
3206.395343,74.020594,-8216.285956,-766.095498
3206.395670,-1702.473667,-7920.203579,0.000000
3206.395998,-1480.411884,-9178.553681,-1149.143247
3206.396326,-1776.494261,-8882.471304,-766.095498
3206.396654,-740.205942,-7698.141797,-306.438199
3206.396982,888.247130,-7624.121203,-1838.629195
3206.397309,1554.432478,-9918.759623,-689.485948
3206.397637,3256.906145,-12657.521608,612.876398
3206.397965,4959.379811,-13619.789333,0.000000
3206.398293,3849.070898,-12287.418637,-229.828649
3206.398620,2886.803174,-10584.944971,-612.876398
3206.398948,888.247130,-10732.986159,-612.876398
3206.399276,-148.041188,-9992.780217,-229.828649
3206.399604,740.205942,-10510.924376,0.000000
3206.399931,888.247130,-9030.512492,153.219100
3206.400259,962.267725,-7179.997637,229.828649
3206.400587,1628.453072,-7254.018232,153.219100
3206.400915,962.267725,-8068.244768,1225.752797
3206.401242,1776.494261,-7772.162391,1149.143247
3206.401570,1702.473667,-9548.656652,229.828649
3206.401898,2442.679609,-9992.780217,-383.047749
3206.402226,4145.153275,-9030.512492,0.000000
3206.402553,3330.926739,-10732.986159,612.876398
3206.402881,2146.597232,-12213.398043,2451.505594
3206.403209,2072.576638,-12361.439231,1455.581446
3206.403537,962.267725,-11621.233289,-919.314598
3206.403864,-1998.556043,-10658.965565,-766.095498
3206.404192,-2812.782580,-7698.141797,-1302.362347
3206.404520,-2738.761985,-6365.771101,-1838.629195
3206.404848,-2590.720797,-6439.791695,-306.438199
3206.405176,-1036.288319,-7846.182985,459.657299
3206.405503,222.061783,-8142.265362,1455.581446
3206.405831,1924.535449,-8734.430116,995.924147
3206.406159,2960.823768,-8734.430116,-612.876398
3206.406487,1332.370696,-9770.718434,-766.095498
3206.406814,0.000000,-11843.295072,0.000000
3206.407142,592.164754,-11917.315666,-1225.752797
3206.407470,296.082377,-12139.377449,-1455.581446
3206.407798,370.102971,-12287.418637,-1532.190996
3206.408126,-1258.350101,-10436.903782,-842.705048
3206.408454,-1850.514855,-10362.883188,-689.485948
3206.408781,-3701.029710,-10881.027347,-689.485948
3206.409109,-4663.297435,-9252.574275,-1455.581446
3206.409437,-3034.844362,-6217.729913,-1685.410096
3206.409765,-1998.556043,-5403.503377,-1608.800546
3206.410093,-1406.391290,-7772.162391,306.438199
3206.410421,518.144159,-9992.780217,1991.848295
3206.410748,1480.411884,-11399.171507,612.876398
3206.411076,1036.288319,-12287.418637,0.000000
3206.411404,1480.411884,-11251.130318,-1762.019645
3206.411732,962.267725,-10807.006753,-2451.505594
3206.412060,-962.267725,-11991.336260,-383.047749
3206.412387,-444.123565,-12287.418637,-536.266849
3206.412715,-962.267725,-11547.212695,-229.828649
3206.413043,-888.247130,-8956.491898,76.609550
3206.413371,-148.041188,-6365.771101,-766.095498
3206.413699,-962.267725,-6661.853478,383.047749
3206.414027,-1480.411884,-7254.018232,2298.286494
3206.414354,814.226536,-7105.977043,919.314598
3206.414682,1850.514855,-7476.080014,229.828649
3206.415010,2072.576638,-7920.203579,1838.629195
3206.415338,3775.050304,-8956.491898,842.705048
3206.415666,1924.535449,-10140.821405,919.314598
3206.415993,1998.556043,-12361.439231,-383.047749
3206.416321,888.247130,-13915.871710,-1685.410096
3206.416649,-518.144159,-13619.789333,-1762.019645
3206.416977,814.226536,-10807.006753,-2221.676944
3206.417305,2072.576638,-10732.986159,-2757.943793
3206.417633,1258.350101,-10214.842000,-1225.752797
3206.417960,1554.432478,-9992.780217,1991.848295
3206.418288,962.267725,-7254.018232,2221.676944
3206.418616,1702.473667,-5551.544565,1225.752797
3206.418944,1184.329507,-6291.750507,536.266849
3206.419272,814.226536,-7698.141797,689.485948
3206.419600,370.102971,-8290.306550,842.705048
3206.419927,1258.350101,-10732.986159,-306.438199
3206.420255,0.000000,-11695.253884,-1149.143247
3206.420583,2072.576638,-11473.192101,-1762.019645
3206.420911,3034.844362,-11843.295072,-2298.286494
3206.421239,1776.494261,-13693.809927,-459.657299
3206.421566,1258.350101,-12731.542202,536.266849
3206.421894,296.082377,-11029.068536,-536.266849
3206.422222,-2072.576638,-8882.471304,-306.438199
3206.422550,-666.185348,-7254.018232,-383.047749
3206.422878,-370.102971,-6069.688724,612.876398
3206.423206,0.000000,-6587.832884,2681.334243
3206.423533,1110.308913,-7550.100608,2451.505594
3206.423861,1924.535449,-8068.244768,76.609550
3206.424189,74.020594,-9326.594869,-306.438199
3206.424517,-148.041188,-10732.986159,0.000000
3206.424845,0.000000,-10955.047942,-1225.752797
3206.425172,1702.473667,-12509.480420,-1762.019645
3206.425500,888.247130,-13693.809927,-842.705048
3206.425828,-296.082377,-12805.562797,383.047749
3206.426156,-888.247130,-10955.047942,612.876398
3206.426484,-1850.514855,-9178.553681,-383.047749
3206.426812,-4219.173869,-8660.409521,-995.924147
3206.427139,-5847.626942,-6587.832884,-995.924147
3206.427467,-5107.421000,-6217.729913,-1915.238745
3206.427795,-2442.679609,-5847.626942,-1378.971896
3206.428123,0.000000,-7031.956449,-383.047749
3206.428451,0.000000,-9030.512492,3064.381992
3206.428778,1776.494261,-10066.800811,3370.820191
3206.429106,4071.132681,-11473.192101,459.657299
3206.429434,2294.638420,-13027.624579,-1685.410096
3206.429762,1184.329507,-13101.645173,-1302.362347
3206.430090,1258.350101,-11843.295072,-1455.581446
3206.430418,-814.226536,-11325.150913,0.000000
3206.430745,-1850.514855,-11473.192101,919.314598
3206.431073,-2072.576638,-9326.594869,-459.657299
3206.431401,-1776.494261,-7105.977043,-1302.362347
3206.431729,-1406.391290,-7328.038826,-1302.362347
3206.432057,-1110.308913,-7328.038826,-1149.143247
3206.432385,-370.102971,-7402.059420,612.876398
3206.432712,1036.288319,-6957.935855,612.876398
3206.433040,1702.473667,-7846.182985,1225.752797
3206.433368,2960.823768,-11103.089130,1532.190996
3206.433696,3552.988522,-11843.295072,0.000000
3206.434024,3627.009116,-12287.418637,-995.924147
3206.434351,2960.823768,-13545.768739,-1378.971896
3206.434679,370.102971,-13397.727550,-766.095498
3206.435007,-1258.350101,-10066.800811,-459.657299
3206.435335,-370.102971,-8438.347739,-1455.581446
3206.435663,0.000000,-9474.636058,-1149.143247
3206.435991,0.000000,-7846.182985,306.438199
3206.436318,814.226536,-6143.709319,536.266849
3206.436646,74.020594,-6143.709319,1225.752797
3206.436974,518.144159,-7550.100608,1762.019645
3206.437302,2072.576638,-9104.533087,1302.362347
3206.437630,1036.288319,-9104.533087,1149.143247
3206.437957,2368.659014,-9252.574275,459.657299
3206.438285,3256.906145,-12065.356855,-995.924147
3206.438613,1702.473667,-12065.356855,-536.266849
3206.438941,518.144159,-10807.006753,-383.047749
3206.439269,-518.144159,-10658.965565,-1378.971896
3206.439597,-2368.659014,-11251.130318,-689.485948
3206.439924,74.020594,-10288.862594,-1915.238745
3206.440252,1332.370696,-8438.347739,-2451.505594
3206.440580,0.000000,-8586.388927,919.314598
3206.440908,1036.288319,-8734.430116,3217.601092
3206.441236,962.267725,-7550.100608,2681.334243
3206.441563,-666.185348,-7624.121203,1685.410096
3206.441891,0.000000,-9474.636058,-306.438199
3206.442219,-444.123565,-9992.780217,-1762.019645
3206.442547,-1480.411884,-9030.512492,-2221.676944
3206.442875,-814.226536,-10362.883188,-1915.238745
3206.443203,-1184.329507,-11917.315666,-766.095498
3206.443530,-740.205942,-11917.315666,383.047749
3206.443858,1036.288319,-11621.233289,-229.828649
3206.444186,1776.494261,-10658.965565,-766.095498
3206.444514,1184.329507,-10510.924376,-612.876398
3206.444842,-814.226536,-9548.656652,689.485948
3206.445170,-1554.432478,-8364.327145,76.609550
3206.445497,-962.267725,-8586.388927,0.000000
3206.445825,0.000000,-8290.306550,0.000000
3206.446153,-296.082377,-7105.977043,1838.629195
3206.446481,888.247130,-8068.244768,995.924147
3206.446809,518.144159,-8660.409521,-766.095498
3206.447136,74.020594,-11251.130318,-1378.971896
3206.447464,-962.267725,-11399.171507,-1608.800546
3206.447792,0.000000,-10955.047942,-2451.505594
3206.448120,1036.288319,-10140.821405,-1225.752797
3206.448448,2072.576638,-11621.233289,-229.828649
3206.448776,1554.432478,-13471.748144,1532.190996
3206.449103,1480.411884,-11695.253884,1072.533697
3206.449431,518.144159,-8808.450710,-842.705048
3206.449759,-1628.453072,-7624.121203,-1302.362347
3206.450087,-2442.679609,-6513.812290,-1302.362347
3206.450415,-2368.659014,-6513.812290,-1149.143247
3206.450742,-148.041188,-7402.059420,-612.876398
3206.451070,2220.617826,-7772.162391,-383.047749
3206.451398,2220.617826,-9992.780217,1302.362347
3206.451726,3256.906145,-11547.212695,2451.505594
3206.452054,3849.070898,-11251.130318,612.876398
3206.452382,1850.514855,-11695.253884,-919.314598
3206.452709,148.041188,-12213.398043,-1225.752797
3206.453037,740.205942,-12139.377449,-1762.019645
3206.453365,370.102971,-10140.821405,-612.876398
3206.453693,148.041188,-8068.244768,229.828649
3206.454021,-1258.350101,-7624.121203,1149.143247
3206.454349,-1110.308913,-8660.409521,229.828649
3206.454676,-444.123565,-8586.388927,-1532.190996
3206.455004,0.000000,-8068.244768,-1991.848295
3206.455332,370.102971,-7846.182985,0.000000
3206.455660,1258.350101,-8586.388927,1608.800546
3206.455988,1702.473667,-9030.512492,2145.067394
3206.456315,1480.411884,-10955.047942,2451.505594
3206.456643,1036.288319,-12509.480420,1072.533697
3206.456971,888.247130,-11843.295072,-1608.800546
3206.457299,1184.329507,-10584.944971,-2374.896044
3206.457627,0.000000,-10807.006753,-2068.457845
3206.457955,-1258.350101,-10214.842000,-689.485948
3206.458282,-1480.411884,-8734.430116,0.000000
3206.458610,0.000000,-9400.615463,-536.266849
3206.458938,592.164754,-8808.450710,76.609550
3206.459266,444.123565,-7476.080014,229.828649
3206.459594,370.102971,-7624.121203,153.219100
3206.459921,296.082377,-10436.903782,153.219100
3206.460249,444.123565,-12435.459826,689.485948
3206.460577,518.144159,-10288.862594,383.047749
3206.460905,1258.350101,-8660.409521,-689.485948
3206.461233,2146.597232,-9252.574275,-1072.533697
3206.461561,222.061783,-10732.986159,-383.047749
3206.461888,-740.205942,-12139.377449,383.047749
3206.462216,-1480.411884,-10955.047942,-1225.752797
3206.462544,-1258.350101,-9474.636058,-2911.162892
3206.462872,0.000000,-7994.224174,-2298.286494
3206.463200,74.020594,-9252.574275,-383.047749
3206.463527,296.082377,-11251.130318,2374.896044
3206.463855,2072.576638,-11029.068536,1915.238745
3206.464183,2886.803174,-8660.409521,0.000000
3206.464511,1406.391290,-8364.327145,229.828649
3206.464839,-518.144159,-7994.224174,1608.800546
3206.465167,-2220.617826,-7105.977043,1838.629195
3206.465494,-1480.411884,-8734.430116,-153.219100
3206.465822,-518.144159,-10140.821405,-3064.381992
3206.466150,-1258.350101,-10288.862594,-1608.800546
3206.466478,0.000000,-9474.636058,383.047749
3206.466806,1480.411884,-10362.883188,76.609550
3206.467134,1184.329507,-11399.171507,306.438199
3206.467461,1406.391290,-11621.233289,76.609550
3206.467789,518.144159,-9252.574275,-383.047749
3206.468117,666.185348,-7994.224174,-306.438199
3206.468445,666.185348,-7476.080014,995.924147
3206.468773,1480.411884,-8734.430116,1991.848295
3206.469100,1776.494261,-8586.388927,1455.581446
3206.469428,2146.597232,-8734.430116,0.000000
3206.469756,888.247130,-9474.636058,-383.047749
3206.470084,0.000000,-9474.636058,-229.828649
3206.470412,-1258.350101,-10807.006753,-1225.752797
3206.470740,-1184.329507,-11473.192101,-2221.676944
3206.471067,888.247130,-11325.150913,-1762.019645
3206.471395,2368.659014,-12879.583391,-1072.533697
3206.471723,2072.576638,-12583.501014,1072.533697
3206.472051,3182.885551,-9992.780217,919.314598
3206.472379,2886.803174,-9474.636058,-459.657299
3206.472706,-444.123565,-9474.636058,-536.266849
3206.473034,-2146.597232,-8586.388927,-995.924147
3206.473362,-1998.556043,-7105.977043,-1915.238745
3206.473690,-1702.473667,-6587.832884,-1455.581446
3206.474018,-370.102971,-9178.553681,0.000000
3206.474346,0.000000,-10732.986159,1915.238745
3206.474673,370.102971,-10436.903782,1838.629195
3206.475001,1036.288319,-11103.089130,-383.047749
3206.475329,296.082377,-11769.274478,-2604.724693
3206.475657,-148.041188,-9622.677246,-1532.190996
3206.475985,370.102971,-7846.182985,-229.828649
3206.476313,74.020594,-9030.512492,1149.143247
3206.476640,444.123565,-8438.347739,2298.286494
3206.476968,962.267725,-8882.471304,2451.505594
3206.477296,0.000000,-9178.553681,766.095498
3206.477624,-518.144159,-9326.594869,-1149.143247
3206.477952,-1702.473667,-7698.141797,-1915.238745
3206.478279,-2368.659014,-7772.162391,-1072.533697
3206.478607,-814.226536,-9696.697840,0.000000
3206.478935,370.102971,-9474.636058,306.438199
3206.479263,666.185348,-8882.471304,1532.190996
3206.479591,2072.576638,-9696.697840,995.924147
3206.479919,1998.556043,-11251.130318,0.000000
3206.480246,370.102971,-11843.295072,-612.876398
3206.480574,-148.041188,-10510.924376,-1225.752797
3206.480902,-666.185348,-9770.718434,-1608.800546
3206.481230,0.000000,-9696.697840,-1225.752797
3206.481558,0.000000,-8956.491898,-1378.971896
3206.481885,-592.164754,-9696.697840,229.828649
3206.482213,444.123565,-11029.068536,-459.657299
3206.482541,1036.288319,-10732.986159,-919.314598
3206.482869,740.205942,-10066.800811,-383.047749
3206.483197,518.144159,-8956.491898,0.000000
3206.483525,-740.205942,-8438.347739,459.657299
3206.483852,814.226536,-8808.450710,229.828649
3206.484180,1258.350101,-9548.656652,383.047749
3206.484508,666.185348,-10732.986159,229.828649
3206.484836,370.102971,-10955.047942,0.000000
3206.485164,-222.061783,-11177.109724,-1378.971896
3206.485491,-592.164754,-10288.862594,-1991.848295
3206.485819,666.185348,-10140.821405,-2451.505594
3206.486147,0.000000,-10436.903782,-919.314598
3206.486475,0.000000,-9474.636058,1225.752797
3206.486803,2368.659014,-8438.347739,536.266849
3206.487131,3034.844362,-8660.409521,689.485948
3206.487458,2442.679609,-8660.409521,1915.238745
3206.487786,1554.432478,-7994.224174,1915.238745
3206.488114,222.061783,-8142.265362,2145.067394
3206.488442,74.020594,-7698.141797,842.705048
3206.488770,-296.082377,-8216.285956,306.438199
3206.489098,-1554.432478,-10066.800811,0.000000
3206.489425,-518.144159,-11177.109724,-1378.971896
3206.489753,-370.102971,-11843.295072,-1838.629195
3206.490081,-888.247130,-11843.295072,-1149.143247
3206.490409,0.000000,-9548.656652,-995.924147
3206.490737,1110.308913,-8438.347739,-919.314598
3206.491064,2220.617826,-8882.471304,0.000000
3206.491392,2072.576638,-9326.594869,2145.067394
3206.491720,888.247130,-9104.533087,2298.286494
3206.492048,740.205942,-9030.512492,1378.971896
3206.492376,962.267725,-9474.636058,76.609550
3206.492704,0.000000,-8808.450710,-1378.971896
3206.493031,-1406.391290,-10955.047942,-1072.533697
3206.493359,-1628.453072,-11621.233289,-306.438199
3206.493687,-518.144159,-10807.006753,-2068.457845
3206.494015,444.123565,-11177.109724,-1838.629195
3206.494343,518.144159,-11547.212695,-153.219100
3206.494670,148.041188,-10658.965565,766.095498
3206.494998,1702.473667,-9474.636058,459.657299
3206.495326,1702.473667,-9400.615463,-689.485948
3206.495654,74.020594,-9622.677246,383.047749
3206.495982,-592.164754,-9474.636058,76.609550
3206.496310,-1036.288319,-8290.306550,-536.266849
3206.496637,-814.226536,-8512.368333,-995.924147
3206.496965,-1554.432478,-10955.047942,-612.876398
3206.497293,-2072.576638,-11177.109724,0.000000
3206.497621,-222.061783,-8586.388927,-383.047749
3206.497949,444.123565,-7624.121203,-2145.067394
3206.498277,-1110.308913,-8808.450710,-306.438199
3206.498604,-1036.288319,-9474.636058,1149.143247
3206.498932,222.061783,-9474.636058,766.095498
3206.499260,740.205942,-10214.842000,842.705048
3206.499588,888.247130,-9326.594869,842.705048
3206.499916,444.123565,-8882.471304,459.657299
3206.500243,-370.102971,-9992.780217,1149.143247
3206.500571,-666.185348,-9622.677246,-383.047749
3206.500899,222.061783,-10510.924376,-1608.800546
3206.501227,-222.061783,-9918.759623,-919.314598
3206.501555,0.000000,-8586.388927,-842.705048
3206.501883,0.000000,-6439.791695,-536.266849
3206.502210,592.164754,-8364.327145,842.705048
3206.502538,1036.288319,-11547.212695,1455.581446
3206.502866,1332.370696,-10214.842000,689.485948
3206.503194,1628.453072,-9622.677246,-383.047749
3206.503522,888.247130,-11695.253884,-1072.533697
3206.503849,444.123565,-12805.562797,-1455.581446
3206.504177,222.061783,-11325.150913,-1915.238745
3206.504505,814.226536,-9844.739029,-1149.143247
3206.504833,1110.308913,-9770.718434,-689.485948
3206.505161,1184.329507,-9474.636058,-612.876398
3206.505489,1258.350101,-8734.430116,229.828649
3206.505816,1480.411884,-7920.203579,842.705048
3206.506144,814.226536,-9104.533087,842.705048
3206.506472,-222.061783,-9400.615463,689.485948
3206.506800,962.267725,-7402.059420,-229.828649
3206.507128,814.226536,-7920.203579,-229.828649
3206.507455,-518.144159,-10658.965565,1149.143247
3206.507783,148.041188,-13027.624579,76.609550
3206.508111,518.144159,-12287.418637,-1915.238745
3206.508439,296.082377,-10066.800811,-2834.553343
3206.508766,1406.391290,-9622.677246,-2298.286494
3206.509094,370.102971,-10436.903782,0.000000
3206.509422,-222.061783,-9622.677246,2451.505594
3206.509749,1850.514855,-7179.997637,1378.971896
3206.510077,1406.391290,-6735.874072,0.000000
3206.510405,0.000000,-8068.244768,612.876398
3206.510733,-592.164754,-8364.327145,1608.800546
3206.511060,-444.123565,-7698.141797,1302.362347
3206.511388,518.144159,-10066.800811,306.438199
3206.511716,888.247130,-11177.109724,-383.047749
3206.512043,518.144159,-10584.944971,0.000000
3206.512371,296.082377,-8882.471304,-459.657299
3206.512699,518.144159,-10436.903782,-612.876398
3206.513027,-1184.329507,-11399.171507,-766.095498
3206.513354,-1776.494261,-9918.759623,-1149.143247
3206.513682,-1480.411884,-8808.450710,-1072.533697
3206.514010,-1184.329507,-8068.244768,0.000000
3206.514337,-962.267725,-8808.450710,459.657299
3206.514665,0.000000,-9844.739029,612.876398
3206.514993,666.185348,-10658.965565,153.219100
3206.515321,1776.494261,-10436.903782,-689.485948
3206.515648,444.123565,-10362.883188,-766.095498
3206.515976,-296.082377,-11029.068536,-1149.143247
3206.516304,888.247130,-9696.697840,0.000000
3206.516631,2294.638420,-9178.553681,-536.266849
3206.516959,1554.432478,-11251.130318,153.219100
3206.517287,666.185348,-12065.356855,919.314598
3206.517615,518.144159,-9474.636058,0.000000
3206.517942,222.061783,-9474.636058,-612.876398
3206.518270,-1702.473667,-9622.677246,-995.924147
3206.518598,-2368.659014,-9474.636058,-842.705048
3206.518925,-1184.329507,-9178.553681,-1302.362347
3206.519253,1628.453072,-9770.718434,-2145.067394
3206.519581,1776.494261,-10214.842000,0.000000
3206.519909,1850.514855,-9400.615463,2068.457845
3206.520236,1998.556043,-8512.368333,1915.238745
3206.520564,1110.308913,-9474.636058,1149.143247
3206.520892,592.164754,-9770.718434,-995.924147
3206.521219,-592.164754,-7254.018232,-689.485948
3206.521547,222.061783,-8290.306550,-536.266849
3206.521875,0.000000,-9548.656652,-229.828649
3206.522203,-518.144159,-10214.842000,995.924147
3206.522530,148.041188,-11029.068536,1149.143247
3206.522858,962.267725,-11325.150913,-306.438199
3206.523186,1406.391290,-10066.800811,-1915.238745
3206.523513,1184.329507,-8808.450710,-1072.533697
3206.523841,296.082377,-7920.203579,76.609550
3206.524169,1036.288319,-7476.080014,1762.019645
3206.524497,962.267725,-8290.306550,1455.581446
3206.524824,222.061783,-9696.697840,1378.971896
3206.525152,518.144159,-9770.718434,612.876398
3206.525480,370.102971,-10584.944971,-1072.533697
3206.525807,-814.226536,-11621.233289,-1685.410096
3206.526135,-666.185348,-11917.315666,-1532.190996
3206.526463,-666.185348,-11843.295072,-1302.362347
3206.526791,370.102971,-11103.089130,-1225.752797
3206.527118,1998.556043,-10658.965565,-612.876398
3206.527446,1554.432478,-9844.739029,1225.752797
3206.527774,518.144159,-8882.471304,1378.971896
3206.528101,592.164754,-7846.182985,1302.362347
3206.528429,-296.082377,-8068.244768,536.266849
3206.528757,-888.247130,-8512.368333,766.095498
3206.529085,-888.247130,-8808.450710,689.485948
3206.529412,-666.185348,-9326.594869,-306.438199
3206.529740,518.144159,-10955.047942,-1302.362347
3206.530068,0.000000,-11991.336260,-536.266849
3206.530395,-1850.514855,-9918.759623,76.609550
3206.530723,-888.247130,-9104.533087,-1455.581446
3206.531051,0.000000,-10066.800811,-1608.800546
3206.531379,814.226536,-9548.656652,-995.924147
3206.531706,1628.453072,-8660.409521,0.000000
3206.532034,1036.288319,-9252.574275,1455.581446
3206.532362,-444.123565,-9030.512492,1762.019645
3206.532689,814.226536,-8882.471304,612.876398
3206.533017,-222.061783,-7994.224174,-306.438199
3206.533345,-814.226536,-8290.306550,-842.705048
3206.533673,-444.123565,-10362.883188,-1532.190996
3206.534000,296.082377,-11399.171507,-1532.190996
3206.534328,1554.432478,-9918.759623,-995.924147
3206.534656,2442.679609,-10510.924376,229.828649
3206.534983,2738.761985,-10881.027347,1149.143247
3206.535311,2590.720797,-10510.924376,995.924147
3206.535639,1998.556043,-10584.944971,459.657299
3206.535967,0.000000,-9400.615463,76.609550
3206.536294,-1184.329507,-8956.491898,-919.314598
3206.536622,-2072.576638,-7698.141797,-1685.410096
3206.536950,-2072.576638,-8660.409521,-919.314598
3206.537277,-296.082377,-10510.924376,612.876398
3206.537605,1332.370696,-11177.109724,-306.438199
3206.537933,2368.659014,-9992.780217,-995.924147
3206.538261,2960.823768,-9252.574275,-766.095498
3206.538588,2072.576638,-9104.533087,0.000000
3206.538916,74.020594,-10140.821405,1838.629195
3206.539244,518.144159,-10510.924376,1225.752797
3206.539571,2220.617826,-10214.842000,0.000000
3206.539899,2294.638420,-10362.883188,383.047749
3206.540227,1258.350101,-9770.718434,919.314598
3206.540555,74.020594,-9474.636058,919.314598
3206.540882,-148.041188,-10362.883188,-153.219100
3206.541210,-1480.411884,-11399.171507,-1455.581446
3206.541538,-1850.514855,-9474.636058,-2145.067394
3206.541865,-1924.535449,-6661.853478,-1608.800546
3206.542193,-666.185348,-7105.977043,-1225.752797
3206.542521,814.226536,-9474.636058,919.314598
3206.542849,2442.679609,-11399.171507,2374.896044
3206.543176,2886.803174,-11251.130318,2221.676944
3206.543504,2886.803174,-9696.697840,76.609550
3206.543832,74.020594,-10140.821405,-1685.410096
3206.544159,-1850.514855,-10881.027347,-1149.143247
3206.544487,-2368.659014,-9030.512492,-1072.533697
3206.544815,-1628.453072,-9104.533087,-995.924147
3206.545143,-962.267725,-10807.006753,-689.485948
3206.545470,0.000000,-9548.656652,-689.485948
3206.545798,962.267725,-9400.615463,306.438199
3206.546126,1184.329507,-9770.718434,229.828649
3206.546453,888.247130,-10066.800811,0.000000
3206.546781,-666.185348,-7846.182985,-306.438199
3206.547109,-666.185348,-6957.935855,-383.047749
3206.547437,0.000000,-7772.162391,76.609550
3206.547764,0.000000,-9696.697840,1149.143247
3206.548092,0.000000,-11547.212695,1302.362347
3206.548420,814.226536,-13249.686362,306.438199
3206.548747,0.000000,-11177.109724,-1685.410096
3206.549075,-592.164754,-10658.965565,-3140.991542
3206.549403,-888.247130,-10362.883188,-1915.238745
3206.549731,0.000000,-9548.656652,-995.924147
3206.550058,1258.350101,-9104.533087,0.000000
3206.550386,1776.494261,-8882.471304,1072.533697
3206.550714,370.102971,-8216.285956,1072.533697
3206.551041,0.000000,-7698.141797,1838.629195
3206.551369,-814.226536,-8068.244768,995.924147
3206.551697,-666.185348,-9030.512492,-383.047749
3206.552024,-148.041188,-10732.986159,-919.314598
3206.552352,962.267725,-10807.006753,-1225.752797
3206.552680,1924.535449,-10584.944971,-1149.143247
3206.553008,1480.411884,-10584.944971,-459.657299
3206.553335,-518.144159,-10510.924376,842.705048
3206.553663,0.000000,-11621.233289,-383.047749
3206.553991,1406.391290,-10436.903782,-1532.190996
3206.554318,2072.576638,-8956.491898,-2068.457845
3206.554646,740.205942,-8660.409521,153.219100
3206.554974,0.000000,-8956.491898,2451.505594
3206.555302,296.082377,-8882.471304,2221.676944
3206.555629,888.247130,-9770.718434,-689.485948
3206.555957,-148.041188,-10066.800811,-995.924147
3206.556285,0.000000,-9474.636058,-1608.800546
3206.556612,518.144159,-9104.533087,-1149.143247
3206.556940,962.267725,-9326.594869,-536.266849
3206.557268,1036.288319,-9696.697840,995.924147
3206.557596,1850.514855,-11399.171507,1225.752797
3206.557923,3034.844362,-10807.006753,153.219100
3206.558251,2368.659014,-10066.800811,-766.095498
3206.558579,444.123565,-10066.800811,0.000000
3206.558906,-888.247130,-8734.430116,536.266849
3206.559234,-1184.329507,-9474.636058,0.000000
3206.559562,-1702.473667,-9622.677246,-459.657299
3206.559890,-1332.370696,-8438.347739,-689.485948
3206.560217,-296.082377,-7920.203579,536.266849
3206.560545,1184.329507,-9030.512492,-153.219100
3206.560873,2294.638420,-10362.883188,306.438199
3206.561200,1776.494261,-9622.677246,842.705048
3206.561528,666.185348,-8512.368333,689.485948
3206.561856,-518.144159,-9548.656652,-229.828649
3206.562184,-1258.350101,-9844.739029,0.000000
3206.562511,370.102971,-11103.089130,-229.828649
3206.562839,814.226536,-11251.130318,0.000000
3206.563167,592.164754,-12361.439231,76.609550
3206.563494,222.061783,-10807.006753,-229.828649
3206.563822,370.102971,-8808.450710,-995.924147
3206.564150,-1110.308913,-9326.594869,-536.266849
3206.564478,-1998.556043,-7920.203579,0.000000
3206.564805,-1110.308913,-7105.977043,-1072.533697
3206.565133,-666.185348,-8142.265362,-1072.533697
3206.565461,444.123565,-9844.739029,459.657299
3206.565788,888.247130,-10881.027347,1915.238745
3206.566116,1036.288319,-10510.924376,1608.800546
3206.566444,1480.411884,-11029.068536,-1455.581446
3206.566772,-1332.370696,-12361.439231,-2451.505594
3206.567099,-1036.288319,-11177.109724,-2528.115143
3206.567427,-740.205942,-8068.244768,-1608.800546
3206.567755,-888.247130,-9030.512492,-153.219100
3206.568082,-370.102971,-10288.862594,536.266849
3206.568410,296.082377,-9844.739029,612.876398
3206.568738,1480.411884,-9252.574275,842.705048
3206.569066,1184.329507,-9474.636058,-229.828649
3206.569393,0.000000,-8734.430116,0.000000
3206.569721,-518.144159,-7105.977043,0.000000
3206.570049,-666.185348,-7550.100608,-766.095498
3206.570376,0.000000,-10584.944971,76.609550
3206.570704,74.020594,-9252.574275,612.876398
3206.571032,1332.370696,-9474.636058,0.000000
3206.571360,2294.638420,-11843.295072,-306.438199
3206.571687,888.247130,-11399.171507,-229.828649
3206.572015,592.164754,-10362.883188,-766.095498
3206.572343,0.000000,-9918.759623,-766.095498
3206.572670,148.041188,-9844.739029,-459.657299
3206.572998,1184.329507,-9252.574275,-459.657299
3206.573326,-370.102971,-8216.285956,536.266849
3206.573654,74.020594,-8512.368333,1225.752797
3206.573981,1332.370696,-9474.636058,0.000000
3206.574309,0.000000,-10658.965565,229.828649
3206.574637,-592.164754,-9474.636058,383.047749
3206.574964,296.082377,-7698.141797,-842.705048
3206.575292,666.185348,-9918.759623,-1149.143247
3206.575620,1406.391290,-11029.068536,-842.705048
3206.575948,1110.308913,-9992.780217,1302.362347
3206.576275,518.144159,-10066.800811,1608.800546
3206.576603,888.247130,-10658.965565,-919.314598
3206.576931,-370.102971,-10584.944971,-1685.410096
3206.577258,-518.144159,-9474.636058,-2221.676944
3206.577586,-370.102971,-9474.636058,-995.924147
3206.577914,-296.082377,-10436.903782,1072.533697
3206.578242,296.082377,-9252.574275,842.705048
3206.578569,1628.453072,-8808.450710,153.219100
3206.578897,962.267725,-9844.739029,459.657299
3206.579225,888.247130,-9400.615463,0.000000
3206.579552,-296.082377,-8586.388927,0.000000
3206.579880,-592.164754,-8882.471304,0.000000
3206.580208,-666.185348,-8438.347739,-536.266849
3206.580536,-740.205942,-9622.677246,229.828649
3206.580863,888.247130,-10807.006753,919.314598
3206.581191,1702.473667,-12139.377449,-153.219100
3206.581519,1036.288319,-12065.356855,-459.657299
3206.581846,148.041188,-9474.636058,-766.095498
3206.582174,0.000000,-8956.491898,-612.876398
3206.582502,-666.185348,-8290.306550,536.266849
3206.582830,-740.205942,-7846.182985,1149.143247
3206.583157,-370.102971,-8068.244768,842.705048
3206.583485,74.020594,-8586.388927,459.657299
3206.583813,-222.061783,-9178.553681,689.485948
3206.584140,74.020594,-8438.347739,0.000000
3206.584468,-1184.329507,-8216.285956,-1225.752797
3206.584796,-1480.411884,-10807.006753,-1225.752797
3206.585124,-1184.329507,-10955.047942,-766.095498
3206.585451,888.247130,-11325.150913,-1072.533697
3206.585779,2146.597232,-11103.089130,-766.095498
3206.586107,2072.576638,-11177.109724,0.000000
3206.586434,1850.514855,-11547.212695,1072.533697
3206.586762,2146.597232,-10732.986159,383.047749
3206.587090,222.061783,-9030.512492,-536.266849
3206.587418,-1480.411884,-7402.059420,-1532.190996
3206.587745,-2146.597232,-7328.038826,-1762.019645
3206.588073,-1406.391290,-8512.368333,-536.266849
3206.588401,-222.061783,-9474.636058,-306.438199
3206.588728,814.226536,-10436.903782,0.000000
3206.589056,1110.308913,-11843.295072,-383.047749
3206.589384,2664.741391,-11843.295072,-2068.457845
3206.589712,1628.453072,-10658.965565,-1991.848295
3206.590039,1776.494261,-9992.780217,-383.047749
3206.590367,1776.494261,-9474.636058,-306.438199
3206.590695,1332.370696,-11325.150913,1225.752797
3206.591022,0.000000,-10362.883188,2298.286494
3206.591350,-444.123565,-8290.306550,536.266849
3206.591678,-1480.411884,-7624.121203,-306.438199
3206.592006,-1258.350101,-9474.636058,-1225.752797
3206.592333,-2220.617826,-9400.615463,-1072.533697
3206.592661,-962.267725,-8364.327145,-229.828649
3206.592989,222.061783,-8142.265362,-153.219100
3206.593316,1628.453072,-9030.512492,689.485948
3206.593644,1258.350101,-7698.141797,1532.190996
3206.593972,1184.329507,-9030.512492,2298.286494
3206.594300,2442.679609,-12213.398043,2298.286494
3206.594627,2368.659014,-11991.336260,1072.533697
3206.594955,1036.288319,-9844.739029,-919.314598
3206.595283,-444.123565,-9474.636058,-459.657299
3206.595610,-1036.288319,-10214.842000,0.000000
3206.595938,-814.226536,-10510.924376,-919.314598
3206.596266,-2072.576638,-8586.388927,-766.095498
3206.596594,-888.247130,-7846.182985,-1532.190996
3206.596921,0.000000,-8216.285956,-1685.410096
3206.597249,-296.082377,-8734.430116,459.657299
3206.597577,0.000000,-8438.347739,1302.362347
3206.597904,888.247130,-9474.636058,1072.533697
3206.598232,740.205942,-9992.780217,76.609550
3206.598560,1998.556043,-10436.903782,-995.924147
3206.598887,518.144159,-9992.780217,0.000000
3206.599215,-666.185348,-11029.068536,995.924147
3206.599543,-222.061783,-12139.377449,-995.924147
3206.599871,-1036.288319,-12805.562797,-3140.991542
3206.600198,-1924.535449,-10732.986159,-3600.648841
3206.600526,0.000000,-9178.553681,-2757.943793
3206.600854,518.144159,-9770.718434,0.000000
3206.601181,666.185348,-10214.842000,2451.505594
3206.601509,2072.576638,-8882.471304,2298.286494
3206.601837,2442.679609,-8660.409521,766.095498
3206.602165,740.205942,-8660.409521,689.485948
3206.602492,-592.164754,-8438.347739,306.438199
3206.602820,-740.205942,-8438.347739,0.000000
3206.603148,-962.267725,-9474.636058,0.000000
3206.603475,0.000000,-10066.800811,-995.924147
3206.603803,1480.411884,-11177.109724,-306.438199
3206.604131,2664.741391,-11399.171507,-383.047749
3206.604459,2516.700203,-10362.883188,0.000000
3206.604786,1850.514855,-9474.636058,383.047749
3206.605114,1258.350101,-8364.327145,536.266849
3206.605442,-444.123565,-7920.203579,1302.362347
3206.605769,0.000000,-6439.791695,1685.410096
3206.606097,-814.226536,-6513.812290,1685.410096
3206.606425,-740.205942,-8216.285956,1762.019645
3206.606753,222.061783,-9474.636058,-306.438199
3206.607080,592.164754,-10955.047942,-1455.581446
3206.607408,370.102971,-9474.636058,-1991.848295
3206.607736,222.061783,-9104.533087,-2374.896044
3206.608063,370.102971,-11251.130318,-2451.505594
3206.608391,148.041188,-11695.253884,-766.095498
3206.608719,2368.659014,-11769.274478,-383.047749
3206.609047,2368.659014,-11769.274478,536.266849
3206.609374,1850.514855,-11399.171507,1685.410096
3206.609702,2072.576638,-10732.986159,842.705048
3206.610030,518.144159,-9622.677246,612.876398
3206.610358,-1110.308913,-8586.388927,-536.266849
3206.610685,-2516.700203,-8142.265362,-2298.286494
3206.611013,-3034.844362,-8808.450710,-2451.505594
3206.611341,-1554.432478,-9474.636058,-1915.238745
3206.611669,518.144159,-9400.615463,-1302.362347
3206.611996,1110.308913,-11399.171507,459.657299
3206.612324,2146.597232,-12435.459826,1455.581446
3206.612652,4293.194464,-13249.686362,0.000000
3206.612980,2664.741391,-11029.068536,-842.705048
3206.613307,518.144159,-9252.574275,0.000000
3206.613635,-962.267725,-8364.327145,1072.533697
3206.613963,-1998.556043,-8438.347739,995.924147
3206.614291,-1702.473667,-9844.739029,536.266849
3206.614618,-1998.556043,-8808.450710,-612.876398
3206.614946,148.041188,-9178.553681,-1225.752797
3206.615274,-666.185348,-7772.162391,-1225.752797
3206.615602,-962.267725,-8364.327145,-612.876398
3206.615929,-592.164754,-7179.997637,383.047749
3206.616257,296.082377,-7105.977043,536.266849
3206.616585,1406.391290,-9474.636058,2221.676944
3206.616913,2664.741391,-9252.574275,2145.067394
3206.617240,1702.473667,-10881.027347,2221.676944
3206.617568,666.185348,-11843.295072,1915.238745
3206.617896,888.247130,-11843.295072,-1072.533697
3206.618224,-222.061783,-11325.150913,-2451.505594
3206.618551,-1258.350101,-10214.842000,-2298.286494
3206.618879,-1110.308913,-8956.491898,-2604.724693
3206.619207,0.000000,-9252.574275,-1915.238745
3206.619535,148.041188,-8438.347739,0.000000
3206.619862,888.247130,-8068.244768,229.828649
3206.620190,592.164754,-9178.553681,1762.019645
3206.620518,888.247130,-9400.615463,1762.019645
3206.620846,1184.329507,-9696.697840,229.828649
3206.621173,1036.288319,-10732.986159,-689.485948
3206.621501,1110.308913,-10955.047942,-1072.533697
3206.621829,0.000000,-10732.986159,-459.657299
3206.622156,444.123565,-10807.006753,-306.438199
3206.622484,1406.391290,-11399.171507,-2145.067394
3206.622812,888.247130,-11103.089130,-1455.581446
3206.623140,1702.473667,-10066.800811,-995.924147
3206.623467,740.205942,-8882.471304,76.609550
3206.623795,-370.102971,-8512.368333,2451.505594
3206.624123,-1110.308913,-8216.285956,995.924147
3206.624451,-1554.432478,-8586.388927,-766.095498
3206.624778,-888.247130,-7772.162391,-919.314598
3206.625106,518.144159,-8438.347739,-995.924147
3206.625434,814.226536,-10807.006753,536.266849
3206.625762,1480.411884,-11843.295072,1915.238745
3206.626089,1702.473667,-9548.656652,76.609550
3206.626417,888.247130,-8808.450710,-1838.629195
3206.626745,0.000000,-10955.047942,-1838.629195
3206.627073,592.164754,-9918.759623,-1378.971896
3206.627400,0.000000,-8808.450710,612.876398
3206.627728,666.185348,-9474.636058,1378.971896
3206.628056,888.247130,-9326.594869,2068.457845
3206.628384,222.061783,-8660.409521,2145.067394
3206.628711,-222.061783,-8438.347739,1991.848295
3206.629039,-1332.370696,-10362.883188,-229.828649
3206.629367,-1850.514855,-9770.718434,-1915.238745
3206.629695,-1110.308913,-7994.224174,-3064.381992
3206.630022,-1628.453072,-6883.915261,-2145.067394
3206.630350,-296.082377,-9030.512492,-536.266849
3206.630678,2294.638420,-11251.130318,536.266849
3206.631006,2442.679609,-12139.377449,1149.143247
3206.631333,2960.823768,-11843.295072,995.924147
3206.631661,3256.906145,-11621.233289,-612.876398
3206.631989,888.247130,-10584.944971,459.657299
3206.632317,-444.123565,-7994.224174,0.000000
3206.632644,-1924.535449,-8956.491898,-306.438199
3206.632972,-3034.844362,-10140.821405,-536.266849
3206.633300,370.102971,-10066.800811,-2298.286494
3206.633628,1110.308913,-8586.388927,-2528.115143
3206.633955,370.102971,-9252.574275,0.000000
3206.634283,518.144159,-9474.636058,536.266849
3206.634611,1036.288319,-10510.924376,0.000000
3206.634939,666.185348,-10140.821405,-766.095498
3206.635266,74.020594,-9474.636058,-1149.143247
3206.635594,74.020594,-9326.594869,-306.438199
3206.635922,1258.350101,-11473.192101,306.438199
3206.636250,1850.514855,-12879.583391,612.876398
3206.636577,0.000000,-12583.501014,536.266849
3206.636905,-2072.576638,-11029.068536,-229.828649
3206.637233,-962.267725,-8586.388927,-3677.258390
3206.637561,-740.205942,-7402.059420,-4136.915689
3206.637888,-1702.473667,-7031.956449,-1532.190996
3206.638216,-1332.370696,-7105.977043,612.876398
3206.638544,74.020594,-8068.244768,2757.943793
3206.638872,1776.494261,-9030.512492,2374.896044
3206.639199,1406.391290,-8586.388927,2374.896044
3206.639527,888.247130,-9770.718434,1455.581446
3206.639855,370.102971,-11177.109724,-689.485948
3206.640183,444.123565,-13175.665768,-2374.896044
3206.640510,296.082377,-11547.212695,-2681.334243
3206.640838,592.164754,-9400.615463,-1991.848295
3206.641166,296.082377,-9104.533087,383.047749
3206.641494,0.000000,-8956.491898,383.047749
3206.641821,0.000000,-9992.780217,76.609550
3206.642149,296.082377,-9474.636058,-995.924147
3206.642477,222.061783,-7846.182985,-766.095498
3206.642805,148.041188,-7105.977043,383.047749
3206.643132,-222.061783,-7698.141797,1838.629195
3206.643460,0.000000,-9474.636058,1302.362347
3206.643788,518.144159,-11325.150913,0.000000
3206.644116,444.123565,-11621.233289,-612.876398
3206.644443,1406.391290,-10584.944971,-1915.238745
3206.644771,1036.288319,-10362.883188,-2221.676944
3206.645099,-222.061783,-10881.027347,229.828649
3206.645427,222.061783,-10732.986159,-459.657299
3206.645754,296.082377,-11547.212695,0.000000
3206.646082,1258.350101,-9844.739029,-306.438199
3206.646410,740.205942,-7105.977043,-612.876398
3206.646738,-444.123565,-8364.327145,1838.629195
3206.647065,-1776.494261,-9326.594869,2145.067394
3206.647393,-1850.514855,-10510.924376,153.219100
3206.647721,-2072.576638,-9326.594869,-2528.115143
3206.648049,0.000000,-8364.327145,-3677.258390
3206.648376,888.247130,-9844.739029,-1685.410096
3206.648704,962.267725,-11473.192101,1608.800546
3206.649032,1554.432478,-10214.842000,1532.190996
3206.649359,2368.659014,-10066.800811,-919.314598
3206.649687,1258.350101,-10214.842000,-842.705048
3206.650015,740.205942,-9326.594869,-459.657299
3206.650343,0.000000,-8438.347739,1072.533697
3206.650670,0.000000,-8068.244768,229.828649
3206.650998,-222.061783,-9252.574275,229.828649
3206.651326,-666.185348,-9622.677246,1225.752797
3206.651654,0.000000,-8290.306550,612.876398
3206.651981,-296.082377,-8364.327145,229.828649
3206.652309,-1110.308913,-9252.574275,-153.219100
3206.652637,-814.226536,-8586.388927,-2451.505594
3206.652965,-518.144159,-8956.491898,-2298.286494
3206.653292,296.082377,-9400.615463,-229.828649
3206.653620,1628.453072,-9326.594869,1532.190996
3206.653948,2294.638420,-11547.212695,2221.676944
3206.654276,2812.782580,-12139.377449,1149.143247
3206.654603,2368.659014,-12139.377449,-689.485948
3206.654931,518.144159,-10881.027347,-612.876398
3206.655259,-592.164754,-9474.636058,-995.924147
3206.655587,-1850.514855,-8808.450710,-1532.190996
3206.655914,-2738.761985,-8364.327145,-459.657299
3206.656242,-370.102971,-8512.368333,-306.438199
3206.656570,1554.432478,-9622.677246,0.000000
3206.656898,1480.411884,-10436.903782,766.095498
3206.657225,962.267725,-9474.636058,1072.533697
3206.657553,1406.391290,-9252.574275,153.219100
3206.657881,222.061783,-9696.697840,-459.657299
3206.658209,-296.082377,-10436.903782,-995.924147
3206.658536,-444.123565,-10807.006753,-995.924147
3206.658864,592.164754,-10807.006753,76.609550
3206.659192,1702.473667,-11473.192101,-383.047749
3206.659520,1036.288319,-11103.089130,0.000000
3206.659847,-370.102971,-10140.821405,0.000000
3206.660175,0.000000,-9474.636058,-1455.581446
3206.660503,-592.164754,-8438.347739,-1991.848295
3206.660831,-222.061783,-7476.080014,-1455.581446
3206.661158,-740.205942,-6587.832884,383.047749
3206.661486,296.082377,-7254.018232,1915.238745
3206.661814,1184.329507,-9696.697840,2221.676944
3206.662142,1332.370696,-10807.006753,1532.190996
3206.662469,888.247130,-10510.924376,153.219100
3206.662797,1332.370696,-10881.027347,-2221.676944
3206.663125,222.061783,-10584.944971,-2911.162892
3206.663453,296.082377,-9918.759623,-1225.752797
3206.663780,1554.432478,-10510.924376,-1608.800546
3206.664108,888.247130,-11399.171507,919.314598
3206.664436,444.123565,-10066.800811,1072.533697
3206.664764,518.144159,-8586.388927,76.609550
3206.665091,0.000000,-8512.368333,-536.266849
3206.665419,0.000000,-8290.306550,689.485948
3206.665747,-592.164754,-8734.430116,-383.047749
3206.666075,-296.082377,-9548.656652,306.438199
3206.666402,-296.082377,-9326.594869,0.000000
3206.666730,0.000000,-8882.471304,-306.438199
3206.667058,222.061783,-9696.697840,76.609550
3206.667386,1406.391290,-10732.986159,-229.828649
3206.667713,518.144159,-11325.150913,-153.219100
3206.668041,444.123565,-10584.944971,766.095498
3206.668369,370.102971,-9622.677246,0.000000
3206.668697,222.061783,-9844.739029,306.438199
3206.669024,-1406.391290,-8882.471304,536.266849
3206.669352,-148.041188,-8438.347739,-383.047749
3206.669680,-1110.308913,-8364.327145,76.609550
3206.670008,-2072.576638,-8512.368333,842.705048
3206.670335,-2368.659014,-8512.368333,-383.047749
3206.670663,-1998.556043,-8882.471304,-1915.238745
3206.670991,-814.226536,-9030.512492,-2145.067394
3206.671319,518.144159,-11029.068536,-1991.848295
3206.671646,592.164754,-12287.418637,306.438199
3206.671974,2220.617826,-11325.150913,1225.752797
3206.672302,2960.823768,-10214.842000,612.876398
3206.672630,2368.659014,-10510.924376,0.000000
3206.672957,1184.329507,-11473.192101,-229.828649
3206.673285,296.082377,-10807.006753,-459.657299
3206.673613,-296.082377,-8808.450710,-612.876398
3206.673941,444.123565,-8142.265362,-1838.629195
3206.674268,0.000000,-8142.265362,229.828649
3206.674596,1036.288319,-9326.594869,1532.190996
3206.674924,592.164754,-9104.533087,842.705048
3206.675252,222.061783,-10436.903782,612.876398
3206.675579,222.061783,-9326.594869,-1225.752797
3206.675907,0.000000,-8364.327145,-1378.971896
3206.676235,-370.102971,-8438.347739,689.485948
3206.676562,1702.473667,-9918.759623,689.485948
3206.676890,2368.659014,-11695.253884,919.314598
3206.677218,2146.597232,-11621.233289,1378.971896
3206.677546,2368.659014,-10066.800811,-612.876398
3206.677873,1406.391290,-9992.780217,-995.924147
3206.678201,888.247130,-8290.306550,-536.266849
3206.678529,-222.061783,-7328.038826,-383.047749
3206.678857,-2590.720797,-8586.388927,612.876398
3206.679184,-1184.329507,-8364.327145,0.000000
3206.679512,666.185348,-8808.450710,-306.438199
3206.679840,2146.597232,-9474.636058,842.705048
3206.680168,1702.473667,-9770.718434,612.876398
3206.680495,888.247130,-11251.130318,76.609550
3206.680823,962.267725,-11177.109724,-919.314598
3206.681151,1332.370696,-10140.821405,-2451.505594
3206.681479,444.123565,-10214.842000,-842.705048
3206.681806,0.000000,-9622.677246,-459.657299
3206.682134,0.000000,-11399.171507,0.000000
3206.682462,148.041188,-12953.603985,-229.828649
3206.682790,0.000000,-11695.253884,-689.485948
3206.683117,0.000000,-10362.883188,-995.924147
3206.683445,-1184.329507,-8808.450710,0.000000
3206.683773,-814.226536,-8142.265362,-383.047749
3206.684101,-1628.453072,-7105.977043,-1072.533697
3206.684428,-962.267725,-8586.388927,-536.266849
3206.684756,-370.102971,-8512.368333,-306.438199
3206.685084,0.000000,-8364.327145,919.314598
3206.685412,-222.061783,-8734.430116,919.314598
3206.685739,444.123565,-11843.295072,-229.828649
3206.686067,444.123565,-12287.418637,-919.314598
3206.686395,296.082377,-9844.739029,-1532.190996
3206.686723,518.144159,-9474.636058,-1378.971896
3206.687050,370.102971,-10288.862594,383.047749
3206.687378,0.000000,-9770.718434,1532.190996
3206.687706,-518.144159,-9030.512492,383.047749
3206.688034,-666.185348,-8660.409521,-536.266849
3206.688361,-666.185348,-8142.265362,-919.314598
3206.688689,0.000000,-7328.038826,-766.095498
3206.689017,-518.144159,-7328.038826,689.485948
3206.689345,148.041188,-8882.471304,306.438199
3206.689672,370.102971,-9770.718434,0.000000
3206.690000,592.164754,-10288.862594,0.000000
3206.690328,1406.391290,-10140.821405,-306.438199
3206.690656,1850.514855,-10214.842000,0.000000
3206.690983,1702.473667,-11621.233289,153.219100
3206.691311,2368.659014,-11843.295072,0.000000
3206.691639,1776.494261,-11917.315666,-459.657299
3206.691967,1110.308913,-9400.615463,-766.095498
3206.692294,296.082377,-7254.018232,-1149.143247
3206.692622,-518.144159,-8068.244768,-229.828649
3206.692950,0.000000,-8364.327145,-229.828649
3206.693278,1258.350101,-8956.491898,0.000000
3206.693605,1554.432478,-9252.574275,0.000000
3206.693933,888.247130,-9030.512492,1149.143247
3206.694261,-592.164754,-10584.944971,1378.971896
3206.694589,-962.267725,-11399.171507,-383.047749
3206.694916,-592.164754,-10436.903782,-3294.210641
3206.695244,1110.308913,-10955.047942,-3983.696590
3206.695572,2590.720797,-11843.295072,-2221.676944
3206.695900,2294.638420,-11029.068536,1838.629195
3206.696227,1998.556043,-10288.862594,2298.286494
3206.696555,1998.556043,-10066.800811,612.876398
3206.696883,814.226536,-9696.697840,-1072.533697
3206.697211,-1258.350101,-8956.491898,-383.047749
3206.697538,-1776.494261,-6291.750507,0.000000
3206.697866,-1184.329507,-7402.059420,153.219100
3206.698194,-1332.370696,-8956.491898,1915.238745
3206.698522,-666.185348,-9252.574275,919.314598
3206.698849,-592.164754,-10066.800811,689.485948
3206.699177,592.164754,-11103.089130,-383.047749
3206.699505,1332.370696,-10584.944971,-1532.190996
3206.699833,592.164754,-10066.800811,-1302.362347
3206.700160,666.185348,-9548.656652,0.000000
3206.700488,1036.288319,-9474.636058,842.705048
3206.700816,592.164754,-10214.842000,1455.581446
3206.701144,0.000000,-11251.130318,1685.410096
3206.701471,-370.102971,-10288.862594,842.705048
3206.701799,-148.041188,-8438.347739,76.609550
3206.702127,148.041188,-6587.832884,229.828649
3206.702455,-1702.473667,-7624.121203,-306.438199
3206.702782,-3330.926739,-9474.636058,229.828649
3206.703110,-1776.494261,-9030.512492,-995.924147
3206.703438,0.000000,-7920.203579,-2068.457845
3206.703765,1184.329507,-9770.718434,-919.314598
3206.704093,1998.556043,-12287.418637,153.219100
3206.704421,1998.556043,-12435.459826,1072.533697
3206.704749,2516.700203,-10955.047942,-689.485948
3206.705076,518.144159,-10732.986159,-1225.752797
3206.705404,-1924.535449,-11399.171507,-306.438199
3206.705732,-2146.597232,-9252.574275,-1072.533697
3206.706060,-1480.411884,-8660.409521,-1915.238745
3206.706387,-1480.411884,-9918.759623,-1149.143247
3206.706715,-370.102971,-10288.862594,-536.266849
3206.707043,370.102971,-8734.430116,306.438199
3206.707371,1480.411884,-8438.347739,-153.219100
3206.707698,592.164754,-8660.409521,-766.095498
3206.708026,0.000000,-8734.430116,0.000000
3206.708354,444.123565,-8660.409521,-383.047749
3206.708682,1036.288319,-9696.697840,306.438199
3206.709009,962.267725,-10955.047942,1991.848295
3206.709337,1110.308913,-10732.986159,1991.848295
3206.709665,2664.741391,-13027.624579,0.000000
3206.709993,1110.308913,-13101.645173,-1378.971896
3206.710320,-296.082377,-9548.656652,-2221.676944
3206.710648,-962.267725,-6883.915261,-1762.019645
3206.710976,-962.267725,-6883.915261,0.000000
3206.711304,1258.350101,-6883.915261,995.924147
3206.711631,1332.370696,-6883.915261,1915.238745
3206.711959,0.000000,-8438.347739,2757.943793
3206.712287,888.247130,-9474.636058,1455.581446
3206.712614,962.267725,-9548.656652,-306.438199
3206.712942,-296.082377,-9474.636058,-383.047749
3206.713270,0.000000,-10436.903782,0.000000
3206.713598,1480.411884,-11029.068536,-306.438199
3206.713925,2368.659014,-11473.192101,0.000000
3206.714253,2960.823768,-11325.150913,-1302.362347
3206.714581,962.267725,-10288.862594,-766.095498
3206.714908,-222.061783,-8956.491898,229.828649
3206.715236,0.000000,-9474.636058,-459.657299
3206.715564,-1184.329507,-9252.574275,-612.876398
3206.715892,-1480.411884,-8216.285956,0.000000
3206.716219,-222.061783,-7772.162391,-383.047749
3206.716547,-370.102971,-8290.306550,919.314598
3206.716875,-592.164754,-10214.842000,1455.581446
3206.717202,-1702.473667,-11399.171507,536.266849
3206.717530,-1258.350101,-10881.027347,-1762.019645
3206.717858,148.041188,-9770.718434,-4366.744339
3206.718186,1036.288319,-10510.924376,-3524.039291
3206.718513,1554.432478,-12213.398043,-1149.143247
3206.718841,1702.473667,-12361.439231,1455.581446
3206.719169,1628.453072,-10955.047942,1149.143247
3206.719496,2072.576638,-10066.800811,-612.876398
3206.719824,0.000000,-8734.430116,-306.438199
3206.720152,-1776.494261,-7105.977043,612.876398
3206.720480,-1480.411884,-6661.853478,612.876398
3206.720807,-1184.329507,-8438.347739,76.609550
3206.721135,-1406.391290,-8882.471304,919.314598
3206.721463,-370.102971,-7994.224174,76.609550
3206.721790,-148.041188,-7994.224174,0.000000
3206.722118,444.123565,-9992.780217,-919.314598
3206.722446,1480.411884,-11325.150913,-2451.505594
3206.722773,962.267725,-10066.800811,-1532.190996
3206.723101,1702.473667,-9696.697840,-153.219100
3206.723429,1998.556043,-9844.739029,306.438199
3206.723757,518.144159,-11103.089130,2681.334243
3206.724084,740.205942,-10658.965565,2145.067394
3206.724412,814.226536,-9622.677246,0.000000
3206.724740,592.164754,-9030.512492,-1225.752797
3206.725067,888.247130,-7846.182985,-1302.362347
3206.725395,-1184.329507,-7328.038826,-766.095498
3206.725723,-1998.556043,-8216.285956,383.047749
3206.726051,74.020594,-8956.491898,-689.485948
3206.726378,1702.473667,-9622.677246,-995.924147
3206.726706,1850.514855,-11547.212695,76.609550
3206.727034,3330.926739,-12657.521608,0.000000
3206.727361,2960.823768,-12065.356855,306.438199
3206.727689,2220.617826,-11399.171507,383.047749
3206.728017,666.185348,-11029.068536,-842.705048
3206.728345,-1628.453072,-11621.233289,-919.314598
3206.728672,-1776.494261,-9400.615463,-1762.019645
3206.729000,-1332.370696,-8660.409521,-1915.238745
3206.729328,-1036.288319,-9992.780217,-612.876398
3206.729655,-518.144159,-9030.512492,76.609550
3206.729983,0.000000,-8290.306550,0.000000
3206.730311,0.000000,-8068.244768,-306.438199
3206.730639,222.061783,-9326.594869,-1072.533697
3206.730966,-592.164754,-8660.409521,76.609550
3206.731294,0.000000,-8142.265362,766.095498
3206.731622,888.247130,-10140.821405,842.705048
3206.731949,1332.370696,-11251.130318,1608.800546
3206.732277,1924.535449,-12065.356855,1149.143247
3206.732605,1406.391290,-11177.109724,-1225.752797
3206.732933,0.000000,-9844.739029,-1455.581446
3206.733260,-1258.350101,-9474.636058,-1455.581446
3206.733588,-1850.514855,-7920.203579,-1378.971896
3206.733916,-2072.576638,-7402.059420,153.219100
3206.734243,-1110.308913,-6661.853478,612.876398
3206.734571,-148.041188,-8290.306550,536.266849
3206.734899,-888.247130,-8882.471304,1455.581446
3206.735226,0.000000,-9474.636058,459.657299
3206.735554,0.000000,-10584.944971,-689.485948
3206.735882,0.000000,-10807.006753,-459.657299
3206.736210,518.144159,-9622.677246,-1149.143247
3206.736537,370.102971,-9326.594869,-536.266849
3206.736865,1480.411884,-10584.944971,153.219100
3206.737193,2368.659014,-12805.562797,-229.828649
3206.737520,1332.370696,-11917.315666,-842.705048
3206.737848,0.000000,-10140.821405,-766.095498
3206.738176,-296.082377,-9030.512492,-842.705048
3206.738504,-1628.453072,-8364.327145,459.657299
3206.738831,-666.185348,-7550.100608,919.314598
3206.739159,814.226536,-8290.306550,0.000000
3206.739487,444.123565,-9696.697840,1302.362347
3206.739814,222.061783,-9326.594869,919.314598
3206.740142,-592.164754,-9252.574275,0.000000
3206.740470,-666.185348,-9252.574275,-842.705048
3206.740798,888.247130,-9474.636058,-2911.162892
3206.741125,1628.453072,-11547.212695,-2221.676944
3206.741453,1776.494261,-12361.439231,459.657299
3206.741781,2590.720797,-11029.068536,919.314598
3206.742108,2368.659014,-9918.759623,689.485948
3206.742436,1628.453072,-10066.800811,383.047749
3206.742764,518.144159,-9918.759623,0.000000
3206.743092,-740.205942,-8068.244768,459.657299
3206.743419,-1110.308913,-6587.832884,0.000000
3206.743747,-518.144159,-7254.018232,-306.438199
3206.744075,-740.205942,-7846.182985,612.876398
3206.744402,296.082377,-7772.162391,76.609550
3206.744730,888.247130,-9770.718434,76.609550
3206.745058,1184.329507,-11843.295072,-1149.143247
3206.745386,1184.329507,-10510.924376,-2221.676944
3206.745713,1110.308913,-9844.739029,-919.314598
3206.746041,1628.453072,-10436.903782,-459.657299
3206.746369,1850.514855,-12509.480420,1302.362347
3206.746696,1036.288319,-12361.439231,1685.410096
3206.747024,1258.350101,-9548.656652,0.000000
3206.747352,888.247130,-7772.162391,-1532.190996
3206.747679,-740.205942,-7920.203579,-689.485948
3206.748007,-1924.535449,-8142.265362,-383.047749
3206.748335,-2590.720797,-7994.224174,153.219100
3206.748663,-518.144159,-8142.265362,-612.876398
3206.748990,740.205942,-8438.347739,-1532.190996
3206.749318,74.020594,-10584.944971,0.000000
3206.749646,666.185348,-12287.418637,1455.581446
3206.749973,2442.679609,-11917.315666,0.000000
3206.750301,2886.803174,-11103.089130,-1915.238745
3206.750629,0.000000,-10288.862594,0.000000
3206.750957,-1332.370696,-9400.615463,0.000000
3206.751284,-1184.329507,-8660.409521,306.438199
3206.751612,-814.226536,-8882.471304,-536.266849
3206.751940,-1036.288319,-9622.677246,-1225.752797
3206.752267,-1110.308913,-10436.903782,-536.266849
3206.752595,-222.061783,-9104.533087,-612.876398
3206.752923,-296.082377,-8808.450710,-536.266849
3206.753251,-888.247130,-7402.059420,0.000000
3206.753578,-222.061783,-7846.182985,0.000000
3206.753906,-370.102971,-9474.636058,842.705048
3206.754234,592.164754,-9992.780217,842.705048
3206.754561,1554.432478,-9622.677246,76.609550
3206.754889,1776.494261,-10807.006753,0.000000
3206.755217,1628.453072,-12213.398043,842.705048
3206.755545,1110.308913,-10658.965565,-1455.581446
3206.755872,-222.061783,-10214.842000,-459.657299
3206.756200,-222.061783,-9622.677246,-766.095498
3206.756528,74.020594,-8882.471304,-995.924147
3206.756855,-444.123565,-9178.553681,459.657299
3206.757183,-222.061783,-8216.285956,1149.143247
3206.757511,222.061783,-8956.491898,0.000000
3206.757839,0.000000,-9548.656652,306.438199
3206.758166,666.185348,-9030.512492,-766.095498
3206.758494,74.020594,-9252.574275,-306.438199
3206.758822,518.144159,-9252.574275,0.000000
3206.759149,1258.350101,-9696.697840,-766.095498
3206.759477,2442.679609,-11621.233289,-306.438199
3206.759805,1702.473667,-11177.109724,229.828649
3206.760133,1184.329507,-10436.903782,612.876398
3206.760460,592.164754,-10362.883188,-536.266849
3206.760788,518.144159,-10510.924376,-919.314598
3206.761116,592.164754,-10288.862594,-919.314598
3206.761443,0.000000,-9178.553681,306.438199
3206.761771,296.082377,-8142.265362,612.876398
3206.762099,814.226536,-8586.388927,383.047749
3206.762426,-370.102971,-8068.244768,1608.800546
3206.762754,-1184.329507,-8068.244768,229.828649
3206.763082,-1110.308913,-9918.759623,-689.485948
3206.763410,-592.164754,-9474.636058,-1378.971896
3206.763737,1184.329507,-9474.636058,-2757.943793
3206.764065,888.247130,-11917.315666,-306.438199
3206.764393,1998.556043,-13101.645173,1072.533697
3206.764720,1998.556043,-11251.130318,229.828649
3206.765048,2812.782580,-11325.150913,-842.705048
3206.765376,1110.308913,-9474.636058,-995.924147
3206.765704,-518.144159,-7476.080014,0.000000
3206.766031,-1702.473667,-6661.853478,1608.800546
3206.766359,-1332.370696,-7402.059420,1378.971896
3206.766687,-1110.308913,-8216.285956,0.000000
3206.767014,-1110.308913,-8438.347739,842.705048
3206.767342,-814.226536,-9030.512492,-153.219100
3206.767670,-592.164754,-10214.842000,-995.924147
3206.767998,1110.308913,-10807.006753,-2298.286494
3206.768325,1036.288319,-11177.109724,-2221.676944
3206.768653,740.205942,-11843.295072,-383.047749
3206.768981,2368.659014,-10955.047942,0.000000
3206.769308,2664.741391,-10510.924376,1225.752797
3206.769636,962.267725,-9770.718434,1455.581446
3206.769964,592.164754,-8364.327145,306.438199
3206.770292,-740.205942,-8808.450710,-536.266849
3206.770619,-1480.411884,-10584.944971,-536.266849
3206.770947,-1850.514855,-9252.574275,-1149.143247
3206.771275,-1850.514855,-8290.306550,-919.314598
3206.771602,0.000000,-8068.244768,-459.657299
3206.771930,1110.308913,-9844.739029,-612.876398
3206.772258,1110.308913,-12435.459826,689.485948
3206.772586,2220.617826,-11843.295072,766.095498
3206.772913,2812.782580,-10214.842000,-612.876398
3206.773241,2220.617826,-9252.574275,229.828649
3206.773569,296.082377,-8956.491898,229.828649
3206.773896,-1332.370696,-10066.800811,919.314598
3206.774224,-592.164754,-9622.677246,842.705048
3206.774552,370.102971,-9770.718434,-766.095498
3206.774879,-518.144159,-10436.903782,-842.705048
3206.775207,-888.247130,-9326.594869,-306.438199
3206.775535,-370.102971,-8882.471304,-383.047749
3206.775863,-370.102971,-9104.533087,-612.876398
3206.776190,-592.164754,-8734.430116,-153.219100
3206.776518,0.000000,-7476.080014,76.609550
3206.776846,444.123565,-7698.141797,766.095498
3206.777173,1332.370696,-9178.553681,1915.238745
3206.777501,2738.761985,-11399.171507,995.924147
3206.777829,1406.391290,-12065.356855,842.705048
3206.778157,1184.329507,-11325.150913,0.000000
3206.778484,296.082377,-8956.491898,-1991.848295
3206.778812,-740.205942,-9474.636058,-1072.533697
3206.779140,-370.102971,-9770.718434,-536.266849
3206.779467,0.000000,-10214.842000,-766.095498
3206.779795,0.000000,-10214.842000,-766.095498
3206.780123,518.144159,-9622.677246,-153.219100
3206.780451,518.144159,-8290.306550,-842.705048
3206.780778,888.247130,-7920.203579,0.000000
3206.781106,0.000000,-8660.409521,76.609550
3206.781434,0.000000,-9622.677246,0.000000
3206.781761,592.164754,-10066.800811,-76.609550
3206.782089,1406.391290,-11547.212695,-536.266849
3206.782417,740.205942,-12213.398043,-229.828649
3206.782745,370.102971,-10732.986159,0.000000
3206.783072,1480.411884,-11473.192101,-1838.629195
3206.783400,740.205942,-12139.377449,-1532.190996
3206.783728,444.123565,-9474.636058,-1455.581446
3206.784055,-444.123565,-7476.080014,-536.266849
3206.784383,-370.102971,-7550.100608,1072.533697
3206.784711,1628.453072,-7772.162391,919.314598
3206.785039,814.226536,-8364.327145,2681.334243
3206.785366,-1110.308913,-8290.306550,3370.820191
3206.785694,-1332.370696,-9104.533087,383.047749
3206.786022,-962.267725,-10510.924376,-1762.019645
3206.786349,-592.164754,-9474.636058,-2145.067394
3206.786677,222.061783,-9918.759623,-1608.800546
3206.787005,1110.308913,-13323.706956,689.485948
3206.787332,2146.597232,-12509.480420,153.219100
3206.787660,2368.659014,-9252.574275,-995.924147
3206.787988,1406.391290,-7994.224174,0.000000
3206.788316,962.267725,-8512.368333,842.705048
3206.788643,-888.247130,-8364.327145,1225.752797
3206.788971,-962.267725,-7402.059420,1149.143247
3206.789299,-1332.370696,-6809.894666,-459.657299
3206.789626,-1628.453072,-8142.265362,689.485948
3206.789954,-814.226536,-9622.677246,2068.457845
3206.790282,0.000000,-10140.821405,0.000000
3206.790610,444.123565,-11103.089130,-2298.286494
3206.790937,814.226536,-11769.274478,-3447.429741
3206.791265,1036.288319,-11325.150913,-3064.381992
3206.791593,888.247130,-10214.842000,-842.705048
3206.791920,2368.659014,-9696.697840,995.924147
3206.792248,2072.576638,-10732.986159,2834.553343
3206.792576,1036.288319,-11399.171507,1838.629195
3206.792904,962.267725,-10288.862594,-229.828649
3206.793231,444.123565,-8512.368333,-995.924147
3206.793559,-1480.411884,-7624.121203,0.000000
3206.793887,-1332.370696,-8882.471304,-1378.971896
3206.794214,-2146.597232,-9992.780217,-1302.362347
3206.794542,-148.041188,-10807.006753,-919.314598
3206.794870,1776.494261,-9918.759623,-1838.629195
3206.795198,962.267725,-10362.883188,76.609550
3206.795525,2072.576638,-9178.553681,1302.362347
3206.795853,2886.803174,-8660.409521,229.828649
3206.796181,1110.308913,-11399.171507,2604.724693
3206.796508,666.185348,-10436.903782,1532.190996
3206.796836,74.020594,-8586.388927,-383.047749
3206.797164,-740.205942,-8290.306550,0.000000
3206.797492,-888.247130,-9622.677246,229.828649
3206.797819,-1110.308913,-11325.150913,0.000000
3206.798147,-814.226536,-10881.027347,-536.266849
3206.798475,0.000000,-9030.512492,-2681.334243
3206.798802,0.000000,-7994.224174,-2604.724693
3206.799130,444.123565,-6883.915261,-229.828649
3206.799458,592.164754,-7031.956449,383.047749
3206.799786,666.185348,-8956.491898,2221.676944
3206.800113,888.247130,-9622.677246,2451.505594
3206.800441,814.226536,-11473.192101,1455.581446
3206.800769,1036.288319,-11251.130318,766.095498
3206.801096,1332.370696,-10955.047942,-383.047749
3206.801424,592.164754,-11843.295072,-1455.581446
3206.801752,0.000000,-12657.521608,-2068.457845
3206.802079,0.000000,-9548.656652,-2987.772442
3206.802407,0.000000,-8586.388927,-2374.896044
3206.802735,-222.061783,-9252.574275,0.000000
3206.803063,0.000000,-8586.388927,842.705048
3206.803390,222.061783,-8956.491898,1532.190996
3206.803718,-296.082377,-8290.306550,919.314598
3206.804046,-222.061783,-9696.697840,0.000000
3206.804373,-666.185348,-9770.718434,76.609550
3206.804701,148.041188,-10436.903782,-306.438199
3206.805029,444.123565,-11177.109724,-919.314598
3206.805357,1406.391290,-11695.253884,-995.924147
3206.805684,1554.432478,-12139.377449,-536.266849
3206.806012,814.226536,-10362.883188,-919.314598
3206.806340,814.226536,-9178.553681,-229.828649
3206.806667,666.185348,-8216.285956,459.657299
3206.806995,-222.061783,-8586.388927,1072.533697
3206.807323,-592.164754,-7994.224174,995.924147
3206.807651,-296.082377,-7772.162391,76.609550
3206.807978,-888.247130,-7698.141797,919.314598
3206.808306,-1258.350101,-8364.327145,2068.457845
3206.808634,-1628.453072,-9178.553681,-383.047749
3206.808961,-592.164754,-10658.965565,-1532.190996
3206.809289,1258.350101,-10140.821405,-2451.505594
3206.809617,1850.514855,-10955.047942,-2221.676944
3206.809944,1924.535449,-13249.686362,766.095498
3206.810272,2294.638420,-10436.903782,1225.752797
3206.810600,2368.659014,-8290.306550,-1302.362347
3206.810927,814.226536,-9474.636058,383.047749
3206.811255,0.000000,-10214.842000,459.657299
3206.811582,-1110.308913,-8216.285956,536.266849
3206.811910,-962.267725,-7550.100608,842.705048
3206.812238,222.061783,-8216.285956,-306.438199
3206.812565,-592.164754,-10066.800811,0.000000
3206.812893,-592.164754,-10436.903782,1149.143247
3206.813221,148.041188,-8660.409521,-1378.971896
3206.813548,1554.432478,-10510.924376,-2757.943793
3206.813876,1110.308913,-10510.924376,-2145.067394
3206.814203,518.144159,-8808.450710,-1225.752797
3206.814531,592.164754,-9622.677246,995.924147
3206.814859,1628.453072,-10214.842000,766.095498
3206.815186,592.164754,-10955.047942,612.876398
3206.815514,518.144159,-10807.006753,689.485948
3206.815842,814.226536,-8956.491898,0.000000
3206.816169,-222.061783,-10214.842000,-995.924147
3206.816497,-1702.473667,-11769.274478,-1378.971896
3206.816824,-1628.453072,-9400.615463,-2451.505594
3206.817152,-740.205942,-7328.038826,-1991.848295
3206.817480,740.205942,-6883.915261,-306.438199
3206.817807,1628.453072,-8956.491898,1225.752797
3206.818135,1554.432478,-10214.842000,1915.238745
3206.818463,1850.514855,-9918.759623,1302.362347
3206.818790,1406.391290,-9696.697840,76.609550
3206.819118,-296.082377,-9844.739029,76.609550
3206.819445,-666.185348,-9770.718434,76.609550
3206.819773,-222.061783,-11547.212695,-766.095498
3206.820101,-148.041188,-12287.418637,-229.828649
3206.820428,518.144159,-10955.047942,-1685.410096
3206.820756,592.164754,-9474.636058,-1991.848295
3206.821084,74.020594,-8956.491898,-306.438199
3206.821411,0.000000,-7772.162391,-306.438199
3206.821739,-666.185348,-7105.977043,229.828649
3206.822066,-1258.350101,-7772.162391,306.438199
3206.822394,-666.185348,-8216.285956,0.000000
3206.822722,0.000000,-8808.450710,1302.362347
3206.823049,740.205942,-9474.636058,1455.581446
3206.823377,888.247130,-12139.377449,612.876398
3206.823705,1258.350101,-13101.645173,-536.266849
3206.824032,1776.494261,-11769.274478,-2528.115143
3206.824360,1258.350101,-10807.006753,-2528.115143
3206.824687,296.082377,-9030.512492,-1608.800546
3206.825015,222.061783,-7994.224174,306.438199
3206.825343,-296.082377,-9400.615463,1455.581446
3206.825670,148.041188,-9844.739029,536.266849
3206.825998,74.020594,-8808.450710,-459.657299
3206.826326,-888.247130,-7994.224174,153.219100
3206.826653,-740.205942,-8586.388927,766.095498
3206.826981,-1110.308913,-9400.615463,0.000000
3206.827309,0.000000,-10066.800811,-229.828649
3206.827636,296.082377,-10807.006753,-689.485948
3206.827964,1110.308913,-11695.253884,-1225.752797
3206.828291,1924.535449,-11621.233289,-459.657299
3206.828619,2368.659014,-9770.718434,-919.314598
3206.828947,888.247130,-9400.615463,842.705048
3206.829274,518.144159,-9474.636058,1072.533697
3206.829602,-296.082377,-9030.512492,0.000000
3206.829930,-148.041188,-7402.059420,0.000000
3206.830257,444.123565,-7179.997637,0.000000
3206.830585,-296.082377,-9178.553681,1149.143247
3206.830912,-2812.782580,-10066.800811,1838.629195
3206.831240,-2516.700203,-10955.047942,-1455.581446
3206.831568,-888.247130,-9918.759623,-3983.696590
3206.831895,740.205942,-8956.491898,-3600.648841
3206.832223,1850.514855,-9696.697840,-612.876398
3206.832551,2664.741391,-11843.295072,2451.505594
3206.832878,3478.967927,-12139.377449,2298.286494
3206.833206,3923.091493,-11325.150913,536.266849
3206.833533,1554.432478,-9400.615463,-766.095498
3206.833861,-518.144159,-8660.409521,-995.924147
3206.834189,-1332.370696,-7402.059420,-306.438199
3206.834516,-1998.556043,-8808.450710,-306.438199
3206.834844,-1776.494261,-10955.047942,-306.438199
3206.835172,74.020594,-10658.965565,-842.705048
3206.835499,1776.494261,-9474.636058,76.609550
3206.835827,2368.659014,-8364.327145,-153.219100
3206.836154,2368.659014,-8956.491898,383.047749
3206.836482,740.205942,-8660.409521,0.000000
3206.836810,148.041188,-8586.388927,-229.828649
3206.837137,0.000000,-9178.553681,536.266849
3206.837465,-814.226536,-9548.656652,1762.019645
3206.837793,74.020594,-9622.677246,995.924147
3206.838120,-148.041188,-11325.150913,383.047749
3206.838448,1184.329507,-12805.562797,-1072.533697
3206.838775,444.123565,-10066.800811,-2834.553343
3206.839103,-1332.370696,-8438.347739,-1762.019645
3206.839431,-2220.617826,-7550.100608,-153.219100
3206.839758,666.185348,-9178.553681,-153.219100
3206.840086,1628.453072,-9770.718434,1455.581446
3206.840414,2146.597232,-9992.780217,2068.457845
3206.840741,1332.370696,-9696.697840,1225.752797
3206.841069,2294.638420,-9696.697840,0.000000
3206.841396,1332.370696,-8956.491898,-459.657299
3206.841724,-1184.329507,-9326.594869,0.000000
3206.842052,-2146.597232,-10066.800811,-689.485948
3206.842379,-740.205942,-11399.171507,-2298.286494
3206.842707,148.041188,-11103.089130,-2911.162892
3206.843035,814.226536,-11029.068536,0.000000
3206.843362,1184.329507,-10881.027347,2068.457845
3206.843690,814.226536,-11029.068536,1225.752797
3206.844017,0.000000,-9844.739029,-842.705048
3206.844345,-666.185348,-7994.224174,-2757.943793
3206.844673,-1628.453072,-6735.874072,-1685.410096
3206.845000,-1998.556043,-7550.100608,1072.533697
3206.845328,-1554.432478,-9030.512492,1072.533697
3206.845656,-296.082377,-10955.047942,1072.533697
3206.845983,1036.288319,-11029.068536,0.000000
3206.846311,370.102971,-11251.130318,-1302.362347
3206.846638,666.185348,-11251.130318,-1532.190996
3206.846966,1332.370696,-9844.739029,-1455.581446
3206.847294,740.205942,-9474.636058,-689.485948
3206.847621,1036.288319,-9622.677246,229.828649
3206.847949,1036.288319,-8586.388927,1608.800546
3206.848277,962.267725,-8734.430116,1455.581446
3206.848604,444.123565,-9252.574275,1225.752797
3206.848932,0.000000,-8956.491898,459.657299
3206.849260,-666.185348,-8586.388927,-766.095498
3206.849587,-740.205942,-9548.656652,-919.314598
3206.849915,0.000000,-9326.594869,-2298.286494
3206.850242,444.123565,-9474.636058,-1915.238745
3206.850570,1628.453072,-10436.903782,383.047749
3206.850898,1998.556043,-10510.924376,689.485948
3206.851225,1776.494261,-10584.944971,1302.362347
3206.851553,1406.391290,-9918.759623,536.266849
3206.851881,1110.308913,-10362.883188,0.000000
3206.852208,148.041188,-9400.615463,-459.657299
3206.852536,592.164754,-7772.162391,-153.219100
3206.852863,370.102971,-9178.553681,-995.924147
3206.853191,-518.144159,-10510.924376,0.000000
3206.853519,-1998.556043,-10362.883188,-766.095498
3206.853846,-2294.638420,-10658.965565,-2068.457845
3206.854174,-888.247130,-8438.347739,-3447.429741
3206.854502,370.102971,-8068.244768,-3370.820191
3206.854829,518.144159,-11103.089130,1072.533697
3206.855157,1776.494261,-11917.315666,2911.162892
3206.855484,2368.659014,-10658.965565,1762.019645
3206.855812,2368.659014,-10214.842000,229.828649
3206.856140,888.247130,-9400.615463,-1455.581446
3206.856467,-592.164754,-9474.636058,-842.705048
3206.856795,-1332.370696,-9474.636058,-459.657299
3206.857123,-666.185348,-8956.491898,-2068.457845
3206.857450,-814.226536,-9918.759623,-842.705048
3206.857778,740.205942,-9474.636058,842.705048
3206.858105,2146.597232,-9178.553681,1455.581446
3206.858433,2220.617826,-9918.759623,1149.143247
3206.858761,2146.597232,-9474.636058,919.314598
3206.859088,-222.061783,-7254.018232,229.828649
3206.859416,-296.082377,-6883.915261,383.047749
3206.859744,-592.164754,-7698.141797,995.924147
3206.860071,-222.061783,-10510.924376,1915.238745
3206.860399,0.000000,-11843.295072,1225.752797
3206.860726,1110.308913,-10732.986159,-1302.362347
3206.861054,1406.391290,-9992.780217,-3524.039291
3206.861382,296.082377,-9178.553681,-1532.190996
3206.861709,-1480.411884,-9030.512492,-689.485948
3206.862037,-1702.473667,-10436.903782,0.000000
3206.862365,0.000000,-9622.677246,-383.047749
3206.862692,1406.391290,-9400.615463,0.000000
3206.863020,518.144159,-9474.636058,2451.505594
3206.863347,962.267725,-9400.615463,1838.629195
3206.863675,1110.308913,-9104.533087,306.438199
3206.864003,0.000000,-9474.636058,-1455.581446
3206.864330,-222.061783,-9400.615463,-2681.334243
3206.864658,-962.267725,-10066.800811,-2145.067394
3206.864986,-666.185348,-10436.903782,-1072.533697
3206.865313,666.185348,-11177.109724,153.219100
3206.865641,1036.288319,-11843.295072,-229.828649
3206.865968,1480.411884,-12213.398043,383.047749
3206.866296,1702.473667,-11103.089130,306.438199
3206.866624,666.185348,-10066.800811,-383.047749
3206.866951,74.020594,-8068.244768,-1149.143247
3206.867279,-1332.370696,-7105.977043,-995.924147
3206.867607,-1998.556043,-8364.327145,229.828649
3206.867934,-814.226536,-9030.512492,-536.266849
3206.868262,-444.123565,-9030.512492,536.266849
3206.868589,148.041188,-9030.512492,0.000000
3206.868917,1184.329507,-9474.636058,-1302.362347
3206.869245,1110.308913,-10436.903782,-842.705048
3206.869572,518.144159,-10140.821405,612.876398
3206.869900,1406.391290,-9400.615463,1072.533697
3206.870228,888.247130,-9178.553681,1378.971896
3206.870555,740.205942,-9474.636058,1455.581446
3206.870883,0.000000,-9400.615463,842.705048
3206.871211,-370.102971,-9326.594869,383.047749
3206.871538,370.102971,-9474.636058,-459.657299
3206.871866,222.061783,-9844.739029,-1608.800546
3206.872193,-1406.391290,-9474.636058,-919.314598
3206.872521,74.020594,-7846.182985,-306.438199
3206.872849,222.061783,-7772.162391,-459.657299
3206.873176,592.164754,-10066.800811,919.314598
3206.873504,1332.370696,-10436.903782,995.924147
3206.873832,1258.350101,-10214.842000,536.266849
3206.874159,444.123565,-9844.739029,612.876398
3206.874487,1554.432478,-10584.944971,-229.828649
3206.874814,666.185348,-10510.924376,-229.828649
3206.875142,1554.432478,-10955.047942,-536.266849
3206.875470,740.205942,-9252.574275,-1991.848295
3206.875797,-740.205942,-9326.594869,-919.314598
3206.876125,-1924.535449,-9770.718434,-1149.143247
3206.876453,-1480.411884,-10881.027347,-1915.238745
3206.876780,-666.185348,-10362.883188,-1915.238745
3206.877108,444.123565,-9104.533087,-1532.190996
3206.877435,592.164754,-10140.821405,689.485948
3206.877763,1702.473667,-11029.068536,1685.410096
3206.878091,1628.453072,-9178.553681,919.314598
3206.878418,962.267725,-10140.821405,536.266849
3206.878746,518.144159,-10732.986159,-536.266849
3206.879074,1036.288319,-9548.656652,-2145.067394
3206.879401,-370.102971,-8290.306550,-1378.971896
3206.879729,-962.267725,-8142.265362,-153.219100
3206.880056,-518.144159,-9252.574275,689.485948
3206.880384,888.247130,-11547.212695,1149.143247
3206.880712,444.123565,-10584.944971,919.314598
3206.881039,740.205942,-8586.388927,0.000000
3206.881367,0.000000,-7624.121203,766.095498
3206.881695,0.000000,-7105.977043,229.828649
3206.882022,-222.061783,-7772.162391,1532.190996
3206.882350,370.102971,-9030.512492,766.095498
3206.882677,1850.514855,-9844.739029,383.047749
3206.883005,1924.535449,-10362.883188,153.219100
3206.883333,1998.556043,-10584.944971,459.657299
3206.883660,1554.432478,-9104.533087,383.047749
3206.883988,518.144159,-9844.739029,-766.095498
3206.884316,-1850.514855,-9918.759623,-1225.752797
3206.884643,-3256.906145,-9474.636058,-1378.971896
3206.884971,-1628.453072,-9326.594869,-1685.410096
3206.885298,0.000000,-8734.430116,0.000000
3206.885626,444.123565,-10140.821405,1225.752797
3206.885954,0.000000,-11991.336260,2374.896044
3206.886281,1184.329507,-10214.842000,-995.924147
3206.886609,740.205942,-8956.491898,-2987.772442
3206.886937,-296.082377,-9474.636058,-2298.286494
3206.887264,-1110.308913,-8660.409521,-1532.190996
3206.887592,-148.041188,-10066.800811,-306.438199
3206.887919,1998.556043,-11547.212695,0.000000
3206.888247,2072.576638,-12509.480420,383.047749
3206.888575,518.144159,-11843.295072,2451.505594
3206.888902,1554.432478,-10214.842000,995.924147
3206.889230,-296.082377,-9992.780217,-383.047749
3206.889558,-1480.411884,-9474.636058,-2451.505594
3206.889885,-1258.350101,-8142.265362,-2757.943793
3206.890213,-1406.391290,-8660.409521,-919.314598
3206.890540,370.102971,-9178.553681,689.485948
3206.890868,1998.556043,-9770.718434,1532.190996
3206.891196,888.247130,-9104.533087,1762.019645
3206.891523,592.164754,-9474.636058,0.000000
3206.891851,-296.082377,-9326.594869,-1532.190996
3206.892179,148.041188,-7920.203579,-919.314598
3206.892506,74.020594,-9696.697840,766.095498
3206.892834,0.000000,-10214.842000,2221.676944
3206.893161,74.020594,-9696.697840,1838.629195
3206.893489,740.205942,-9696.697840,-459.657299
3206.893817,1554.432478,-9918.759623,-1378.971896
3206.894144,370.102971,-9844.739029,-766.095498
3206.894472,518.144159,-7846.182985,-153.219100
3206.894800,370.102971,-7994.224174,-383.047749
3206.895127,296.082377,-9622.677246,76.609550
3206.895455,1258.350101,-9918.759623,536.266849
3206.895783,0.000000,-8586.388927,1378.971896
3206.896110,0.000000,-8142.265362,766.095498
3206.896438,518.144159,-10214.842000,-689.485948
3206.896765,814.226536,-11917.315666,-1072.533697
3206.897093,518.144159,-11399.171507,-1149.143247
3206.897421,296.082377,-10214.842000,-1378.971896
3206.897748,518.144159,-9326.594869,-1149.143247
3206.898076,1110.308913,-9474.636058,-1149.143247
3206.898404,888.247130,-10881.027347,-536.266849
3206.898731,1258.350101,-10510.924376,0.000000
3206.899059,740.205942,-10362.883188,459.657299
3206.899386,-444.123565,-10807.006753,383.047749
3206.899714,-1480.411884,-10362.883188,153.219100
3206.900042,-1998.556043,-8364.327145,-1149.143247
3206.900369,-1110.308913,-8586.388927,-1685.410096
3206.900697,0.000000,-11325.150913,-919.314598
3206.901025,1628.453072,-11917.315666,-153.219100
3206.901352,2146.597232,-9770.718434,229.828649
3206.901680,1628.453072,-8956.491898,612.876398
3206.902007,740.205942,-9474.636058,76.609550
3206.902335,592.164754,-9622.677246,0.000000
3206.902663,-592.164754,-8216.285956,383.047749
3206.902990,-222.061783,-8142.265362,536.266849
3206.903318,0.000000,-8734.430116,459.657299
3206.903646,666.185348,-9400.615463,1455.581446
3206.903973,666.185348,-9844.739029,1685.410096
3206.904301,296.082377,-9474.636058,766.095498
3206.904628,-296.082377,-7846.182985,-612.876398
3206.904956,-592.164754,-8142.265362,-1762.019645
3206.905284,0.000000,-8364.327145,-1532.190996
3206.905611,1480.411884,-8586.388927,-842.705048
3206.905939,2072.576638,-10732.986159,612.876398
3206.906267,1702.473667,-11843.295072,2221.676944
3206.906594,1776.494261,-10362.883188,842.705048
3206.906922,1776.494261,-10140.821405,383.047749
3206.907249,518.144159,-8956.491898,689.485948
3206.907577,-1110.308913,-7846.182985,-919.314598
3206.907905,-3330.926739,-9104.533087,-1149.143247
3206.908232,-2738.761985,-10436.903782,-2451.505594
3206.908560,-1628.453072,-11325.150913,-2528.115143
3206.908888,518.144159,-10732.986159,-1762.019645
3206.909215,2368.659014,-10288.862594,0.000000
3206.909543,2220.617826,-11325.150913,-306.438199
3206.909870,2738.761985,-11399.171507,0.000000
3206.910198,2294.638420,-9918.759623,-306.438199
3206.910526,666.185348,-9474.636058,-536.266849
3206.910853,-666.185348,-8882.471304,0.000000
3206.911181,-1258.350101,-8882.471304,919.314598
3206.911508,518.144159,-11917.315666,306.438199
3206.911836,1628.453072,-11843.295072,306.438199
3206.912163,1406.391290,-10732.986159,536.266849
3206.912491,-222.061783,-9400.615463,-459.657299
3206.912819,0.000000,-7698.141797,-1762.019645
3206.913146,-592.164754,-7328.038826,-1838.629195
3206.913474,-444.123565,-7476.080014,-995.924147
3206.913801,0.000000,-8290.306550,1378.971896
3206.914129,444.123565,-10510.924376,2451.505594
3206.914456,1776.494261,-9400.615463,2528.115143
3206.914784,1184.329507,-8660.409521,689.485948
3206.915111,592.164754,-10362.883188,-459.657299
3206.915439,-1184.329507,-11029.068536,-612.876398
3206.915766,-962.267725,-9326.594869,-2068.457845
3206.916094,-888.247130,-7179.997637,-1608.800546
3206.916421,-296.082377,-8882.471304,0.000000
3206.916749,0.000000,-9400.615463,1225.752797
3206.917077,444.123565,-10214.842000,1302.362347
3206.917404,296.082377,-10214.842000,919.314598
3206.917732,1776.494261,-10510.924376,-766.095498
3206.918059,518.144159,-9400.615463,-459.657299
3206.918387,-962.267725,-7624.121203,-306.438199
3206.918714,0.000000,-8956.491898,-153.219100
3206.919042,888.247130,-11399.171507,383.047749
3206.919369,592.164754,-11695.253884,153.219100
3206.919697,814.226536,-11695.253884,-995.924147
3206.920024,592.164754,-10584.944971,-1302.362347
3206.920352,1110.308913,-10510.924376,-1838.629195
3206.920680,222.061783,-10214.842000,-919.314598
3206.921007,-296.082377,-10732.986159,0.000000
3206.921335,592.164754,-9252.574275,-383.047749
3206.921662,296.082377,-9696.697840,0.000000
3206.921990,0.000000,-8956.491898,919.314598
3206.922317,74.020594,-8586.388927,612.876398
3206.922645,-148.041188,-9992.780217,689.485948
3206.922972,592.164754,-10510.924376,536.266849
3206.923300,222.061783,-8882.471304,-919.314598
3206.923627,-222.061783,-8586.388927,-612.876398
3206.923955,0.000000,-9400.615463,-919.314598
3206.924282,-1036.288319,-11103.089130,-919.314598
3206.924610,74.020594,-10436.903782,-919.314598
3206.924938,1110.308913,-9252.574275,-1532.190996
3206.925265,1258.350101,-10288.862594,842.705048
3206.925593,2072.576638,-10658.965565,2528.115143
3206.925920,1184.329507,-9104.533087,2145.067394
3206.926248,370.102971,-8734.430116,689.485948
3206.926575,0.000000,-8808.450710,-995.924147
3206.926903,-1184.329507,-9178.553681,-1225.752797
3206.927230,-962.267725,-7920.203579,-536.266849
3206.927558,-148.041188,-6291.750507,-766.095498
3206.927885,296.082377,-9326.594869,0.000000
3206.928213,1702.473667,-11251.130318,1149.143247
3206.928541,2368.659014,-12361.439231,689.485948
3206.928868,2220.617826,-10510.924376,0.000000
3206.929196,2146.597232,-9474.636058,-919.314598
3206.929523,1036.288319,-9326.594869,0.000000
3206.929851,0.000000,-9992.780217,612.876398
3206.930178,0.000000,-10436.903782,153.219100
3206.930506,-814.226536,-10584.944971,842.705048
3206.930833,-1628.453072,-9844.739029,0.000000
3206.931161,-518.144159,-8438.347739,-2221.676944
3206.931488,-666.185348,-8438.347739,-1685.410096
3206.931816,-222.061783,-9030.512492,-383.047749
3206.932143,0.000000,-8882.471304,-995.924147
3206.932471,-518.144159,-10510.924376,-1149.143247
3206.932799,666.185348,-11177.109724,-383.047749
3206.933126,1702.473667,-9770.718434,0.000000
3206.933454,2146.597232,-10732.986159,919.314598
3206.933781,2294.638420,-11843.295072,612.876398
3206.934109,2072.576638,-11621.233289,383.047749
3206.934436,1332.370696,-9844.739029,-383.047749
3206.934764,444.123565,-8586.388927,-383.047749
3206.935091,-1184.329507,-8956.491898,-306.438199
3206.935419,-2294.638420,-8956.491898,-995.924147
3206.935746,-2294.638420,-9844.739029,-1225.752797
3206.936074,-1258.350101,-10066.800811,-1455.581446
3206.936402,296.082377,-9622.677246,-766.095498
3206.936729,1554.432478,-9474.636058,1455.581446
3206.937057,2516.700203,-9474.636058,2068.457845
3206.937384,2294.638420,-10214.842000,766.095498
3206.937712,1036.288319,-8438.347739,0.000000
3206.938039,-592.164754,-7846.182985,-995.924147
3206.938367,-1036.288319,-9104.533087,-459.657299
3206.938694,-666.185348,-9770.718434,229.828649
3206.939022,0.000000,-11547.212695,0.000000
3206.939349,0.000000,-11769.274478,-689.485948
3206.939677,296.082377,-10140.821405,-2068.457845
3206.940005,-222.061783,-9252.574275,-1378.971896
3206.940332,-592.164754,-8142.265362,-229.828649
3206.940660,-592.164754,-7772.162391,842.705048
3206.940987,444.123565,-8290.306550,1072.533697
3206.941315,74.020594,-9178.553681,766.095498
3206.941642,222.061783,-10658.965565,1072.533697
3206.941970,666.185348,-9844.739029,0.000000
3206.942297,1258.350101,-9474.636058,-536.266849
3206.942625,0.000000,-10214.842000,-766.095498
3206.942952,0.000000,-11103.089130,-1685.410096
3206.943280,148.041188,-11251.130318,-1378.971896
3206.943607,518.144159,-9844.739029,-1149.143247
3206.943935,814.226536,-9770.718434,383.047749
3206.944263,740.205942,-10214.842000,1685.410096
3206.944590,592.164754,-10807.006753,689.485948
3206.944918,-1036.288319,-10214.842000,0.000000
3206.945245,-1110.308913,-8216.285956,-1838.629195
3206.945573,-666.185348,-8290.306550,-1532.190996
3206.945900,518.144159,-8734.430116,612.876398
3206.946228,-296.082377,-7476.080014,1685.410096
3206.946555,1480.411884,-9326.594869,1838.629195
3206.946883,2368.659014,-10066.800811,76.609550
3206.947210,1850.514855,-11769.274478,-153.219100
3206.947538,0.000000,-10436.903782,383.047749
3206.947866,-518.144159,-9178.553681,-766.095498
3206.948193,0.000000,-9992.780217,-2604.724693
3206.948521,814.226536,-11473.192101,-1762.019645
3206.948848,444.123565,-11029.068536,-306.438199
3206.949176,1554.432478,-8882.471304,766.095498
3206.949503,2072.576638,-7994.224174,229.828649
3206.949831,666.185348,-9326.594869,153.219100
3206.950158,-666.185348,-8956.491898,-229.828649
3206.950486,-296.082377,-8512.368333,-919.314598
3206.950813,-592.164754,-8438.347739,-766.095498
3206.951141,0.000000,-9918.759623,-306.438199
3206.951468,592.164754,-10510.924376,-153.219100
3206.951796,2812.782580,-12139.377449,689.485948
3206.952124,3849.070898,-12139.377449,0.000000
3206.952451,2220.617826,-11547.212695,0.000000
3206.952779,592.164754,-9104.533087,76.609550
3206.953106,-962.267725,-7846.182985,-689.485948
3206.953434,-2368.659014,-8586.388927,459.657299
3206.953761,-1776.494261,-9474.636058,0.000000
3206.954089,-1628.453072,-9918.759623,-229.828649
3206.954416,-592.164754,-9844.739029,0.000000
3206.954744,814.226536,-9252.574275,-689.485948
3206.955071,0.000000,-8586.388927,0.000000
3206.955399,-148.041188,-9918.759623,383.047749
3206.955727,-296.082377,-10362.883188,-995.924147
3206.956054,888.247130,-9844.739029,-919.314598
3206.956382,1702.473667,-9474.636058,-383.047749
3206.956709,1702.473667,-9474.636058,1149.143247
3206.957037,2072.576638,-10881.027347,2145.067394
3206.957364,1702.473667,-10214.842000,612.876398
3206.957692,1036.288319,-9400.615463,-383.047749
3206.958019,-1628.453072,-9992.780217,-766.095498
3206.958347,-1998.556043,-8660.409521,-1302.362347
3206.958674,-2368.659014,-7994.224174,-1532.190996
3206.959002,-666.185348,-9400.615463,-1302.362347
3206.959329,444.123565,-10955.047942,-306.438199
3206.959657,1628.453072,-10658.965565,1149.143247
3206.959985,1998.556043,-9844.739029,459.657299
3206.960312,1406.391290,-10436.903782,-306.438199
3206.960640,740.205942,-8586.388927,-1378.971896
3206.960967,0.000000,-7772.162391,-1378.971896
3206.961295,-592.164754,-9400.615463,-612.876398
3206.961622,0.000000,-11843.295072,229.828649
3206.961950,-592.164754,-11769.274478,1149.143247
3206.962277,296.082377,-9474.636058,76.609550
3206.962605,370.102971,-9474.636058,-1302.362347
3206.962932,444.123565,-11251.130318,-1149.143247
3206.963260,0.000000,-10584.944971,-459.657299
3206.963588,-740.205942,-9104.533087,-306.438199
3206.963915,666.185348,-7624.121203,-383.047749
3206.964243,148.041188,-7846.182985,0.000000
3206.964570,-962.267725,-8586.388927,1608.800546
3206.964898,518.144159,-10140.821405,1302.362347
3206.965225,1036.288319,-10066.800811,229.828649
3206.965553,1332.370696,-11029.068536,-1149.143247
3206.965880,444.123565,-10510.924376,-919.314598
3206.966208,222.061783,-9474.636058,0.000000
3206.966535,666.185348,-9770.718434,383.047749
3206.966863,1480.411884,-10214.842000,-842.705048
3206.967190,666.185348,-10362.883188,-306.438199
3206.967518,0.000000,-8734.430116,-536.266849
3206.967846,0.000000,-8216.285956,0.000000
3206.968173,-518.144159,-8142.265362,536.266849
3206.968501,-296.082377,-9178.553681,153.219100
3206.968828,-666.185348,-9918.759623,-536.266849
3206.969156,-370.102971,-9474.636058,-153.219100
3206.969483,74.020594,-9474.636058,153.219100
3206.969811,1776.494261,-9770.718434,766.095498
3206.970138,2072.576638,-10066.800811,536.266849
3206.970466,740.205942,-10807.006753,459.657299
3206.970793,-1184.329507,-11103.089130,-153.219100
3206.971121,-1924.535449,-10658.965565,-2298.286494
3206.971449,-296.082377,-9104.533087,-3753.867940
3206.971776,-370.102971,-8290.306550,-2374.896044
3206.972104,296.082377,-11251.130318,153.219100
3206.972431,1258.350101,-13027.624579,1762.019645
3206.972759,1258.350101,-11029.068536,612.876398
3206.973086,74.020594,-8068.244768,-153.219100
3206.973414,0.000000,-7402.059420,-459.657299
3206.973741,-370.102971,-9030.512492,0.000000
3206.974069,888.247130,-9104.533087,459.657299
3206.974396,518.144159,-9844.739029,-1378.971896
3206.974724,1258.350101,-11029.068536,-612.876398
3206.975052,3256.906145,-10066.800811,-842.705048
3206.975379,2146.597232,-9252.574275,383.047749
3206.975707,962.267725,-10510.924376,1455.581446
3206.976034,-518.144159,-9844.739029,1455.581446
3206.976362,-1628.453072,-9252.574275,229.828649
3206.976689,-1702.473667,-7772.162391,-689.485948
3206.977017,-1110.308913,-7179.997637,383.047749
3206.977344,-666.185348,-8290.306550,2145.067394
3206.977672,888.247130,-9696.697840,1149.143247
3206.977999,2146.597232,-9474.636058,-2145.067394
3206.978327,2146.597232,-10288.862594,-2298.286494
3206.978654,1480.411884,-9770.718434,-1838.629195
3206.978982,1702.473667,-9030.512492,0.000000
3206.979310,2220.617826,-8956.491898,689.485948
3206.979637,2590.720797,-10881.027347,1072.533697
3206.979965,1998.556043,-12287.418637,2145.067394
3206.980292,1924.535449,-11325.150913,1072.533697
3206.980620,1480.411884,-9474.636058,76.609550
3206.980947,592.164754,-7994.224174,383.047749
3206.981275,-1110.308913,-9992.780217,-612.876398
3206.981602,-1998.556043,-10658.965565,-1532.190996
3206.981930,-1332.370696,-8882.471304,-3524.039291
3206.982257,-888.247130,-8216.285956,-3370.820191
3206.982585,296.082377,-9844.739029,-842.705048
3206.982913,1628.453072,-11177.109724,1072.533697
3206.983240,1332.370696,-10436.903782,1991.848295
3206.983568,1406.391290,-10066.800811,229.828649
3206.983895,0.000000,-9844.739029,-1455.581446
3206.984223,-1258.350101,-9918.759623,-1072.533697
3206.984550,-1554.432478,-9178.553681,-306.438199
3206.984878,-962.267725,-10807.006753,306.438199
3206.985205,296.082377,-11843.295072,-153.219100
3206.985533,0.000000,-9992.780217,-995.924147
3206.985860,-518.144159,-9400.615463,-612.876398
3206.986188,-444.123565,-8068.244768,-153.219100
3206.986515,-962.267725,-7254.018232,536.266849
3206.986843,-666.185348,-7698.141797,842.705048
3206.987171,-1702.473667,-8586.388927,995.924147
3206.987498,-1332.370696,-8882.471304,842.705048
3206.987826,0.000000,-9104.533087,919.314598
3206.988153,740.205942,-9770.718434,1915.238745
3206.988481,1110.308913,-10881.027347,1302.362347
3206.988808,1480.411884,-10955.047942,-919.314598
3206.989136,-222.061783,-10362.883188,-1302.362347
3206.989463,-518.144159,-9918.759623,-2068.457845
3206.989791,518.144159,-8216.285956,-1685.410096
3206.990118,222.061783,-8512.368333,-536.266849
3206.990446,-888.247130,-9030.512492,1225.752797
3206.990774,-740.205942,-9992.780217,689.485948
3206.991101,-222.061783,-9622.677246,-459.657299
3206.991429,1406.391290,-10362.883188,-919.314598
3206.991756,962.267725,-9178.553681,306.438199
3206.992084,0.000000,-8586.388927,766.095498
3206.992411,1036.288319,-10510.924376,1149.143247
3206.992739,2442.679609,-11843.295072,-995.924147
3206.993066,1628.453072,-11325.150913,-1685.410096
3206.993394,370.102971,-9178.553681,-2451.505594
3206.993721,814.226536,-8956.491898,-2068.457845
3206.994049,1480.411884,-9844.739029,-536.266849
3206.994376,74.020594,-11621.233289,842.705048
3206.994704,-2664.741391,-10955.047942,229.828649
3206.995032,-962.267725,-9770.718434,-1838.629195
3206.995359,592.164754,-8586.388927,-2681.334243
3206.995687,444.123565,-10362.883188,-153.219100
3206.996014,814.226536,-10881.027347,1915.238745
3206.996342,1554.432478,-10140.821405,2068.457845
3206.996669,1628.453072,-9030.512492,-612.876398
3206.996997,2368.659014,-9104.533087,-2145.067394
3206.997324,2294.638420,-8512.368333,-689.485948
3206.997652,1776.494261,-8660.409521,766.095498
3206.997979,1184.329507,-9474.636058,842.705048
3206.998307,-148.041188,-10584.944971,1302.362347
3206.998635,-444.123565,-9844.739029,1149.143247
3206.998962,0.000000,-9030.512492,1378.971896
3206.999290,-148.041188,-9326.594869,689.485948
3206.999617,-518.144159,-9252.574275,0.000000
3206.999945,-1110.308913,-8364.327145,-1149.143247
3207.000272,-1480.411884,-7698.141797,-1685.410096
3207.000600,-888.247130,-7846.182985,-1532.190996
3207.000927,814.226536,-7994.224174,0.000000
3207.001255,1850.514855,-9696.697840,1685.410096
3207.001582,2442.679609,-11621.233289,1762.019645
3207.001910,2516.700203,-10658.965565,-306.438199
3207.002237,1702.473667,-10658.965565,-1302.362347
3207.002565,-296.082377,-10214.842000,0.000000
3207.002893,-666.185348,-9548.656652,383.047749
3207.003220,-296.082377,-10066.800811,0.000000
3207.003548,0.000000,-11769.274478,-383.047749
3207.003875,592.164754,-12509.480420,-689.485948
3207.004203,444.123565,-10140.821405,-1532.190996
3207.004530,740.205942,-8882.471304,-1532.190996
3207.004858,0.000000,-8438.347739,-1532.190996
3207.005185,-1184.329507,-8956.491898,-1455.581446
3207.005513,-1480.411884,-9548.656652,-1608.800546
3207.005840,-592.164754,-10881.027347,-459.657299
3207.006168,1258.350101,-11399.171507,229.828649
3207.006496,1702.473667,-10066.800811,612.876398
3207.006823,888.247130,-10140.821405,1762.019645
3207.007151,518.144159,-11473.192101,689.485948
3207.007478,-370.102971,-11399.171507,-919.314598
3207.007806,-888.247130,-9104.533087,-2757.943793
3207.008133,-1480.411884,-6291.750507,-2834.553343
3207.008461,-1406.391290,-6439.791695,-995.924147
3207.008788,0.000000,-9178.553681,1149.143247
3207.009116,0.000000,-11177.109724,1991.848295
3207.009443,-666.185348,-9474.636058,1302.362347
3207.009771,888.247130,-8882.471304,-766.095498
3207.010099,1110.308913,-8290.306550,-459.657299
3207.010426,1036.288319,-8660.409521,1762.019645
3207.010754,1406.391290,-9252.574275,1991.848295
3207.011081,518.144159,-9622.677246,1149.143247
3207.011409,888.247130,-9992.780217,-229.828649
3207.011736,1332.370696,-9548.656652,-1378.971896
3207.012064,148.041188,-8438.347739,0.000000
3207.012391,0.000000,-9326.594869,842.705048
3207.012719,222.061783,-11251.130318,76.609550
3207.013047,-666.185348,-10066.800811,-1302.362347
3207.013374,-1184.329507,-9400.615463,-1378.971896
3207.013702,0.000000,-8882.471304,-536.266849
3207.014030,962.267725,-9252.574275,689.485948
3207.014357,962.267725,-11621.233289,1149.143247
3207.014685,1036.288319,-11843.295072,995.924147
3207.015013,1036.288319,-9622.677246,-995.924147
3207.015340,1702.473667,-8808.450710,-1608.800546
3207.015668,1924.535449,-9474.636058,-383.047749
3207.015996,888.247130,-10732.986159,1072.533697
3207.016323,740.205942,-10807.006753,306.438199
3207.016651,518.144159,-10584.944971,-1762.019645
3207.016979,0.000000,-9622.677246,-2221.676944
3207.017306,74.020594,-9178.553681,-689.485948
3207.017634,888.247130,-9770.718434,1072.533697
3207.017962,518.144159,-10066.800811,1225.752797
3207.018289,0.000000,-11029.068536,-459.657299
3207.018617,-1702.473667,-10658.965565,-689.485948
3207.018945,-888.247130,-7624.121203,-1762.019645
3207.019272,518.144159,-6217.729913,-1838.629195
3207.019600,0.000000,-8586.388927,0.000000
3207.019928,1924.535449,-11843.295072,1532.190996
3207.020255,1998.556043,-11991.336260,842.705048
3207.020583,2294.638420,-10066.800811,-229.828649
3207.020911,1702.473667,-8142.265362,-612.876398
3207.021238,0.000000,-8734.430116,1608.800546
3207.021566,-1702.473667,-8808.450710,1532.190996
3207.021894,-1924.535449,-10288.862594,229.828649
3207.022221,-2738.761985,-8956.491898,-842.705048
3207.022549,-666.185348,-7402.059420,-1608.800546
3207.022877,-518.144159,-7179.997637,-229.828649
3207.023204,-370.102971,-8512.368333,1072.533697
3207.023532,-222.061783,-10214.842000,306.438199
3207.023860,0.000000,-10658.965565,-1149.143247
3207.024187,0.000000,-9622.677246,-1378.971896
3207.024515,1110.308913,-9326.594869,-1072.533697
3207.024843,1480.411884,-9548.656652,1225.752797
3207.025170,1998.556043,-11621.233289,1378.971896
3207.025498,1776.494261,-11621.233289,229.828649
3207.025826,1776.494261,-11325.150913,-919.314598
3207.026153,814.226536,-9770.718434,-1378.971896
3207.026481,0.000000,-8216.285956,-766.095498
3207.026809,-222.061783,-9474.636058,-383.047749
3207.027136,-296.082377,-10732.986159,-536.266849
3207.027464,0.000000,-11177.109724,-1915.238745
3207.027792,-740.205942,-10807.006753,-1532.190996
3207.028119,74.020594,-9622.677246,-1608.800546
3207.028447,2442.679609,-10584.944971,-536.266849
3207.028775,2960.823768,-11399.171507,1455.581446
3207.029102,1036.288319,-11325.150913,919.314598
3207.029430,0.000000,-9992.780217,229.828649
3207.029758,222.061783,-8808.450710,-1991.848295
3207.030085,-592.164754,-8290.306550,-612.876398
3207.030413,-666.185348,-8734.430116,536.266849
3207.030741,-518.144159,-9104.533087,612.876398
3207.031068,0.000000,-10288.862594,0.000000
3207.031396,222.061783,-10362.883188,-536.266849
3207.031723,444.123565,-8142.265362,-1149.143247
3207.032051,0.000000,-6957.935855,153.219100
3207.032379,74.020594,-8142.265362,1225.752797
3207.032706,1628.453072,-9474.636058,919.314598
3207.033034,1406.391290,-9844.739029,612.876398
3207.033362,1924.535449,-9548.656652,995.924147
3207.033689,1924.535449,-8660.409521,459.657299
3207.034017,1776.494261,-8290.306550,536.266849
3207.034345,74.020594,-10066.800811,1072.533697
3207.034672,-1332.370696,-9844.739029,0.000000
3207.035000,-1332.370696,-9770.718434,-1915.238745
3207.035328,-740.205942,-9770.718434,-2298.286494
3207.035655,444.123565,-9548.656652,-919.314598
3207.035983,-592.164754,-10510.924376,1072.533697
3207.036311,222.061783,-11843.295072,995.924147
3207.036638,-444.123565,-11621.233289,-1225.752797
3207.036966,0.000000,-9918.759623,-2834.553343
3207.037294,518.144159,-8290.306550,-2145.067394
3207.037621,148.041188,-9326.594869,383.047749
3207.037949,370.102971,-9400.615463,1762.019645
3207.038277,222.061783,-10510.924376,612.876398
3207.038604,370.102971,-11621.233289,-689.485948
3207.038932,370.102971,-10658.965565,-766.095498
3207.039260,0.000000,-9770.718434,-612.876398
3207.039587,-296.082377,-9770.718434,-459.657299
3207.039915,-296.082377,-11103.089130,-689.485948
3207.040243,74.020594,-11029.068536,-919.314598
3207.040570,222.061783,-9030.512492,-383.047749
3207.040898,1554.432478,-9400.615463,459.657299
3207.041226,1110.308913,-8586.388927,1455.581446
3207.041553,-888.247130,-9178.553681,1685.410096
3207.041881,-1628.453072,-8438.347739,0.000000
3207.042209,-962.267725,-8438.347739,-1762.019645
3207.042536,-888.247130,-9030.512492,-1225.752797
3207.042864,-222.061783,-9178.553681,383.047749
3207.043192,814.226536,-9252.574275,1149.143247
3207.043519,2294.638420,-10140.821405,0.000000
3207.043847,2368.659014,-10436.903782,-306.438199
3207.044175,296.082377,-9622.677246,459.657299
3207.044502,0.000000,-8290.306550,229.828649
3207.044830,-592.164754,-7994.224174,383.047749
3207.045158,-962.267725,-8734.430116,153.219100
3207.045485,-888.247130,-8512.368333,0.000000
3207.045813,-370.102971,-8660.409521,383.047749
3207.046141,962.267725,-10214.842000,-383.047749
3207.046468,148.041188,-11843.295072,0.000000
3207.046796,666.185348,-10214.842000,-536.266849
3207.047124,1036.288319,-9104.533087,-1302.362347
3207.047451,1628.453072,-10584.944971,-766.095498
3207.047779,740.205942,-11177.109724,612.876398
3207.048107,2072.576638,-11103.089130,766.095498
3207.048434,3182.885551,-8882.471304,536.266849
3207.048762,1924.535449,-8512.368333,0.000000
3207.049090,0.000000,-10436.903782,76.609550
3207.049417,-666.185348,-10436.903782,-229.828649
3207.049745,-148.041188,-11029.068536,-1685.410096
3207.050073,814.226536,-10807.006753,-1762.019645
3207.050400,148.041188,-9548.656652,-1762.019645
3207.050728,-222.061783,-9844.739029,-306.438199
3207.051056,518.144159,-11177.109724,229.828649
3207.051383,2072.576638,-11843.295072,-919.314598
3207.051711,2368.659014,-10140.821405,-919.314598
3207.052039,1110.308913,-8808.450710,229.828649
3207.052366,74.020594,-7254.018232,1225.752797
3207.052694,148.041188,-8586.388927,842.705048
3207.053022,-814.226536,-9696.697840,1378.971896
3207.053349,-1702.473667,-9918.759623,306.438199
3207.053677,-2368.659014,-9770.718434,-612.876398
3207.054005,-518.144159,-8364.327145,-1838.629195
3207.054332,0.000000,-8068.244768,-2451.505594
3207.054660,-592.164754,-9548.656652,0.000000
3207.054988,-1110.308913,-10881.027347,919.314598
3207.055315,0.000000,-9622.677246,0.000000
3207.055643,1554.432478,-7550.100608,-459.657299
3207.055971,1332.370696,-7846.182985,536.266849
3207.056298,148.041188,-9030.512492,1685.410096
3207.056626,0.000000,-9400.615463,2068.457845
3207.056954,-296.082377,-9918.759623,229.828649
3207.057281,-666.185348,-10510.924376,-1302.362347
3207.057609,-888.247130,-10066.800811,-1225.752797
3207.057936,-1184.329507,-9622.677246,-306.438199
3207.058264,0.000000,-10436.903782,-766.095498
3207.058592,1110.308913,-12139.377449,-2068.457845
3207.058919,666.185348,-11843.295072,-1532.190996
3207.059247,-444.123565,-9770.718434,-1225.752797
3207.059575,0.000000,-8142.265362,-383.047749
3207.059902,370.102971,-8586.388927,0.000000
3207.060230,370.102971,-10140.821405,612.876398
3207.060558,-444.123565,-11029.068536,689.485948
3207.060885,-518.144159,-10214.842000,-766.095498
3207.061213,0.000000,-9326.594869,-153.219100
3207.061541,0.000000,-9844.739029,459.657299
3207.061868,0.000000,-10881.027347,-383.047749
3207.062196,0.000000,-10658.965565,-1225.752797
3207.062524,0.000000,-10140.821405,-1225.752797
3207.062851,222.061783,-9918.759623,-1072.533697
3207.063179,814.226536,-9548.656652,153.219100
3207.063507,962.267725,-8142.265362,1532.190996
3207.063834,0.000000,-7846.182985,1608.800546
3207.064162,-1184.329507,-9770.718434,1225.752797
3207.064490,-1554.432478,-10807.006753,689.485948
3207.064817,-1480.411884,-8734.430116,-689.485948
3207.065145,-1110.308913,-6809.894666,-1149.143247
3207.065473,-370.102971,-9104.533087,-459.657299
3207.065800,2146.597232,-11547.212695,0.000000
3207.066128,2590.720797,-11547.212695,536.266849
3207.066456,2368.659014,-9992.780217,-153.219100
3207.066783,3108.864956,-8586.388927,-842.705048
3207.067111,1924.535449,-8438.347739,1072.533697
3207.067439,1628.453072,-8808.450710,1532.190996
3207.067766,0.000000,-9474.636058,1762.019645
3207.068094,-1850.514855,-10140.821405,842.705048
3207.068422,-962.267725,-9622.677246,-1149.143247
3207.068749,-1406.391290,-8882.471304,-2145.067394
3207.069077,-222.061783,-9400.615463,-1072.533697
3207.069405,0.000000,-10362.883188,-766.095498
3207.069732,740.205942,-12213.398043,-995.924147
3207.070060,1628.453072,-10362.883188,-1762.019645
3207.070388,3404.947333,-9770.718434,-1532.190996
3207.070715,4071.132681,-8586.388927,919.314598
3207.071043,3627.009116,-8438.347739,2068.457845
3207.071371,2886.803174,-10732.986159,2298.286494
3207.071698,1406.391290,-11399.171507,1225.752797
3207.072026,444.123565,-10362.883188,-766.095498
3207.072354,1036.288319,-9696.697840,-1532.190996
3207.072681,1480.411884,-9992.780217,-612.876398
3207.073009,1184.329507,-11621.233289,0.000000
3207.073337,518.144159,-10881.027347,-1149.143247
3207.073664,888.247130,-9326.594869,-1915.238745
3207.073992,1554.432478,-8734.430116,-1915.238745
3207.074320,2590.720797,-8882.471304,-153.219100
3207.074647,2812.782580,-8660.409521,1762.019645
3207.074975,2960.823768,-9178.553681,2987.772442
3207.075303,1480.411884,-10066.800811,1685.410096
3207.075630,1258.350101,-10362.883188,-306.438199
3207.075958,-1036.288319,-10066.800811,0.000000
3207.076286,-2146.597232,-9474.636058,229.828649
3207.076613,-1924.535449,-9696.697840,-612.876398
3207.076941,-1036.288319,-10140.821405,-1991.848295
3207.077269,-1036.288319,-9252.574275,-1838.629195
3207.077596,-592.164754,-9030.512492,-306.438199
3207.077924,-888.247130,-7846.182985,1378.971896
3207.078252,0.000000,-8290.306550,1915.238745
3207.078579,0.000000,-8808.450710,1378.971896
3207.078907,-1628.453072,-9474.636058,842.705048
3207.079235,-2072.576638,-9548.656652,306.438199
3207.079562,-888.247130,-9474.636058,229.828649
3207.079890,-1184.329507,-9326.594869,76.609550
3207.080218,-1036.288319,-10732.986159,0.000000
3207.080545,-1184.329507,-11991.336260,-536.266849
3207.080873,-1480.411884,-11473.192101,-1302.362347
3207.081201,-962.267725,-9622.677246,-2451.505594
3207.081528,0.000000,-9178.553681,-2451.505594
3207.081856,-1702.473667,-9178.553681,76.609550
3207.082184,-1332.370696,-9030.512492,919.314598
3207.082511,-1702.473667,-9992.780217,0.000000
3207.082839,-1332.370696,-10214.842000,-766.095498
3207.083166,-962.267725,-9178.553681,-919.314598
3207.083494,-1628.453072,-8512.368333,0.000000
3207.083822,-1332.370696,-10214.842000,536.266849
3207.084149,-666.185348,-10807.006753,-459.657299
3207.084477,-518.144159,-11103.089130,-1072.533697
3207.084805,-814.226536,-10288.862594,-2834.553343
3207.085132,-370.102971,-9326.594869,-1991.848295
3207.085460,1110.308913,-9918.759623,0.000000
3207.085788,888.247130,-9770.718434,1302.362347
3207.086115,296.082377,-10955.047942,919.314598
3207.086443,444.123565,-9844.739029,-459.657299
3207.086771,0.000000,-8142.265362,-1072.533697
3207.087098,-296.082377,-8734.430116,536.266849
3207.087426,-1554.432478,-9474.636058,919.314598
3207.087754,-296.082377,-9474.636058,-919.314598
3207.088081,444.123565,-9622.677246,-2451.505594
3207.088409,2368.659014,-11029.068536,-2681.334243
3207.088737,3478.967927,-9622.677246,-842.705048
3207.089064,4663.297435,-8438.347739,1302.362347
3207.089392,4589.276840,-8882.471304,842.705048
3207.089720,3552.988522,-10436.903782,229.828649
3207.090047,1850.514855,-11029.068536,1072.533697
3207.090375,1406.391290,-9178.553681,459.657299
3207.090703,370.102971,-7698.141797,536.266849
3207.091030,-148.041188,-9030.512492,383.047749
3207.091358,1406.391290,-9844.739029,-689.485948
3207.091686,1184.329507,-11029.068536,-1532.190996
3207.092013,1110.308913,-10510.924376,-1149.143247
3207.092341,1998.556043,-8956.491898,-995.924147
3207.092669,2738.761985,-7550.100608,-153.219100
3207.092996,3849.070898,-8734.430116,1762.019645
3207.093324,2442.679609,-9696.697840,1608.800546
3207.093652,3034.844362,-10807.006753,1838.629195
3207.093979,2738.761985,-10584.944971,383.047749
3207.094307,2220.617826,-9548.656652,-459.657299
3207.094635,592.164754,-9622.677246,383.047749
3207.094962,0.000000,-10584.944971,689.485948
3207.095290,1036.288319,-11103.089130,-383.047749
3207.095618,0.000000,-11103.089130,-1608.800546
3207.095945,888.247130,-9252.574275,-1762.019645
3207.096273,1110.308913,-8364.327145,-229.828649
3207.096601,1702.473667,-8734.430116,612.876398
3207.096928,1480.411884,-10066.800811,689.485948
3207.097256,1258.350101,-11029.068536,689.485948
3207.097584,1776.494261,-10140.821405,-612.876398
3207.097911,888.247130,-9104.533087,-1225.752797
3207.098239,-888.247130,-8438.347739,612.876398
3207.098567,-2368.659014,-10881.027347,919.314598
3207.098894,-1924.535449,-11547.212695,-842.705048
3207.099222,-2590.720797,-10584.944971,-2221.676944
3207.099550,-2590.720797,-9622.677246,-1915.238745
3207.099877,-1628.453072,-8660.409521,-1838.629195
3207.100205,-1184.329507,-7920.203579,0.000000
3207.100533,-1406.391290,-10066.800811,689.485948
3207.100860,-1924.535449,-8956.491898,1378.971896
3207.101188,-1406.391290,-8808.450710,1455.581446
3207.101516,-888.247130,-9474.636058,766.095498
3207.101843,-2516.700203,-8956.491898,842.705048
3207.102171,-2664.741391,-9622.677246,229.828649
3207.102499,-1998.556043,-10288.862594,-1225.752797
3207.102826,-2294.638420,-11029.068536,-1225.752797
3207.103154,-2442.679609,-10584.944971,-2145.067394
3207.103482,-1480.411884,-9696.697840,-919.314598
3207.103809,0.000000,-9400.615463,-306.438199
3207.104137,1110.308913,-9770.718434,-383.047749
3207.104465,222.061783,-9770.718434,306.438199
3207.104792,-1850.514855,-9474.636058,2221.676944
3207.105120,-1258.350101,-9400.615463,153.219100
3207.105448,-1258.350101,-8290.306550,-766.095498
3207.105775,0.000000,-9474.636058,-766.095498
3207.106103,370.102971,-10732.986159,-306.438199
3207.106431,0.000000,-10584.944971,0.000000
3207.106758,222.061783,-9770.718434,-919.314598
3207.107086,2220.617826,-9770.718434,-1915.238745
3207.107414,1110.308913,-8142.265362,-536.266849
3207.107741,2146.597232,-9104.533087,153.219100
3207.108069,2294.638420,-9918.759623,383.047749
3207.108396,1406.391290,-11843.295072,383.047749
3207.108724,1554.432478,-11177.109724,-383.047749
3207.109052,2294.638420,-8660.409521,-1225.752797
3207.109379,1332.370696,-8364.327145,612.876398
3207.109707,1332.370696,-10658.965565,459.657299
3207.110035,518.144159,-10214.842000,-995.924147
3207.110362,222.061783,-9992.780217,-1532.190996
3207.110690,1924.535449,-8660.409521,-1991.848295
3207.111018,2072.576638,-8956.491898,153.219100
3207.111345,1998.556043,-9030.512492,2221.676944
3207.111673,3182.885551,-9548.656652,1455.581446
3207.112001,3108.864956,-11325.150913,76.609550
3207.112328,2960.823768,-11399.171507,-612.876398
3207.112656,2294.638420,-9252.574275,-766.095498
3207.112984,814.226536,-7105.977043,766.095498
3207.113311,0.000000,-8956.491898,995.924147
3207.113639,-1110.308913,-11029.068536,1302.362347
3207.113967,-1702.473667,-11177.109724,306.438199
3207.114294,-1554.432478,-7994.224174,-1608.800546
3207.114622,-1332.370696,-7105.977043,-1915.238745
3207.114950,-962.267725,-8734.430116,-612.876398
3207.115278,-370.102971,-9918.759623,459.657299
3207.115605,296.082377,-9844.739029,459.657299
3207.115933,1406.391290,-9178.553681,459.657299
3207.116261,2368.659014,-9474.636058,1072.533697
3207.116588,2294.638420,-8512.368333,1532.190996
3207.116916,1110.308913,-9918.759623,1685.410096
3207.117244,148.041188,-11029.068536,689.485948
3207.117571,444.123565,-10362.883188,-1608.800546
3207.117899,0.000000,-9622.677246,-2221.676944
3207.118227,814.226536,-9252.574275,-766.095498
3207.118554,1258.350101,-9918.759623,153.219100
3207.118882,666.185348,-9918.759623,536.266849
3207.119210,296.082377,-11843.295072,-383.047749
3207.119537,0.000000,-11251.130318,-1608.800546
3207.119865,-592.164754,-8142.265362,-1532.190996
3207.120193,-592.164754,-8364.327145,459.657299
3207.120520,592.164754,-10881.027347,919.314598
3207.120848,1258.350101,-11695.253884,-1149.143247
3207.121176,-444.123565,-10362.883188,-383.047749
3207.121503,-1184.329507,-9844.739029,-1915.238745
3207.121831,-1998.556043,-9844.739029,-1762.019645
3207.122159,-2072.576638,-9474.636058,-612.876398
3207.122487,-2220.617826,-8956.491898,-689.485948
3207.122814,-1480.411884,-10214.842000,0.000000
3207.123142,-888.247130,-11103.089130,0.000000
3207.123470,-444.123565,-9400.615463,76.609550
3207.123797,-222.061783,-8660.409521,842.705048
3207.124125,0.000000,-8586.388927,1072.533697
3207.124453,0.000000,-9400.615463,229.828649
3207.124780,-1110.308913,-9696.697840,0.000000
3207.125108,-814.226536,-8882.471304,-536.266849
3207.125436,518.144159,-8290.306550,76.609550
3207.125763,1184.329507,-9474.636058,842.705048
3207.126091,962.267725,-9770.718434,766.095498
3207.126419,666.185348,-9770.718434,1149.143247
3207.126746,1850.514855,-10214.842000,0.000000
3207.127074,148.041188,-9252.574275,-459.657299
3207.127402,0.000000,-7698.141797,-229.828649
3207.127729,592.164754,-7846.182985,919.314598
3207.128057,1332.370696,-10288.862594,612.876398
3207.128385,444.123565,-11695.253884,0.000000
3207.128712,1184.329507,-10066.800811,-1762.019645
3207.129040,814.226536,-8512.368333,-2221.676944
3207.129368,666.185348,-9992.780217,153.219100
3207.129696,888.247130,-9178.553681,689.485948
3207.130023,1850.514855,-9474.636058,766.095498
3207.130351,1850.514855,-10955.047942,-536.266849
3207.130679,2146.597232,-11695.253884,-1532.190996
3207.131006,222.061783,-9918.759623,-459.657299
3207.131334,-296.082377,-9252.574275,842.705048
3207.131662,222.061783,-10066.800811,-536.266849
3207.131989,814.226536,-11325.150913,-1762.019645
3207.132317,-740.205942,-11695.253884,-689.485948
3207.132645,-592.164754,-9696.697840,-1838.629195
3207.132972,-444.123565,-9252.574275,-1302.362347
3207.133300,0.000000,-9474.636058,-612.876398
3207.133628,-518.144159,-9326.594869,229.828649
3207.133955,-148.041188,-9622.677246,1072.533697
3207.134283,740.205942,-9474.636058,689.485948
3207.134611,1406.391290,-9622.677246,0.000000
3207.134938,1110.308913,-9474.636058,229.828649
3207.135266,222.061783,-9474.636058,689.485948
3207.135594,0.000000,-9104.533087,0.000000
3207.135921,-814.226536,-9326.594869,-1072.533697
3207.136249,-1184.329507,-8956.491898,-995.924147
3207.136577,296.082377,-8734.430116,306.438199
3207.136905,1850.514855,-9844.739029,1838.629195
3207.137232,2294.638420,-10066.800811,2298.286494
3207.137560,-370.102971,-9178.553681,2834.553343
3207.137888,-296.082377,-8586.388927,1302.362347
3207.138215,-1628.453072,-6365.771101,-612.876398
3207.138543,-2590.720797,-7402.059420,-689.485948
3207.138871,-1258.350101,-8882.471304,-306.438199
3207.139198,74.020594,-9918.759623,-1532.190996
3207.139526,-370.102971,-10510.924376,-1225.752797
3207.139854,-888.247130,-11103.089130,-2068.457845
3207.140181,1332.370696,-11029.068536,-2221.676944
3207.140509,2812.782580,-9918.759623,-612.876398
3207.140837,2886.803174,-10510.924376,1149.143247
3207.141164,2590.720797,-11029.068536,1915.238745
3207.141492,2442.679609,-11621.233289,995.924147
3207.141820,2442.679609,-11177.109724,-383.047749
3207.142147,814.226536,-8734.430116,-766.095498
3207.142475,-740.205942,-8586.388927,-536.266849
3207.142803,-740.205942,-8660.409521,-2068.457845
3207.143130,-814.226536,-11399.171507,-2757.943793
3207.143458,-1554.432478,-11917.315666,-2451.505594
3207.143786,74.020594,-9400.615463,-1685.410096
3207.144114,1036.288319,-8660.409521,-1685.410096
3207.144441,814.226536,-9918.759623,0.000000
3207.144769,740.205942,-11769.274478,1455.581446
3207.145097,2072.576638,-11843.295072,766.095498
3207.145424,2664.741391,-10955.047942,-153.219100
3207.145752,1998.556043,-8956.491898,153.219100
3207.146080,518.144159,-7920.203579,1455.581446
3207.146407,-370.102971,-8512.368333,2068.457845
3207.146735,-1850.514855,-9622.677246,306.438199
3207.147063,-1924.535449,-9770.718434,-1915.238745
3207.147390,-1184.329507,-7698.141797,-2451.505594
3207.147718,-1184.329507,-6217.729913,-689.485948
