#time,accel_x,accel_y,accel_z
2347.124680,592.164754,-9474.636058,306.438199
2347.125007,444.123565,-8956.491898,229.828649
2347.125334,74.020594,-8660.409521,459.657299
2347.125662,444.123565,-8882.471304,0.000000
2347.125989,0.000000,-9030.512492,-306.438199
2347.126316,0.000000,-9400.615463,-536.266849
2347.126644,74.020594,-9548.656652,-383.047749
2347.126971,74.020594,-9844.739029,-612.876398
2347.127298,222.061783,-10288.862594,-612.876398
2347.127626,666.185348,-10362.883188,-153.219100
2347.127953,814.226536,-10214.842000,-612.876398
2347.128280,814.226536,-10066.800811,0.000000
2347.128608,740.205942,-9844.739029,76.609550
2347.128935,740.205942,-9992.780217,0.000000
2347.129262,370.102971,-9400.615463,-229.828649
2347.129590,148.041188,-9252.574275,0.000000
2347.129917,0.000000,-9326.594869,-766.095498
2347.130244,74.020594,-9992.780217,0.000000
2347.130572,0.000000,-9992.780217,-612.876398
2347.130899,148.041188,-10436.903782,-689.485948
2347.131226,370.102971,-10362.883188,-612.876398
2347.131554,740.205942,-10584.944971,-229.828649
2347.131881,888.247130,-10140.821405,0.000000
2347.132208,740.205942,-9844.739029,689.485948
2347.132536,444.123565,-9400.615463,536.266849
2347.132863,74.020594,-9252.574275,229.828649
2347.133190,0.000000,-9104.533087,0.000000
2347.133518,0.000000,-9178.553681,0.000000
2347.133845,-296.082377,-9548.656652,-153.219100
2347.134172,0.000000,-9474.636058,-612.876398
2347.134500,0.000000,-9918.759623,-229.828649
2347.134827,74.020594,-9474.636058,-153.219100
2347.135154,444.123565,-9992.780217,306.438199
2347.135481,444.123565,-10066.800811,0.000000
2347.135809,592.164754,-9622.677246,229.828649
2347.136136,518.144159,-9252.574275,306.438199
2347.136463,666.185348,-9104.533087,0.000000
2347.136791,222.061783,-8808.450710,536.266849
2347.137118,74.020594,-8512.368333,459.657299
2347.137445,74.020594,-9326.594869,-383.047749
2347.137773,74.020594,-9622.677246,-612.876398
2347.138100,296.082377,-9992.780217,-766.095498
2347.138427,666.185348,-9770.718434,-689.485948
2347.138755,1036.288319,-9622.677246,0.000000
2347.139082,1998.556043,-10288.862594,-306.438199
2347.139409,2294.638420,-9400.615463,229.828649
2347.139737,3552.988522,-9030.512492,-306.438199
2347.140064,4071.132681,-9252.574275,-306.438199
2347.140391,4367.215058,-9844.739029,-536.266849
2347.140719,4441.235652,-9400.615463,-153.219100
2347.141046,5329.482782,-8438.347739,-1378.971896
2347.141373,5921.647536,-10288.862594,-919.314598
2347.141701,6217.729913,-11547.212695,0.000000
2347.142028,7328.038826,-11547.212695,-459.657299
2347.142355,7698.141797,-10955.047942,0.000000
2347.142683,8512.368333,-10436.903782,153.219100
2347.143010,8956.491898,-9844.739029,0.000000
2347.143337,8512.368333,-9104.533087,612.876398
2347.143665,8808.450710,-8364.327145,919.314598
2347.143992,9178.553681,-8216.285956,612.876398
2347.144319,8586.388927,-8660.409521,612.876398
2347.144647,7772.162391,-9474.636058,1072.533697
2347.144974,7179.997637,-9178.553681,306.438199
2347.145301,7105.977043,-9844.739029,-153.219100
2347.145629,7772.162391,-11621.233289,-536.266849
2347.145956,7994.224174,-11621.233289,-995.924147
2347.146283,7846.182985,-9770.718434,0.000000
2347.146611,7179.997637,-9474.636058,842.705048
2347.146938,7105.977043,-9104.533087,995.924147
2347.147265,7105.977043,-7994.224174,1072.533697
2347.147593,7105.977043,-7031.956449,1532.190996
2347.147920,7772.162391,-7254.018232,689.485948
2347.148247,8364.327145,-8142.265362,842.705048
2347.148575,7624.121203,-9548.656652,689.485948
2347.148902,6661.853478,-10362.883188,383.047749
2347.149229,5255.462188,-11103.089130,-306.438199
2347.149556,2960.823768,-11917.315666,-536.266849
2347.149884,1702.473667,-11843.295072,-1302.362347
2347.150211,148.041188,-10955.047942,-919.314598
2347.150538,-592.164754,-11251.130318,0.000000
2347.150866,-666.185348,-10732.986159,919.314598
2347.151193,-1850.514855,-8734.430116,766.095498
2347.151520,-2738.761985,-7179.997637,459.657299
2347.151848,-3330.926739,-6587.832884,-306.438199
2347.152175,-2368.659014,-6439.791695,-1455.581446
2347.152502,-740.205942,-7550.100608,-1225.752797
2347.152830,0.000000,-9622.677246,-1225.752797
2347.153157,962.267725,-11769.274478,-383.047749
2347.153484,444.123565,-13397.727550,-689.485948
2347.153812,-592.164754,-13915.871710,-919.314598
2347.154139,-2072.576638,-13101.645173,-1302.362347
2347.154466,-2664.741391,-12361.439231,-1915.238745
2347.154794,-2886.803174,-11251.130318,-1378.971896
2347.155121,-3034.844362,-9918.759623,-766.095498
2347.155448,-4145.153275,-7550.100608,842.705048
2347.155776,-4441.235652,-5995.668130,1225.752797
2347.156103,-4885.359217,-5773.606348,306.438199
2347.156430,-5477.523971,-6069.688724,-306.438199
2347.156758,-4145.153275,-7179.997637,-1072.533697
2347.157085,-1332.370696,-8438.347739,-1455.581446
2347.157412,740.205942,-9844.739029,-1072.533697
2347.157740,740.205942,-12139.377449,536.266849
2347.158067,1110.308913,-13397.727550,1608.800546
2347.158394,888.247130,-12435.459826,0.000000
2347.158722,-296.082377,-12657.521608,-1302.362347
2347.159049,-1924.535449,-11399.171507,-1838.629195
2347.159376,-2368.659014,-8660.409521,-1838.629195
2347.159704,-2664.741391,-7476.080014,-459.657299
2347.160031,-3108.864956,-6809.894666,383.047749
2347.160358,-2146.597232,-6513.812290,0.000000
2347.160686,-1332.370696,-6661.853478,0.000000
2347.161013,666.185348,-7105.977043,306.438199
2347.161340,3034.844362,-7846.182985,0.000000
2347.161668,4737.318029,-8364.327145,536.266849
2347.161995,5255.462188,-9844.739029,842.705048
2347.162322,6365.771101,-11029.068536,1532.190996
2347.162649,6883.915261,-12139.377449,0.000000
2347.162977,5847.626942,-13397.727550,0.000000
2347.163304,4663.297435,-13619.789333,-1455.581446
2347.163631,3034.844362,-12361.439231,-2451.505594
2347.163959,1924.535449,-11399.171507,-1915.238745
2347.164286,2220.617826,-10066.800811,-1838.629195
2347.164613,2294.638420,-8216.285956,0.000000
2347.164941,3182.885551,-7698.141797,842.705048
2347.165268,3775.050304,-7254.018232,2221.676944
2347.165595,4663.297435,-6809.894666,2451.505594
2347.165923,4589.276840,-6735.874072,1991.848295
2347.166250,4737.318029,-8216.285956,1762.019645
2347.166577,3552.988522,-10066.800811,919.314598
2347.166905,2442.679609,-11621.233289,0.000000
2347.167232,1702.473667,-13027.624579,-1532.190996
2347.167559,-148.041188,-14211.954086,-2298.286494
2347.167887,-962.267725,-14211.954086,-2528.115143
2347.168214,-1332.370696,-12805.562797,-1685.410096
2347.168541,-1258.350101,-10436.903782,-919.314598
2347.168869,-1776.494261,-8364.327145,229.828649
2347.169196,-1776.494261,-7031.956449,0.000000
2347.169523,-2442.679609,-5329.482782,2068.457845
2347.169851,-2442.679609,-5699.585753,2681.334243
2347.170178,-1776.494261,-6291.750507,2528.115143
2347.170505,-1184.329507,-7179.997637,1378.971896
2347.170833,-370.102971,-9474.636058,0.000000
2347.171160,-370.102971,-11029.068536,0.000000
2347.171487,-962.267725,-12435.459826,-536.266849
2347.171815,-1702.473667,-13027.624579,-1455.581446
2347.172142,-3108.864956,-12805.562797,-2221.676944
2347.172469,-3108.864956,-11843.295072,-2604.724693
2347.172797,-3552.988522,-10658.965565,-2374.896044
2347.173124,-4663.297435,-9400.615463,-689.485948
2347.173451,-4441.235652,-7698.141797,0.000000
2347.173779,-4959.379811,-6957.935855,383.047749
2347.174106,-4219.173869,-6809.894666,0.000000
2347.174433,-1924.535449,-8068.244768,-459.657299
2347.174761,-1480.411884,-7624.121203,0.000000
2347.175088,-148.041188,-8364.327145,459.657299
2347.175415,1480.411884,-9326.594869,-383.047749
2347.175743,2146.597232,-10881.027347,-1532.190996
2347.176070,1258.350101,-11325.150913,-1302.362347
2347.176397,1480.411884,-12879.583391,-1225.752797
2347.176724,518.144159,-13545.768739,-1915.238745
2347.177052,74.020594,-12213.398043,-2451.505594
2347.177379,740.205942,-11399.171507,-2451.505594
2347.177706,518.144159,-10066.800811,-1532.190996
2347.178034,888.247130,-8586.388927,229.828649
2347.178361,1258.350101,-7624.121203,229.828649
2347.178688,1554.432478,-7402.059420,536.266849
2347.179016,2072.576638,-7105.977043,919.314598
2347.179343,3182.885551,-7105.977043,1225.752797
2347.179670,3330.926739,-8734.430116,1455.581446
2347.179998,3182.885551,-10436.903782,842.705048
2347.180325,3330.926739,-10584.944971,306.438199
2347.180652,2442.679609,-10807.006753,-766.095498
2347.180980,2294.638420,-11621.233289,-766.095498
2347.181307,1998.556043,-12213.398043,-1225.752797
2347.181634,1850.514855,-11325.150913,-229.828649
2347.181962,2146.597232,-9474.636058,306.438199
2347.182289,1924.535449,-8068.244768,842.705048
2347.182616,1554.432478,-7550.100608,383.047749
2347.182944,2294.638420,-7328.038826,2145.067394
2347.183271,2072.576638,-6957.935855,1991.848295
2347.183598,2368.659014,-7476.080014,1915.238745
2347.183926,2812.782580,-9474.636058,1149.143247
2347.184253,2812.782580,-10436.903782,1378.971896
2347.184580,2294.638420,-9992.780217,1225.752797
2347.184908,2146.597232,-10658.965565,-536.266849
2347.185235,518.144159,-11843.295072,-1225.752797
2347.185562,0.000000,-12583.501014,-1608.800546
2347.185890,-370.102971,-10881.027347,-1838.629195
2347.186218,-1036.288319,-10066.800811,-1532.190996
2347.186545,-1480.411884,-10584.944971,-842.705048
2347.186873,-2368.659014,-9548.656652,0.000000
2347.187201,-2146.597232,-8956.491898,153.219100
2347.187528,-1628.453072,-8142.265362,229.828649
2347.187856,-888.247130,-9178.553681,0.000000
2347.188184,-888.247130,-9474.636058,229.828649
2347.188511,-962.267725,-8956.491898,1302.362347
2347.188839,-1258.350101,-8142.265362,383.047749
2347.189167,-1110.308913,-8438.347739,-1455.581446
2347.189494,-2294.638420,-10362.883188,-1149.143247
2347.189822,-3256.906145,-11029.068536,-1762.019645
2347.190150,-2960.823768,-11399.171507,-2374.896044
2347.190477,-2146.597232,-11769.274478,-2604.724693
2347.190805,-1332.370696,-11473.192101,-2145.067394
2347.191133,-1258.350101,-10510.924376,-842.705048
2347.191460,-1110.308913,-9622.677246,766.095498
2347.191788,-814.226536,-8586.388927,842.705048
2347.192116,-592.164754,-7179.997637,0.000000
2347.192443,-814.226536,-6809.894666,306.438199
2347.192771,-666.185348,-6883.915261,1608.800546
2347.193099,-592.164754,-8142.265362,1455.581446
2347.193426,-814.226536,-9622.677246,306.438199
2347.193754,-518.144159,-10362.883188,-1608.800546
2347.194082,-962.267725,-10658.965565,-2298.286494
2347.194409,74.020594,-11843.295072,-1915.238745
2347.194737,592.164754,-11547.212695,-919.314598
2347.195065,1702.473667,-10732.986159,-459.657299
2347.195392,1776.494261,-10362.883188,0.000000
2347.195720,2146.597232,-9696.697840,842.705048
2347.196048,2146.597232,-8216.285956,1072.533697
2347.196375,1554.432478,-7994.224174,995.924147
2347.196703,962.267725,-8512.368333,919.314598
2347.197031,1036.288319,-8438.347739,0.000000
2347.197358,1702.473667,-9844.739029,-306.438199
2347.197686,1924.535449,-10881.027347,-229.828649
2347.198014,3256.906145,-11029.068536,0.000000
2347.198341,3404.947333,-11103.089130,0.000000
2347.198669,2590.720797,-10732.986159,0.000000
2347.198997,2886.803174,-10658.965565,0.000000
2347.199324,2516.700203,-9622.677246,-306.438199
2347.199652,1924.535449,-8808.450710,306.438199
2347.199980,1184.329507,-9844.739029,229.828649
2347.200307,1332.370696,-10214.842000,0.000000
2347.200635,666.185348,-8956.491898,766.095498
2347.200963,518.144159,-9474.636058,-383.047749
2347.201290,740.205942,-9696.697840,0.000000
2347.201618,1480.411884,-9770.718434,-995.924147
2347.201946,962.267725,-8882.471304,229.828649
2347.202273,1036.288319,-8586.388927,0.000000
2347.202601,1628.453072,-9622.677246,-612.876398
2347.202929,1036.288319,-10140.821405,0.000000
2347.203256,296.082377,-9992.780217,0.000000
2347.203584,0.000000,-10807.006753,-153.219100
2347.203912,-148.041188,-10288.862594,0.000000
2347.204239,0.000000,-9474.636058,-536.266849
2347.204567,-888.247130,-9696.697840,-766.095498
2347.204895,-962.267725,-10288.862594,0.000000
2347.205222,-1110.308913,-9844.739029,0.000000
2347.205550,-1702.473667,-9622.677246,0.000000
2347.205878,-2590.720797,-7846.182985,-383.047749
2347.206205,-1850.514855,-7846.182985,153.219100
2347.206533,-2072.576638,-8956.491898,76.609550
2347.206861,-1850.514855,-9918.759623,76.609550
2347.207188,-1406.391290,-9992.780217,-383.047749
2347.207516,-1110.308913,-9918.759623,-919.314598
2347.207844,-1406.391290,-9474.636058,-1378.971896
2347.208171,-1332.370696,-10140.821405,-689.485948
2347.208499,-1258.350101,-9696.697840,-612.876398
2347.208827,-814.226536,-9474.636058,-612.876398
2347.209155,-592.164754,-9622.677246,-1072.533697
2347.209482,-1258.350101,-9326.594869,-306.438199
2347.209810,-1480.411884,-9696.697840,919.314598
2347.210138,-1554.432478,-9548.656652,0.000000
2347.210465,-1184.329507,-9548.656652,-612.876398
2347.210793,-296.082377,-9622.677246,-766.095498
2347.211121,444.123565,-10214.842000,-689.485948
2347.211448,666.185348,-10066.800811,153.219100
2347.211776,666.185348,-9400.615463,459.657299
2347.212104,222.061783,-8956.491898,-612.876398
2347.212431,518.144159,-9770.718434,-842.705048
2347.212759,666.185348,-9696.697840,-1072.533697
2347.213087,888.247130,-10214.842000,-229.828649
2347.213414,666.185348,-10066.800811,0.000000
2347.213742,814.226536,-10214.842000,-153.219100
2347.214070,518.144159,-10881.027347,0.000000
2347.214397,1036.288319,-10584.944971,0.000000
2347.214725,1850.514855,-9474.636058,0.000000
2347.215053,1924.535449,-8956.491898,229.828649
2347.215380,1776.494261,-8660.409521,306.438199
2347.215708,1850.514855,-7772.162391,459.657299
2347.216036,2294.638420,-8364.327145,229.828649
2347.216363,1850.514855,-9622.677246,0.000000
2347.216691,2368.659014,-10510.924376,-536.266849
2347.217019,2960.823768,-9918.759623,-612.876398
2347.217346,3034.844362,-10658.965565,0.000000
2347.217674,3627.009116,-11399.171507,76.609550
2347.218002,3552.988522,-10881.027347,76.609550
2347.218329,2886.803174,-9770.718434,383.047749
2347.218657,1110.308913,-9548.656652,536.266849
2347.218985,814.226536,-9474.636058,0.000000
2347.219312,1332.370696,-8660.409521,383.047749
2347.219640,518.144159,-7994.224174,-306.438199
2347.219968,148.041188,-9178.553681,-842.705048
2347.220295,296.082377,-10955.047942,-306.438199
2347.220623,518.144159,-10362.883188,-383.047749
2347.220951,666.185348,-9326.594869,-1149.143247
2347.221278,592.164754,-10362.883188,-766.095498
2347.221606,518.144159,-10140.821405,153.219100
2347.221934,1036.288319,-9400.615463,689.485948
2347.222261,148.041188,-9474.636058,536.266849
2347.222589,-666.185348,-9474.636058,0.000000
2347.222917,-1998.556043,-9548.656652,-919.314598
2347.223244,-3627.009116,-9696.697840,-689.485948
2347.223572,-3404.947333,-9696.697840,-383.047749
2347.223900,-1998.556043,-9622.677246,-1149.143247
2347.224227,-1258.350101,-9844.739029,-1608.800546
2347.224555,-666.185348,-10510.924376,-1072.533697
2347.224883,0.000000,-9622.677246,76.609550
2347.225210,0.000000,-9474.636058,76.609550
2347.225538,-1258.350101,-8808.450710,0.000000
2347.225866,-1184.329507,-7994.224174,-306.438199
2347.226193,-740.205942,-8734.430116,0.000000
2347.226521,-888.247130,-10288.862594,-689.485948
2347.226849,-1628.453072,-10214.842000,-612.876398
2347.227176,-1850.514855,-10510.924376,-842.705048
2347.227504,-2146.597232,-10658.965565,-1072.533697
2347.227832,-1480.411884,-11695.253884,-919.314598
2347.228159,-518.144159,-10510.924376,-229.828649
2347.228487,0.000000,-9178.553681,0.000000
2347.228815,518.144159,-9178.553681,459.657299
2347.229142,814.226536,-8068.244768,842.705048
2347.229470,1036.288319,-7994.224174,842.705048
2347.229798,518.144159,-9104.533087,766.095498
2347.230125,740.205942,-9770.718434,-153.219100
2347.230453,1924.535449,-9770.718434,-919.314598
2347.230781,2294.638420,-10288.862594,-1225.752797
2347.231108,2146.597232,-10362.883188,-383.047749
2347.231436,2220.617826,-10658.965565,-229.828649
2347.231764,1850.514855,-10362.883188,0.000000
2347.232091,1702.473667,-10362.883188,0.000000
2347.232419,1776.494261,-9474.636058,0.000000
2347.232747,1850.514855,-8438.347739,0.000000
2347.233074,1998.556043,-8586.388927,536.266849
2347.233402,1850.514855,-9474.636058,459.657299
2347.233730,1998.556043,-9548.656652,383.047749
2347.234057,1554.432478,-9030.512492,-383.047749
2347.234385,1776.494261,-9104.533087,-995.924147
2347.234713,1850.514855,-9548.656652,-536.266849
2347.235040,2368.659014,-10066.800811,76.609550
2347.235368,2812.782580,-10288.862594,76.609550
2347.235696,1776.494261,-9992.780217,229.828649
2347.236023,1406.391290,-9696.697840,995.924147
2347.236351,444.123565,-9992.780217,612.876398
2347.236679,-296.082377,-9918.759623,76.609550
2347.237006,-370.102971,-9918.759623,-306.438199
2347.237334,-296.082377,-10066.800811,-1072.533697
2347.237662,74.020594,-10362.883188,-612.876398
2347.237989,74.020594,-9474.636058,0.000000
2347.238317,222.061783,-8660.409521,-383.047749
2347.238645,-296.082377,-9252.574275,-383.047749
2347.238972,0.000000,-10214.842000,-383.047749
2347.239300,666.185348,-9474.636058,-689.485948
2347.239628,740.205942,-9918.759623,0.000000
2347.239955,0.000000,-10955.047942,612.876398
2347.240283,-666.185348,-9844.739029,766.095498
2347.240611,-1110.308913,-9622.677246,0.000000
2347.240938,-2146.597232,-10066.800811,-153.219100
2347.241266,-1924.535449,-10140.821405,-306.438199
2347.241594,-1628.453072,-9918.759623,-689.485948
2347.241921,-2294.638420,-9104.533087,0.000000
2347.242249,-2072.576638,-8216.285956,-153.219100
2347.242577,-1258.350101,-8216.285956,-995.924147
2347.242904,-2072.576638,-8364.327145,-306.438199
2347.243232,-2220.617826,-9326.594869,-383.047749
2347.243560,-518.144159,-10140.821405,-1149.143247
2347.243888,444.123565,-10362.883188,-612.876398
2347.244215,1258.350101,-10066.800811,0.000000
2347.244543,814.226536,-10362.883188,842.705048
2347.244871,222.061783,-10510.924376,766.095498
2347.245198,148.041188,-9770.718434,-383.047749
2347.245526,0.000000,-9548.656652,-612.876398
2347.245854,-148.041188,-8808.450710,-766.095498
2347.246181,0.000000,-8734.430116,-536.266849
2347.246509,0.000000,-9696.697840,-306.438199
2347.246837,0.000000,-9918.759623,306.438199
2347.247164,814.226536,-9918.759623,-306.438199
2347.247492,1554.432478,-9770.718434,-842.705048
2347.247820,1332.370696,-9548.656652,-1149.143247
2347.248147,1850.514855,-9622.677246,0.000000
2347.248475,2442.679609,-9400.615463,0.000000
2347.248803,1776.494261,-9844.739029,536.266849
2347.249130,1258.350101,-10066.800811,995.924147
2347.249458,1036.288319,-9474.636058,76.609550
2347.249786,592.164754,-9844.739029,-1685.410096
2347.250113,148.041188,-10658.965565,-1149.143247
2347.250441,444.123565,-10881.027347,-1378.971896
2347.250769,888.247130,-10955.047942,-842.705048
2347.251096,1850.514855,-10066.800811,76.609550
2347.251424,2368.659014,-9622.677246,229.828649
2347.251752,2368.659014,-8142.265362,306.438199
2347.252079,2294.638420,-8364.327145,536.266849
2347.252407,2146.597232,-8660.409521,229.828649
2347.252735,1998.556043,-8882.471304,0.000000
2347.253062,814.226536,-9770.718434,76.609550
2347.253390,222.061783,-10436.903782,0.000000
2347.253718,-740.205942,-9992.780217,-229.828649
2347.254045,-888.247130,-10584.944971,-459.657299
2347.254373,-1184.329507,-10732.986159,-306.438199
2347.254701,-1406.391290,-9696.697840,-612.876398
2347.255028,-1036.288319,-9622.677246,0.000000
2347.255356,-518.144159,-9030.512492,229.828649
2347.255684,0.000000,-7698.141797,-766.095498
2347.256011,-444.123565,-7920.203579,-612.876398
2347.256339,-1036.288319,-8216.285956,-536.266849
2347.256667,-444.123565,-9326.594869,0.000000
2347.256994,444.123565,-10066.800811,-689.485948
2347.257322,592.164754,-10288.862594,-536.266849
2347.257650,1332.370696,-10807.006753,-689.485948
2347.257977,1628.453072,-11399.171507,-536.266849
2347.258305,888.247130,-10807.006753,229.828649
2347.258633,222.061783,-10362.883188,919.314598
2347.258960,0.000000,-9992.780217,383.047749
2347.259288,-444.123565,-9104.533087,0.000000
2347.259616,-518.144159,-8438.347739,0.000000
2347.259943,-740.205942,-8216.285956,-229.828649
2347.260271,-1332.370696,-8956.491898,-766.095498
2347.260599,-592.164754,-9548.656652,-995.924147
2347.260926,-222.061783,-9178.553681,-1072.533697
2347.261254,1036.288319,-9326.594869,0.000000
2347.261582,1184.329507,-9178.553681,0.000000
2347.261909,1406.391290,-9696.697840,76.609550
2347.262237,1110.308913,-10881.027347,919.314598
2347.262565,444.123565,-10140.821405,919.314598
2347.262892,-592.164754,-9104.533087,0.000000
2347.263220,-1184.329507,-9696.697840,536.266849
2347.263548,-1406.391290,-9844.739029,-383.047749
2347.263875,-518.144159,-9770.718434,-1072.533697
2347.264203,-222.061783,-10140.821405,-919.314598
2347.264531,370.102971,-9770.718434,-383.047749
2347.264858,1258.350101,-9104.533087,-612.876398
2347.265186,1480.411884,-8734.430116,-229.828649
2347.265514,1480.411884,-8808.450710,1149.143247
2347.265841,2368.659014,-9030.512492,76.609550
2347.266169,2368.659014,-9474.636058,153.219100
2347.266497,1036.288319,-10214.842000,766.095498
2347.266824,1036.288319,-10584.944971,383.047749
2347.267152,592.164754,-10658.965565,0.000000
2347.267480,-592.164754,-10955.047942,-1149.143247
2347.267807,-814.226536,-10881.027347,0.000000
2347.268135,-296.082377,-9918.759623,-612.876398
2347.268463,-222.061783,-9474.636058,-306.438199
2347.268790,370.102971,-9326.594869,-536.266849
2347.269118,1184.329507,-8512.368333,-995.924147
2347.269446,814.226536,-8438.347739,0.000000
2347.269773,1036.288319,-9622.677246,919.314598
2347.270101,1702.473667,-9474.636058,-919.314598
2347.270429,1702.473667,-9918.759623,0.000000
2347.270756,2072.576638,-10140.821405,0.000000
2347.271084,2072.576638,-10436.903782,0.000000
2347.271412,1406.391290,-10881.027347,0.000000
2347.271739,444.123565,-10584.944971,153.219100
2347.272067,-666.185348,-9622.677246,0.000000
2347.272395,-1258.350101,-9844.739029,-459.657299
2347.272722,-666.185348,-9548.656652,-919.314598
2347.273050,-888.247130,-8586.388927,-766.095498
2347.273378,-1258.350101,-8734.430116,-612.876398
2347.273705,-1184.329507,-9474.636058,153.219100
2347.274033,-148.041188,-8956.491898,76.609550
2347.274361,962.267725,-8734.430116,-459.657299
2347.274688,-222.061783,-8364.327145,0.000000
2347.275016,592.164754,-9104.533087,0.000000
2347.275344,962.267725,-10066.800811,153.219100
2347.275671,0.000000,-10214.842000,0.000000
2347.275999,-962.267725,-10066.800811,0.000000
2347.276327,-1554.432478,-10214.842000,0.000000
2347.276654,-1850.514855,-10436.903782,0.000000
2347.276982,-1332.370696,-10214.842000,-689.485948
2347.277310,-666.185348,-9918.759623,-1608.800546
2347.277638,-370.102971,-9770.718434,-995.924147
2347.277965,0.000000,-9400.615463,-306.438199
2347.278293,962.267725,-8586.388927,-229.828649
2347.278621,888.247130,-8512.368333,0.000000
2347.278948,370.102971,-8068.244768,612.876398
2347.279276,1258.350101,-8808.450710,-459.657299
2347.279604,1036.288319,-9548.656652,-306.438199
2347.279931,518.144159,-10955.047942,-612.876398
2347.280259,74.020594,-11473.192101,-459.657299
2347.280587,-518.144159,-11547.212695,-229.828649
2347.280914,-1110.308913,-11621.233289,-306.438199
2347.281242,74.020594,-11177.109724,-306.438199
2347.281570,518.144159,-9844.739029,-229.828649
2347.281897,0.000000,-9104.533087,1225.752797
2347.282225,296.082377,-8142.265362,536.266849
2347.282553,888.247130,-7328.038826,-383.047749
2347.282880,444.123565,-8216.285956,-459.657299
2347.283208,518.144159,-9104.533087,0.000000
2347.283536,1480.411884,-9474.636058,-76.609550
2347.283863,2886.803174,-10584.944971,-306.438199
2347.284191,3108.864956,-10066.800811,0.000000
2347.284519,2368.659014,-10584.944971,229.828649
2347.284846,2220.617826,-11029.068536,995.924147
2347.285174,1480.411884,-10436.903782,842.705048
2347.285502,296.082377,-9696.697840,229.828649
2347.285829,0.000000,-9030.512492,-766.095498
2347.286157,0.000000,-8734.430116,-383.047749
2347.286485,-370.102971,-8364.327145,-306.438199
2347.286812,-222.061783,-10066.800811,-689.485948
2347.287140,-370.102971,-10436.903782,-536.266849
2347.287467,222.061783,-9548.656652,-1072.533697
2347.287795,518.144159,-8956.491898,-1225.752797
2347.288123,962.267725,-9252.574275,-306.438199
2347.288450,1110.308913,-9548.656652,612.876398
2347.288778,962.267725,-9474.636058,612.876398
2347.289105,0.000000,-9844.739029,153.219100
2347.289433,-666.185348,-10066.800811,0.000000
2347.289760,-962.267725,-10066.800811,-612.876398
2347.290088,-1776.494261,-10807.006753,-689.485948
2347.290415,-1480.411884,-11399.171507,-1302.362347
2347.290743,-444.123565,-10510.924376,-2374.896044
2347.291070,-296.082377,-10584.944971,-1378.971896
2347.291398,370.102971,-10362.883188,-459.657299
2347.291725,1776.494261,-9104.533087,0.000000
2347.292053,1036.288319,-8734.430116,842.705048
2347.292381,444.123565,-9178.553681,1302.362347
2347.292708,1406.391290,-9030.512492,536.266849
2347.293036,74.020594,-9178.553681,842.705048
2347.293363,-1776.494261,-10066.800811,995.924147
2347.293691,-1850.514855,-9326.594869,459.657299
2347.294018,-2294.638420,-9992.780217,-689.485948
2347.294346,-2294.638420,-10881.027347,-766.095498
2347.294673,-1184.329507,-10362.883188,-383.047749
2347.295001,-148.041188,-9696.697840,0.000000
2347.295328,-444.123565,-9252.574275,383.047749
2347.295656,740.205942,-7846.182985,0.000000
2347.295983,518.144159,-7254.018232,0.000000
2347.296311,222.061783,-8290.306550,536.266849
2347.296639,888.247130,-8882.471304,306.438199
2347.296966,888.247130,-9474.636058,0.000000
2347.297294,1184.329507,-9474.636058,76.609550
2347.297621,962.267725,-10362.883188,-306.438199
2347.297949,740.205942,-10732.986159,0.000000
2347.298276,518.144159,-10140.821405,-1072.533697
2347.298604,740.205942,-10881.027347,-766.095498
2347.298931,1110.308913,-10807.006753,-612.876398
2347.299259,814.226536,-9622.677246,-383.047749
2347.299586,1184.329507,-8512.368333,0.000000
2347.299914,1110.308913,-9400.615463,229.828649
2347.300241,888.247130,-10140.821405,0.000000
2347.300569,1258.350101,-10066.800811,0.000000
2347.300897,1480.411884,-8882.471304,-842.705048
2347.301224,1184.329507,-9326.594869,-995.924147
2347.301552,2072.576638,-10288.862594,-689.485948
2347.301879,2072.576638,-9992.780217,-842.705048
2347.302207,592.164754,-9770.718434,0.000000
2347.302534,444.123565,-10214.842000,383.047749
2347.302862,814.226536,-10066.800811,-306.438199
2347.303189,-296.082377,-9622.677246,0.000000
2347.303517,0.000000,-10732.986159,-306.438199
2347.303844,148.041188,-10584.944971,0.000000
2347.304172,296.082377,-10066.800811,-842.705048
2347.304500,1628.453072,-9770.718434,-689.485948
2347.304827,1110.308913,-8808.450710,-1072.533697
2347.305155,1702.473667,-9030.512492,0.000000
2347.305482,1554.432478,-9400.615463,536.266849
2347.305810,888.247130,-8660.409521,0.000000
2347.306137,666.185348,-9178.553681,-536.266849
2347.306465,-444.123565,-10214.842000,153.219100
2347.306792,-1776.494261,-9474.636058,766.095498
2347.307120,-1628.453072,-9400.615463,689.485948
2347.307447,-1850.514855,-10214.842000,0.000000
2347.307775,-2072.576638,-9992.780217,-229.828649
2347.308102,-1332.370696,-9770.718434,459.657299
2347.308430,-1554.432478,-8586.388927,536.266849
2347.308758,-1332.370696,-8142.265362,76.609550
2347.309085,-444.123565,-7846.182985,-1225.752797
2347.309413,-370.102971,-8586.388927,-1685.410096
2347.309740,0.000000,-9770.718434,-612.876398
2347.310068,814.226536,-10658.965565,-383.047749
2347.310395,1184.329507,-10807.006753,-229.828649
2347.310723,1406.391290,-11473.192101,0.000000
2347.311050,1776.494261,-10955.047942,0.000000
2347.311378,888.247130,-10732.986159,0.000000
2347.311705,148.041188,-10955.047942,842.705048
2347.312033,-370.102971,-9918.759623,0.000000
2347.312360,-962.267725,-8956.491898,-459.657299
2347.312688,-962.267725,-8808.450710,-306.438199
2347.313016,-1184.329507,-8882.471304,-689.485948
2347.313343,-1110.308913,-9696.697840,-1225.752797
2347.313671,-370.102971,-10807.006753,-1455.581446
2347.313998,370.102971,-10066.800811,-1302.362347
2347.314326,1258.350101,-9770.718434,-1072.533697
2347.314653,1036.288319,-9326.594869,76.609550
2347.314981,1258.350101,-9696.697840,689.485948
2347.315308,1776.494261,-9844.739029,536.266849
2347.315636,1554.432478,-10362.883188,459.657299
2347.315963,962.267725,-9030.512492,919.314598
2347.316291,444.123565,-8956.491898,306.438199
2347.316618,-444.123565,-9326.594869,459.657299
2347.316946,-518.144159,-10140.821405,-306.438199
2347.317274,296.082377,-10066.800811,-995.924147
2347.317601,1480.411884,-10214.842000,-1225.752797
2347.317929,2072.576638,-9474.636058,-459.657299
2347.318256,3256.906145,-7994.224174,612.876398
2347.318584,3478.967927,-8734.430116,1455.581446
2347.318911,2368.659014,-9252.574275,1072.533697
2347.319239,1776.494261,-9178.553681,536.266849
2347.319566,1036.288319,-9104.533087,-229.828649
2347.319894,-222.061783,-9696.697840,76.609550
2347.320221,-592.164754,-10066.800811,-229.828649
2347.320549,-1480.411884,-10214.842000,-1149.143247
2347.320876,-2442.679609,-10881.027347,-689.485948
2347.321204,-1258.350101,-10658.965565,-383.047749
2347.321532,0.000000,-10436.903782,-1072.533697
2347.321859,0.000000,-9622.677246,-536.266849
2347.322187,740.205942,-8660.409521,0.000000
2347.322514,1406.391290,-8216.285956,-459.657299
2347.322842,1332.370696,-8734.430116,76.609550
2347.323169,1406.391290,-10066.800811,459.657299
2347.323497,1628.453072,-10584.944971,-536.266849
2347.323824,1332.370696,-10658.965565,-306.438199
2347.324152,888.247130,-10807.006753,-612.876398
2347.324479,592.164754,-10955.047942,-1072.533697
2347.324807,74.020594,-11547.212695,-153.219100
2347.325134,-666.185348,-10288.862594,229.828649
2347.325462,-888.247130,-8734.430116,689.485948
2347.325790,-1110.308913,-8216.285956,-306.438199
2347.326117,-1554.432478,-7920.203579,0.000000
2347.326445,-2146.597232,-7698.141797,-306.438199
2347.326772,-1776.494261,-8956.491898,-229.828649
2347.327100,-1406.391290,-9844.739029,-536.266849
2347.327427,74.020594,-8586.388927,-1302.362347
2347.327755,444.123565,-8586.388927,-689.485948
2347.328082,222.061783,-9844.739029,383.047749
2347.328410,1110.308913,-10732.986159,383.047749
2347.328737,1258.350101,-10510.924376,536.266849
2347.329065,888.247130,-10510.924376,919.314598
2347.329392,444.123565,-10140.821405,612.876398
2347.329720,-740.205942,-8882.471304,459.657299
2347.330048,-888.247130,-9326.594869,0.000000
2347.330375,-740.205942,-9178.553681,-1302.362347
2347.330703,-370.102971,-9622.677246,-1225.752797
2347.331030,0.000000,-9400.615463,-919.314598
2347.331358,814.226536,-8956.491898,-842.705048
2347.331685,1776.494261,-8734.430116,-919.314598
2347.332013,1924.535449,-9548.656652,0.000000
2347.332340,888.247130,-9992.780217,0.000000
2347.332668,1554.432478,-10436.903782,-689.485948
2347.332995,1258.350101,-10807.006753,-459.657299
2347.333323,518.144159,-10955.047942,153.219100
2347.333650,-148.041188,-10436.903782,76.609550
2347.333978,-592.164754,-10732.986159,0.000000
2347.334306,-962.267725,-10288.862594,306.438199
2347.334633,-296.082377,-9992.780217,-919.314598
2347.334961,-222.061783,-9030.512492,-536.266849
2347.335288,74.020594,-7846.182985,0.000000
2347.335616,814.226536,-7846.182985,-383.047749
2347.335943,1776.494261,-8734.430116,-306.438199
2347.336271,1258.350101,-9474.636058,76.609550
2347.336598,1554.432478,-9622.677246,766.095498
2347.336926,1776.494261,-10214.842000,0.000000
2347.337253,2220.617826,-10807.006753,-153.219100
2347.337581,1332.370696,-10584.944971,0.000000
2347.337908,444.123565,-10732.986159,153.219100
2347.338236,-296.082377,-10510.924376,612.876398
2347.338564,0.000000,-9844.739029,76.609550
2347.338891,-518.144159,-8956.491898,-229.828649
2347.339219,-740.205942,-8364.327145,-766.095498
2347.339546,-296.082377,-8660.409521,-612.876398
2347.339874,0.000000,-9252.574275,-919.314598
2347.340201,74.020594,-10288.862594,-536.266849
2347.340529,814.226536,-10510.924376,0.000000
2347.340856,1998.556043,-9696.697840,0.000000
2347.341184,1776.494261,-9400.615463,-153.219100
2347.341511,1702.473667,-10140.821405,0.000000
2347.341839,1036.288319,-10066.800811,459.657299
2347.342167,518.144159,-10140.821405,383.047749
2347.342494,-814.226536,-10436.903782,459.657299
2347.342822,-1184.329507,-9918.759623,0.000000
2347.343149,-1406.391290,-9326.594869,-919.314598
2347.343477,-1924.535449,-10066.800811,-1762.019645
2347.343804,-1924.535449,-10066.800811,-1532.190996
2347.344132,0.000000,-9844.739029,-1072.533697
2347.344459,1184.329507,-9548.656652,76.609550
2347.344787,1924.535449,-9178.553681,612.876398
2347.345114,2072.576638,-8364.327145,459.657299
2347.345442,962.267725,-8882.471304,689.485948
2347.345769,296.082377,-9770.718434,536.266849
2347.346097,74.020594,-9696.697840,76.609550
2347.346425,-518.144159,-10214.842000,-536.266849
2347.346752,-1406.391290,-10658.965565,-536.266849
2347.347080,-2368.659014,-11029.068536,-612.876398
2347.347407,-2368.659014,-11177.109724,-689.485948
2347.347735,-1924.535449,-10140.821405,-766.095498
2347.348062,-888.247130,-8956.491898,-689.485948
2347.348390,0.000000,-7624.121203,76.609550
2347.348717,222.061783,-7254.018232,995.924147
2347.349045,1184.329507,-6957.935855,995.924147
2347.349372,1406.391290,-7994.224174,0.000000
2347.349700,962.267725,-9474.636058,0.000000
2347.350027,888.247130,-10436.903782,-229.828649
2347.350355,1850.514855,-10807.006753,-1378.971896
2347.350683,2072.576638,-11843.295072,-1302.362347
2347.351010,1258.350101,-12065.356855,-383.047749
2347.351338,1554.432478,-12213.398043,0.000000
2347.351665,1036.288319,-11177.109724,229.828649
2347.351993,740.205942,-9918.759623,689.485948
2347.352320,296.082377,-8216.285956,306.438199
2347.352648,518.144159,-7254.018232,0.000000
2347.352975,-222.061783,-6883.915261,-153.219100
2347.353303,518.144159,-8290.306550,-536.266849
2347.353630,814.226536,-9474.636058,-536.266849
2347.353958,1110.308913,-10066.800811,-459.657299
2347.354285,1258.350101,-10066.800811,-1225.752797
2347.354613,1554.432478,-11251.130318,-1455.581446
2347.354941,1480.411884,-11621.233289,-383.047749
2347.355268,1406.391290,-11695.253884,-153.219100
2347.355596,962.267725,-10436.903782,153.219100
2347.355923,0.000000,-10140.821405,459.657299
2347.356251,-962.267725,-9030.512492,536.266849
2347.356578,-1480.411884,-8364.327145,0.000000
2347.356906,-1628.453072,-8512.368333,-383.047749
2347.357233,-740.205942,-8956.491898,-1685.410096
2347.357561,666.185348,-9326.594869,-919.314598
2347.357888,888.247130,-8882.471304,306.438199
2347.358216,1554.432478,-8290.306550,383.047749
2347.358543,1776.494261,-9474.636058,0.000000
2347.358871,1184.329507,-10658.965565,0.000000
2347.359199,666.185348,-10362.883188,153.219100
2347.359526,370.102971,-9474.636058,-76.609550
2347.359854,296.082377,-10807.006753,306.438199
2347.360181,-2072.576638,-9918.759623,689.485948
2347.360509,-1850.514855,-10140.821405,-229.828649
2347.360836,-2442.679609,-10510.924376,-1532.190996
2347.361164,-1924.535449,-10362.883188,-995.924147
2347.361491,-740.205942,-7994.224174,-919.314598
2347.361819,0.000000,-7328.038826,-383.047749
2347.362146,740.205942,-8734.430116,536.266849
2347.362474,1850.514855,-8216.285956,0.000000
2347.362801,1702.473667,-9178.553681,0.000000
2347.363129,814.226536,-10881.027347,306.438199
2347.363457,888.247130,-10732.986159,153.219100
2347.363784,814.226536,-10288.862594,-612.876398
2347.364112,0.000000,-11325.150913,-536.266849
2347.364439,518.144159,-11843.295072,-1225.752797
2347.364767,0.000000,-10955.047942,-1149.143247
2347.365094,-444.123565,-10214.842000,-306.438199
2347.365422,-740.205942,-10140.821405,-459.657299
2347.365749,-222.061783,-9252.574275,-766.095498
2347.366077,222.061783,-8142.265362,-536.266849
2347.366404,0.000000,-7846.182985,76.609550
2347.366732,666.185348,-8660.409521,383.047749
2347.367059,1480.411884,-9252.574275,536.266849
2347.367387,2146.597232,-9474.636058,842.705048
2347.367715,1850.514855,-9252.574275,229.828649
2347.368042,740.205942,-9548.656652,229.828649
2347.368370,0.000000,-10362.883188,76.609550
2347.368697,-370.102971,-10510.924376,-612.876398
2347.369025,-370.102971,-11177.109724,-459.657299
2347.369352,-296.082377,-9474.636058,0.000000
2347.369680,-592.164754,-9474.636058,0.000000
2347.370007,-740.205942,-9918.759623,0.000000
2347.370335,-296.082377,-9696.697840,-536.266849
2347.370662,296.082377,-9400.615463,-536.266849
2347.370990,1628.453072,-9030.512492,-766.095498
2347.371317,1924.535449,-8290.306550,-153.219100
2347.371645,1628.453072,-7772.162391,612.876398
2347.371973,1628.453072,-8808.450710,612.876398
2347.372300,592.164754,-9770.718434,536.266849
2347.372628,222.061783,-9548.656652,-689.485948
2347.372955,296.082377,-10288.862594,-1762.019645
2347.373283,-666.185348,-11621.233289,-1225.752797
2347.373610,-962.267725,-11547.212695,-536.266849
2347.373938,-740.205942,-11251.130318,-459.657299
2347.374265,-444.123565,-11325.150913,-689.485948
2347.374593,74.020594,-9844.739029,0.000000
2347.374920,888.247130,-9030.512492,0.000000
2347.375248,1258.350101,-8956.491898,536.266849
2347.375576,1258.350101,-8068.244768,76.609550
2347.375903,1776.494261,-8290.306550,0.000000
2347.376231,0.000000,-9622.677246,-306.438199
2347.376558,-592.164754,-10214.842000,-229.828649
2347.376886,-222.061783,-9696.697840,-995.924147
2347.377213,-296.082377,-10881.027347,-919.314598
2347.377541,0.000000,-11621.233289,-153.219100
2347.377868,740.205942,-10955.047942,153.219100
2347.378196,148.041188,-10214.842000,766.095498
2347.378523,148.041188,-9622.677246,689.485948
2347.378851,74.020594,-8290.306550,612.876398
2347.379178,-222.061783,-7476.080014,229.828649
2347.379506,-444.123565,-7328.038826,536.266849
2347.379834,0.000000,-7846.182985,0.000000
2347.380161,-370.102971,-9178.553681,153.219100
2347.380489,222.061783,-9992.780217,0.000000
2347.380816,740.205942,-9548.656652,-1915.238745
2347.381144,-74.020594,-9178.553681,-842.705048
2347.381471,222.061783,-10584.944971,0.000000
2347.381799,814.226536,-10436.903782,153.219100
2347.382126,1406.391290,-10066.800811,459.657299
2347.382454,592.164754,-9252.574275,689.485948
2347.382781,-222.061783,-8660.409521,842.705048
2347.383109,-518.144159,-8808.450710,76.609550
2347.383436,-1110.308913,-9622.677246,-612.876398
2347.383764,0.000000,-10288.862594,-1455.581446
2347.384092,592.164754,-10807.006753,-1915.238745
2347.384419,1850.514855,-10732.986159,-1532.190996
2347.384747,2590.720797,-9992.780217,-383.047749
2347.385074,2886.803174,-9622.677246,-995.924147
2347.385402,888.247130,-10288.862594,76.609550
2347.385729,518.144159,-10658.965565,0.000000
2347.386057,740.205942,-9474.636058,-306.438199
2347.386384,296.082377,-9844.739029,-306.438199
2347.386712,-592.164754,-9770.718434,383.047749
2347.387039,-888.247130,-10362.883188,76.609550
2347.387367,-1036.288319,-11029.068536,0.000000
2347.387694,-1184.329507,-10807.006753,-842.705048
2347.388022,0.000000,-9918.759623,-1838.629195
2347.388350,962.267725,-9622.677246,-995.924147
2347.388677,1332.370696,-9178.553681,229.828649
2347.389005,1776.494261,-8512.368333,536.266849
2347.389332,1924.535449,-8364.327145,612.876398
2347.389660,962.267725,-9474.636058,919.314598
2347.389987,222.061783,-8808.450710,536.266849
2347.390315,0.000000,-8512.368333,-153.219100
2347.390642,-518.144159,-9770.718434,0.000000
2347.390970,-370.102971,-10510.924376,229.828649
2347.391297,-444.123565,-10140.821405,459.657299
2347.391625,-296.082377,-9918.759623,306.438199
2347.391952,0.000000,-9622.677246,-612.876398
2347.392280,-296.082377,-8438.347739,0.000000
2347.392607,148.041188,-8364.327145,-229.828649
2347.392935,888.247130,-8512.368333,-229.828649
2347.393263,1554.432478,-9696.697840,-383.047749
2347.393590,740.205942,-10510.924376,76.609550
2347.393918,1036.288319,-10362.883188,0.000000
2347.394245,518.144159,-9252.574275,-766.095498
2347.394573,74.020594,-9696.697840,-1455.581446
2347.394900,0.000000,-10881.027347,-1225.752797
2347.395228,148.041188,-10584.944971,-536.266849
2347.395555,0.000000,-10288.862594,229.828649
2347.395883,-444.123565,-9918.759623,0.000000
2347.396210,-666.185348,-9696.697840,229.828649
2347.396538,-1332.370696,-9400.615463,-153.219100
2347.396865,-1702.473667,-9696.697840,-842.705048
2347.397193,-1036.288319,-10436.903782,-1149.143247
2347.397521,666.185348,-10066.800811,-1072.533697
2347.397848,1554.432478,-9548.656652,-536.266849
2347.398176,1184.329507,-9474.636058,153.219100
2347.398503,1110.308913,-9696.697840,0.000000
2347.398831,592.164754,-10732.986159,0.000000
2347.399158,222.061783,-9548.656652,0.000000
2347.399486,0.000000,-9474.636058,-1072.533697
2347.399813,0.000000,-9622.677246,306.438199
2347.400141,-740.205942,-9252.574275,1149.143247
2347.400468,-814.226536,-9992.780217,919.314598
2347.400796,-444.123565,-9918.759623,0.000000
2347.401123,-296.082377,-9252.574275,-306.438199
2347.401451,444.123565,-8586.388927,-383.047749
2347.401778,888.247130,-7772.162391,153.219100
2347.402106,1258.350101,-7994.224174,229.828649
2347.402434,1850.514855,-8290.306550,0.000000
2347.402761,1258.350101,-9104.533087,0.000000
2347.403089,1110.308913,-10362.883188,0.000000
2347.403416,1036.288319,-9918.759623,76.609550
2347.403744,518.144159,-9622.677246,-536.266849
2347.404071,0.000000,-11029.068536,0.000000
2347.404399,888.247130,-10955.047942,0.000000
2347.404726,1406.391290,-10362.883188,0.000000
2347.405054,1036.288319,-10214.842000,306.438199
2347.405381,666.185348,-8660.409521,0.000000
2347.405709,814.226536,-8068.244768,-919.314598
2347.406036,1776.494261,-8956.491898,-1149.143247
2347.406364,1258.350101,-9548.656652,-1149.143247
2347.406692,1554.432478,-10436.903782,-995.924147
2347.407019,1332.370696,-11103.089130,-459.657299
2347.407347,1406.391290,-11325.150913,-995.924147
2347.407674,1258.350101,-10658.965565,-459.657299
2347.408002,592.164754,-9918.759623,-153.219100
2347.408329,370.102971,-9918.759623,-459.657299
2347.408657,222.061783,-10288.862594,536.266849
2347.408984,0.000000,-9474.636058,306.438199
2347.409312,-1480.411884,-8216.285956,76.609550
2347.409639,-2220.617826,-8290.306550,0.000000
2347.409967,-3182.885551,-8586.388927,0.000000
2347.410294,-2886.803174,-8882.471304,-1991.848295
2347.410622,-1036.288319,-9770.718434,-1685.410096
2347.410949,370.102971,-9622.677246,-1378.971896
2347.411277,1628.453072,-9770.718434,-306.438199
2347.411605,2220.617826,-9474.636058,995.924147
2347.411932,1332.370696,-9400.615463,1378.971896
2347.412260,666.185348,-9844.739029,306.438199
2347.412587,444.123565,-8438.347739,459.657299
2347.412915,-592.164754,-8142.265362,612.876398
2347.413242,-1184.329507,-8808.450710,153.219100
2347.413570,-1850.514855,-9622.677246,306.438199
2347.413897,-1776.494261,-9992.780217,-383.047749
2347.414225,-1998.556043,-10140.821405,-995.924147
2347.414552,-666.185348,-10436.903782,-1378.971896
2347.414880,148.041188,-10436.903782,-612.876398
2347.415207,518.144159,-8586.388927,-383.047749
2347.415535,1850.514855,-9474.636058,-306.438199
2347.415863,1480.411884,-9474.636058,0.000000
2347.416190,1036.288319,-9770.718434,306.438199
2347.416518,444.123565,-10436.903782,383.047749
2347.416845,148.041188,-9844.739029,-842.705048
2347.417173,0.000000,-10584.944971,-689.485948
2347.417500,-444.123565,-11103.089130,-919.314598
2347.417828,444.123565,-11325.150913,-1378.971896
2347.418155,888.247130,-10807.006753,-995.924147
2347.418483,814.226536,-9844.739029,0.000000
2347.418810,962.267725,-9548.656652,612.876398
2347.419138,1258.350101,-8882.471304,153.219100
2347.419465,1110.308913,-8290.306550,-459.657299
2347.419793,814.226536,-8512.368333,-153.219100
2347.420120,1110.308913,-9400.615463,-383.047749
2347.420448,888.247130,-10140.821405,76.609550
2347.420776,370.102971,-9622.677246,0.000000
2347.421103,-518.144159,-9770.718434,-766.095498
2347.421431,-1110.308913,-10510.924376,-459.657299
2347.421758,-444.123565,-10510.924376,-383.047749
2347.422086,0.000000,-9400.615463,0.000000
2347.422413,518.144159,-9400.615463,306.438199
2347.422741,0.000000,-8364.327145,766.095498
2347.423068,-592.164754,-8438.347739,1072.533697
2347.423396,-666.185348,-8956.491898,383.047749
2347.423723,296.082377,-9770.718434,-612.876398
2347.424051,1332.370696,-9326.594869,-995.924147
2347.424378,1776.494261,-9326.594869,-306.438199
2347.424706,2294.638420,-9918.759623,459.657299
2347.425034,2368.659014,-9474.636058,306.438199
2347.425361,1258.350101,-9474.636058,536.266849
2347.425689,592.164754,-10955.047942,0.000000
2347.426016,444.123565,-10214.842000,-306.438199
2347.426344,444.123565,-9696.697840,-306.438199
2347.426671,0.000000,-9696.697840,-919.314598
2347.426999,-740.205942,-10214.842000,0.000000
2347.427326,-814.226536,-10066.800811,76.609550
2347.427654,-740.205942,-9474.636058,-229.828649
2347.427981,-370.102971,-9622.677246,-766.095498
2347.428309,222.061783,-9770.718434,-919.314598
2347.428636,814.226536,-9326.594869,-1149.143247
2347.428964,592.164754,-9918.759623,-536.266849
2347.429291,222.061783,-9770.718434,-383.047749
2347.429619,74.020594,-10140.821405,76.609550
2347.429947,-222.061783,-9992.780217,229.828649
2347.430274,-296.082377,-10140.821405,-383.047749
2347.430602,0.000000,-10807.006753,-383.047749
2347.430929,74.020594,-10436.903782,306.438199
2347.431257,740.205942,-9992.780217,0.000000
2347.431584,222.061783,-8734.430116,153.219100
2347.431912,0.000000,-8068.244768,766.095498
2347.432239,222.061783,-8290.306550,612.876398
2347.432567,888.247130,-8808.450710,-306.438199
2347.432894,1258.350101,-9178.553681,-1072.533697
2347.433222,740.205942,-9770.718434,0.000000
2347.433549,888.247130,-10584.944971,1072.533697
2347.433877,1332.370696,-10732.986159,995.924147
2347.434205,888.247130,-9474.636058,0.000000
2347.434532,0.000000,-9844.739029,-306.438199
2347.434860,-592.164754,-10510.924376,76.609550
2347.435187,296.082377,-9474.636058,153.219100
2347.435515,296.082377,-8142.265362,-459.657299
2347.435842,-370.102971,-8068.244768,383.047749
2347.436170,-592.164754,-8216.285956,0.000000
2347.436497,-592.164754,-9178.553681,-612.876398
2347.436825,-370.102971,-10584.944971,-919.314598
2347.437152,1184.329507,-11029.068536,-1455.581446
2347.437480,1776.494261,-11029.068536,-1455.581446
2347.437807,2146.597232,-11547.212695,-153.219100
2347.438135,2738.761985,-10362.883188,229.828649
2347.438462,1998.556043,-10140.821405,0.000000
2347.438790,0.000000,-10584.944971,229.828649
2347.439118,-592.164754,-10214.842000,-306.438199
2347.439445,-74.020594,-9030.512492,-995.924147
2347.439773,-888.247130,-9178.553681,-1072.533697
2347.440100,-1702.473667,-9696.697840,-153.219100
2347.440428,-1406.391290,-10214.842000,306.438199
2347.440755,-814.226536,-10436.903782,0.000000
2347.441083,148.041188,-9844.739029,-689.485948
2347.441410,740.205942,-9622.677246,-536.266849
2347.441738,888.247130,-9474.636058,229.828649
2347.442065,1480.411884,-9252.574275,306.438199
2347.442393,1258.350101,-9252.574275,0.000000
2347.442720,-148.041188,-8882.471304,383.047749
2347.443048,-148.041188,-9252.574275,536.266849
2347.443376,-1184.329507,-9104.533087,0.000000
2347.443703,-1036.288319,-9992.780217,-1225.752797
2347.444031,0.000000,-10658.965565,-1685.410096
2347.444358,0.000000,-10732.986159,-842.705048
2347.444686,962.267725,-9844.739029,383.047749
2347.445013,1554.432478,-8734.430116,1455.581446
2347.445341,1554.432478,-8216.285956,1225.752797
2347.445668,888.247130,-8142.265362,1225.752797
2347.445996,1184.329507,-8438.347739,306.438199
2347.446323,740.205942,-8882.471304,0.000000
2347.446651,222.061783,-9844.739029,0.000000
2347.446978,-296.082377,-10140.821405,-229.828649
2347.447306,-296.082377,-10362.883188,-766.095498
2347.447633,-592.164754,-10881.027347,-1608.800546
2347.447961,-296.082377,-10658.965565,-1225.752797
2347.448289,0.000000,-10214.842000,-612.876398
2347.448616,740.205942,-9770.718434,-229.828649
2347.448944,1110.308913,-9252.574275,76.609550
2347.449271,962.267725,-7994.224174,306.438199
2347.449599,592.164754,-7920.203579,766.095498
2347.449926,518.144159,-9104.533087,459.657299
2347.450254,0.000000,-9844.739029,-459.657299
2347.450581,1110.308913,-10214.842000,-1378.971896
2347.450909,1332.370696,-11103.089130,-1225.752797
2347.451236,1036.288319,-10881.027347,-612.876398
2347.451564,1036.288319,-10732.986159,-383.047749
2347.451891,222.061783,-10584.944971,-229.828649
2347.452219,0.000000,-10955.047942,-383.047749
2347.452547,-370.102971,-9474.636058,-689.485948
2347.452874,0.000000,-8882.471304,-459.657299
2347.453202,-518.144159,-8956.491898,612.876398
2347.453529,-740.205942,-9104.533087,842.705048
2347.453857,-1628.453072,-8808.450710,0.000000
2347.454184,-1480.411884,-9104.533087,0.000000
2347.454512,-1480.411884,-9474.636058,-919.314598
2347.454839,148.041188,-9918.759623,-1225.752797
2347.455167,518.144159,-8734.430116,-612.876398
2347.455494,74.020594,-9252.574275,0.000000
2347.455822,666.185348,-10362.883188,0.000000
2347.456149,518.144159,-9696.697840,-306.438199
2347.456477,666.185348,-9474.636058,153.219100
2347.456804,0.000000,-9696.697840,689.485948
2347.457132,296.082377,-9918.759623,-689.485948
2347.457460,592.164754,-10140.821405,-689.485948
2347.457787,222.061783,-9770.718434,-153.219100
2347.458115,814.226536,-9770.718434,76.609550
2347.458442,2072.576638,-9622.677246,0.000000
2347.458770,1776.494261,-9474.636058,536.266849
2347.459097,1258.350101,-9696.697840,0.000000
2347.459425,1258.350101,-9696.697840,-689.485948
2347.459752,592.164754,-10140.821405,-689.485948
2347.460080,-518.144159,-10214.842000,-459.657299
2347.460407,-296.082377,-10362.883188,-383.047749
2347.460735,370.102971,-9844.739029,-689.485948
2347.461062,-296.082377,-10436.903782,383.047749
2347.461390,74.020594,-9844.739029,229.828649
2347.461718,-370.102971,-8808.450710,76.609550
2347.462045,-222.061783,-9326.594869,153.219100
2347.462373,0.000000,-8734.430116,-306.438199
2347.462700,222.061783,-8660.409521,-383.047749
2347.463028,0.000000,-9252.574275,0.000000
2347.463355,0.000000,-9474.636058,919.314598
2347.463683,444.123565,-10436.903782,-229.828649
2347.464010,444.123565,-10436.903782,-612.876398
2347.464338,814.226536,-10658.965565,-842.705048
2347.464665,1036.288319,-10658.965565,-306.438199
2347.464993,962.267725,-9770.718434,383.047749
2347.465320,666.185348,-8808.450710,383.047749
2347.465648,148.041188,-9400.615463,1378.971896
2347.465975,74.020594,-8512.368333,229.828649
2347.466303,74.020594,-8586.388927,-229.828649
2347.466631,0.000000,-9770.718434,-612.876398
2347.466958,-444.123565,-10658.965565,-612.876398
2347.467286,222.061783,-10732.986159,-612.876398
2347.467613,1036.288319,-10807.006753,-1149.143247
2347.467941,1036.288319,-10510.924376,0.000000
2347.468268,1554.432478,-9770.718434,76.609550
2347.468596,1110.308913,-9400.615463,0.000000
2347.468923,592.164754,-9622.677246,-306.438199
2347.469251,444.123565,-9474.636058,-766.095498
2347.469578,0.000000,-9326.594869,-612.876398
2347.469906,-592.164754,-9178.553681,0.000000
2347.470233,0.000000,-9992.780217,-842.705048
2347.470561,444.123565,-10807.006753,-1378.971896
2347.470889,888.247130,-10732.986159,-995.924147
2347.471216,1554.432478,-10288.862594,-536.266849
2347.471544,1628.453072,-9844.739029,153.219100
2347.471871,1776.494261,-9622.677246,842.705048
2347.472199,1184.329507,-9400.615463,1072.533697
2347.472526,740.205942,-8586.388927,459.657299
2347.472854,370.102971,-9400.615463,-383.047749
2347.473181,-444.123565,-10066.800811,-153.219100
2347.473509,-962.267725,-9992.780217,-153.219100
2347.473836,-1332.370696,-9992.780217,-459.657299
2347.474164,-1184.329507,-9844.739029,-766.095498
2347.474491,-1110.308913,-9400.615463,-153.219100
2347.474819,-1110.308913,-9326.594869,536.266849
2347.475146,-740.205942,-8660.409521,1455.581446
2347.475474,666.185348,-8068.244768,306.438199
2347.475802,1110.308913,-8216.285956,0.000000
2347.476129,444.123565,-8808.450710,383.047749
2347.476457,-148.041188,-9844.739029,689.485948
2347.476784,0.000000,-9696.697840,-689.485948
2347.477112,0.000000,-10140.821405,-612.876398
2347.477439,296.082377,-11029.068536,-1838.629195
2347.477767,518.144159,-11695.253884,-1608.800546
2347.478094,1480.411884,-11325.150913,-383.047749
2347.478422,1776.494261,-9696.697840,0.000000
2347.478749,370.102971,-9252.574275,306.438199
2347.479077,-518.144159,-8956.491898,306.438199
2347.479404,0.000000,-7476.080014,76.609550
2347.479732,-518.144159,-8290.306550,-383.047749
2347.480060,-1258.350101,-9104.533087,-383.047749
2347.480387,-1036.288319,-10288.862594,-306.438199
2347.480715,-666.185348,-10881.027347,-842.705048
2347.481042,74.020594,-10955.047942,-1072.533697
2347.481370,518.144159,-11251.130318,-1225.752797
2347.481697,814.226536,-10140.821405,-1072.533697
2347.482025,1184.329507,-10362.883188,-842.705048
2347.482352,1480.411884,-10214.842000,0.000000
2347.482680,1184.329507,-8956.491898,383.047749
2347.483007,592.164754,-8438.347739,1225.752797
2347.483335,0.000000,-8586.388927,1225.752797
2347.483662,-148.041188,-8734.430116,153.219100
2347.483990,592.164754,-8586.388927,-689.485948
2347.484318,888.247130,-10066.800811,0.000000
2347.484645,1110.308913,-9474.636058,153.219100
2347.484973,1850.514855,-9326.594869,0.000000
2347.485300,1554.432478,-9474.636058,459.657299
2347.485628,1332.370696,-10807.006753,842.705048
2347.485955,2072.576638,-10214.842000,-306.438199
2347.486283,888.247130,-9474.636058,0.000000
2347.486610,0.000000,-9992.780217,0.000000
2347.486938,-148.041188,-9992.780217,229.828649
2347.487266,-518.144159,-9326.594869,-153.219100
2347.487593,-1480.411884,-8882.471304,-306.438199
2347.487921,-1554.432478,-9474.636058,-612.876398
2347.488249,148.041188,-9474.636058,-995.924147
2347.488576,1036.288319,-8808.450710,-229.828649
2347.488904,740.205942,-8660.409521,0.000000
2347.489231,1480.411884,-9770.718434,0.000000
2347.489559,1702.473667,-10288.862594,76.609550
2347.489887,1406.391290,-10807.006753,0.000000
2347.490214,1332.370696,-11473.192101,-766.095498
2347.490542,1554.432478,-11399.171507,-995.924147
2347.490869,1184.329507,-11917.315666,-689.485948
2347.491197,666.185348,-11547.212695,-306.438199
2347.491524,370.102971,-9474.636058,-383.047749
2347.491852,-148.041188,-9474.636058,-459.657299
2347.492180,-1258.350101,-9622.677246,153.219100
2347.492507,-1332.370696,-8660.409521,-536.266849
2347.492835,-814.226536,-7624.121203,-1225.752797
2347.493162,-1554.432478,-7994.224174,0.000000
2347.493490,-1924.535449,-8734.430116,995.924147
2347.493818,-888.247130,-9474.636058,0.000000
2347.494145,-592.164754,-9992.780217,0.000000
2347.494473,-222.061783,-10955.047942,-306.438199
2347.494800,370.102971,-10732.986159,-383.047749
2347.495128,222.061783,-9178.553681,0.000000
2347.495455,74.020594,-9696.697840,0.000000
2347.495783,222.061783,-9252.574275,-383.047749
2347.496111,148.041188,-8808.450710,0.000000
2347.496438,-518.144159,-8586.388927,689.485948
2347.496766,0.000000,-8734.430116,459.657299
2347.497093,148.041188,-9030.512492,-229.828649
2347.497421,1184.329507,-9474.636058,0.000000
2347.497749,888.247130,-9992.780217,229.828649
2347.498076,2072.576638,-10510.924376,612.876398
2347.498404,2146.597232,-9696.697840,536.266849
2347.498731,1628.453072,-9918.759623,229.828649
2347.499059,666.185348,-10066.800811,0.000000
2347.499386,518.144159,-10584.944971,-995.924147
2347.499714,222.061783,-10510.924376,-229.828649
2347.500042,148.041188,-11251.130318,-689.485948
2347.500369,-1036.288319,-10436.903782,-995.924147
2347.500697,-296.082377,-10732.986159,-995.924147
2347.501024,0.000000,-10066.800811,-536.266849
2347.501352,222.061783,-9474.636058,-459.657299
2347.501680,888.247130,-8364.327145,229.828649
2347.502007,1406.391290,-8364.327145,995.924147
2347.502335,814.226536,-8216.285956,1532.190996
2347.502662,1776.494261,-8956.491898,76.609550
2347.502990,962.267725,-9696.697840,-919.314598
2347.503318,148.041188,-10436.903782,-306.438199
2347.503645,0.000000,-11399.171507,-689.485948
2347.503973,148.041188,-12139.377449,-1225.752797
2347.504300,666.185348,-11843.295072,-612.876398
2347.504628,296.082377,-11399.171507,-306.438199
2347.504955,296.082377,-10140.821405,229.828649
2347.505283,-222.061783,-8438.347739,612.876398
2347.505611,0.000000,-7772.162391,76.609550
2347.505938,-592.164754,-7179.997637,0.000000
2347.506266,-1036.288319,-7402.059420,383.047749
2347.506593,-888.247130,-8290.306550,612.876398
2347.506921,-518.144159,-8734.430116,-1302.362347
2347.507249,-296.082377,-9252.574275,-766.095498
2347.507576,0.000000,-10584.944971,-766.095498
2347.507904,370.102971,-11621.233289,-689.485948
2347.508231,962.267725,-11251.130318,0.000000
2347.508559,1332.370696,-10140.821405,-306.438199
2347.508886,962.267725,-9548.656652,-459.657299
2347.509214,592.164754,-9326.594869,-383.047749
2347.509542,518.144159,-8142.265362,153.219100
2347.509869,-518.144159,-8068.244768,459.657299
2347.510197,-666.185348,-8364.327145,-536.266849
2347.510524,148.041188,-9622.677246,-1302.362347
2347.510852,962.267725,-10140.821405,-689.485948
2347.511180,1702.473667,-10066.800811,-536.266849
2347.511507,1998.556043,-10658.965565,0.000000
2347.511835,1628.453072,-10140.821405,-766.095498
2347.512162,1480.411884,-10436.903782,-306.438199
2347.512490,666.185348,-10807.006753,229.828649
2347.512817,370.102971,-10140.821405,536.266849
2347.513145,-370.102971,-9474.636058,229.828649
2347.513473,-814.226536,-9474.636058,-1149.143247
2347.513800,-1924.535449,-9400.615463,-919.314598
2347.514128,-1258.350101,-9770.718434,-383.047749
2347.514455,-962.267725,-9326.594869,-842.705048
2347.514783,-370.102971,-9104.533087,-536.266849
2347.515111,518.144159,-8438.347739,76.609550
2347.515438,1406.391290,-8586.388927,459.657299
2347.515766,1924.535449,-8882.471304,1302.362347
2347.516093,1924.535449,-9104.533087,919.314598
2347.516421,1702.473667,-9622.677246,536.266849
2347.516748,814.226536,-10362.883188,612.876398
2347.517076,296.082377,-9992.780217,0.000000
2347.517404,148.041188,-10436.903782,-766.095498
2347.517731,-518.144159,-10732.986159,-459.657299
2347.518059,-148.041188,-10362.883188,-689.485948
2347.518386,518.144159,-8956.491898,-383.047749
2347.518714,296.082377,-8438.347739,459.657299
2347.519042,148.041188,-7624.121203,306.438199
2347.519369,740.205942,-7476.080014,0.000000
2347.519697,518.144159,-8438.347739,306.438199
2347.520024,444.123565,-9104.533087,229.828649
2347.520352,666.185348,-9622.677246,-153.219100
2347.520680,222.061783,-10066.800811,-383.047749
2347.521007,-444.123565,-11695.253884,0.000000
2347.521335,0.000000,-11843.295072,-766.095498
2347.521662,0.000000,-10881.027347,-1072.533697
2347.521990,-666.185348,-10658.965565,-1149.143247
2347.522317,-296.082377,-10807.006753,-842.705048
2347.522645,-592.164754,-9992.780217,-689.485948
2347.522973,0.000000,-8512.368333,-612.876398
2347.523300,-518.144159,-8512.368333,0.000000
2347.523628,-74.020594,-9178.553681,0.000000
2347.523955,444.123565,-9252.574275,0.000000
2347.524283,1036.288319,-9474.636058,0.000000
2347.524611,1258.350101,-10066.800811,-383.047749
2347.524938,1184.329507,-9992.780217,0.000000
2347.525266,1184.329507,-10066.800811,689.485948
2347.525593,-592.164754,-10288.862594,306.438199
2347.525921,-740.205942,-10214.842000,-76.609550
2347.526248,-962.267725,-9992.780217,-306.438199
2347.526576,-1702.473667,-9992.780217,-612.876398
2347.526904,-1332.370696,-9844.739029,-383.047749
2347.527231,-962.267725,-9622.677246,-306.438199
2347.527559,-1406.391290,-8364.327145,0.000000
2347.527886,-222.061783,-8586.388927,306.438199
2347.528214,222.061783,-7846.182985,76.609550
2347.528542,444.123565,-7179.997637,536.266849
2347.528869,1258.350101,-8216.285956,689.485948
2347.529197,1480.411884,-9918.759623,383.047749
2347.529524,962.267725,-10066.800811,-459.657299
2347.529852,740.205942,-9918.759623,153.219100
2347.530179,74.020594,-10955.047942,0.000000
2347.530507,0.000000,-11473.192101,-995.924147
2347.530835,222.061783,-11843.295072,-1072.533697
2347.531162,888.247130,-11473.192101,-689.485948
2347.531490,1332.370696,-9696.697840,-306.438199
2347.531817,1480.411884,-8142.265362,306.438199
2347.532145,814.226536,-7476.080014,842.705048
2347.532473,1480.411884,-7772.162391,76.609550
2347.532800,1776.494261,-7846.182985,-383.047749
2347.533128,1776.494261,-8808.450710,-919.314598
2347.533455,1776.494261,-10584.944971,-536.266849
2347.533783,2146.597232,-11251.130318,-536.266849
2347.534110,2294.638420,-11473.192101,0.000000
2347.534438,1776.494261,-11991.336260,0.000000
2347.534766,1406.391290,-11769.274478,-383.047749
2347.535093,1184.329507,-10881.027347,-995.924147
2347.535421,814.226536,-10510.924376,-536.266849
2347.535748,666.185348,-9178.553681,0.000000
2347.536076,518.144159,-8068.244768,0.000000
2347.536404,-1036.288319,-7846.182985,689.485948
2347.536731,-1110.308913,-7550.100608,383.047749
2347.537059,-592.164754,-8068.244768,-306.438199
2347.537386,1036.288319,-9474.636058,-1149.143247
2347.537714,1184.329507,-9770.718434,-1149.143247
2347.538041,1258.350101,-10436.903782,0.000000
2347.538369,1332.370696,-10584.944971,1072.533697
2347.538697,518.144159,-10584.944971,1685.410096
2347.539024,-296.082377,-10510.924376,842.705048
2347.539352,-814.226536,-10140.821405,-153.219100
2347.539679,-1554.432478,-9104.533087,-919.314598
2347.540007,-2442.679609,-9474.636058,-459.657299
2347.540335,-2738.761985,-10066.800811,-306.438199
2347.540662,-2368.659014,-8956.491898,-842.705048
2347.540990,-1480.411884,-8364.327145,-612.876398
2347.541317,-518.144159,-9252.574275,-612.876398
2347.541645,814.226536,-8808.450710,0.000000
2347.541973,1628.453072,-8438.347739,536.266849
2347.542300,1554.432478,-8808.450710,919.314598
2347.542628,1406.391290,-9770.718434,459.657299
2347.542955,0.000000,-9992.780217,536.266849
2347.543283,-888.247130,-10658.965565,842.705048
2347.543610,-1406.391290,-11325.150913,-153.219100
2347.543938,-1924.535449,-12139.377449,-2298.286494
2347.544266,-1702.473667,-11843.295072,-3064.381992
2347.544593,-1480.411884,-10955.047942,-1149.143247
2347.544921,-666.185348,-9252.574275,-383.047749
2347.545248,-148.041188,-8660.409521,383.047749
2347.545576,0.000000,-7698.141797,229.828649
2347.545904,740.205942,-7624.121203,383.047749
2347.546231,888.247130,-7402.059420,-536.266849
2347.546559,592.164754,-8734.430116,1072.533697
2347.546886,444.123565,-10140.821405,766.095498
2347.547214,74.020594,-10658.965565,0.000000
2347.547541,-740.205942,-11251.130318,-689.485948
2347.547869,-740.205942,-11325.150913,-612.876398
2347.548197,222.061783,-11695.253884,-1532.190996
2347.548524,592.164754,-10807.006753,-1225.752797
2347.548852,740.205942,-9548.656652,306.438199
2347.549179,888.247130,-8142.265362,536.266849
2347.549507,1036.288319,-7624.121203,1072.533697
2347.549835,814.226536,-7698.141797,842.705048
2347.550162,1036.288319,-7624.121203,229.828649
2347.550490,2590.720797,-8734.430116,-842.705048
2347.550817,2886.803174,-8068.244768,0.000000
2347.551145,3182.885551,-9770.718434,-536.266849
2347.551472,3404.947333,-11695.253884,76.609550
2347.551800,2664.741391,-11177.109724,229.828649
2347.552128,1998.556043,-11177.109724,-842.705048
2347.552455,1628.453072,-12213.398043,-612.876398
2347.552783,888.247130,-10881.027347,-689.485948
2347.553110,962.267725,-9326.594869,0.000000
2347.553438,222.061783,-8808.450710,459.657299
2347.553766,-222.061783,-9770.718434,536.266849
2347.554093,-148.041188,-8956.491898,0.000000
2347.554421,0.000000,-8290.306550,-612.876398
2347.554748,296.082377,-8290.306550,-1302.362347
2347.555076,1776.494261,-8586.388927,-766.095498
2347.555403,1776.494261,-9252.574275,459.657299
2347.555731,814.226536,-9474.636058,1072.533697
2347.556059,1332.370696,-11177.109724,306.438199
2347.556386,518.144159,-11177.109724,-306.438199
2347.556714,-1332.370696,-10510.924376,-229.828649
2347.557041,-1924.535449,-11103.089130,0.000000
2347.557369,-1702.473667,-10881.027347,-995.924147
2347.557697,-2294.638420,-9770.718434,76.609550
2347.558024,-2294.638420,-9030.512492,0.000000
2347.558352,-1702.473667,-7698.141797,0.000000
2347.558679,-1332.370696,-7179.997637,306.438199
2347.559007,-888.247130,-7550.100608,0.000000
2347.559335,-296.082377,-7550.100608,-1149.143247
2347.559662,-444.123565,-8216.285956,-306.438199
2347.559990,0.000000,-10214.842000,0.000000
2347.560317,222.061783,-11177.109724,76.609550
2347.560645,-222.061783,-11843.295072,76.609550
2347.560972,-444.123565,-11621.233289,-153.219100
2347.561300,-444.123565,-11843.295072,-842.705048
2347.561628,-296.082377,-11769.274478,-612.876398
2347.561955,-814.226536,-10066.800811,-459.657299
2347.562283,-1036.288319,-8586.388927,-306.438199
2347.562610,-1850.514855,-7402.059420,0.000000
2347.562938,-1480.411884,-7254.018232,-306.438199
2347.563266,-1110.308913,-7698.141797,-383.047749
2347.563593,-444.123565,-8808.450710,-1072.533697
2347.563921,1332.370696,-10436.903782,-1378.971896
2347.564248,2664.741391,-10658.965565,-766.095498
2347.564576,2960.823768,-11251.130318,-229.828649
2347.564903,3108.864956,-11621.233289,153.219100
2347.565231,2368.659014,-10510.924376,612.876398
2347.565559,1628.453072,-10955.047942,0.000000
2347.565886,888.247130,-10807.006753,0.000000
2347.566214,74.020594,-9548.656652,0.000000
2347.566541,0.000000,-8438.347739,-383.047749
2347.566869,-296.082377,-9326.594869,0.000000
2347.567197,-1036.288319,-9178.553681,459.657299
2347.567524,666.185348,-8660.409521,-536.266849
2347.567852,1702.473667,-8512.368333,-1072.533697
2347.568179,2368.659014,-9104.533087,-229.828649
2347.568507,3034.844362,-8586.388927,383.047749
2347.568834,3182.885551,-8068.244768,995.924147
2347.569162,2960.823768,-10066.800811,1838.629195
2347.569490,2368.659014,-10732.986159,995.924147
2347.569817,814.226536,-10362.883188,0.000000
2347.570145,-962.267725,-10436.903782,-383.047749
2347.570472,-1480.411884,-10955.047942,-1532.190996
2347.570800,-1258.350101,-10807.006753,-1225.752797
2347.571128,-814.226536,-10881.027347,-612.876398
2347.571455,0.000000,-9474.636058,229.828649
2347.571783,1036.288319,-7846.182985,229.828649
2347.572110,962.267725,-7624.121203,459.657299
2347.572438,1406.391290,-7624.121203,536.266849
2347.572765,1702.473667,-7624.121203,383.047749
2347.573093,1110.308913,-9252.574275,766.095498
2347.573421,222.061783,-10214.842000,459.657299
2347.573748,814.226536,-11621.233289,-1838.629195
2347.574076,0.000000,-12361.439231,-1302.362347
2347.574403,-888.247130,-12657.521608,-919.314598
2347.574731,-888.247130,-12287.418637,-1149.143247
2347.575059,-1184.329507,-11621.233289,-1149.143247
2347.575386,-2146.597232,-10066.800811,-459.657299
2347.575714,-2146.597232,-8438.347739,-306.438199
2347.576041,-1776.494261,-6439.791695,229.828649
2347.576369,-2738.761985,-6291.750507,612.876398
2347.576696,-2368.659014,-7105.977043,229.828649
2347.577024,-1702.473667,-7920.203579,-306.438199
2347.577352,-222.061783,-9400.615463,-919.314598
2347.577679,962.267725,-10658.965565,-1072.533697
2347.578007,1258.350101,-10807.006753,-459.657299
2347.578334,1480.411884,-11621.233289,306.438199
2347.578662,740.205942,-11325.150913,766.095498
2347.578990,296.082377,-11029.068536,76.609550
2347.579317,0.000000,-10510.924376,76.609550
2347.579645,0.000000,-9252.574275,229.828649
2347.579972,-962.267725,-8438.347739,1225.752797
2347.580300,-1554.432478,-9252.574275,1072.533697
2347.580628,-1554.432478,-8142.265362,842.705048
2347.580955,-740.205942,-7105.977043,-995.924147
2347.581283,370.102971,-7846.182985,-1532.190996
2347.581610,1258.350101,-8438.347739,-612.876398
2347.581938,2294.638420,-8734.430116,76.609550
2347.582265,2738.761985,-10510.924376,76.609550
2347.582593,2960.823768,-11695.253884,76.609550
2347.582921,2146.597232,-11399.171507,383.047749
2347.583248,1110.308913,-11103.089130,306.438199
2347.583576,0.000000,-11621.233289,-459.657299
2347.583903,-296.082377,-12065.356855,-1455.581446
2347.584231,-148.041188,-11769.274478,-1455.581446
2347.584559,-222.061783,-9844.739029,-919.314598
2347.584886,1036.288319,-8660.409521,-766.095498
2347.585214,1998.556043,-8364.327145,536.266849
2347.585541,1628.453072,-7179.997637,766.095498
2347.585869,1702.473667,-7550.100608,459.657299
2347.586196,2516.700203,-8364.327145,0.000000
2347.586524,1924.535449,-9252.574275,153.219100
2347.586852,1258.350101,-11547.212695,459.657299
2347.587179,962.267725,-11769.274478,459.657299
2347.587507,518.144159,-11917.315666,0.000000
2347.587834,-592.164754,-12435.459826,-612.876398
2347.588162,-962.267725,-11843.295072,-1532.190996
2347.588490,-1258.350101,-10288.862594,-1225.752797
2347.588817,-1036.288319,-9326.594869,-229.828649
2347.589145,-888.247130,-7105.977043,0.000000
2347.589472,-962.267725,-5921.647536,0.000000
2347.589799,-296.082377,-7254.018232,919.314598
2347.590127,370.102971,-7105.977043,919.314598
2347.590454,1776.494261,-8364.327145,612.876398
2347.590782,2960.823768,-9844.739029,0.000000
2347.591109,2886.803174,-10955.047942,0.000000
2347.591437,2368.659014,-11325.150913,459.657299
2347.591764,1110.308913,-10510.924376,153.219100
2347.592092,222.061783,-11473.192101,0.000000
2347.592419,-1184.329507,-11325.150913,-995.924147
2347.592747,-1406.391290,-9770.718434,-842.705048
2347.593074,-1702.473667,-9252.574275,-612.876398
2347.593402,-1776.494261,-9474.636058,-383.047749
2347.593729,-2146.597232,-9326.594869,-306.438199
2347.594057,-1628.453072,-7994.224174,-612.876398
2347.594384,-444.123565,-7105.977043,-1302.362347
2347.594712,740.205942,-8068.244768,-1378.971896
2347.595039,1480.411884,-8808.450710,0.000000
2347.595367,1776.494261,-8882.471304,612.876398
2347.595694,1702.473667,-10436.903782,995.924147
2347.596022,518.144159,-11769.274478,766.095498
2347.596349,-592.164754,-11769.274478,-229.828649
2347.596677,-1850.514855,-10881.027347,-1149.143247
2347.597004,-2146.597232,-11843.295072,-2374.896044
2347.597332,-1702.473667,-12509.480420,-2068.457845
2347.597659,-740.205942,-11325.150913,-1378.971896
2347.597986,-444.123565,-9252.574275,306.438199
2347.598314,518.144159,-7624.121203,1072.533697
2347.598641,962.267725,-6661.853478,536.266849
2347.598969,1258.350101,-6957.935855,536.266849
2347.599296,1850.514855,-6513.812290,229.828649
2347.599624,1406.391290,-7920.203579,306.438199
2347.599951,1184.329507,-10066.800811,612.876398
2347.600279,814.226536,-11177.109724,459.657299
2347.600606,296.082377,-11621.233289,-459.657299
2347.600934,-296.082377,-12435.459826,-919.314598
2347.601261,148.041188,-12953.603985,-1072.533697
2347.601589,814.226536,-11843.295072,-459.657299
2347.601916,444.123565,-9622.677246,229.828649
2347.602244,0.000000,-7254.018232,689.485948
2347.602571,296.082377,-6143.709319,306.438199
2347.602899,518.144159,-5921.647536,459.657299
2347.603226,0.000000,-6217.729913,459.657299
2347.603554,518.144159,-7476.080014,0.000000
2347.603881,2368.659014,-9918.759623,-995.924147
2347.604209,2516.700203,-11029.068536,-995.924147
2347.604536,2738.761985,-11917.315666,-612.876398
2347.604864,2146.597232,-12361.439231,-229.828649
2347.605191,2146.597232,-12657.521608,-536.266849
2347.605519,1110.308913,-12805.562797,-766.095498
2347.605846,-666.185348,-10955.047942,0.000000
2347.606174,-1036.288319,-9474.636058,306.438199
2347.606501,-962.267725,-8512.368333,0.000000
2347.606828,-1998.556043,-8438.347739,0.000000
2347.607156,-2516.700203,-8438.347739,-383.047749
2347.607483,-1332.370696,-7772.162391,-1532.190996
2347.607811,296.082377,-7698.141797,-2451.505594
2347.608138,962.267725,-8512.368333,-919.314598
2347.608466,1702.473667,-9252.574275,0.000000
2347.608793,2072.576638,-10066.800811,1225.752797
2347.609121,1628.453072,-11769.274478,1608.800546
2347.609448,370.102971,-11399.171507,842.705048
2347.609776,-518.144159,-11251.130318,76.609550
2347.610103,-1406.391290,-11325.150913,-689.485948
2347.610431,-1998.556043,-10955.047942,-1532.190996
2347.610758,-1998.556043,-10658.965565,-1225.752797
2347.611086,-1850.514855,-9548.656652,-536.266849
2347.611413,-814.226536,-8364.327145,-306.438199
2347.611741,0.000000,-6883.915261,0.000000
2347.612068,296.082377,-6883.915261,0.000000
2347.612396,1776.494261,-7920.203579,0.000000
2347.612723,1998.556043,-7254.018232,842.705048
2347.613051,1332.370696,-8956.491898,1072.533697
2347.613378,814.226536,-10732.986159,1378.971896
2347.613706,814.226536,-11843.295072,383.047749
2347.614033,-814.226536,-11769.274478,-612.876398
2347.614361,-1776.494261,-12435.459826,-766.095498
2347.614688,-814.226536,-12361.439231,-1608.800546
2347.615015,-666.185348,-9992.780217,-1149.143247
2347.615343,-1110.308913,-9474.636058,-1455.581446
2347.615670,0.000000,-7772.162391,-1072.533697
2347.615998,814.226536,-7328.038826,-459.657299
2347.616325,1036.288319,-7031.956449,995.924147
2347.616653,2072.576638,-7550.100608,995.924147
2347.616980,3034.844362,-8364.327145,0.000000
2347.617308,3404.947333,-10362.883188,612.876398
2347.617635,4071.132681,-10955.047942,536.266849
2347.617963,2738.761985,-11769.274478,0.000000
2347.618290,1998.556043,-12805.562797,-536.266849
2347.618618,1776.494261,-12065.356855,-995.924147
2347.618945,74.020594,-11695.253884,-1685.410096
2347.619273,-444.123565,-11547.212695,-689.485948
2347.619600,-814.226536,-10140.821405,-306.438199
2347.619928,-814.226536,-7920.203579,0.000000
2347.620255,-1628.453072,-8512.368333,306.438199
2347.620583,-1258.350101,-7846.182985,0.000000
2347.620910,222.061783,-6661.853478,-689.485948
2347.621238,1110.308913,-7105.977043,-153.219100
2347.621565,888.247130,-8142.265362,1149.143247
2347.621893,2442.679609,-9400.615463,689.485948
2347.622220,1924.535449,-10066.800811,689.485948
2347.622548,370.102971,-10732.986159,995.924147
2347.622875,0.000000,-11843.295072,-306.438199
2347.623203,-1110.308913,-11991.336260,-995.924147
2347.623530,-2146.597232,-11621.233289,-1225.752797
2347.623857,-1036.288319,-11843.295072,-1225.752797
2347.624185,-370.102971,-10288.862594,-1532.190996
2347.624512,0.000000,-9770.718434,306.438199
2347.624840,0.000000,-7994.224174,612.876398
2347.625167,0.000000,-6365.771101,0.000000
2347.625495,740.205942,-6883.915261,76.609550
2347.625822,1258.350101,-7402.059420,153.219100
2347.626150,1110.308913,-8068.244768,76.609550
2347.626477,222.061783,-10362.883188,-536.266849
2347.626805,592.164754,-12139.377449,612.876398
2347.627132,-222.061783,-11917.315666,-1225.752797
2347.627460,-1850.514855,-12879.583391,-689.485948
2347.627787,-1258.350101,-13101.645173,-995.924147
2347.628115,-444.123565,-12139.377449,-1378.971896
2347.628442,-740.205942,-10436.903782,-459.657299
2347.628770,-666.185348,-8364.327145,-306.438199
2347.629097,-222.061783,-6957.935855,842.705048
2347.629425,-296.082377,-6291.750507,536.266849
2347.629752,-888.247130,-6809.894666,76.609550
2347.630080,-148.041188,-8068.244768,-306.438199
2347.630407,1480.411884,-9030.512492,-1302.362347
2347.630735,2294.638420,-10214.842000,-689.485948
2347.631062,2146.597232,-11547.212695,229.828649
2347.631390,3330.926739,-12213.398043,383.047749
2347.631717,2220.617826,-12213.398043,612.876398
2347.632044,1406.391290,-11251.130318,306.438199
2347.632372,296.082377,-10362.883188,0.000000
2347.632699,0.000000,-9622.677246,0.000000
2347.633027,-814.226536,-8364.327145,229.828649
2347.633354,-814.226536,-8142.265362,-536.266849
2347.633682,-1110.308913,-8808.450710,0.000000
2347.634009,-296.082377,-8290.306550,-766.095498
2347.634337,1184.329507,-7920.203579,-1762.019645
2347.634664,2146.597232,-8586.388927,-1455.581446
2347.634992,2368.659014,-9474.636058,306.438199
2347.635319,3256.906145,-9696.697840,1149.143247
2347.635647,2886.803174,-10732.986159,919.314598
2347.635974,1776.494261,-11251.130318,995.924147
2347.636302,666.185348,-10881.027347,229.828649
2347.636629,-740.205942,-11103.089130,-612.876398
2347.636957,-1554.432478,-11843.295072,-1225.752797
2347.637284,-962.267725,-11917.315666,-2298.286494
2347.637612,-592.164754,-10658.965565,-2451.505594
2347.637939,-518.144159,-9474.636058,-536.266849
2347.638267,1036.288319,-8142.265362,0.000000
2347.638594,2072.576638,-7328.038826,-306.438199
2347.638922,1480.411884,-7698.141797,459.657299
2347.639249,1480.411884,-8216.285956,766.095498
2347.639577,1924.535449,-9030.512492,842.705048
2347.639904,814.226536,-10140.821405,536.266849
2347.640231,-296.082377,-10955.047942,1302.362347
2347.640559,-1184.329507,-11769.274478,153.219100
2347.640886,-2590.720797,-12065.356855,-842.705048
2347.641214,-2516.700203,-12213.398043,-1225.752797
2347.641541,-1924.535449,-11029.068536,-1378.971896
2347.641869,-1924.535449,-9178.553681,-689.485948
2347.642196,-962.267725,-7476.080014,536.266849
2347.642524,-370.102971,-6143.709319,383.047749
2347.642851,0.000000,-6069.688724,229.828649
2347.643179,74.020594,-7550.100608,536.266849
2347.643506,888.247130,-7846.182985,76.609550
2347.643834,1850.514855,-9178.553681,0.000000
2347.644161,2368.659014,-10362.883188,0.000000
2347.644489,2294.638420,-11843.295072,-459.657299
2347.644816,1702.473667,-13619.789333,0.000000
2347.645144,296.082377,-11843.295072,-306.438199
2347.645471,-1036.288319,-11325.150913,-1149.143247
2347.645799,-1184.329507,-10955.047942,-1149.143247
2347.646126,-1332.370696,-9474.636058,-459.657299
2347.646454,-1480.411884,-8438.347739,0.000000
2347.646781,-1702.473667,-7994.224174,766.095498
2347.647109,-1406.391290,-8512.368333,229.828649
2347.647436,-296.082377,-8438.347739,-536.266849
2347.647764,296.082377,-8216.285956,-1685.410096
2347.648091,1258.350101,-8734.430116,-1302.362347
2347.648419,2072.576638,-10140.821405,-536.266849
2347.648746,2516.700203,-10955.047942,459.657299
2347.649073,1406.391290,-11621.233289,689.485948
2347.649401,1184.329507,-12213.398043,229.828649
2347.649728,1036.288319,-11991.336260,-306.438199
2347.650056,-370.102971,-10955.047942,-689.485948
2347.650383,-370.102971,-11251.130318,-1225.752797
2347.650711,0.000000,-10658.965565,-919.314598
2347.651038,222.061783,-9474.636058,0.000000
2347.651366,1258.350101,-7550.100608,766.095498
2347.651693,1406.391290,-6143.709319,766.095498
2347.652021,1406.391290,-6513.812290,229.828649
2347.652348,2294.638420,-7846.182985,-229.828649
2347.652676,1924.535449,-8956.491898,76.609550
2347.653003,2146.597232,-10214.842000,229.828649
2347.653331,2072.576638,-10881.027347,689.485948
2347.653658,592.164754,-11695.253884,306.438199
2347.653986,-740.205942,-11843.295072,0.000000
2347.654313,-1036.288319,-11473.192101,-229.828649
2347.654641,-888.247130,-10955.047942,-1685.410096
2347.654968,-1110.308913,-9252.574275,-995.924147
2347.655296,-1184.329507,-8068.244768,0.000000
2347.655623,-444.123565,-6957.935855,536.266849
2347.655951,592.164754,-6513.812290,689.485948
2347.656278,222.061783,-6883.915261,-306.438199
2347.656606,592.164754,-8068.244768,0.000000
2347.656933,2072.576638,-9474.636058,-383.047749
2347.657260,2960.823768,-11029.068536,-995.924147
2347.657588,2368.659014,-12657.521608,0.000000
2347.657915,2368.659014,-12731.542202,153.219100
2347.658243,1776.494261,-12213.398043,306.438199
2347.658570,-814.226536,-11991.336260,153.219100
2347.658898,-2220.617826,-10658.965565,-229.828649
2347.659225,-2886.803174,-8586.388927,-1455.581446
2347.659553,-3478.967927,-7846.182985,-1225.752797
2347.659880,-3627.009116,-8142.265362,-612.876398
2347.660208,-2886.803174,-8290.306550,-919.314598
2347.660535,-1776.494261,-8734.430116,-995.924147
2347.660863,0.000000,-8586.388927,-1455.581446
2347.661190,1258.350101,-8438.347739,-842.705048
2347.661518,1998.556043,-9326.594869,0.000000
2347.661845,2368.659014,-9992.780217,1762.019645
2347.662173,2812.782580,-10362.883188,1915.238745
2347.662500,1480.411884,-11843.295072,1302.362347
2347.662828,444.123565,-11769.274478,1302.362347
2347.663155,-1184.329507,-9474.636058,-383.047749
2347.663483,-2368.659014,-10807.006753,-919.314598
2347.663810,-2368.659014,-10732.986159,-1149.143247
2347.664138,-1110.308913,-10066.800811,-1532.190996
2347.664465,0.000000,-8290.306550,-919.314598
2347.664793,370.102971,-7105.977043,459.657299
2347.665120,1628.453072,-7179.997637,842.705048
2347.665448,2220.617826,-7179.997637,919.314598
2347.665775,2072.576638,-7920.203579,612.876398
2347.666102,2072.576638,-8808.450710,76.609550
2347.666430,2294.638420,-10214.842000,229.828649
2347.666757,1036.288319,-11695.253884,842.705048
2347.667085,-222.061783,-12139.377449,76.609550
2347.667412,-740.205942,-11843.295072,-1455.581446
2347.667740,-1554.432478,-12139.377449,-1762.019645
2347.668067,-814.226536,-11917.315666,-1991.848295
2347.668395,296.082377,-9844.739029,-1302.362347
2347.668722,0.000000,-7698.141797,689.485948
2347.669050,666.185348,-6957.935855,1072.533697
2347.669377,1332.370696,-6439.791695,612.876398
2347.669705,1110.308913,-7105.977043,689.485948
2347.670032,1628.453072,-8956.491898,-919.314598
2347.670360,1998.556043,-9622.677246,-842.705048
2347.670687,2294.638420,-11399.171507,-995.924147
2347.671015,2368.659014,-12361.439231,-1149.143247
2347.671342,1628.453072,-12731.542202,-995.924147
2347.671670,592.164754,-12805.562797,-689.485948
2347.671997,222.061783,-11769.274478,0.000000
2347.672325,0.000000,-10288.862594,-689.485948
2347.672652,-518.144159,-8586.388927,459.657299
2347.672980,-1110.308913,-7105.977043,766.095498
2347.673307,-962.267725,-7105.977043,1225.752797
2347.673635,-1036.288319,-7476.080014,919.314598
2347.673962,-962.267725,-7402.059420,383.047749
2347.674289,592.164754,-7920.203579,-689.485948
2347.674617,1258.350101,-8660.409521,-1762.019645
2347.674944,1406.391290,-10436.903782,153.219100
2347.675272,1406.391290,-10214.842000,766.095498
2347.675599,1850.514855,-11695.253884,919.314598
2347.675927,666.185348,-12583.501014,536.266849
2347.676254,-962.267725,-10807.006753,459.657299
2347.676582,-1332.370696,-9770.718434,-459.657299
2347.676909,-1850.514855,-10510.924376,-612.876398
2347.677237,-1924.535449,-10066.800811,-1532.190996
2347.677564,-518.144159,-9178.553681,-1302.362347
2347.677892,-1184.329507,-7846.182985,0.000000
2347.678219,148.041188,-7402.059420,0.000000
2347.678547,1406.391290,-7624.121203,-689.485948
2347.678874,74.020594,-7920.203579,-459.657299
2347.679202,296.082377,-9474.636058,-153.219100
2347.679529,1628.453072,-10066.800811,-153.219100
2347.679857,740.205942,-11251.130318,612.876398
2347.680184,0.000000,-12361.439231,766.095498
2347.680512,-666.185348,-11843.295072,-153.219100
2347.680839,-1480.411884,-11917.315666,-1302.362347
2347.681167,-1184.329507,-12287.418637,-1762.019645
2347.681494,-740.205942,-10066.800811,-1685.410096
2347.681822,-740.205942,-8216.285956,-306.438199
2347.682149,-370.102971,-7920.203579,76.609550
2347.682477,888.247130,-7328.038826,0.000000
2347.682804,1406.391290,-7698.141797,-229.828649
2347.683131,1258.350101,-8068.244768,229.828649
2347.683459,2220.617826,-9104.533087,536.266849
2347.683786,2220.617826,-10214.842000,229.828649
2347.684114,2960.823768,-11251.130318,919.314598
2347.684441,2368.659014,-10807.006753,459.657299
2347.684769,1628.453072,-11547.212695,229.828649
2347.685096,814.226536,-11473.192101,229.828649
2347.685424,148.041188,-10436.903782,-536.266849
2347.685751,-1110.308913,-9548.656652,-229.828649
2347.686079,-1110.308913,-8142.265362,-383.047749
2347.686406,-518.144159,-7476.080014,-1072.533697
2347.686734,-888.247130,-8586.388927,229.828649
2347.687061,-222.061783,-9252.574275,306.438199
2347.687389,1110.308913,-8290.306550,-153.219100
2347.687716,1850.514855,-7994.224174,-842.705048
2347.688044,1850.514855,-9252.574275,-229.828649
2347.688371,1998.556043,-10658.965565,383.047749
2347.688699,2516.700203,-10881.027347,842.705048
2347.689026,444.123565,-11103.089130,766.095498
2347.689354,-666.185348,-10807.006753,229.828649
2347.689681,-1110.308913,-10510.924376,-842.705048
2347.690009,-1850.514855,-11029.068536,-1302.362347
2347.690336,-2368.659014,-10584.944971,-1072.533697
2347.690663,-888.247130,-10436.903782,-1378.971896
2347.690991,296.082377,-9770.718434,-1149.143247
2347.691318,1110.308913,-8882.471304,-689.485948
2347.691646,1406.391290,-7328.038826,76.609550
2347.691973,1110.308913,-7772.162391,612.876398
2347.692301,1110.308913,-9030.512492,689.485948
2347.692628,962.267725,-9030.512492,306.438199
2347.692955,222.061783,-9474.636058,-383.047749
2347.693283,0.000000,-11695.253884,383.047749
2347.693610,-1332.370696,-11991.336260,0.000000
2347.693938,-1776.494261,-12065.356855,-995.924147
2347.694265,-1628.453072,-11843.295072,-1762.019645
2347.694593,-1036.288319,-10955.047942,-2068.457845
2347.694920,-296.082377,-9548.656652,-612.876398
2347.695247,370.102971,-7328.038826,1072.533697
2347.695575,888.247130,-6587.832884,1225.752797
2347.695902,1406.391290,-6661.853478,919.314598
2347.696230,1184.329507,-6513.812290,153.219100
2347.696557,296.082377,-7920.203579,0.000000
2347.696885,814.226536,-9844.739029,-383.047749
2347.697212,1406.391290,-10584.944971,-766.095498
2347.697540,1554.432478,-11991.336260,-689.485948
2347.697867,1702.473667,-12287.418637,-229.828649
2347.698194,1924.535449,-11843.295072,-766.095498
2347.698522,1406.391290,-12213.398043,536.266849
2347.698849,962.267725,-10658.965565,766.095498
2347.699177,888.247130,-8216.285956,76.609550
2347.699504,-444.123565,-6883.915261,383.047749
2347.699832,-444.123565,-7105.977043,689.485948
2347.700159,0.000000,-7550.100608,-383.047749
2347.700486,74.020594,-8808.450710,-536.266849
2347.700814,888.247130,-9326.594869,-1378.971896
2347.701141,2072.576638,-9844.739029,-1762.019645
2347.701469,1406.391290,-10881.027347,-306.438199
2347.701796,1924.535449,-11325.150913,306.438199
2347.702124,2516.700203,-11251.130318,229.828649
2347.702451,888.247130,-11991.336260,383.047749
2347.702778,-370.102971,-10066.800811,689.485948
2347.703106,-962.267725,-9326.594869,0.000000
2347.703433,-2220.617826,-9696.697840,76.609550
2347.703761,-2442.679609,-10436.903782,-459.657299
2347.704088,-1628.453072,-9326.594869,-842.705048
2347.704416,-888.247130,-8290.306550,-1915.238745
2347.704743,370.102971,-7772.162391,-842.705048
2347.705070,1332.370696,-8290.306550,-689.485948
2347.705398,592.164754,-8586.388927,536.266849
2347.705725,1110.308913,-8438.347739,612.876398
2347.706053,1628.453072,-9252.574275,229.828649
2347.706380,222.061783,-10214.842000,995.924147
2347.706708,-666.185348,-11769.274478,1302.362347
2347.707035,-1110.308913,-11621.233289,0.000000
2347.707362,-1924.535449,-10732.986159,-1608.800546
2347.707690,-2368.659014,-11399.171507,-2145.067394
2347.708017,-1776.494261,-10510.924376,-1378.971896
2347.708345,-962.267725,-8660.409521,-919.314598
2347.708672,74.020594,-7624.121203,-306.438199
2347.709000,888.247130,-7402.059420,-919.314598
2347.709327,1628.453072,-7698.141797,0.000000
2347.709654,1184.329507,-7846.182985,612.876398
2347.709982,814.226536,-9326.594869,766.095498
2347.710309,592.164754,-10214.842000,-229.828649
2347.710637,1110.308913,-11251.130318,-766.095498
2347.710964,592.164754,-11769.274478,-995.924147
2347.711292,962.267725,-12583.501014,-766.095498
2347.711619,666.185348,-11843.295072,0.000000
2347.711947,0.000000,-11177.109724,-229.828649
2347.712274,-666.185348,-10436.903782,-1149.143247
2347.712601,-814.226536,-8586.388927,-459.657299
2347.712929,-518.144159,-7476.080014,76.609550
2347.713256,0.000000,-7179.997637,383.047749
2347.713584,888.247130,-8734.430116,306.438199
2347.713911,1332.370696,-8660.409521,0.000000
2347.714239,1480.411884,-7994.224174,229.828649
2347.714566,1184.329507,-8882.471304,0.000000
2347.714893,962.267725,-10140.821405,0.000000
2347.715221,1850.514855,-10584.944971,0.000000
2347.715548,1184.329507,-11325.150913,459.657299
2347.715876,148.041188,-10584.944971,919.314598
2347.716203,0.000000,-9622.677246,1072.533697
2347.716531,-814.226536,-10436.903782,0.000000
2347.716858,-1332.370696,-10140.821405,-383.047749
2347.717185,-592.164754,-9992.780217,-1225.752797
2347.717513,518.144159,-8660.409521,-1149.143247
2347.717840,1628.453072,-8216.285956,-612.876398
2347.718168,2072.576638,-7772.162391,153.219100
2347.718495,1554.432478,-7031.956449,1149.143247
2347.718823,1480.411884,-8364.327145,1225.752797
2347.719150,1258.350101,-9474.636058,0.000000
2347.719477,666.185348,-9252.574275,-842.705048
2347.719805,296.082377,-10955.047942,-1149.143247
2347.720132,0.000000,-13101.645173,-383.047749
2347.720460,-814.226536,-12065.356855,0.000000
2347.720787,0.000000,-13249.686362,-1378.971896
2347.721115,-592.164754,-12139.377449,-1378.971896
2347.721442,-148.041188,-10288.862594,-995.924147
2347.721769,592.164754,-8290.306550,-689.485948
2347.722097,296.082377,-7328.038826,0.000000
2347.722424,370.102971,-7402.059420,76.609550
2347.722752,1036.288319,-7476.080014,229.828649
2347.723079,0.000000,-8660.409521,0.000000
2347.723407,-370.102971,-9474.636058,-995.924147
2347.723734,666.185348,-10955.047942,-1302.362347
2347.724061,296.082377,-11843.295072,-1225.752797
2347.724389,444.123565,-12805.562797,-383.047749
2347.724716,1406.391290,-12065.356855,0.000000
2347.725044,0.000000,-10140.821405,766.095498
2347.725371,-592.164754,-9548.656652,1225.752797
2347.725699,-740.205942,-8216.285956,536.266849
2347.726026,-1850.514855,-7105.977043,229.828649
2347.726354,-1258.350101,-7031.956449,306.438199
2347.726681,-296.082377,-7772.162391,0.000000
2347.727008,-296.082377,-9104.533087,76.609550
2347.727336,518.144159,-9326.594869,0.000000
2347.727663,740.205942,-9104.533087,-1378.971896
2347.727991,888.247130,-9992.780217,-536.266849
2347.728318,1184.329507,-10288.862594,459.657299
2347.728646,1258.350101,-10140.821405,1225.752797
2347.728973,1110.308913,-10288.862594,1838.629195
2347.729300,592.164754,-10436.903782,1378.971896
2347.729628,-518.144159,-9622.677246,153.219100
2347.729955,-1924.535449,-9474.636058,0.000000
2347.730283,-2368.659014,-10584.944971,-536.266849
2347.730610,-1036.288319,-9548.656652,-2604.724693
2347.730938,0.000000,-9030.512492,-2757.943793
2347.731265,740.205942,-9844.739029,-1838.629195
2347.731592,2590.720797,-9400.615463,-383.047749
2347.731920,2812.782580,-9326.594869,919.314598
2347.732247,2072.576638,-9696.697840,919.314598
2347.732575,2146.597232,-9696.697840,0.000000
2347.732902,1628.453072,-10584.944971,-536.266849
2347.733230,518.144159,-11325.150913,76.609550
2347.733557,-444.123565,-11547.212695,153.219100
2347.733884,-1036.288319,-11695.253884,-1072.533697
2347.734212,-1110.308913,-11473.192101,-1532.190996
2347.734539,-370.102971,-11325.150913,-1302.362347
2347.734867,296.082377,-9918.759623,-689.485948
2347.735194,592.164754,-8956.491898,-689.485948
2347.735522,1332.370696,-8142.265362,0.000000
2347.735849,2146.597232,-7476.080014,229.828649
2347.736176,1480.411884,-7328.038826,1302.362347
2347.736504,814.226536,-7920.203579,1378.971896
2347.736831,518.144159,-9326.594869,383.047749
2347.737159,888.247130,-10288.862594,0.000000
2347.737486,296.082377,-10658.965565,-306.438199
2347.737814,370.102971,-11621.233289,-383.047749
2347.738141,74.020594,-10955.047942,-383.047749
2347.738468,-370.102971,-10140.821405,0.000000
2347.738796,-222.061783,-9548.656652,0.000000
2347.739123,-296.082377,-7624.121203,689.485948
2347.739451,444.123565,-6883.915261,536.266849
2347.739778,666.185348,-7624.121203,1149.143247
2347.740106,740.205942,-8808.450710,1072.533697
2347.740433,518.144159,-9326.594869,919.314598
2347.740761,740.205942,-8882.471304,0.000000
2347.741088,518.144159,-9326.594869,-1685.410096
2347.741415,296.082377,-11325.150913,-1532.190996
2347.741743,444.123565,-11103.089130,-689.485948
2347.742070,370.102971,-10658.965565,-306.438199
2347.742398,-518.144159,-10214.842000,383.047749
2347.742725,-1332.370696,-9548.656652,-153.219100
2347.743053,-2368.659014,-9844.739029,0.000000
2347.743380,-2590.720797,-9400.615463,-536.266849
2347.743707,-1776.494261,-10066.800811,-2145.067394
2347.744035,-888.247130,-9326.594869,-2374.896044
2347.744362,222.061783,-9252.574275,-1762.019645
2347.744690,1332.370696,-9178.553681,-536.266849
2347.745017,1628.453072,-8734.430116,306.438199
2347.745345,1258.350101,-9474.636058,612.876398
2347.745672,1480.411884,-10214.842000,76.609550
2347.745999,1258.350101,-9992.780217,-919.314598
2347.746327,518.144159,-11177.109724,-1302.362347
2347.746654,-148.041188,-11473.192101,383.047749
2347.746982,-814.226536,-11325.150913,766.095498
2347.747309,-1110.308913,-11251.130318,-306.438199
2347.747637,-1258.350101,-10584.944971,-1072.533697
2347.747964,-888.247130,-8734.430116,-1532.190996
2347.748291,0.000000,-7624.121203,-536.266849
2347.748619,370.102971,-6735.874072,0.000000
2347.748946,296.082377,-7179.997637,0.000000
2347.749274,814.226536,-7846.182985,306.438199
2347.749601,962.267725,-8290.306550,-153.219100
2347.749929,1628.453072,-9770.718434,0.000000
2347.750256,1332.370696,-10881.027347,0.000000
2347.750583,962.267725,-11621.233289,76.609550
2347.750911,1406.391290,-11843.295072,0.000000
2347.751238,1406.391290,-10807.006753,-383.047749
2347.751566,1554.432478,-10732.986159,0.000000
2347.751893,370.102971,-10140.821405,612.876398
2347.752221,-370.102971,-8068.244768,919.314598
2347.752548,444.123565,-8216.285956,459.657299
2347.752875,1258.350101,-8660.409521,0.000000
2347.753203,666.185348,-8438.347739,-306.438199
2347.753530,296.082377,-9622.677246,306.438199
2347.753858,1110.308913,-10214.842000,-536.266849
2347.754185,1036.288319,-10214.842000,-919.314598
2347.754513,1110.308913,-10732.986159,-1225.752797
2347.754840,518.144159,-10214.842000,459.657299
2347.755168,1480.411884,-10807.006753,153.219100
2347.755495,1406.391290,-11399.171507,229.828649
2347.755822,222.061783,-10288.862594,842.705048
2347.756150,-814.226536,-8512.368333,536.266849
2347.756477,-1480.411884,-9030.512492,0.000000
2347.756805,-2368.659014,-9622.677246,0.000000
2347.757132,-1776.494261,-9918.759623,-612.876398
2347.757460,444.123565,-9030.512492,-1225.752797
2347.757787,1332.370696,-9326.594869,-689.485948
2347.758114,1702.473667,-9326.594869,459.657299
2347.758442,1628.453072,-9548.656652,766.095498
2347.758769,1406.391290,-9400.615463,1225.752797
2347.759097,814.226536,-9400.615463,153.219100
2347.759424,0.000000,-9400.615463,-383.047749
2347.759752,-518.144159,-9548.656652,0.000000
2347.760079,-888.247130,-10510.924376,-153.219100
2347.760406,-1776.494261,-10584.944971,-612.876398
2347.760734,-1924.535449,-10658.965565,-995.924147
2347.761061,-1480.411884,-9918.759623,-1149.143247
2347.761389,-592.164754,-9104.533087,-1378.971896
2347.761716,148.041188,-8586.388927,-766.095498
2347.762044,370.102971,-7476.080014,1072.533697
2347.762371,1702.473667,-7920.203579,689.485948
2347.762698,1258.350101,-8216.285956,229.828649
2347.763026,296.082377,-9178.553681,536.266849
2347.763353,222.061783,-10362.883188,0.000000
2347.763681,74.020594,-10881.027347,-995.924147
2347.764008,370.102971,-11695.253884,-1455.581446
2347.764336,518.144159,-12361.439231,-1532.190996
2347.764663,1110.308913,-11991.336260,-1378.971896
2347.764990,1036.288319,-10510.924376,229.828649
2347.765318,888.247130,-9622.677246,383.047749
2347.765645,814.226536,-9178.553681,459.657299
2347.765973,666.185348,-8142.265362,383.047749
2347.766300,666.185348,-7328.038826,612.876398
2347.766628,592.164754,-7846.182985,689.485948
2347.766955,222.061783,-9104.533087,0.000000
2347.767283,370.102971,-9400.615463,-536.266849
2347.767610,444.123565,-9770.718434,-459.657299
2347.767937,296.082377,-10140.821405,-383.047749
2347.768265,592.164754,-11029.068536,-383.047749
2347.768592,888.247130,-11103.089130,0.000000
2347.768920,1110.308913,-10584.944971,689.485948
2347.769247,1184.329507,-9252.574275,919.314598
2347.769575,-444.123565,-8438.347739,1915.238745
2347.769902,-1332.370696,-8882.471304,1225.752797
2347.770229,-1036.288319,-9030.512492,229.828649
2347.770557,0.000000,-8734.430116,-919.314598
2347.770884,296.082377,-8438.347739,-1149.143247
2347.771212,1258.350101,-9178.553681,-1149.143247
2347.771539,1406.391290,-9548.656652,306.438199
2347.771867,1036.288319,-9326.594869,229.828649
2347.772194,592.164754,-9548.656652,0.000000
2347.772521,518.144159,-9918.759623,-383.047749
2347.772849,296.082377,-9622.677246,-536.266849
2347.773176,0.000000,-10732.986159,0.000000
2347.773504,-740.205942,-11843.295072,612.876398
2347.773831,-1184.329507,-10584.944971,-306.438199
2347.774159,-1258.350101,-10140.821405,-1378.971896
2347.774486,-1036.288319,-9992.780217,-1532.190996
2347.774813,-814.226536,-9474.636058,-1225.752797
2347.775141,0.000000,-8734.430116,-1072.533697
2347.775468,74.020594,-7994.224174,-536.266849
2347.775796,296.082377,-8586.388927,383.047749
2347.776123,1258.350101,-9326.594869,0.000000
2347.776451,444.123565,-10214.842000,0.000000
2347.776778,296.082377,-10881.027347,0.000000
2347.777105,1036.288319,-11103.089130,-842.705048
2347.777433,888.247130,-11621.233289,-1225.752797
2347.777760,814.226536,-11547.212695,-536.266849
2347.778088,1110.308913,-10214.842000,229.828649
2347.778415,888.247130,-9252.574275,0.000000
2347.778743,74.020594,-9252.574275,766.095498
2347.779070,0.000000,-7994.224174,306.438199
2347.779397,-296.082377,-7179.997637,-459.657299
2347.779725,0.000000,-7698.141797,-229.828649
2347.780052,-222.061783,-8142.265362,536.266849
2347.780380,296.082377,-9326.594869,536.266849
2347.780707,1258.350101,-9252.574275,919.314598
2347.781035,1628.453072,-9326.594869,-842.705048
2347.781362,1110.308913,-10140.821405,0.000000
2347.781690,888.247130,-10436.903782,919.314598
2347.782017,888.247130,-9474.636058,766.095498
2347.782344,666.185348,-9474.636058,229.828649
2347.782672,74.020594,-9400.615463,612.876398
2347.782999,-814.226536,-8364.327145,612.876398
2347.783327,-814.226536,-9992.780217,229.828649
2347.783654,-888.247130,-10436.903782,-306.438199
2347.783982,296.082377,-9918.759623,-1762.019645
2347.784309,814.226536,-9992.780217,-1302.362347
2347.784636,1480.411884,-9696.697840,0.000000
2347.784964,1554.432478,-8734.430116,153.219100
2347.785291,1998.556043,-9326.594869,153.219100
2347.785619,518.144159,-9696.697840,153.219100
2347.785946,-222.061783,-9770.718434,-612.876398
2347.786274,0.000000,-10955.047942,-1532.190996
2347.786601,-1110.308913,-11621.233289,-1149.143247
2347.786928,-1258.350101,-11547.212695,-995.924147
2347.787256,-1406.391290,-11547.212695,-1225.752797
2347.787583,-1036.288319,-11103.089130,-1762.019645
2347.787911,-148.041188,-10288.862594,-1532.190996
2347.788238,0.000000,-8956.491898,-689.485948
2347.788566,0.000000,-7920.203579,76.609550
2347.788893,888.247130,-7698.141797,306.438199
2347.789220,814.226536,-7402.059420,383.047749
2347.789548,74.020594,-8068.244768,1838.629195
2347.789875,518.144159,-9474.636058,1302.362347
2347.790203,148.041188,-10362.883188,0.000000
2347.790530,222.061783,-11399.171507,-1378.971896
2347.790858,962.267725,-12287.418637,-1225.752797
2347.791185,1184.329507,-11177.109724,-995.924147
2347.791512,2220.617826,-10584.944971,0.000000
2347.791840,2294.638420,-9622.677246,1608.800546
2347.792167,592.164754,-8068.244768,1838.629195
2347.792495,222.061783,-7031.956449,1608.800546
2347.792822,148.041188,-6809.894666,995.924147
2347.793150,-592.164754,-7550.100608,306.438199
2347.793477,-1110.308913,-8808.450710,229.828649
2347.793805,-592.164754,-9474.636058,-459.657299
2347.794132,0.000000,-9696.697840,-1532.190996
2347.794460,666.185348,-10436.903782,-1302.362347
2347.794787,962.267725,-11695.253884,-842.705048
2347.795115,962.267725,-11029.068536,-383.047749
2347.795442,1702.473667,-10955.047942,0.000000
2347.795770,1184.329507,-10066.800811,766.095498
2347.796097,148.041188,-8882.471304,1149.143247
2347.796425,0.000000,-8882.471304,995.924147
2347.796752,-888.247130,-9252.574275,306.438199
2347.797080,-1480.411884,-9622.677246,-1149.143247
2347.797407,-518.144159,-9992.780217,-2068.457845
2347.797735,-148.041188,-9770.718434,-2145.067394
2347.798062,592.164754,-9770.718434,-1378.971896
2347.798390,1332.370696,-10214.842000,-536.266849
2347.798717,1184.329507,-9844.739029,306.438199
2347.799045,1036.288319,-10658.965565,612.876398
2347.799372,1480.411884,-10066.800811,0.000000
2347.799700,740.205942,-10214.842000,153.219100
2347.800027,-74.020594,-11177.109724,153.219100
2347.800355,-370.102971,-11177.109724,0.000000
2347.800682,-814.226536,-10288.862594,-1225.752797
2347.801010,-1036.288319,-9770.718434,-1225.752797
2347.801337,-370.102971,-9030.512492,0.000000
2347.801665,-296.082377,-7920.203579,-612.876398
2347.801992,666.185348,-7920.203579,0.000000
2347.802319,888.247130,-7624.121203,306.438199
2347.802647,1110.308913,-8068.244768,306.438199
2347.802974,1036.288319,-8364.327145,1302.362347
2347.803302,962.267725,-9178.553681,1455.581446
2347.803629,1332.370696,-9474.636058,0.000000
2347.803957,1702.473667,-11103.089130,-842.705048
2347.804284,1036.288319,-11473.192101,-1149.143247
2347.804612,1406.391290,-11843.295072,-536.266849
2347.804939,1332.370696,-10732.986159,-306.438199
2347.805267,370.102971,-9474.636058,0.000000
2347.805594,444.123565,-9474.636058,0.000000
2347.805922,222.061783,-7994.224174,-766.095498
2347.806249,296.082377,-7698.141797,0.000000
2347.806577,-518.144159,-8068.244768,689.485948
2347.806904,-666.185348,-9030.512492,689.485948
2347.807232,0.000000,-8808.450710,153.219100
2347.807559,-222.061783,-9400.615463,-459.657299
2347.807887,-296.082377,-10510.924376,-766.095498
2347.808214,-296.082377,-10140.821405,-536.266849
2347.808542,222.061783,-10807.006753,-1149.143247
2347.808869,0.000000,-10955.047942,-842.705048
2347.809197,74.020594,-10658.965565,-689.485948
2347.809524,-222.061783,-9844.739029,76.609550
2347.809852,-888.247130,-9770.718434,766.095498
2347.810179,-296.082377,-10436.903782,76.609550
2347.810507,370.102971,-10066.800811,-459.657299
2347.810834,740.205942,-9844.739029,-612.876398
2347.811162,962.267725,-9400.615463,0.000000
2347.811489,1184.329507,-9474.636058,306.438199
2347.811817,666.185348,-8734.430116,842.705048
2347.812144,0.000000,-8734.430116,612.876398
2347.812472,0.000000,-8882.471304,612.876398
2347.812799,-222.061783,-9400.615463,-306.438199
2347.813127,-666.185348,-9844.739029,0.000000
2347.813454,-814.226536,-10881.027347,-612.876398
2347.813782,-1406.391290,-10732.986159,-459.657299
2347.814109,-592.164754,-10807.006753,-1532.190996
2347.814436,-370.102971,-10436.903782,-1455.581446
2347.814764,0.000000,-9104.533087,-229.828649
2347.815091,1332.370696,-7846.182985,0.000000
2347.815419,1184.329507,-7698.141797,76.609550
2347.815746,888.247130,-8216.285956,383.047749
2347.816074,1258.350101,-8660.409521,229.828649
2347.816401,888.247130,-9252.574275,0.000000
2347.816729,518.144159,-10436.903782,-306.438199
2347.817056,962.267725,-10807.006753,-689.485948
2347.817384,1776.494261,-11325.150913,-1072.533697
2347.817711,1776.494261,-11843.295072,-919.314598
2347.818039,2220.617826,-11399.171507,-536.266849
2347.818366,1628.453072,-10214.842000,-229.828649
2347.818694,888.247130,-9622.677246,306.438199
2347.819021,0.000000,-9030.512492,459.657299
2347.819349,0.000000,-8142.265362,-536.266849
2347.819676,370.102971,-8586.388927,-612.876398
2347.820004,148.041188,-8882.471304,-766.095498
2347.820331,-518.144159,-9844.739029,-306.438199
2347.820659,0.000000,-10436.903782,-229.828649
2347.820986,592.164754,-10362.883188,-842.705048
2347.821314,0.000000,-9992.780217,-306.438199
2347.821641,592.164754,-9992.780217,-76.609550
2347.821969,1850.514855,-10362.883188,383.047749
2347.822296,1850.514855,-9992.780217,919.314598
2347.822624,814.226536,-9030.512492,1072.533697
2347.822951,370.102971,-8882.471304,1072.533697
2347.823279,-814.226536,-9474.636058,306.438199
2347.823606,-592.164754,-9844.739029,-459.657299
2347.823934,0.000000,-9992.780217,-1455.581446
2347.824261,0.000000,-10066.800811,-1149.143247
2347.824589,518.144159,-10436.903782,-1072.533697
2347.824916,666.185348,-9104.533087,-153.219100
2347.825244,518.144159,-8956.491898,229.828649
2347.825571,0.000000,-9474.636058,842.705048
2347.825898,-222.061783,-8216.285956,0.000000
2347.826226,-518.144159,-9030.512492,-612.876398
2347.826553,-740.205942,-9918.759623,0.000000
2347.826881,-1406.391290,-9992.780217,229.828649
2347.827208,-888.247130,-10807.006753,-612.876398
2347.827536,-1258.350101,-10807.006753,-919.314598
2347.827863,-444.123565,-10584.944971,-1378.971896
2347.828191,296.082377,-10214.842000,-919.314598
2347.828518,888.247130,-9400.615463,-383.047749
2347.828846,1702.473667,-9918.759623,383.047749
2347.829173,1554.432478,-9548.656652,459.657299
2347.829501,814.226536,-8438.347739,153.219100
2347.829828,0.000000,-9178.553681,919.314598
2347.830156,74.020594,-9474.636058,-229.828649
2347.830483,-222.061783,-10436.903782,-1302.362347
2347.830811,0.000000,-10732.986159,-1532.190996
2347.831138,1258.350101,-11029.068536,-2451.505594
2347.831466,888.247130,-10362.883188,-536.266849
2347.831793,962.267725,-10140.821405,306.438199
2347.832121,814.226536,-9622.677246,459.657299
2347.832448,666.185348,-8956.491898,0.000000
2347.832776,0.000000,-8438.347739,919.314598
2347.833103,0.000000,-7994.224174,459.657299
2347.833431,-518.144159,-8734.430116,842.705048
2347.833758,-1036.288319,-9400.615463,1072.533697
2347.834086,0.000000,-9104.533087,-919.314598
2347.834413,-296.082377,-9622.677246,-919.314598
2347.834741,-148.041188,-10510.924376,-995.924147
2347.835068,296.082377,-9770.718434,-383.047749
2347.835396,962.267725,-9252.574275,-306.438199
2347.835723,1110.308913,-10140.821405,0.000000
2347.836051,1184.329507,-9104.533087,919.314598
2347.836378,814.226536,-9474.636058,689.485948
2347.836706,-444.123565,-9770.718434,919.314598
2347.837033,0.000000,-10436.903782,0.000000
2347.837360,222.061783,-9918.759623,-1838.629195
2347.837688,148.041188,-10066.800811,-1532.190996
2347.838015,296.082377,-10584.944971,-689.485948
2347.838343,1480.411884,-10066.800811,-842.705048
2347.838670,666.185348,-9474.636058,-306.438199
2347.838998,444.123565,-9326.594869,0.000000
2347.839325,814.226536,-9474.636058,-536.266849
2347.839653,444.123565,-10140.821405,76.609550
2347.839980,444.123565,-11029.068536,306.438199
2347.840308,0.000000,-10140.821405,0.000000
2347.840635,74.020594,-10288.862594,-306.438199
2347.840963,-592.164754,-10658.965565,-383.047749
2347.841290,0.000000,-10584.944971,-229.828649
2347.841618,74.020594,-9252.574275,-229.828649
2347.841945,296.082377,-8734.430116,-153.219100
2347.842273,740.205942,-8882.471304,-153.219100
2347.842600,888.247130,-8734.430116,-842.705048
2347.842928,666.185348,-9030.512492,536.266849
2347.843255,74.020594,-9400.615463,76.609550
2347.843583,592.164754,-9918.759623,-842.705048
2347.843910,888.247130,-9918.759623,-766.095498
2347.844238,962.267725,-10066.800811,-689.485948
2347.844565,1998.556043,-10955.047942,229.828649
2347.844893,1924.535449,-9844.739029,1149.143247
2347.845220,740.205942,-8438.347739,1149.143247
2347.845548,0.000000,-8882.471304,383.047749
2347.845875,-444.123565,-9178.553681,229.828649
2347.846203,-740.205942,-8290.306550,-459.657299
2347.846530,-1110.308913,-9252.574275,-536.266849
2347.846858,-1110.308913,-10510.924376,0.000000
2347.847185,-370.102971,-10362.883188,-536.266849
2347.847513,222.061783,-10214.842000,-766.095498
2347.847840,296.082377,-9918.759623,-1302.362347
2347.848168,888.247130,-10140.821405,-459.657299
2347.848495,1628.453072,-9474.636058,-229.828649
2347.848822,1406.391290,-9696.697840,0.000000
2347.849150,222.061783,-9696.697840,1072.533697
2347.849477,222.061783,-9030.512492,383.047749
2347.849805,-222.061783,-9326.594869,153.219100
2347.850132,-1110.308913,-10214.842000,0.000000
2347.850460,-666.185348,-11177.109724,-1072.533697
2347.850787,74.020594,-10732.986159,-1608.800546
2347.851115,444.123565,-10362.883188,-766.095498
2347.851442,814.226536,-9918.759623,-536.266849
2347.851770,1406.391290,-9622.677246,1302.362347
2347.852097,740.205942,-8216.285956,1302.362347
2347.852425,0.000000,-8142.265362,229.828649
2347.852752,444.123565,-9400.615463,-383.047749
2347.853080,0.000000,-9622.677246,0.000000
2347.853407,-888.247130,-10066.800811,0.000000
2347.853735,-1184.329507,-9770.718434,-459.657299
2347.854062,-962.267725,-10436.903782,0.000000
2347.854390,-962.267725,-10288.862594,-306.438199
2347.854717,0.000000,-9770.718434,-689.485948
2347.855045,962.267725,-9030.512492,0.000000
2347.855372,1332.370696,-8364.327145,766.095498
2347.855700,740.205942,-7772.162391,1685.410096
2347.856027,444.123565,-7846.182985,1302.362347
2347.856355,148.041188,-8142.265362,0.000000
2347.856682,-444.123565,-8956.491898,-612.876398
2347.857010,0.000000,-10214.842000,-1302.362347
2347.857337,1184.329507,-11029.068536,-1762.019645
2347.857665,1776.494261,-11621.233289,-1532.190996
2347.857992,1702.473667,-11843.295072,-536.266849
2347.858320,1628.453072,-11029.068536,76.609550
2347.858647,1702.473667,-10584.944971,459.657299
2347.858975,296.082377,-9252.574275,689.485948
2347.859302,148.041188,-8216.285956,0.000000
2347.859630,370.102971,-8216.285956,459.657299
2347.859957,0.000000,-8808.450710,459.657299
2347.860284,-518.144159,-9918.759623,229.828649
2347.860612,-222.061783,-10214.842000,-612.876398
2347.860939,148.041188,-10362.883188,-2604.724693
2347.861267,222.061783,-10140.821405,-2221.676944
2347.861594,1332.370696,-10732.986159,-1685.410096
2347.861922,1406.391290,-10214.842000,-612.876398
2347.862249,1628.453072,-10214.842000,612.876398
2347.862577,1628.453072,-9844.739029,1838.629195
2347.862904,1258.350101,-9400.615463,1225.752797
2347.863232,74.020594,-8586.388927,1302.362347
2347.863559,-888.247130,-9252.574275,153.219100
2347.863887,-888.247130,-9548.656652,76.609550
2347.864214,296.082377,-9622.677246,-919.314598
2347.864542,518.144159,-9844.739029,0.000000
2347.864869,518.144159,-9548.656652,383.047749
2347.865197,1332.370696,-9400.615463,689.485948
2347.865524,1184.329507,-8808.450710,383.047749
2347.865852,814.226536,-8734.430116,-306.438199
2347.866179,444.123565,-9252.574275,-306.438199
2347.866507,-370.102971,-9770.718434,842.705048
2347.866834,-740.205942,-9474.636058,842.705048
2347.867162,-740.205942,-9992.780217,0.000000
2347.867489,-1036.288319,-10510.924376,-1072.533697
2347.867817,-962.267725,-9918.759623,-842.705048
2347.868144,-740.205942,-9992.780217,-919.314598
2347.868472,0.000000,-9252.574275,-306.438199
2347.868799,370.102971,-8956.491898,-306.438199
2347.869127,222.061783,-8808.450710,-306.438199
2347.869454,222.061783,-9696.697840,229.828649
2347.869782,222.061783,-10140.821405,536.266849
2347.870109,74.020594,-10066.800811,-153.219100
2347.870437,740.205942,-10807.006753,-766.095498
2347.870764,1036.288319,-11251.130318,-1455.581446
2347.871092,1332.370696,-10881.027347,-995.924147
2347.871419,666.185348,-10732.986159,-229.828649
2347.871746,592.164754,-10436.903782,-383.047749
2347.872074,0.000000,-9326.594869,-306.438199
2347.872401,-666.185348,-8364.327145,-612.876398
2347.872729,0.000000,-8660.409521,-229.828649
2347.873056,222.061783,-8882.471304,306.438199
2347.873384,-148.041188,-9844.739029,383.047749
2347.873711,-296.082377,-10658.965565,0.000000
2347.874039,666.185348,-10214.842000,-766.095498
2347.874366,1036.288319,-9474.636058,-689.485948
2347.874694,962.267725,-9992.780217,-306.438199
2347.875021,1184.329507,-9474.636058,229.828649
2347.875349,1554.432478,-8808.450710,76.609550
2347.875676,1184.329507,-9474.636058,536.266849
2347.876004,518.144159,-8808.450710,612.876398
2347.876331,-444.123565,-8882.471304,919.314598
2347.876659,-1184.329507,-9474.636058,1685.410096
2347.876986,-1332.370696,-9326.594869,0.000000
2347.877314,296.082377,-10214.842000,-919.314598
2347.877641,222.061783,-9844.739029,0.000000
2347.877969,296.082377,-9474.636058,459.657299
2347.878296,1406.391290,-9252.574275,0.000000
2347.878624,666.185348,-8808.450710,153.219100
2347.878951,-740.205942,-8068.244768,0.000000
2347.879279,444.123565,-9178.553681,-1149.143247
2347.879606,888.247130,-9844.739029,-1072.533697
2347.879934,296.082377,-10140.821405,-153.219100
2347.880261,222.061783,-10807.006753,0.000000
2347.880589,-666.185348,-10955.047942,153.219100
2347.880916,0.000000,-11177.109724,0.000000
2347.881244,740.205942,-10436.903782,-766.095498
2347.881571,370.102971,-9622.677246,-306.438199
2347.881899,1036.288319,-8882.471304,919.314598
2347.882226,1406.391290,-9252.574275,689.485948
2347.882554,444.123565,-8808.450710,536.266849
2347.882881,-518.144159,-9178.553681,76.609550
2347.883208,-740.205942,-9770.718434,-842.705048
2347.883536,-1628.453072,-9918.759623,-1302.362347
2347.883863,-666.185348,-10066.800811,-2145.067394
2347.884191,740.205942,-10881.027347,-1915.238745
2347.884518,814.226536,-10584.944971,-766.095498
2347.884846,1258.350101,-10807.006753,766.095498
2347.885173,1998.556043,-9844.739029,1072.533697
2347.885501,1036.288319,-8882.471304,842.705048
2347.885828,814.226536,-8438.347739,383.047749
2347.886156,888.247130,-7920.203579,76.609550
2347.886483,592.164754,-9252.574275,0.000000
2347.886811,0.000000,-9622.677246,459.657299
2347.887138,148.041188,-10066.800811,76.609550
2347.887466,0.000000,-10288.862594,-1378.971896
2347.887793,444.123565,-10436.903782,-1762.019645
2347.888121,296.082377,-9548.656652,-1608.800546
2347.888448,592.164754,-9030.512492,-995.924147
2347.888776,888.247130,-8586.388927,0.000000
2347.889103,1554.432478,-9104.533087,766.095498
2347.889431,222.061783,-8438.347739,1225.752797
2347.889758,-518.144159,-8364.327145,1072.533697
2347.890086,-1184.329507,-9252.574275,76.609550
2347.890413,-1406.391290,-10436.903782,-1072.533697
2347.890741,-666.185348,-10362.883188,-1378.971896
2347.891068,0.000000,-10140.821405,-1608.800546
2347.891396,1110.308913,-10807.006753,-1149.143247
2347.891723,1480.411884,-10436.903782,-229.828649
2347.892051,888.247130,-9770.718434,0.000000
2347.892378,444.123565,-9696.697840,153.219100
2347.892706,1258.350101,-9548.656652,-229.828649
2347.893033,1332.370696,-9178.553681,-459.657299
2347.893361,444.123565,-9918.759623,383.047749
2347.893689,-222.061783,-10658.965565,1225.752797
2347.894016,-592.164754,-9918.759623,459.657299
2347.894344,-1184.329507,-10362.883188,-306.438199
2347.894671,-1406.391290,-10881.027347,-1225.752797
2347.894999,0.000000,-10140.821405,-1532.190996
2347.895326,222.061783,-9474.636058,-229.828649
2347.895654,814.226536,-9178.553681,-459.657299
2347.895981,888.247130,-8808.450710,153.219100
2347.896309,518.144159,-8882.471304,919.314598
2347.896636,-370.102971,-9252.574275,383.047749
2347.896964,222.061783,-9474.636058,-842.705048
2347.897291,1036.288319,-9696.697840,-1838.629195
2347.897619,1036.288319,-9844.739029,-1149.143247
2347.897946,1036.288319,-10362.883188,383.047749
2347.898274,1850.514855,-9622.677246,689.485948
2347.898601,1628.453072,-9474.636058,536.266849
2347.898929,1110.308913,-9844.739029,536.266849
2347.899256,740.205942,-9252.574275,0.000000
2347.899584,444.123565,-8512.368333,0.000000
2347.899911,-296.082377,-9474.636058,383.047749
2347.900239,-1184.329507,-9770.718434,459.657299
2347.900567,0.000000,-9474.636058,0.000000
2347.900894,148.041188,-9326.594869,-766.095498
2347.901222,222.061783,-9548.656652,-1991.848295
2347.901549,962.267725,-10436.903782,-1532.190996
2347.901877,592.164754,-9474.636058,-612.876398
2347.902204,296.082377,-9474.636058,0.000000
2347.902532,518.144159,-9400.615463,306.438199
2347.902859,0.000000,-9326.594869,459.657299
2347.903187,-222.061783,-9770.718434,842.705048
2347.903514,-370.102971,-10510.924376,306.438199
2347.903842,-222.061783,-11177.109724,-612.876398
2347.904169,-148.041188,-10288.862594,-1225.752797
2347.904497,-296.082377,-10362.883188,-612.876398
2347.904824,0.000000,-9770.718434,-383.047749
2347.905152,296.082377,-8512.368333,0.000000
2347.905479,370.102971,-8956.491898,-689.485948
2347.905807,148.041188,-9696.697840,-689.485948
2347.906134,444.123565,-9178.553681,-766.095498
2347.906462,370.102971,-10140.821405,0.000000
2347.906790,-370.102971,-10658.965565,1225.752797
2347.907117,0.000000,-9918.759623,0.000000
2347.907445,-518.144159,-10288.862594,-536.266849
2347.907772,-1258.350101,-10584.944971,-153.219100
2347.908100,0.000000,-10214.842000,0.000000
2347.908427,666.185348,-9474.636058,153.219100
2347.908755,74.020594,-8438.347739,766.095498
2347.909082,0.000000,-8068.244768,536.266849
2347.909410,888.247130,-8734.430116,76.609550
2347.909737,0.000000,-9326.594869,-229.828649
2347.910065,296.082377,-10436.903782,-689.485948
2347.910392,1184.329507,-10288.862594,-1378.971896
2347.910720,1406.391290,-10732.986159,-995.924147
2347.911047,1924.535449,-11177.109724,0.000000
2347.911375,2146.597232,-11103.089130,612.876398
2347.911702,1628.453072,-9844.739029,459.657299
2347.912030,370.102971,-8586.388927,536.266849
2347.912357,148.041188,-9178.553681,0.000000
2347.912685,-296.082377,-8734.430116,0.000000
2347.913012,0.000000,-8586.388927,0.000000
2347.913340,-222.061783,-9400.615463,-229.828649
2347.913668,-148.041188,-10807.006753,-919.314598
2347.913995,518.144159,-10955.047942,-842.705048
2347.914323,962.267725,-9918.759623,-1378.971896
2347.914650,814.226536,-10066.800811,-1455.581446
2347.914978,962.267725,-9918.759623,-459.657299
2347.915305,740.205942,-9104.533087,306.438199
2347.915633,0.000000,-9400.615463,995.924147
2347.915960,-222.061783,-9474.636058,919.314598
2347.916288,-666.185348,-8808.450710,1225.752797
2347.916615,-1332.370696,-9474.636058,536.266849
2347.916943,-1850.514855,-10436.903782,-689.485948
2347.917270,-518.144159,-10584.944971,-1378.971896
2347.917598,148.041188,-11621.233289,-1072.533697
2347.917925,740.205942,-11103.089130,0.000000
2347.918253,1406.391290,-9326.594869,-766.095498
2347.918580,1406.391290,-8586.388927,76.609550
2347.918908,1036.288319,-8882.471304,689.485948
2347.919235,1184.329507,-8438.347739,-153.219100
2347.919563,1036.288319,-8438.347739,0.000000
2347.919891,148.041188,-9252.574275,842.705048
2347.920218,-888.247130,-9992.780217,689.485948
2347.920546,-1036.288319,-10510.924376,229.828649
2347.920873,-1332.370696,-10214.842000,-536.266849
2347.921201,0.000000,-10362.883188,-1838.629195
2347.921528,370.102971,-10362.883188,-1072.533697
2347.921856,296.082377,-9770.718434,612.876398
2347.922183,666.185348,-8882.471304,1149.143247
2347.922511,1110.308913,-8364.327145,612.876398
2347.922838,962.267725,-8660.409521,-153.219100
2347.923166,-296.082377,-8660.409521,689.485948
2347.923493,740.205942,-8956.491898,-306.438199
2347.923821,888.247130,-10140.821405,-1455.581446
2347.924148,1110.308913,-11251.130318,-995.924147
2347.924476,1480.411884,-10955.047942,-842.705048
2347.924803,1480.411884,-11029.068536,-229.828649
2347.925131,962.267725,-9770.718434,153.219100
2347.925458,740.205942,-9622.677246,-306.438199
2347.925786,1184.329507,-10214.842000,0.000000
2347.926113,740.205942,-8734.430116,536.266849
2347.926441,814.226536,-8216.285956,919.314598
2347.926769,518.144159,-9548.656652,536.266849
2347.927096,-444.123565,-10584.944971,153.219100
2347.927424,0.000000,-9696.697840,-1915.238745
2347.927751,0.000000,-9178.553681,-2451.505594
2347.928079,-740.205942,-9918.759623,-1532.190996
2347.928406,370.102971,-9770.718434,-1225.752797
2347.928734,1110.308913,-10066.800811,0.000000
2347.929061,666.185348,-10436.903782,842.705048
2347.929389,888.247130,-9474.636058,1072.533697
2347.929716,74.020594,-8660.409521,1072.533697
2347.930044,-1332.370696,-9104.533087,842.705048
2347.930371,-518.144159,-9474.636058,689.485948
2347.930699,0.000000,-9326.594869,-536.266849
2347.931026,-370.102971,-9844.739029,-383.047749
2347.931354,0.000000,-9770.718434,-383.047749
2347.931681,1110.308913,-9474.636058,-1072.533697
2347.932009,370.102971,-9252.574275,-1072.533697
2347.932336,74.020594,-9474.636058,383.047749
2347.932664,1332.370696,-9844.739029,-1149.143247
2347.932992,1110.308913,-9622.677246,0.000000
2347.933319,370.102971,-10140.821405,1072.533697
2347.933647,-222.061783,-10214.842000,1378.971896
2347.933974,-518.144159,-10288.862594,919.314598
2347.934302,-666.185348,-10140.821405,0.000000
2347.934629,-740.205942,-10584.944971,-459.657299
2347.934957,-592.164754,-10140.821405,0.000000
2347.935284,-296.082377,-8660.409521,0.000000
2347.935612,74.020594,-8734.430116,-536.266849
2347.935939,370.102971,-9474.636058,-919.314598
2347.936267,222.061783,-9770.718434,-536.266849
2347.936594,296.082377,-9252.574275,-766.095498
2347.936922,518.144159,-9252.574275,-995.924147
2347.937249,1702.473667,-10214.842000,-612.876398
2347.937577,1998.556043,-10288.862594,0.000000
2347.937904,1406.391290,-10140.821405,842.705048
2347.938232,1406.391290,-10140.821405,1149.143247
