#time,accel_x,accel_y,accel_z
3275.569707,592.164754,-9844.739029,0.000000
3275.570034,592.164754,-9844.739029,459.657299
3275.570362,1110.308913,-9770.718434,0.000000
3275.570690,666.185348,-9400.615463,0.000000
3275.571018,444.123565,-9400.615463,0.000000
3275.571345,222.061783,-8956.491898,0.000000
3275.571673,0.000000,-8882.471304,0.000000
3275.572001,222.061783,-9030.512492,0.000000
3275.572329,222.061783,-9326.594869,-1149.143247
3275.572656,-148.041188,-9326.594869,-995.924147
3275.572984,592.164754,-9844.739029,-612.876398
3275.573312,518.144159,-10140.821405,-306.438199
3275.573640,592.164754,-10214.842000,-306.438199
3275.573968,518.144159,-10214.842000,-229.828649
3275.574295,444.123565,-9622.677246,0.000000
3275.574623,592.164754,-9474.636058,0.000000
3275.574951,740.205942,-9474.636058,-229.828649
3275.575279,0.000000,-9252.574275,-76.609550
3275.575606,0.000000,-9770.718434,-459.657299
3275.575934,0.000000,-9844.739029,-459.657299
3275.576262,0.000000,-10140.821405,-766.095498
3275.576590,222.061783,-10955.047942,-612.876398
3275.576917,222.061783,-10214.842000,536.266849
3275.577245,518.144159,-10288.862594,-536.266849
3275.577573,370.102971,-10214.842000,0.000000
3275.577901,370.102971,-9770.718434,76.609550
3275.578228,370.102971,-9326.594869,0.000000
3275.578556,222.061783,-9326.594869,0.000000
3275.578884,222.061783,-9252.574275,-383.047749
3275.579212,-222.061783,-8808.450710,0.000000
3275.579540,0.000000,-8586.388927,0.000000
3275.579867,74.020594,-9178.553681,0.000000
3275.580195,222.061783,-9474.636058,0.000000
3275.580523,518.144159,-9548.656652,153.219100
3275.580851,592.164754,-9844.739029,76.609550
3275.581178,740.205942,-9548.656652,0.000000
3275.581506,518.144159,-9548.656652,383.047749
3275.581834,1036.288319,-8364.327145,306.438199
3275.582162,1332.370696,-8882.471304,76.609550
3275.582489,1628.453072,-8808.450710,0.000000
3275.582817,1998.556043,-8512.368333,0.000000
3275.583145,2886.803174,-8438.347739,-459.657299
3275.583473,3775.050304,-8734.430116,-459.657299
3275.583800,4737.318029,-9696.697840,-306.438199
3275.584128,6439.791695,-10584.944971,-689.485948
3275.584456,7402.059420,-10362.883188,0.000000
3275.584784,7994.224174,-10288.862594,0.000000
3275.585112,8808.450710,-10955.047942,0.000000
3275.585439,8734.430116,-10955.047942,229.828649
3275.585767,8068.244768,-10584.944971,459.657299
3275.586095,8586.388927,-9622.677246,-306.438199
3275.586423,8660.409521,-8808.450710,-919.314598
3275.586750,8956.491898,-8586.388927,-612.876398
3275.587078,9474.636058,-8808.450710,-153.219100
3275.587406,10214.842000,-9030.512492,-306.438199
3275.587734,10881.027347,-10214.842000,0.000000
3275.588061,11177.109724,-11029.068536,0.000000
3275.588389,11251.130318,-10362.883188,0.000000
3275.588717,10288.862594,-8142.265362,0.000000
3275.589045,12065.356855,-9918.759623,842.705048
3275.589372,13101.645173,-11177.109724,995.924147
3275.589700,13841.851115,-10436.903782,1149.143247
3275.590028,14285.974681,-8216.285956,919.314598
3275.590356,14211.954086,-7920.203579,229.828649
3275.590684,13693.809927,-9104.533087,919.314598
3275.591011,12657.521608,-7920.203579,1762.019645
3275.591339,12879.583391,-9030.512492,306.438199
3275.591667,12731.542202,-10658.965565,76.609550
3275.591995,13619.789333,-10807.006753,0.000000
3275.592322,13027.624579,-8956.491898,1378.971896
3275.592650,12953.603985,-8956.491898,2604.724693
3275.592978,12731.542202,-8586.388927,1762.019645
3275.593306,12213.398043,-9400.615463,153.219100
3275.593633,10881.027347,-9844.739029,153.219100
3275.593961,9770.718434,-9104.533087,0.000000
3275.594289,8586.388927,-8808.450710,0.000000
3275.594617,7402.059420,-9178.553681,0.000000
3275.594945,7402.059420,-8512.368333,-919.314598
3275.595272,9178.553681,-9474.636058,-1455.581446
3275.595600,10807.006753,-11399.171507,-229.828649
3275.595928,10955.047942,-12139.377449,1378.971896
3275.596256,10140.821405,-10955.047942,919.314598
3275.596583,8882.471304,-8808.450710,306.438199
3275.596911,8586.388927,-7994.224174,76.609550
3275.597239,8660.409521,-8808.450710,-306.438199
3275.597567,9178.553681,-10288.862594,995.924147
3275.597894,9104.533087,-10955.047942,766.095498
3275.598222,8586.388927,-9548.656652,-842.705048
3275.598550,7402.059420,-9474.636058,-1302.362347
3275.598878,6291.750507,-10584.944971,-842.705048
3275.599205,6217.729913,-10955.047942,-689.485948
3275.599533,7328.038826,-10288.862594,-1302.362347
3275.599861,10288.862594,-10214.842000,-1455.581446
3275.600189,11695.253884,-10510.924376,-612.876398
3275.600517,10584.944971,-8734.430116,1532.190996
3275.600844,7402.059420,-7772.162391,3677.258390
3275.601172,7031.956449,-7402.059420,2757.943793
3275.601500,9474.636058,-9252.574275,-1072.533697
3275.601828,10214.842000,-10288.862594,-2451.505594
3275.602155,9622.677246,-8882.471304,-2221.676944
3275.602483,8216.285956,-9548.656652,306.438199
3275.602811,8734.430116,-10955.047942,459.657299
3275.603139,8142.265362,-9696.697840,229.828649
3275.603466,7846.182985,-7920.203579,0.000000
3275.603794,8586.388927,-8364.327145,0.000000
3275.604122,10658.965565,-9622.677246,0.000000
3275.604450,10807.006753,-9548.656652,1072.533697
3275.604777,9918.759623,-9844.739029,2298.286494
3275.605105,8882.471304,-7698.141797,1455.581446
3275.605433,8808.450710,-6883.915261,-612.876398
3275.605761,8068.244768,-8660.409521,-919.314598
3275.606089,9030.512492,-10807.006753,-766.095498
3275.606416,9770.718434,-11399.171507,-459.657299
3275.606744,7698.141797,-12435.459826,-383.047749
3275.607072,6513.812290,-11621.233289,-383.047749
3275.607400,6513.812290,-9844.739029,-1685.410096
3275.607727,6513.812290,-10436.903782,-1378.971896
3275.608055,5699.585753,-12287.418637,-153.219100
3275.608383,6661.853478,-10436.903782,-383.047749
3275.608711,6883.915261,-9696.697840,0.000000
3275.609038,4515.256246,-9326.594869,1072.533697
3275.609366,3034.844362,-7698.141797,1225.752797
3275.609694,814.226536,-7920.203579,-766.095498
3275.610022,0.000000,-8882.471304,0.000000
3275.610349,3182.885551,-9252.574275,-1685.410096
3275.610677,4885.359217,-9696.697840,-2068.457845
3275.611005,4959.379811,-11843.295072,995.924147
3275.611333,7402.059420,-12139.377449,1838.629195
3275.611661,6143.709319,-10955.047942,1378.971896
3275.611988,2442.679609,-11991.336260,1915.238745
3275.612316,1480.411884,-11251.130318,-383.047749
3275.612644,370.102971,-8956.491898,-1608.800546
3275.612972,-814.226536,-8586.388927,383.047749
3275.613299,-1110.308913,-8216.285956,2374.896044
3275.613627,-3478.967927,-7402.059420,2987.772442
3275.613955,-5107.421000,-8290.306550,2987.772442
3275.614283,-5847.626942,-8660.409521,-229.828649
3275.614610,-5477.523971,-7105.977043,-1532.190996
3275.614938,-4219.173869,-6365.771101,-1225.752797
3275.615266,-4515.256246,-7254.018232,-612.876398
3275.615594,-2960.823768,-9104.533087,-536.266849
3275.615921,-1554.432478,-10214.842000,-842.705048
3275.616249,0.000000,-12287.418637,-383.047749
3275.616577,666.185348,-11843.295072,-306.438199
3275.616905,0.000000,-12065.356855,-153.219100
3275.617233,0.000000,-11917.315666,-383.047749
3275.617560,-592.164754,-11399.171507,-1149.143247
3275.617888,-666.185348,-9622.677246,-1455.581446
3275.618216,-666.185348,-7254.018232,-1532.190996
3275.618544,-962.267725,-8364.327145,842.705048
3275.618871,-888.247130,-8660.409521,1455.581446
3275.619199,0.000000,-8512.368333,-229.828649
3275.619527,-222.061783,-9474.636058,-1455.581446
3275.619855,0.000000,-8290.306550,-2451.505594
3275.620182,592.164754,-10436.903782,-2604.724693
3275.620510,1554.432478,-11325.150913,-1455.581446
3275.620838,1702.473667,-12287.418637,229.828649
3275.621166,1924.535449,-13693.809927,-1608.800546
3275.621494,2442.679609,-10807.006753,-2451.505594
3275.621821,2738.761985,-11769.274478,-919.314598
3275.622149,2146.597232,-11991.336260,689.485948
3275.622477,1332.370696,-10066.800811,842.705048
3275.622805,-740.205942,-7402.059420,842.705048
3275.623132,-370.102971,-5329.482782,-612.876398
3275.623460,-444.123565,-7179.997637,-536.266849
3275.623788,-444.123565,-8660.409521,842.705048
3275.624116,0.000000,-7105.977043,919.314598
3275.624443,962.267725,-9104.533087,-229.828649
3275.624771,3404.947333,-10732.986159,-1532.190996
3275.625099,3256.906145,-10807.006753,-766.095498
3275.625427,3775.050304,-11991.336260,1149.143247
3275.625754,4367.215058,-11399.171507,2068.457845
3275.626082,3627.009116,-12361.439231,1149.143247
3275.626410,2294.638420,-10510.924376,-536.266849
3275.626738,296.082377,-9474.636058,0.000000
3275.627066,-444.123565,-8216.285956,383.047749
3275.627393,0.000000,-7105.977043,1608.800546
3275.627721,-888.247130,-8734.430116,1378.971896
3275.628049,814.226536,-6217.729913,-459.657299
3275.628377,2146.597232,-5181.441594,0.000000
3275.628704,1036.288319,-9548.656652,2298.286494
3275.629032,1036.288319,-11843.295072,1838.629195
3275.629360,2294.638420,-13027.624579,0.000000
3275.629688,1554.432478,-11177.109724,-2145.067394
3275.630015,1406.391290,-11325.150913,-3140.991542
3275.630343,-592.164754,-13767.830521,-612.876398
3275.630671,-1332.370696,-13323.706956,995.924147
3275.630998,-1480.411884,-9918.759623,-1838.629195
3275.631326,-2738.761985,-8290.306550,-3753.867940
3275.631654,-4441.235652,-7698.141797,-2604.724693
3275.631981,-4219.173869,-7994.224174,-919.314598
3275.632309,-2368.659014,-5033.400406,153.219100
3275.632637,-1480.411884,-7254.018232,612.876398
3275.632964,444.123565,-8586.388927,1608.800546
3275.633292,2368.659014,-8068.244768,919.314598
3275.633619,1480.411884,-10214.842000,1608.800546
3275.633947,1036.288319,-10955.047942,1149.143247
3275.634275,222.061783,-11769.274478,-1685.410096
3275.634602,-1036.288319,-12879.583391,-2221.676944
3275.634930,-888.247130,-9696.697840,-2757.943793
3275.635257,-1702.473667,-9844.739029,-1378.971896
3275.635585,-2368.659014,-8956.491898,536.266849
3275.635913,-2442.679609,-9104.533087,383.047749
3275.636240,-2812.782580,-8734.430116,-459.657299
3275.636568,-962.267725,-7105.977043,-1455.581446
3275.636896,0.000000,-6957.935855,536.266849
3275.637223,1036.288319,-7624.121203,919.314598
3275.637551,1332.370696,-9918.759623,1991.848295
3275.637878,2368.659014,-9844.739029,995.924147
3275.638206,3404.947333,-8142.265362,-842.705048
3275.638534,1480.411884,-10807.006753,-612.876398
3275.638861,666.185348,-11695.253884,-229.828649
3275.639189,1110.308913,-11547.212695,-919.314598
3275.639516,-148.041188,-12805.562797,-1378.971896
3275.639844,0.000000,-11547.212695,-2757.943793
3275.640172,74.020594,-10436.903782,-2221.676944
3275.640499,-296.082377,-9474.636058,0.000000
3275.640827,740.205942,-8956.491898,459.657299
3275.641155,1554.432478,-8734.430116,766.095498
3275.641482,1554.432478,-5921.647536,0.000000
3275.641810,1924.535449,-7476.080014,1685.410096
3275.642137,1480.411884,-8216.285956,1915.238745
3275.642465,1998.556043,-8438.347739,1225.752797
3275.642793,2812.782580,-12065.356855,153.219100
3275.643120,3108.864956,-11621.233289,-2145.067394
3275.643448,2146.597232,-11399.171507,-1762.019645
3275.643776,370.102971,-12805.562797,153.219100
3275.644103,-370.102971,-12435.459826,153.219100
3275.644431,-148.041188,-11325.150913,-1149.143247
3275.644758,-666.185348,-7254.018232,-2451.505594
3275.645086,-1924.535449,-7179.997637,-995.924147
3275.645414,-1258.350101,-8364.327145,1455.581446
3275.645741,666.185348,-6587.832884,1991.848295
3275.646069,888.247130,-6587.832884,2145.067394
3275.646396,1776.494261,-7328.038826,2068.457845
3275.646724,2516.700203,-9992.780217,1685.410096
3275.647052,1258.350101,-11473.192101,536.266849
3275.647379,888.247130,-10584.944971,-1302.362347
3275.647707,222.061783,-12139.377449,-1991.848295
3275.648035,444.123565,-11843.295072,-1455.581446
3275.648362,148.041188,-10732.986159,-689.485948
3275.648690,-1184.329507,-10362.883188,1455.581446
3275.649017,-740.205942,-7920.203579,-536.266849
3275.649345,-740.205942,-8956.491898,0.000000
3275.649673,-1332.370696,-8660.409521,306.438199
3275.650000,-1258.350101,-8216.285956,-153.219100
3275.650328,-1924.535449,-9252.574275,-689.485948
3275.650656,-370.102971,-8586.388927,-306.438199
3275.650983,0.000000,-10732.986159,-995.924147
3275.651311,-962.267725,-12213.398043,0.000000
3275.651638,0.000000,-9918.759623,-689.485948
3275.651966,-296.082377,-10214.842000,-1685.410096
3275.652294,-1332.370696,-11251.130318,-2374.896044
3275.652621,-2220.617826,-11325.150913,-842.705048
3275.652949,-1332.370696,-9696.697840,-459.657299
3275.653276,0.000000,-7476.080014,-1762.019645
3275.653604,0.000000,-9992.780217,-536.266849
3275.653932,-740.205942,-9400.615463,1302.362347
3275.654259,296.082377,-9030.512492,1685.410096
3275.654587,222.061783,-8660.409521,1915.238745
3275.654915,296.082377,-7550.100608,0.000000
3275.655242,-148.041188,-8808.450710,459.657299
3275.655570,-444.123565,-9326.594869,536.266849
3275.655897,-296.082377,-9326.594869,536.266849
3275.656225,444.123565,-10214.842000,306.438199
3275.656553,888.247130,-7550.100608,0.000000
3275.656880,0.000000,-9992.780217,459.657299
3275.657208,-1332.370696,-11325.150913,1302.362347
3275.657535,-296.082377,-11251.130318,-1072.533697
3275.657863,592.164754,-10362.883188,-2451.505594
3275.658191,1332.370696,-8882.471304,-1991.848295
3275.658518,592.164754,-9696.697840,995.924147
3275.658846,1258.350101,-8364.327145,1762.019645
3275.659174,1998.556043,-8068.244768,1915.238745
3275.659501,1850.514855,-9252.574275,1302.362347
3275.659829,1702.473667,-8438.347739,-229.828649
3275.660156,1628.453072,-9548.656652,-459.657299
3275.660484,1406.391290,-10955.047942,0.000000
3275.660812,1036.288319,-10955.047942,-1225.752797
3275.661139,0.000000,-11843.295072,-1149.143247
3275.661467,1036.288319,-10732.986159,-2451.505594
3275.661795,1480.411884,-10881.027347,-2068.457845
3275.662122,1480.411884,-12509.480420,-1072.533697
3275.662450,814.226536,-10732.986159,306.438199
3275.662777,1184.329507,-9622.677246,0.000000
3275.663105,1332.370696,-7179.997637,-459.657299
3275.663433,1036.288319,-9030.512492,1072.533697
3275.663760,1110.308913,-10214.842000,1991.848295
3275.664088,1406.391290,-7994.224174,1225.752797
3275.664415,444.123565,-9696.697840,229.828649
3275.664743,-296.082377,-8808.450710,76.609550
3275.665071,-444.123565,-9622.677246,0.000000
3275.665398,-1776.494261,-10732.986159,153.219100
3275.665726,-962.267725,-9326.594869,-2451.505594
3275.666054,-1184.329507,-9918.759623,-2451.505594
3275.666381,-444.123565,-9400.615463,-383.047749
3275.666709,2294.638420,-7698.141797,306.438199
3275.667036,1924.535449,-9474.636058,3370.820191
3275.667364,1110.308913,-9696.697840,3217.601092
3275.667692,888.247130,-10732.986159,1378.971896
3275.668019,296.082377,-9400.615463,-1302.362347
3275.668347,-1332.370696,-7328.038826,-1685.410096
3275.668675,-1332.370696,-9252.574275,-612.876398
3275.669002,-888.247130,-9252.574275,0.000000
3275.669330,-1628.453072,-9992.780217,-842.705048
3275.669657,1480.411884,-9474.636058,-1225.752797
3275.669985,2368.659014,-8438.347739,-1225.752797
3275.670313,-222.061783,-11695.253884,1915.238745
3275.670640,-222.061783,-11621.233289,1149.143247
3275.670968,444.123565,-11103.089130,-1378.971896
3275.671295,0.000000,-10955.047942,-2145.067394
3275.671623,1110.308913,-9844.739029,-2757.943793
3275.671951,-592.164754,-9918.759623,-306.438199
3275.672278,-1554.432478,-10807.006753,995.924147
3275.672606,-1850.514855,-10362.883188,-459.657299
3275.672934,-2516.700203,-9252.574275,-2451.505594
3275.673261,-2294.638420,-8290.306550,-3217.601092
3275.673589,-1184.329507,-9104.533087,-1378.971896
3275.673916,-148.041188,-9474.636058,0.000000
3275.674244,1406.391290,-9844.739029,1455.581446
3275.674572,2886.803174,-10658.965565,1378.971896
3275.674899,3923.091493,-9770.718434,1072.533697
3275.675227,3330.926739,-9474.636058,766.095498
3275.675554,1480.411884,-10288.862594,2221.676944
3275.675882,370.102971,-10140.821405,536.266849
3275.676210,-962.267725,-9548.656652,-995.924147
3275.676537,0.000000,-7772.162391,-1838.629195
3275.676865,-666.185348,-7179.997637,-383.047749
3275.677193,0.000000,-8586.388927,1608.800546
3275.677520,1406.391290,-8882.471304,1149.143247
3275.677848,0.000000,-10362.883188,-153.219100
3275.678175,0.000000,-9400.615463,-766.095498
3275.678503,2072.576638,-9770.718434,-919.314598
3275.678831,1998.556043,-9992.780217,459.657299
3275.679158,1776.494261,-9400.615463,1149.143247
3275.679486,1628.453072,-11473.192101,995.924147
3275.679814,2442.679609,-10066.800811,-306.438199
3275.680141,2664.741391,-9104.533087,-1991.848295
3275.680469,444.123565,-9844.739029,-689.485948
3275.680796,-296.082377,-10584.944971,919.314598
3275.681124,222.061783,-10732.986159,-612.876398
3275.681452,1258.350101,-9030.512492,-2451.505594
3275.681779,0.000000,-10214.842000,-1072.533697
3275.682107,-148.041188,-10436.903782,766.095498
3275.682434,962.267725,-8956.491898,153.219100
3275.682762,888.247130,-11473.192101,-229.828649
3275.683090,1184.329507,-9622.677246,-1378.971896
3275.683417,666.185348,-8586.388927,-1149.143247
3275.683745,0.000000,-10881.027347,229.828649
3275.684073,444.123565,-10288.862594,-229.828649
3275.684400,592.164754,-10732.986159,-612.876398
3275.684728,814.226536,-10881.027347,-229.828649
3275.685055,962.267725,-9918.759623,-383.047749
3275.685383,1480.411884,-9326.594869,306.438199
3275.685711,-148.041188,-8586.388927,1149.143247
3275.686038,-1702.473667,-9178.553681,1608.800546
3275.686366,-1184.329507,-7772.162391,306.438199
3275.686694,-1258.350101,-7031.956449,-1149.143247
3275.687021,-1850.514855,-8290.306550,-536.266849
3275.687349,-1702.473667,-8734.430116,459.657299
3275.687676,-296.082377,-10140.821405,-612.876398
3275.688004,1110.308913,-10140.821405,229.828649
3275.688332,1406.391290,-9474.636058,-459.657299
3275.688659,148.041188,-11843.295072,0.000000
3275.688987,0.000000,-11325.150913,0.000000
3275.689314,888.247130,-10140.821405,-995.924147
3275.689642,74.020594,-9474.636058,-383.047749
3275.689970,-518.144159,-8734.430116,306.438199
3275.690297,148.041188,-8882.471304,459.657299
3275.690625,1036.288319,-8290.306550,229.828649
3275.690953,0.000000,-9622.677246,766.095498
3275.691280,-1332.370696,-10584.944971,536.266849
3275.691608,-962.267725,-8290.306550,-1838.629195
3275.691935,0.000000,-9326.594869,-2451.505594
3275.692263,1480.411884,-10955.047942,-2298.286494
3275.692591,1924.535449,-13989.892304,383.047749
3275.692918,1998.556043,-13915.871710,1532.190996
3275.693246,2886.803174,-9178.553681,-1608.800546
3275.693573,444.123565,-9770.718434,-2451.505594
3275.693901,-2590.720797,-11029.068536,-612.876398
3275.694229,-2886.803174,-8068.244768,-689.485948
3275.694556,-1850.514855,-6291.750507,-1608.800546
3275.694884,-1036.288319,-6439.791695,-1762.019645
3275.695212,-592.164754,-8734.430116,229.828649
3275.695539,518.144159,-9326.594869,2068.457845
3275.695867,3108.864956,-9696.697840,1762.019645
3275.696194,3627.009116,-11251.130318,536.266849
3275.696522,2516.700203,-10510.924376,-1532.190996
3275.696850,1628.453072,-9252.574275,153.219100
3275.697177,814.226536,-9252.574275,612.876398
3275.697505,1924.535449,-8956.491898,612.876398
3275.697833,1258.350101,-10436.903782,1685.410096
3275.698160,740.205942,-7846.182985,919.314598
3275.698488,-2146.597232,-8290.306550,-612.876398
3275.698815,-3108.864956,-10732.986159,-306.438199
3275.699143,-592.164754,-9252.574275,-1762.019645
3275.699471,296.082377,-9474.636058,-1302.362347
3275.699798,1480.411884,-9474.636058,0.000000
3275.700126,2294.638420,-9696.697840,612.876398
3275.700453,2590.720797,-9548.656652,1302.362347
3275.700781,3478.967927,-10288.862594,1072.533697
3275.701109,2072.576638,-12139.377449,612.876398
3275.701436,222.061783,-9622.677246,-229.828649
3275.701764,-370.102971,-8438.347739,-1455.581446
3275.702092,0.000000,-11325.150913,-1991.848295
3275.702419,-592.164754,-11251.130318,-1685.410096
3275.702747,-888.247130,-11177.109724,-995.924147
3275.703074,370.102971,-9400.615463,-1685.410096
3275.703402,0.000000,-9622.677246,-1302.362347
3275.703730,444.123565,-10510.924376,0.000000
3275.704057,666.185348,-9252.574275,-306.438199
3275.704385,222.061783,-9622.677246,306.438199
3275.704713,296.082377,-8660.409521,0.000000
3275.705040,148.041188,-9030.512492,459.657299
3275.705368,0.000000,-10510.924376,766.095498
3275.705695,-222.061783,-9400.615463,-229.828649
3275.706023,0.000000,-10955.047942,-1455.581446
3275.706351,0.000000,-10955.047942,-1302.362347
3275.706678,814.226536,-9696.697840,-1225.752797
3275.707006,-740.205942,-9770.718434,766.095498
3275.707333,-666.185348,-8438.347739,229.828649
3275.707661,-1332.370696,-9622.677246,229.828649
3275.707989,-1110.308913,-10362.883188,1072.533697
3275.708316,-370.102971,-6587.832884,-383.047749
3275.708644,-962.267725,-7105.977043,-229.828649
3275.708972,-1554.432478,-8512.368333,1378.971896
3275.709299,-518.144159,-9992.780217,1072.533697
3275.709627,740.205942,-10066.800811,0.000000
3275.709954,666.185348,-8956.491898,-689.485948
3275.710282,888.247130,-10214.842000,-689.485948
3275.710610,888.247130,-10955.047942,-995.924147
3275.710937,1036.288319,-11325.150913,-842.705048
3275.711265,2072.576638,-11029.068536,0.000000
3275.711593,2220.617826,-9622.677246,383.047749
3275.711920,518.144159,-9696.697840,689.485948
3275.712248,-592.164754,-8216.285956,995.924147
3275.712575,-1628.453072,-7328.038826,0.000000
3275.712903,-1184.329507,-9326.594869,-919.314598
3275.713231,222.061783,-9992.780217,-995.924147
3275.713558,1480.411884,-10732.986159,-306.438199
3275.713886,2812.782580,-10732.986159,-536.266849
3275.714213,2072.576638,-12953.603985,-383.047749
3275.714541,666.185348,-12879.583391,-229.828649
3275.714869,370.102971,-8734.430116,-2681.334243
3275.715196,-814.226536,-8660.409521,-2068.457845
3275.715524,-2220.617826,-10436.903782,-306.438199
3275.715852,-1184.329507,-9400.615463,689.485948
3275.716179,592.164754,-8660.409521,1072.533697
3275.716507,1702.473667,-7105.977043,-383.047749
3275.716834,592.164754,-8660.409521,459.657299
3275.717162,148.041188,-9992.780217,1378.971896
3275.717490,888.247130,-9252.574275,-766.095498
3275.717817,1184.329507,-9918.759623,-919.314598
3275.718145,1406.391290,-8438.347739,-919.314598
3275.718472,1998.556043,-8216.285956,1225.752797
3275.718800,888.247130,-9178.553681,2681.334243
3275.719128,-296.082377,-11399.171507,1532.190996
3275.719455,-1184.329507,-13101.645173,-459.657299
3275.719783,222.061783,-8882.471304,-2757.943793
3275.720111,148.041188,-7105.977043,-2451.505594
3275.720438,-666.185348,-10362.883188,229.828649
3275.720766,-444.123565,-10140.821405,1685.410096
3275.721093,444.123565,-9326.594869,1149.143247
3275.721421,1110.308913,-7698.141797,-1378.971896
3275.721749,1554.432478,-8956.491898,-1149.143247
3275.722076,222.061783,-10584.944971,1762.019645
3275.722404,-222.061783,-9696.697840,1302.362347
3275.722732,-518.144159,-11325.150913,0.000000
3275.723059,-222.061783,-10584.944971,-1838.629195
3275.723387,0.000000,-9030.512492,-1608.800546
3275.723714,296.082377,-11177.109724,0.000000
3275.724042,814.226536,-11325.150913,-766.095498
3275.724370,74.020594,-11251.130318,-1455.581446
3275.724697,-888.247130,-9474.636058,-1532.190996
3275.725025,-888.247130,-7846.182985,-1455.581446
3275.725352,-1184.329507,-8512.368333,-536.266849
3275.725680,-296.082377,-9400.615463,919.314598
3275.726008,740.205942,-9844.739029,612.876398
3275.726335,814.226536,-9918.759623,0.000000
3275.726663,740.205942,-9252.574275,-689.485948
3275.726991,518.144159,-9770.718434,766.095498
3275.727318,222.061783,-9696.697840,459.657299
3275.727646,222.061783,-10584.944971,-459.657299
3275.727973,888.247130,-10066.800811,-1378.971896
3275.728301,2368.659014,-8142.265362,-1608.800546
3275.728629,1258.350101,-9992.780217,919.314598
3275.728956,-222.061783,-10881.027347,2068.457845
3275.729284,-370.102971,-9030.512492,1455.581446
3275.729612,0.000000,-9326.594869,-306.438199
3275.729939,-814.226536,-8512.368333,-1915.238745
3275.730267,-888.247130,-9252.574275,-1685.410096
3275.730594,-814.226536,-8734.430116,-842.705048
3275.730922,-148.041188,-9622.677246,0.000000
3275.731250,814.226536,-10362.883188,459.657299
3275.731577,1998.556043,-8586.388927,-766.095498
3275.731905,1332.370696,-9696.697840,76.609550
3275.732232,814.226536,-11029.068536,536.266849
3275.732560,74.020594,-11621.233289,-1149.143247
3275.732888,-444.123565,-11399.171507,-1302.362347
3275.733215,370.102971,-8438.347739,-1762.019645
3275.733543,2072.576638,-9030.512492,-1378.971896
3275.733870,1406.391290,-11103.089130,995.924147
3275.734198,1036.288319,-11399.171507,2221.676944
3275.734526,1702.473667,-10362.883188,76.609550
3275.734853,1480.411884,-8734.430116,-2145.067394
3275.735181,-222.061783,-9400.615463,-1455.581446
3275.735509,-1332.370696,-9400.615463,306.438199
3275.735836,-814.226536,-8660.409521,-153.219100
3275.736164,296.082377,-10584.944971,-1762.019645
3275.736491,148.041188,-9104.533087,-1762.019645
3275.736819,-222.061783,-9844.739029,153.219100
3275.737147,222.061783,-10436.903782,995.924147
3275.737474,1332.370696,-10140.821405,-229.828649
3275.737802,-518.144159,-10732.986159,76.609550
3275.738129,-148.041188,-8216.285956,-306.438199
3275.738457,666.185348,-7994.224174,-766.095498
3275.738785,1702.473667,-9030.512492,766.095498
3275.739112,2368.659014,-8142.265362,1991.848295
3275.739440,1332.370696,-8956.491898,2757.943793
3275.739767,-296.082377,-10214.842000,1838.629195
3275.740095,-1110.308913,-9400.615463,383.047749
3275.740423,0.000000,-8808.450710,-1991.848295
3275.740750,0.000000,-9252.574275,-2068.457845
3275.741078,-592.164754,-11325.150913,0.000000
3275.741406,148.041188,-9992.780217,383.047749
3275.741733,1184.329507,-7920.203579,-229.828649
3275.742061,1480.411884,-9992.780217,306.438199
3275.742388,0.000000,-9474.636058,612.876398
3275.742716,-814.226536,-9252.574275,536.266849
3275.743044,-740.205942,-7920.203579,-536.266849
3275.743371,296.082377,-8956.491898,-2528.115143
3275.743699,-74.020594,-11843.295072,-1455.581446
3275.744026,0.000000,-10955.047942,-306.438199
3275.744354,1184.329507,-11251.130318,0.000000
3275.744682,1480.411884,-11769.274478,-153.219100
3275.745009,1480.411884,-10658.965565,-995.924147
3275.745337,296.082377,-9992.780217,-383.047749
3275.745664,-444.123565,-9030.512492,-1378.971896
3275.745992,-888.247130,-9326.594869,-229.828649
3275.746320,-370.102971,-9326.594869,383.047749
3275.746647,0.000000,-7476.080014,-306.438199
3275.746975,222.061783,-10510.924376,0.000000
3275.747303,0.000000,-10807.006753,-689.485948
3275.747630,444.123565,-10288.862594,-1762.019645
3275.747958,0.000000,-11251.130318,-1378.971896
3275.748285,74.020594,-9252.574275,-1072.533697
3275.748613,444.123565,-8956.491898,-459.657299
3275.748941,740.205942,-9474.636058,536.266849
3275.749268,1406.391290,-10214.842000,1302.362347
3275.749596,1924.535449,-9622.677246,1378.971896
3275.749923,1184.329507,-7550.100608,1072.533697
3275.750251,-1258.350101,-8290.306550,1762.019645
3275.750579,-1702.473667,-8882.471304,153.219100
3275.750906,-1258.350101,-10214.842000,-1762.019645
3275.751234,-1184.329507,-9696.697840,-2068.457845
3275.751561,-740.205942,-8364.327145,-1149.143247
3275.751889,666.185348,-10288.862594,229.828649
3275.752217,1258.350101,-10362.883188,1455.581446
3275.752544,2516.700203,-9548.656652,536.266849
3275.752872,1258.350101,-10066.800811,306.438199
3275.753200,0.000000,-9104.533087,383.047749
3275.753527,296.082377,-9474.636058,0.000000
3275.753855,0.000000,-9548.656652,-1302.362347
3275.754182,-222.061783,-9844.739029,-612.876398
3275.754510,666.185348,-10584.944971,-842.705048
3275.754838,1702.473667,-9844.739029,-1685.410096
3275.755165,1184.329507,-10658.965565,153.219100
3275.755493,1036.288319,-10510.924376,-153.219100
3275.755820,888.247130,-10066.800811,-1072.533697
3275.756148,1184.329507,-11769.274478,-536.266849
3275.756476,888.247130,-9474.636058,-1302.362347
3275.756803,740.205942,-8364.327145,0.000000
3275.757131,0.000000,-8956.491898,766.095498
3275.757458,0.000000,-9474.636058,229.828649
3275.757786,-296.082377,-11843.295072,76.609550
3275.758114,0.000000,-9844.739029,-1072.533697
3275.758441,814.226536,-9622.677246,-2145.067394
3275.758769,0.000000,-9696.697840,-919.314598
3275.759097,-666.185348,-8660.409521,-842.705048
3275.759424,-518.144159,-9696.697840,0.000000
3275.759752,2368.659014,-7846.182985,-229.828649
3275.760079,3330.926739,-8216.285956,1225.752797
3275.760407,2220.617826,-9104.533087,3370.820191
3275.760735,444.123565,-9252.574275,2298.286494
3275.761062,-1406.391290,-11177.109724,766.095498
3275.761390,-1332.370696,-9622.677246,-2987.772442
3275.761717,0.000000,-9252.574275,-3217.601092
3275.762045,-296.082377,-10584.944971,-919.314598
3275.762373,-666.185348,-9918.759623,1072.533697
3275.762700,1184.329507,-10807.006753,0.000000
3275.763028,1702.473667,-9770.718434,-536.266849
3275.763355,444.123565,-7920.203579,842.705048
3275.763683,-962.267725,-8364.327145,2068.457845
3275.764011,-962.267725,-7698.141797,612.876398
3275.764338,74.020594,-9548.656652,-919.314598
3275.764666,740.205942,-10510.924376,-1915.238745
3275.764993,518.144159,-9400.615463,-383.047749
3275.765321,592.164754,-10584.944971,919.314598
3275.765649,1406.391290,-10807.006753,612.876398
3275.765976,592.164754,-11843.295072,-1302.362347
3275.766304,-370.102971,-10881.027347,-2451.505594
3275.766632,74.020594,-8216.285956,-2987.772442
3275.766959,-740.205942,-9696.697840,-229.828649
3275.767287,-814.226536,-9252.574275,1225.752797
3275.767614,222.061783,-9992.780217,1149.143247
3275.767942,1110.308913,-10881.027347,229.828649
3275.768270,1036.288319,-9770.718434,0.000000
3275.768597,518.144159,-9844.739029,-842.705048
3275.768925,-296.082377,-9474.636058,-842.705048
3275.769252,-1036.288319,-9770.718434,-536.266849
3275.769580,0.000000,-9474.636058,-536.266849
3275.769908,962.267725,-9030.512492,-612.876398
3275.770235,1850.514855,-10732.986159,1302.362347
3275.770563,2146.597232,-9770.718434,1762.019645
3275.770890,1406.391290,-9992.780217,1302.362347
3275.771218,-296.082377,-10807.006753,1149.143247
3275.771546,-740.205942,-8882.471304,-536.266849
3275.771873,-1332.370696,-8438.347739,-1762.019645
3275.772201,-1184.329507,-8956.491898,-995.924147
3275.772529,-1924.535449,-7476.080014,76.609550
3275.772856,-962.267725,-9030.512492,-306.438199
3275.773184,1036.288319,-9030.512492,0.000000
3275.773511,666.185348,-9326.594869,919.314598
3275.773839,1480.411884,-10214.842000,383.047749
3275.774167,1110.308913,-10140.821405,459.657299
3275.774494,370.102971,-11103.089130,76.609550
3275.774822,740.205942,-9696.697840,-1991.848295
3275.775149,-370.102971,-9030.512492,-306.438199
3275.775477,-222.061783,-9548.656652,-459.657299
3275.775805,1776.494261,-10140.821405,-459.657299
3275.776132,1036.288319,-11547.212695,1225.752797
3275.776460,296.082377,-9400.615463,842.705048
3275.776787,2072.576638,-9326.594869,-1685.410096
3275.777115,740.205942,-9622.677246,-1225.752797
3275.777443,-962.267725,-9844.739029,-383.047749
3275.777770,-518.144159,-9992.780217,0.000000
3275.778098,1628.453072,-7846.182985,-1685.410096
3275.778426,1258.350101,-9104.533087,-536.266849
3275.778753,1036.288319,-11917.315666,1455.581446
3275.779081,1036.288319,-10362.883188,1225.752797
3275.779408,888.247130,-11029.068536,536.266849
3275.779736,518.144159,-9696.697840,-2221.676944
3275.780064,-1480.411884,-8216.285956,-2145.067394
3275.780391,-962.267725,-9474.636058,-689.485948
3275.780719,1554.432478,-9400.615463,0.000000
3275.781046,1850.514855,-10436.903782,1762.019645
3275.781374,1998.556043,-9326.594869,2221.676944
3275.781702,1998.556043,-8364.327145,536.266849
3275.782029,0.000000,-9696.697840,842.705048
3275.782357,-1480.411884,-9548.656652,-383.047749
3275.782684,-1850.514855,-9400.615463,-1608.800546
3275.783012,-888.247130,-9474.636058,-1378.971896
3275.783340,0.000000,-8438.347739,-1225.752797
3275.783667,74.020594,-9548.656652,612.876398
3275.783995,592.164754,-9918.759623,1378.971896
3275.784323,962.267725,-11325.150913,1149.143247
3275.784650,370.102971,-10881.027347,-766.095498
3275.784978,-370.102971,-7476.080014,-2451.505594
3275.785305,-1406.391290,-8734.430116,-995.924147
3275.785633,-962.267725,-9844.739029,459.657299
3275.785961,-148.041188,-9770.718434,1072.533697
3275.786288,74.020594,-10066.800811,306.438199
3275.786616,814.226536,-9030.512492,-1072.533697
3275.786943,666.185348,-10955.047942,-536.266849
3275.787271,518.144159,-10881.027347,0.000000
3275.787599,-370.102971,-9918.759623,-842.705048
3275.787926,-1184.329507,-10066.800811,-1762.019645
3275.788254,-666.185348,-8290.306550,-2374.896044
3275.788581,0.000000,-9252.574275,-1225.752797
3275.788909,370.102971,-10066.800811,1225.752797
3275.789237,666.185348,-10881.027347,689.485948
3275.789564,518.144159,-11029.068536,0.000000
3275.789892,814.226536,-9770.718434,-1225.752797
3275.790220,222.061783,-9104.533087,-1225.752797
3275.790547,0.000000,-8734.430116,-536.266849
3275.790875,74.020594,-8956.491898,383.047749
3275.791202,888.247130,-10214.842000,153.219100
3275.791530,1924.535449,-8364.327145,-459.657299
3275.791858,1924.535449,-9252.574275,306.438199
3275.792185,444.123565,-10362.883188,1532.190996
3275.792513,-444.123565,-10362.883188,1072.533697
3275.792840,-1184.329507,-10658.965565,-995.924147
3275.793168,-740.205942,-9400.615463,-2451.505594
3275.793496,0.000000,-9104.533087,-2911.162892
3275.793823,148.041188,-8660.409521,76.609550
3275.794151,962.267725,-9400.615463,1838.629195
3275.794478,1702.473667,-10807.006753,1762.019645
3275.794806,2960.823768,-9400.615463,-153.219100
3275.795134,1554.432478,-7772.162391,459.657299
3275.795461,-666.185348,-9400.615463,766.095498
3275.795789,-1776.494261,-10066.800811,0.000000
3275.796116,-1480.411884,-9992.780217,-1608.800546
3275.796444,74.020594,-9326.594869,-2757.943793
3275.796772,2146.597232,-9918.759623,-2298.286494
3275.797099,2368.659014,-11399.171507,1378.971896
3275.797427,1998.556043,-11251.130318,2681.334243
3275.797755,2368.659014,-11325.150913,0.000000
3275.798082,1850.514855,-8956.491898,-1915.238745
3275.798410,-666.185348,-8364.327145,-1838.629195
3275.798737,-1628.453072,-9474.636058,0.000000
3275.799065,-592.164754,-8586.388927,153.219100
3275.799393,148.041188,-10140.821405,153.219100
3275.799720,888.247130,-9844.739029,-306.438199
3275.800048,1332.370696,-9696.697840,-612.876398
3275.800375,888.247130,-9696.697840,383.047749
3275.800703,148.041188,-10362.883188,-383.047749
3275.801031,-814.226536,-9992.780217,-842.705048
3275.801358,-296.082377,-8438.347739,-1532.190996
3275.801686,1480.411884,-8512.368333,-919.314598
3275.802013,1702.473667,-9844.739029,2757.943793
3275.802341,1110.308913,-9622.677246,3983.696590
3275.802669,888.247130,-8956.491898,2374.896044
3275.802996,0.000000,-8808.450710,-612.876398
3275.803324,-2146.597232,-9548.656652,-2757.943793
3275.803652,-2516.700203,-10955.047942,-1838.629195
3275.803979,-1184.329507,-8956.491898,-1072.533697
3275.804307,148.041188,-9548.656652,-766.095498
3275.804634,296.082377,-10807.006753,1072.533697
3275.804962,888.247130,-9770.718434,1225.752797
3275.805290,444.123565,-9770.718434,1608.800546
3275.805617,814.226536,-9918.759623,383.047749
3275.805945,-814.226536,-9918.759623,-1225.752797
3275.806272,-2072.576638,-9548.656652,-1072.533697
3275.806600,-1036.288319,-7476.080014,-919.314598
3275.806928,222.061783,-9252.574275,995.924147
3275.807255,0.000000,-11399.171507,1455.581446
3275.807583,0.000000,-10955.047942,306.438199
3275.807910,1702.473667,-11843.295072,-1225.752797
3275.808238,2368.659014,-10436.903782,-2528.115143
3275.808566,888.247130,-10214.842000,-1149.143247
3275.808893,-814.226536,-8438.347739,995.924147
3275.809221,-666.185348,-8068.244768,842.705048
3275.809549,222.061783,-9918.759623,0.000000
3275.809876,888.247130,-8956.491898,-536.266849
3275.810204,444.123565,-9548.656652,689.485948
3275.810531,370.102971,-10066.800811,306.438199
3275.810859,1184.329507,-10732.986159,-1608.800546
3275.811187,962.267725,-11029.068536,-1685.410096
3275.811514,1036.288319,-8808.450710,-1838.629195
3275.811842,814.226536,-8660.409521,-229.828649
3275.812169,1036.288319,-9252.574275,1838.629195
3275.812497,1998.556043,-9474.636058,1685.410096
3275.812825,2368.659014,-10658.965565,1608.800546
3275.813152,2368.659014,-8734.430116,459.657299
3275.813480,222.061783,-8808.450710,229.828649
3275.813807,-1850.514855,-9474.636058,229.828649
3275.814135,-3034.844362,-9474.636058,-1915.238745
3275.814463,-1332.370696,-9622.677246,-3370.820191
3275.814790,74.020594,-9030.512492,-3600.648841
3275.815118,370.102971,-9548.656652,-229.828649
3275.815446,1258.350101,-9844.739029,1915.238745
3275.815773,2812.782580,-10584.944971,2528.115143
3275.816101,3182.885551,-11547.212695,76.609550
3275.816428,2072.576638,-8512.368333,0.000000
3275.816756,-666.185348,-7920.203579,0.000000
3275.817084,-1776.494261,-10140.821405,0.000000
3275.817411,-1554.432478,-10436.903782,-1302.362347
3275.817739,-592.164754,-10807.006753,-2068.457845
3275.818066,1036.288319,-9844.739029,-2757.943793
3275.818394,2146.597232,-9696.697840,-995.924147
3275.818722,370.102971,-11399.171507,2145.067394
3275.819049,0.000000,-9474.636058,536.266849
3275.819377,740.205942,-9326.594869,-766.095498
3275.819704,296.082377,-8882.471304,-1225.752797
3275.820032,0.000000,-8660.409521,-612.876398
3275.820360,-592.164754,-9326.594869,1225.752797
3275.820687,0.000000,-9104.533087,919.314598
3275.821015,518.144159,-11399.171507,536.266849
3275.821343,444.123565,-10807.006753,-536.266849
3275.821670,0.000000,-9696.697840,-1608.800546
3275.821998,0.000000,-10214.842000,-995.924147
3275.822325,-296.082377,-8882.471304,-1378.971896
3275.822653,-740.205942,-9770.718434,-306.438199
3275.822981,0.000000,-9252.574275,76.609550
3275.823308,888.247130,-6957.935855,1685.410096
3275.823636,1850.514855,-9696.697840,2911.162892
3275.823963,1406.391290,-10362.883188,2451.505594
3275.824291,666.185348,-9844.739029,0.000000
3275.824619,-740.205942,-9992.780217,-1915.238745
3275.824946,-2368.659014,-9474.636058,-2681.334243
3275.825274,-1406.391290,-10658.965565,-2221.676944
3275.825601,-444.123565,-8438.347739,-612.876398
3275.825929,148.041188,-8808.450710,842.705048
3275.826257,962.267725,-11251.130318,1072.533697
3275.826584,2220.617826,-10807.006753,0.000000
3275.826912,814.226536,-10436.903782,842.705048
3275.827240,444.123565,-9400.615463,0.000000
3275.827567,-296.082377,-7846.182985,-383.047749
3275.827895,-518.144159,-9400.615463,0.000000
3275.828222,296.082377,-8956.491898,-995.924147
3275.828550,888.247130,-9770.718434,-383.047749
3275.828878,888.247130,-11251.130318,1149.143247
3275.829205,1480.411884,-10807.006753,383.047749
3275.829533,0.000000,-11029.068536,0.000000
3275.829860,148.041188,-9548.656652,-1149.143247
3275.830188,0.000000,-9326.594869,-2221.676944
3275.830516,-444.123565,-9770.718434,-536.266849
3275.830843,222.061783,-9030.512492,0.000000
3275.831171,1184.329507,-9992.780217,919.314598
3275.831499,1850.514855,-9622.677246,612.876398
3275.831826,814.226536,-9548.656652,689.485948
3275.832154,148.041188,-10140.821405,-229.828649
3275.832481,370.102971,-9104.533087,-1149.143247
3275.832809,296.082377,-9030.512492,-612.876398
3275.833137,962.267725,-7772.162391,-536.266849
3275.833464,1110.308913,-9474.636058,1225.752797
3275.833792,2368.659014,-11029.068536,2145.067394
3275.834120,1850.514855,-9474.636058,536.266849
3275.834447,666.185348,-11843.295072,459.657299
3275.834775,-370.102971,-9030.512492,-612.876398
3275.835103,-592.164754,-8512.368333,-1685.410096
3275.835430,-1110.308913,-9918.759623,-2068.457845
3275.835758,-1702.473667,-7920.203579,-1685.410096
3275.836085,-1628.453072,-8882.471304,0.000000
3275.836413,740.205942,-9326.594869,229.828649
3275.836741,1628.453072,-8882.471304,459.657299
3275.837068,2072.576638,-10436.903782,383.047749
3275.837396,1110.308913,-10436.903782,306.438199
3275.837724,-666.185348,-11621.233289,766.095498
3275.838051,-592.164754,-10658.965565,-1302.362347
3275.838379,-962.267725,-10066.800811,-2604.724693
3275.838707,-1406.391290,-10658.965565,-1378.971896
3275.839034,814.226536,-9474.636058,-1838.629195
3275.839362,1110.308913,-10066.800811,153.219100
3275.839690,1406.391290,-10510.924376,1608.800546
3275.840017,740.205942,-9104.533087,1072.533697
3275.840345,962.267725,-9844.739029,153.219100
3275.840672,0.000000,-9622.677246,-1532.190996
3275.841000,-740.205942,-11029.068536,-2068.457845
3275.841328,0.000000,-9474.636058,-2374.896044
3275.841655,1110.308913,-7550.100608,-1225.752797
3275.841983,962.267725,-10955.047942,2068.457845
3275.842311,518.144159,-9770.718434,2374.896044
3275.842638,518.144159,-9400.615463,1455.581446
3275.842966,666.185348,-9770.718434,0.000000
3275.843294,370.102971,-8734.430116,-1762.019645
3275.843621,-370.102971,-8734.430116,-612.876398
3275.843949,-666.185348,-8216.285956,153.219100
3275.844276,518.144159,-9474.636058,383.047749
3275.844604,2072.576638,-9252.574275,1455.581446
3275.844932,2294.638420,-8142.265362,1685.410096
3275.845259,518.144159,-8956.491898,1302.362347
3275.845587,-1924.535449,-10288.862594,0.000000
3275.845915,-2368.659014,-10955.047942,-2145.067394
3275.846242,-1036.288319,-10436.903782,-3140.991542
3275.846570,-296.082377,-7846.182985,-1225.752797
3275.846898,0.000000,-7328.038826,919.314598
3275.847225,370.102971,-10807.006753,2068.457845
3275.847553,888.247130,-13101.645173,229.828649
3275.847880,296.082377,-12139.377449,-1455.581446
3275.848208,-962.267725,-7328.038826,-2221.676944
3275.848536,-518.144159,-7920.203579,-1149.143247
3275.848863,-518.144159,-9992.780217,-383.047749
3275.849191,0.000000,-9992.780217,0.000000
3275.849519,666.185348,-10584.944971,1072.533697
3275.849846,2590.720797,-10140.821405,383.047749
3275.850174,2516.700203,-10732.986159,153.219100
3275.850502,814.226536,-10807.006753,536.266849
3275.850829,-296.082377,-9918.759623,-612.876398
3275.851157,-296.082377,-10584.944971,-1991.848295
3275.851485,666.185348,-9548.656652,-3140.991542
3275.851812,0.000000,-7772.162391,-1378.971896
3275.852140,0.000000,-8364.327145,1532.190996
3275.852467,666.185348,-9770.718434,1455.581446
3275.852795,1184.329507,-12879.583391,995.924147
3275.853123,1110.308913,-9770.718434,-1608.800546
3275.853450,-444.123565,-7105.977043,-536.266849
3275.853778,-370.102971,-8216.285956,536.266849
3275.854106,518.144159,-9400.615463,306.438199
3275.854433,814.226536,-11399.171507,1072.533697
3275.854761,1702.473667,-9696.697840,76.609550
3275.855089,1406.391290,-8364.327145,-229.828649
3275.855416,592.164754,-10288.862594,1149.143247
3275.855744,0.000000,-9400.615463,153.219100
3275.856071,-1406.391290,-9770.718434,0.000000
3275.856399,-1184.329507,-9548.656652,-1532.190996
3275.856727,-1036.288319,-8882.471304,-2528.115143
3275.857054,-296.082377,-9770.718434,0.000000
3275.857382,1184.329507,-8660.409521,536.266849
3275.857710,1850.514855,-10362.883188,842.705048
3275.858037,3034.844362,-9918.759623,459.657299
3275.858365,1480.411884,-8290.306550,-383.047749
3275.858693,-592.164754,-10881.027347,766.095498
3275.859020,-1406.391290,-9992.780217,-919.314598
3275.859348,-1850.514855,-9844.739029,-2451.505594
3275.859675,-888.247130,-9474.636058,-2528.115143
3275.860003,962.267725,-8882.471304,-2221.676944
3275.860331,1554.432478,-11695.253884,536.266849
3275.860658,1332.370696,-11769.274478,2911.162892
3275.860986,2220.617826,-10436.903782,383.047749
3275.861314,2146.597232,-10066.800811,-2068.457845
3275.861641,0.000000,-9030.512492,-1608.800546
3275.861969,-1702.473667,-8216.285956,-689.485948
3275.862297,-888.247130,-8438.347739,0.000000
3275.862624,-370.102971,-9104.533087,76.609550
3275.862952,592.164754,-11103.089130,383.047749
3275.863280,666.185348,-9474.636058,459.657299
3275.863607,444.123565,-10510.924376,459.657299
3275.863935,148.041188,-10658.965565,-689.485948
3275.864262,222.061783,-10288.862594,-2068.457845
3275.864590,0.000000,-9696.697840,-1608.800546
3275.864918,962.267725,-8660.409521,-306.438199
3275.865245,1628.453072,-9326.594869,2374.896044
3275.865573,1924.535449,-8512.368333,3524.039291
3275.865901,962.267725,-8364.327145,2374.896044
3275.866228,-444.123565,-9252.574275,229.828649
3275.866556,-2812.782580,-9400.615463,-1762.019645
3275.866884,-3256.906145,-9252.574275,-1915.238745
3275.867211,-1480.411884,-9030.512492,-1455.581446
3275.867539,222.061783,-9252.574275,-1838.629195
3275.867866,666.185348,-11103.089130,1072.533697
3275.868194,1480.411884,-11029.068536,1455.581446
3275.868522,1480.411884,-11177.109724,689.485948
3275.868849,888.247130,-10658.965565,919.314598
3275.869177,-814.226536,-8068.244768,-1685.410096
3275.869505,-2146.597232,-8364.327145,-919.314598
3275.869832,-1924.535449,-8216.285956,-1072.533697
3275.870160,-814.226536,-8438.347739,-536.266849
3275.870488,814.226536,-10066.800811,0.000000
3275.870815,1554.432478,-12139.377449,536.266849
3275.871143,2072.576638,-12509.480420,-689.485948
3275.871470,2146.597232,-9992.780217,-1608.800546
3275.871798,962.267725,-10362.883188,-1532.190996
3275.872126,370.102971,-11029.068536,-919.314598
3275.872453,222.061783,-8586.388927,0.000000
3275.872781,0.000000,-8882.471304,1149.143247
3275.873109,222.061783,-9400.615463,383.047749
3275.873436,148.041188,-10214.842000,0.000000
3275.873764,1036.288319,-11103.089130,-229.828649
3275.874092,-370.102971,-9474.636058,-1302.362347
3275.874419,370.102971,-9770.718434,-995.924147
3275.874747,1702.473667,-8660.409521,-1302.362347
3275.875074,1554.432478,-8808.450710,0.000000
3275.875402,1776.494261,-9696.697840,2221.676944
3275.875730,2294.638420,-8438.347739,1378.971896
3275.876057,518.144159,-8586.388927,2834.553343
3275.876385,74.020594,-9474.636058,1302.362347
3275.876713,-814.226536,-8512.368333,-536.266849
3275.877040,-1332.370696,-9622.677246,-1225.752797
3275.877368,-2072.576638,-8956.491898,-2604.724693
3275.877696,-1406.391290,-9918.759623,-2451.505594
3275.878023,518.144159,-9844.739029,-1378.971896
3275.878351,1924.535449,-8808.450710,0.000000
3275.878679,1480.411884,-10140.821405,2145.067394
3275.879006,2442.679609,-10436.903782,1608.800546
3275.879334,740.205942,-10362.883188,2068.457845
3275.879661,-888.247130,-10214.842000,766.095498
3275.879989,-1554.432478,-8660.409521,-1915.238745
3275.880317,-1850.514855,-10066.800811,-2145.067394
3275.880644,-1110.308913,-9104.533087,-2298.286494
3275.880972,962.267725,-10584.944971,-766.095498
3275.881300,740.205942,-11917.315666,919.314598
3275.881627,1998.556043,-10658.965565,459.657299
3275.881955,1776.494261,-9844.739029,-536.266849
3275.882283,888.247130,-10807.006753,-842.705048
3275.882610,-814.226536,-10584.944971,-612.876398
3275.882938,-444.123565,-9474.636058,-842.705048
3275.883265,74.020594,-7476.080014,-1455.581446
3275.883593,0.000000,-9178.553681,306.438199
3275.883921,370.102971,-9770.718434,1685.410096
3275.884248,0.000000,-9844.739029,1302.362347
3275.884576,962.267725,-9992.780217,-842.705048
3275.884904,1110.308913,-8512.368333,-2834.553343
3275.885231,-814.226536,-8512.368333,-1225.752797
3275.885559,0.000000,-9474.636058,459.657299
3275.885887,148.041188,-9474.636058,1072.533697
3275.886214,2072.576638,-10510.924376,1685.410096
3275.886542,2960.823768,-9474.636058,1991.848295
3275.886869,1998.556043,-8734.430116,2145.067394
3275.887197,296.082377,-8068.244768,766.095498
3275.887525,-2664.741391,-9770.718434,-1608.800546
3275.887852,-3330.926739,-11399.171507,-2681.334243
3275.888180,-740.205942,-7772.162391,-3217.601092
3275.888508,148.041188,-7476.080014,-919.314598
3275.888835,666.185348,-10436.903782,1762.019645
3275.889163,592.164754,-12361.439231,1762.019645
3275.889491,1110.308913,-12287.418637,842.705048
3275.889818,814.226536,-8808.450710,-689.485948
3275.890146,0.000000,-8586.388927,-1455.581446
3275.890474,-1406.391290,-9474.636058,-229.828649
3275.890801,-962.267725,-9030.512492,306.438199
3275.891129,1480.411884,-10066.800811,-689.485948
3275.891456,3034.844362,-10362.883188,-612.876398
3275.891784,1998.556043,-10658.965565,1302.362347
3275.892112,222.061783,-10066.800811,1302.362347
3275.892439,-148.041188,-9844.739029,-1455.581446
3275.892767,-888.247130,-11399.171507,-2834.553343
3275.893095,-962.267725,-9474.636058,-3140.991542
3275.893422,-1110.308913,-6809.894666,-1455.581446
3275.893750,1258.350101,-9844.739029,1378.971896
3275.894078,962.267725,-11399.171507,2145.067394
3275.894405,962.267725,-11991.336260,1608.800546
3275.894733,444.123565,-8660.409521,-1838.629195
3275.895060,148.041188,-8216.285956,-2528.115143
3275.895388,-444.123565,-9474.636058,-995.924147
3275.895716,0.000000,-8586.388927,153.219100
3275.896043,518.144159,-9622.677246,1302.362347
3275.896371,2738.761985,-10362.883188,536.266849
3275.896699,1702.473667,-9030.512492,689.485948
3275.897026,518.144159,-10436.903782,1455.581446
3275.897354,-1110.308913,-10288.862594,383.047749
3275.897682,-370.102971,-10881.027347,-1378.971896
3275.898009,222.061783,-9474.636058,-3140.991542
3275.898337,-962.267725,-8142.265362,-1991.848295
3275.898664,-518.144159,-9030.512492,1991.848295
3275.898992,1998.556043,-7994.224174,2451.505594
3275.899320,1554.432478,-9770.718434,1838.629195
3275.899647,962.267725,-10881.027347,842.705048
3275.899975,222.061783,-9030.512492,-1072.533697
3275.900303,-518.144159,-9992.780217,-459.657299
3275.900630,-370.102971,-9474.636058,-1072.533697
3275.900958,-592.164754,-9400.615463,-612.876398
3275.901286,222.061783,-9696.697840,0.000000
3275.901613,1258.350101,-8364.327145,-306.438199
3275.901941,-592.164754,-9622.677246,1608.800546
3275.902269,-814.226536,-9400.615463,383.047749
3275.902596,-370.102971,-8808.450710,-1532.190996
3275.902924,370.102971,-10362.883188,-1532.190996
3275.903251,1258.350101,-9696.697840,-2221.676944
3275.903579,370.102971,-11399.171507,459.657299
3275.903907,592.164754,-11843.295072,1378.971896
3275.904234,1776.494261,-11473.192101,-995.924147
3275.904562,1702.473667,-11843.295072,-2911.162892
3275.904890,-296.082377,-9252.574275,-1608.800546
3275.905217,-888.247130,-8142.265362,-383.047749
3275.905545,0.000000,-8216.285956,536.266849
3275.905873,-518.144159,-8364.327145,1302.362347
3275.906200,-148.041188,-8882.471304,995.924147
3275.906528,1036.288319,-9696.697840,995.924147
3275.906855,1110.308913,-10288.862594,766.095498
3275.907183,592.164754,-10732.986159,0.000000
3275.907511,-296.082377,-9474.636058,-766.095498
3275.907838,148.041188,-9474.636058,-1608.800546
3275.908166,1258.350101,-9770.718434,-766.095498
3275.908494,1036.288319,-8882.471304,612.876398
3275.908821,1776.494261,-8512.368333,1762.019645
3275.909149,1406.391290,-7476.080014,1455.581446
3275.909477,592.164754,-10066.800811,842.705048
3275.909804,-1258.350101,-10658.965565,-306.438199
3275.910132,-814.226536,-9178.553681,-995.924147
3275.910459,296.082377,-8586.388927,-459.657299
3275.910787,518.144159,-9104.533087,76.609550
3275.911115,962.267725,-11325.150913,-766.095498
3275.911442,1628.453072,-9770.718434,-306.438199
3275.911770,2072.576638,-9400.615463,-306.438199
3275.912098,1850.514855,-10732.986159,459.657299
3275.912425,814.226536,-9918.759623,306.438199
3275.912753,-666.185348,-8586.388927,459.657299
3275.913081,222.061783,-9622.677246,-1302.362347
3275.913408,-222.061783,-9918.759623,-1532.190996
3275.913736,-444.123565,-12065.356855,536.266849
3275.914064,148.041188,-10955.047942,76.609550
3275.914391,666.185348,-10214.842000,-1378.971896
3275.914719,518.144159,-10658.965565,-1072.533697
3275.915046,-370.102971,-9178.553681,-1072.533697
3275.915374,0.000000,-8734.430116,-1838.629195
3275.915702,-444.123565,-7254.018232,536.266849
3275.916029,0.000000,-9178.553681,919.314598
3275.916357,444.123565,-11473.192101,1225.752797
3275.916685,888.247130,-10140.821405,842.705048
3275.917012,1406.391290,-10436.903782,306.438199
3275.917340,1036.288319,-9400.615463,0.000000
3275.917668,222.061783,-9178.553681,-995.924147
3275.917995,-296.082377,-10214.842000,-459.657299
3275.918323,-1258.350101,-8512.368333,-995.924147
3275.918650,-962.267725,-9104.533087,-919.314598
3275.918978,-1110.308913,-9252.574275,-383.047749
3275.919306,-1332.370696,-8956.491898,995.924147
3275.919633,-592.164754,-8882.471304,766.095498
3275.919961,370.102971,-8142.265362,766.095498
3275.920289,814.226536,-10658.965565,1149.143247
3275.920616,740.205942,-10510.924376,383.047749
3275.920944,888.247130,-9992.780217,-229.828649
3275.921272,740.205942,-10584.944971,-612.876398
3275.921599,296.082377,-9178.553681,-536.266849
3275.921927,222.061783,-9400.615463,0.000000
3275.922254,740.205942,-9696.697840,306.438199
3275.922582,-1184.329507,-9474.636058,689.485948
3275.922910,-1850.514855,-10732.986159,-536.266849
3275.923237,-888.247130,-9104.533087,-2451.505594
3275.923565,740.205942,-9326.594869,-1455.581446
3275.923893,1406.391290,-10214.842000,-383.047749
3275.924220,518.144159,-10658.965565,1915.238745
3275.924548,1480.411884,-9918.759623,842.705048
3275.924876,3034.844362,-9178.553681,-2374.896044
3275.925203,814.226536,-11325.150913,-1225.752797
3275.925531,-1332.370696,-10066.800811,229.828649
3275.925858,-1406.391290,-7476.080014,-612.876398
3275.926186,-296.082377,-8216.285956,-1225.752797
3275.926514,814.226536,-8956.491898,-995.924147
3275.926841,962.267725,-9770.718434,842.705048
3275.927169,1110.308913,-10658.965565,3140.991542
3275.927497,2294.638420,-10584.944971,842.705048
3275.927824,2442.679609,-11103.089130,-919.314598
3275.928152,1406.391290,-9474.636058,-1149.143247
3275.928480,148.041188,-8068.244768,229.828649
3275.928807,962.267725,-7698.141797,1378.971896
3275.929135,814.226536,-8586.388927,2068.457845
3275.929463,666.185348,-9548.656652,1838.629195
3275.929790,296.082377,-8216.285956,-842.705048
3275.930118,-740.205942,-10362.883188,-1532.190996
3275.930445,-888.247130,-12509.480420,-766.095498
3275.930773,0.000000,-10584.944971,-1378.971896
3275.931101,1480.411884,-9844.739029,-536.266849
3275.931428,1702.473667,-9326.594869,842.705048
3275.931756,1554.432478,-9178.553681,995.924147
3275.932084,888.247130,-9104.533087,2145.067394
3275.932411,0.000000,-8586.388927,1149.143247
3275.932739,-666.185348,-9474.636058,0.000000
3275.933067,-518.144159,-9252.574275,-383.047749
3275.933394,-518.144159,-7846.182985,-689.485948
3275.933722,-444.123565,-10436.903782,-536.266849
3275.934050,-888.247130,-11177.109724,0.000000
3275.934377,148.041188,-11695.253884,-1072.533697
3275.934705,1258.350101,-10658.965565,-2221.676944
3275.935033,444.123565,-9992.780217,-1532.190996
3275.935360,74.020594,-10584.944971,383.047749
3275.935688,-296.082377,-9252.574275,689.485948
3275.936016,-222.061783,-8216.285956,0.000000
3275.936343,0.000000,-7994.224174,-612.876398
3275.936671,-296.082377,-9178.553681,153.219100
3275.936999,-740.205942,-11547.212695,1072.533697
3275.937326,-296.082377,-11103.089130,-229.828649
3275.937654,666.185348,-10510.924376,-1762.019645
3275.937982,814.226536,-9770.718434,-689.485948
3275.938309,1036.288319,-9474.636058,0.000000
3275.938637,-222.061783,-9400.615463,1302.362347
3275.938965,-370.102971,-9104.533087,306.438199
3275.939292,-592.164754,-9844.739029,-383.047749
3275.939620,0.000000,-9918.759623,-1072.533697
3275.939948,-444.123565,-7402.059420,-536.266849
3275.940275,-370.102971,-9178.553681,1149.143247
3275.940603,0.000000,-9770.718434,306.438199
3275.940931,370.102971,-10066.800811,-1302.362347
3275.941258,1258.350101,-10288.862594,-1378.971896
3275.941586,1850.514855,-8956.491898,-1149.143247
3275.941914,962.267725,-10140.821405,536.266849
3275.942241,74.020594,-11251.130318,1991.848295
3275.942569,74.020594,-9178.553681,-153.219100
3275.942897,1036.288319,-7624.121203,0.000000
3275.943224,0.000000,-8512.368333,-842.705048
3275.943552,-1110.308913,-10807.006753,306.438199
3275.943880,-518.144159,-9918.759623,-689.485948
3275.944207,1628.453072,-9178.553681,-2374.896044
3275.944535,1628.453072,-11103.089130,-1915.238745
3275.944863,1036.288319,-11029.068536,306.438199
3275.945190,814.226536,-9548.656652,766.095498
3275.945518,1554.432478,-10436.903782,-919.314598
3275.945846,740.205942,-10955.047942,-1915.238745
3275.946173,-222.061783,-10955.047942,-1685.410096
3275.946501,-518.144159,-7846.182985,-919.314598
3275.946829,592.164754,-7550.100608,0.000000
3275.947156,296.082377,-8808.450710,1225.752797
3275.947484,296.082377,-9326.594869,1455.581446
3275.947811,1258.350101,-10214.842000,842.705048
3275.948139,1998.556043,-9696.697840,-1685.410096
3275.948467,666.185348,-9696.697840,-995.924147
3275.948794,296.082377,-10066.800811,0.000000
3275.949122,74.020594,-8660.409521,0.000000
3275.949450,1554.432478,-8734.430116,306.438199
3275.949777,2590.720797,-8660.409521,1915.238745
3275.950105,1702.473667,-9474.636058,2451.505594
3275.950433,0.000000,-10140.821405,1608.800546
3275.950760,-888.247130,-9400.615463,-1149.143247
3275.951088,-888.247130,-10214.842000,-2451.505594
3275.951416,-888.247130,-9770.718434,-1685.410096
3275.951743,0.000000,-8956.491898,0.000000
3275.952071,666.185348,-9770.718434,1838.629195
3275.952399,1036.288319,-9992.780217,383.047749
3275.952726,592.164754,-10807.006753,153.219100
3275.953054,-222.061783,-9326.594869,-612.876398
3275.953382,-1258.350101,-7698.141797,-153.219100
3275.953709,-888.247130,-9918.759623,459.657299
3275.954037,-370.102971,-8956.491898,-612.876398
3275.954365,0.000000,-9992.780217,0.000000
3275.954692,74.020594,-10955.047942,-383.047749
3275.955020,814.226536,-10362.883188,-612.876398
3275.955348,222.061783,-10955.047942,-153.219100
3275.955675,-296.082377,-10955.047942,-1072.533697
3275.956003,-1184.329507,-10140.821405,-1302.362347
3275.956331,0.000000,-9696.697840,-1608.800546
3275.956658,0.000000,-7994.224174,-612.876398
3275.956986,0.000000,-8808.450710,1455.581446
3275.957314,0.000000,-9844.739029,1762.019645
3275.957641,0.000000,-11029.068536,995.924147
3275.957969,518.144159,-10288.862594,-612.876398
3275.958297,1554.432478,-7772.162391,-2298.286494
3275.958624,666.185348,-8142.265362,76.609550
3275.958952,0.000000,-9326.594869,1915.238745
3275.959280,-740.205942,-9400.615463,766.095498
3275.959607,-148.041188,-10066.800811,-1072.533697
3275.959935,-370.102971,-9252.574275,-2298.286494
3275.960263,-148.041188,-9696.697840,-1302.362347
3275.960590,-370.102971,-9770.718434,459.657299
3275.960918,0.000000,-9770.718434,689.485948
3275.961246,1184.329507,-9992.780217,-459.657299
3275.961573,1628.453072,-9104.533087,-1378.971896
3275.961901,1406.391290,-9400.615463,612.876398
3275.962229,1110.308913,-9252.574275,1915.238745
3275.962556,0.000000,-9474.636058,1072.533697
3275.962884,-222.061783,-11325.150913,76.609550
3275.963212,814.226536,-9030.512492,-2298.286494
3275.963539,444.123565,-7920.203579,-1302.362347
3275.963867,-1184.329507,-9918.759623,1378.971896
3275.964195,-1258.350101,-11325.150913,-383.047749
3275.964522,222.061783,-10584.944971,-2221.676944
3275.964850,2294.638420,-9252.574275,-3677.258390
3275.965178,2146.597232,-9992.780217,-612.876398
3275.965505,1702.473667,-11399.171507,3140.991542
3275.965833,2072.576638,-10140.821405,2987.772442
3275.966161,2146.597232,-9992.780217,0.000000
3275.966488,888.247130,-10436.903782,-2451.505594
3275.966816,-1110.308913,-9326.594869,-1685.410096
3275.967144,-1480.411884,-7920.203579,-995.924147
3275.967471,-962.267725,-8438.347739,-612.876398
3275.967799,592.164754,-9770.718434,-995.924147
3275.968127,1554.432478,-9992.780217,-536.266849
3275.968454,2516.700203,-9696.697840,-229.828649
3275.968782,1924.535449,-10214.842000,1225.752797
3275.969110,592.164754,-10658.965565,1149.143247
3275.969437,74.020594,-9252.574275,0.000000
3275.969765,0.000000,-7402.059420,-1378.971896
3275.970093,518.144159,-7402.059420,0.000000
3275.970420,222.061783,-10436.903782,1762.019645
3275.970748,0.000000,-9030.512492,1072.533697
3275.971076,-666.185348,-9030.512492,-612.876398
3275.971403,-1628.453072,-10955.047942,-2757.943793
3275.971731,0.000000,-10140.821405,-2221.676944
3275.972059,444.123565,-9400.615463,0.000000
3275.972386,1850.514855,-9622.677246,229.828649
3275.972714,1184.329507,-10510.924376,2145.067394
3275.973042,1628.453072,-9474.636058,1455.581446
3275.973369,740.205942,-7476.080014,766.095498
3275.973697,-666.185348,-10066.800811,919.314598
3275.974025,-2368.659014,-10214.842000,76.609550
3275.974352,-1480.411884,-9622.677246,-2298.286494
3275.974680,444.123565,-9252.574275,-3064.381992
3275.975008,0.000000,-9400.615463,-2145.067394
3275.975335,-592.164754,-11251.130318,1608.800546
3275.975663,370.102971,-10510.924376,1149.143247
3275.975991,518.144159,-11251.130318,-306.438199
3275.976318,888.247130,-11621.233289,-766.095498
3275.976646,296.082377,-7994.224174,-1149.143247
3275.976974,-296.082377,-8956.491898,1225.752797
3275.977301,-444.123565,-9770.718434,766.095498
3275.977629,814.226536,-10436.903782,-995.924147
3275.977957,518.144159,-10140.821405,-1378.971896
3275.978284,222.061783,-9326.594869,-1685.410096
3275.978612,-296.082377,-9770.718434,0.000000
3275.978940,888.247130,-10066.800811,383.047749
3275.979267,666.185348,-9918.759623,766.095498
3275.979595,1258.350101,-10214.842000,1915.238745
3275.979922,666.185348,-7254.018232,76.609550
3275.980250,592.164754,-8586.388927,1072.533697
3275.980578,-370.102971,-10066.800811,1149.143247
3275.980905,-888.247130,-9770.718434,-919.314598
3275.981233,-962.267725,-9622.677246,-1455.581446
3275.981561,370.102971,-8290.306550,-2221.676944
3275.981888,518.144159,-8956.491898,-1149.143247
3275.982216,296.082377,-10140.821405,612.876398
3275.982544,74.020594,-10066.800811,1378.971896
3275.982871,1110.308913,-10807.006753,842.705048
3275.983199,1258.350101,-9474.636058,0.000000
3275.983527,888.247130,-9400.615463,383.047749
3275.983854,666.185348,-10807.006753,1378.971896
3275.984182,444.123565,-8956.491898,0.000000
3275.984510,222.061783,-9548.656652,-842.705048
3275.984837,-888.247130,-9104.533087,-1302.362347
3275.985165,-962.267725,-9252.574275,-1378.971896
3275.985493,-666.185348,-10362.883188,-842.705048
3275.985820,444.123565,-9548.656652,-1455.581446
3275.986148,962.267725,-11399.171507,-689.485948
3275.986476,1480.411884,-11547.212695,995.924147
3275.986803,1850.514855,-10955.047942,842.705048
3275.987131,1924.535449,-11843.295072,153.219100
3275.987459,370.102971,-9844.739029,-1072.533697
3275.987786,0.000000,-10362.883188,-2374.896044
3275.988114,0.000000,-8660.409521,-2911.162892
3275.988442,-592.164754,-6883.915261,-1149.143247
3275.988769,-1036.288319,-8142.265362,1838.629195
3275.989097,0.000000,-8956.491898,1455.581446
3275.989425,148.041188,-10436.903782,995.924147
3275.989752,1332.370696,-10510.924376,-995.924147
3275.990080,814.226536,-9992.780217,-689.485948
3275.990408,444.123565,-9770.718434,0.000000
3275.990735,-296.082377,-8808.450710,0.000000
3275.991063,1184.329507,-9844.739029,-612.876398
3275.991391,2146.597232,-8290.306550,-306.438199
3275.991718,2368.659014,-8068.244768,995.924147
3275.992046,518.144159,-9474.636058,2451.505594
3275.992374,-962.267725,-9326.594869,1072.533697
3275.992701,-2294.638420,-8438.347739,-536.266849
3275.993029,-1184.329507,-9622.677246,-1455.581446
3275.993357,-518.144159,-9474.636058,-1072.533697
3275.993684,1036.288319,-10140.821405,0.000000
3275.994012,1628.453072,-10214.842000,1225.752797
3275.994340,2590.720797,-12139.377449,459.657299
3275.994667,1776.494261,-11547.212695,-536.266849
3275.994995,-370.102971,-7550.100608,-919.314598
3275.995323,-1110.308913,-7994.224174,0.000000
3275.995650,-1258.350101,-8438.347739,-689.485948
3275.995978,-888.247130,-8734.430116,-612.876398
3275.996306,-296.082377,-10807.006753,306.438199
3275.996633,0.000000,-10214.842000,153.219100
3275.996961,1184.329507,-11991.336260,-383.047749
3275.997289,74.020594,-11621.233289,-919.314598
3275.997616,74.020594,-10214.842000,-2145.067394
3275.997944,0.000000,-9770.718434,-3447.429741
3275.998272,0.000000,-8734.430116,-2145.067394
3275.998599,444.123565,-9104.533087,612.876398
3275.998927,1110.308913,-9844.739029,1685.410096
3275.999255,1110.308913,-10214.842000,1762.019645
3275.999582,296.082377,-11177.109724,689.485948
3275.999910,-296.082377,-8512.368333,-1149.143247
3276.000238,-666.185348,-7994.224174,0.000000
3276.000565,-222.061783,-9844.739029,76.609550
3276.000893,296.082377,-9918.759623,0.000000
3276.001221,1406.391290,-11473.192101,0.000000
3276.001548,1406.391290,-9548.656652,-1072.533697
3276.001876,666.185348,-9326.594869,76.609550
3276.002204,518.144159,-8956.491898,995.924147
3276.002531,-518.144159,-8142.265362,995.924147
3276.002859,-518.144159,-9696.697840,842.705048
3276.003187,0.000000,-7994.224174,-1072.533697
3276.003514,-814.226536,-9030.512492,-153.219100
3276.003842,-1110.308913,-10362.883188,1532.190996
3276.004170,-592.164754,-9400.615463,0.000000
3276.004497,814.226536,-11103.089130,-1149.143247
3276.004825,2072.576638,-9918.759623,-2451.505594
3276.005153,1184.329507,-9400.615463,-612.876398
3276.005480,-222.061783,-9548.656652,1991.848295
3276.005808,-296.082377,-9696.697840,842.705048
3276.006136,-814.226536,-9696.697840,306.438199
3276.006463,666.185348,-7772.162391,-1455.581446
3276.006791,370.102971,-7772.162391,-306.438199
3276.007119,1036.288319,-11695.253884,2681.334243
3276.007446,666.185348,-10658.965565,919.314598
3276.007774,2220.617826,-11103.089130,-2451.505594
3276.008102,1184.329507,-10881.027347,-3677.258390
3276.008429,-518.144159,-10066.800811,-2757.943793
3276.008757,-962.267725,-9474.636058,-1378.971896
3276.009085,-296.082377,-8142.265362,-306.438199
3276.009412,296.082377,-9104.533087,0.000000
3276.009740,1110.308913,-10288.862594,1225.752797
3276.010068,1924.535449,-9696.697840,1149.143247
3276.010395,1184.329507,-10807.006753,842.705048
3276.010723,-592.164754,-10066.800811,-229.828649
3276.011050,-814.226536,-9474.636058,-2145.067394
3276.011378,0.000000,-8882.471304,-3370.820191
3276.011706,1406.391290,-8068.244768,-2911.162892
3276.012033,2072.576638,-9400.615463,1072.533697
3276.012361,1554.432478,-9474.636058,2987.772442
3276.012689,1110.308913,-10066.800811,2757.943793
3276.013016,222.061783,-10732.986159,-459.657299
3276.013344,-1110.308913,-9030.512492,-1915.238745
3276.013672,-814.226536,-9030.512492,-842.705048
3276.013999,296.082377,-9326.594869,-459.657299
3276.014327,592.164754,-9844.739029,842.705048
3276.014655,1332.370696,-9548.656652,153.219100
3276.014982,1554.432478,-9474.636058,306.438199
3276.015310,1036.288319,-9918.759623,842.705048
3276.015638,-444.123565,-9548.656652,0.000000
3276.015965,-1184.329507,-8882.471304,-459.657299
3276.016293,-370.102971,-8660.409521,-1225.752797
3276.016621,-444.123565,-7476.080014,-536.266849
3276.016948,-518.144159,-10584.944971,1455.581446
3276.017276,74.020594,-11843.295072,2221.676944
3276.017604,1702.473667,-11103.089130,-383.047749
3276.017931,1480.411884,-10732.986159,-2068.457845
3276.018259,592.164754,-9400.615463,-2145.067394
3276.018587,0.000000,-9178.553681,-995.924147
3276.018914,0.000000,-9400.615463,-459.657299
3276.019242,-1332.370696,-9326.594869,306.438199
3276.019570,-370.102971,-9992.780217,0.000000
3276.019897,666.185348,-9844.739029,-1072.533697
3276.020225,740.205942,-11251.130318,-306.438199
3276.020553,296.082377,-12287.418637,229.828649
3276.020880,444.123565,-9252.574275,612.876398
3276.021208,1406.391290,-8068.244768,-459.657299
3276.021536,1258.350101,-7105.977043,-1302.362347
3276.021863,666.185348,-9548.656652,306.438199
3276.022191,962.267725,-11103.089130,1225.752797
3276.022519,370.102971,-9474.636058,306.438199
3276.022846,74.020594,-8808.450710,-383.047749
3276.023174,0.000000,-9326.594869,-1532.190996
3276.023502,-592.164754,-10881.027347,459.657299
3276.023829,-518.144159,-10658.965565,689.485948
3276.024157,0.000000,-8956.491898,-1225.752797
3276.024485,222.061783,-9326.594869,-1608.800546
3276.024812,-296.082377,-8956.491898,-689.485948
3276.025140,1184.329507,-8364.327145,766.095498
3276.025468,370.102971,-7994.224174,2374.896044
3276.025795,-592.164754,-8808.450710,2374.896044
3276.026123,-1110.308913,-11325.150913,459.657299
3276.026451,-518.144159,-10658.965565,-2221.676944
3276.026778,-296.082377,-8216.285956,-2834.553343
3276.027106,148.041188,-9252.574275,-229.828649
3276.027434,592.164754,-9992.780217,1072.533697
3276.027761,1998.556043,-11547.212695,459.657299
3276.028089,2590.720797,-10436.903782,-229.828649
3276.028417,1554.432478,-9178.553681,-536.266849
3276.028744,0.000000,-9770.718434,0.000000
3276.029072,-592.164754,-9474.636058,-536.266849
3276.029400,-814.226536,-8808.450710,-306.438199
3276.029727,0.000000,-8364.327145,-1072.533697
3276.030055,0.000000,-8586.388927,76.609550
3276.030383,962.267725,-10510.924376,1072.533697
3276.030710,2220.617826,-11251.130318,-459.657299
3276.031038,1628.453072,-11769.274478,-1225.752797
3276.031366,444.123565,-10658.965565,-1149.143247
3276.031693,148.041188,-8364.327145,-1991.848295
3276.032021,296.082377,-8586.388927,-459.657299
3276.032349,1332.370696,-8586.388927,459.657299
3276.032676,2368.659014,-9400.615463,2451.505594
3276.033004,1776.494261,-8660.409521,2528.115143
3276.033332,740.205942,-8364.327145,0.000000
3276.033659,-2146.597232,-10807.006753,-1685.410096
3276.033987,-2368.659014,-10658.965565,-2374.896044
3276.034314,-962.267725,-9474.636058,-3140.991542
3276.034642,1110.308913,-10436.903782,-1225.752797
3276.034970,1332.370696,-10658.965565,229.828649
3276.035297,1998.556043,-11103.089130,2068.457845
3276.035625,2146.597232,-10140.821405,1838.629195
3276.035952,1850.514855,-9696.697840,766.095498
3276.036280,-888.247130,-9400.615463,766.095498
3276.036608,-2590.720797,-7254.018232,-306.438199
3276.036935,-2812.782580,-6365.771101,-1455.581446
3276.037263,-814.226536,-9770.718434,-1915.238745
3276.037590,-222.061783,-11251.130318,-306.438199
3276.037918,1110.308913,-11991.336260,689.485948
3276.038246,1480.411884,-10140.821405,76.609550
3276.038573,1480.411884,-10658.965565,-995.924147
3276.038901,74.020594,-10140.821405,-383.047749
3276.039228,-518.144159,-8512.368333,-153.219100
3276.039556,-1776.494261,-7772.162391,383.047749
3276.039884,-592.164754,-8142.265362,306.438199
3276.040211,592.164754,-9918.759623,306.438199
3276.040539,666.185348,-12065.356855,612.876398
3276.040866,296.082377,-10807.006753,-383.047749
3276.041194,518.144159,-10288.862594,-1532.190996
3276.041522,-444.123565,-9252.574275,-2757.943793
3276.041849,0.000000,-8216.285956,-1838.629195
3276.042177,-666.185348,-8438.347739,383.047749
3276.042504,518.144159,-9400.615463,1762.019645
3276.042832,1036.288319,-11325.150913,1991.848295
3276.043160,1924.535449,-10881.027347,919.314598
3276.043487,1850.514855,-8438.347739,-612.876398
3276.043815,1258.350101,-9474.636058,536.266849
3276.044142,-888.247130,-10362.883188,0.000000
3276.044470,-1258.350101,-9326.594869,-2298.286494
3276.044798,-1184.329507,-9326.594869,-3217.601092
3276.045125,-962.267725,-8068.244768,-1608.800546
3276.045453,-1184.329507,-9400.615463,919.314598
3276.045780,666.185348,-10214.842000,1072.533697
3276.046108,2294.638420,-10881.027347,842.705048
3276.046436,1184.329507,-10214.842000,1149.143247
3276.046763,0.000000,-8956.491898,229.828649
3276.047091,-222.061783,-10510.924376,0.000000
3276.047418,-148.041188,-8808.450710,-1991.848295
3276.047746,592.164754,-8956.491898,-2451.505594
3276.048074,1110.308913,-10140.821405,-689.485948
3276.048401,2590.720797,-10658.965565,1685.410096
3276.048729,3404.947333,-11325.150913,2068.457845
3276.049056,962.267725,-9844.739029,1225.752797
3276.049384,-1628.453072,-9474.636058,-612.876398
3276.049712,-296.082377,-9474.636058,-2451.505594
3276.050039,0.000000,-7846.182985,-2451.505594
3276.050367,-666.185348,-8586.388927,0.000000
3276.050694,296.082377,-9104.533087,2298.286494
3276.051022,2146.597232,-9770.718434,1915.238745
3276.051350,3627.009116,-11695.253884,842.705048
3276.051677,1924.535449,-10362.883188,-306.438199
3276.052005,0.000000,-9178.553681,153.219100
3276.052332,-888.247130,-8068.244768,-1225.752797
3276.052660,-1258.350101,-8660.409521,-1762.019645
3276.052988,-370.102971,-10140.821405,-1072.533697
3276.053315,1480.411884,-8364.327145,1072.533697
3276.053643,2664.741391,-9844.739029,3064.381992
3276.053970,814.226536,-11251.130318,1685.410096
3276.054298,-1776.494261,-11621.233289,-1532.190996
3276.054626,-1850.514855,-9918.759623,-3753.867940
3276.054953,-296.082377,-8512.368333,-3370.820191
3276.055281,518.144159,-9030.512492,76.609550
3276.055608,444.123565,-9252.574275,3447.429741
3276.055936,962.267725,-9770.718434,2681.334243
3276.056264,1332.370696,-10881.027347,766.095498
3276.056591,1776.494261,-9178.553681,-1455.581446
3276.056919,-1850.514855,-9400.615463,-306.438199
3276.057246,-3256.906145,-9844.739029,306.438199
3276.057574,-1998.556043,-7105.977043,-2221.676944
3276.057902,148.041188,-9178.553681,-2987.772442
3276.058229,1110.308913,-10362.883188,-459.657299
3276.058557,1036.288319,-11029.068536,2528.115143
3276.058884,1406.391290,-10584.944971,2221.676944
3276.059212,444.123565,-9770.718434,-459.657299
3276.059540,-888.247130,-9326.594869,-1225.752797
3276.059867,-1776.494261,-7254.018232,-2068.457845
3276.060195,-962.267725,-8216.285956,-536.266849
3276.060522,-222.061783,-11251.130318,1378.971896
3276.060850,0.000000,-10066.800811,383.047749
3276.061178,1480.411884,-10214.842000,-1608.800546
3276.061505,1702.473667,-11695.253884,-2374.896044
3276.061833,1110.308913,-11399.171507,-1762.019645
3276.062160,148.041188,-9104.533087,-306.438199
3276.062488,1110.308913,-7254.018232,612.876398
3276.062816,592.164754,-8956.491898,995.924147
3276.063143,296.082377,-9696.697840,1072.533697
3276.063471,-370.102971,-9548.656652,1608.800546
3276.063798,-222.061783,-10510.924376,612.876398
3276.064126,888.247130,-9548.656652,-2834.553343
3276.064454,1554.432478,-10955.047942,-2911.162892
3276.064781,888.247130,-11843.295072,-1991.848295
3276.065109,1480.411884,-8956.491898,153.219100
3276.065436,2812.782580,-9548.656652,842.705048
3276.065764,1332.370696,-9474.636058,1149.143247
3276.066092,-518.144159,-8660.409521,1915.238745
3276.066419,-1036.288319,-8512.368333,1072.533697
3276.066747,0.000000,-8364.327145,153.219100
3276.067074,1332.370696,-10140.821405,-1762.019645
3276.067402,-592.164754,-9474.636058,0.000000
3276.067730,-296.082377,-9474.636058,0.000000
3276.068057,0.000000,-9770.718434,-995.924147
3276.068385,0.000000,-9474.636058,-1915.238745
3276.068712,370.102971,-9992.780217,-1991.848295
3276.069040,1110.308913,-9474.636058,0.000000
3276.069368,1924.535449,-9770.718434,1532.190996
3276.069695,2220.617826,-11103.089130,1762.019645
3276.070023,1258.350101,-10066.800811,1072.533697
3276.070350,74.020594,-10436.903782,0.000000
3276.070678,-1258.350101,-9178.553681,-1149.143247
3276.071006,-592.164754,-8586.388927,-2604.724693
3276.071333,-444.123565,-8290.306550,-2528.115143
3276.071661,-296.082377,-7772.162391,-842.705048
3276.071988,592.164754,-10288.862594,1762.019645
3276.072316,2072.576638,-12583.501014,2374.896044
3276.072644,1406.391290,-11177.109724,1302.362347
3276.072971,1110.308913,-11029.068536,-229.828649
3276.073299,-444.123565,-8882.471304,-2528.115143
3276.073626,-1332.370696,-8734.430116,-2145.067394
3276.073954,-1110.308913,-9696.697840,-612.876398
3276.074282,148.041188,-9474.636058,306.438199
3276.074609,1480.411884,-9474.636058,536.266849
3276.074937,1406.391290,-8586.388927,76.609550
3276.075264,-296.082377,-8808.450710,0.000000
3276.075592,-2072.576638,-10658.965565,-995.924147
3276.075920,-2220.617826,-9548.656652,-1302.362347
3276.076247,-1036.288319,-9178.553681,-1608.800546
3276.076575,740.205942,-9474.636058,-383.047749
3276.076902,1406.391290,-11029.068536,1762.019645
3276.077230,1998.556043,-12361.439231,3140.991542
3276.077558,1776.494261,-9474.636058,612.876398
3276.077885,740.205942,-8734.430116,-766.095498
3276.078213,-1776.494261,-7179.997637,-689.485948
3276.078540,-2960.823768,-5403.503377,-995.924147
3276.078868,-1406.391290,-7698.141797,-229.828649
3276.079196,518.144159,-10584.944971,0.000000
3276.079523,1184.329507,-12361.439231,612.876398
3276.079851,1184.329507,-11917.315666,1685.410096
3276.080178,1258.350101,-10881.027347,995.924147
3276.080506,740.205942,-10436.903782,-766.095498
3276.080834,-370.102971,-8586.388927,-1762.019645
3276.081161,74.020594,-7476.080014,-2451.505594
3276.081489,148.041188,-8290.306550,-919.314598
3276.081816,1332.370696,-8956.491898,766.095498
3276.082144,1110.308913,-9696.697840,1302.362347
3276.082472,-740.205942,-10436.903782,1762.019645
3276.082799,0.000000,-10362.883188,-612.876398
3276.083127,1258.350101,-10066.800811,-3217.601092
3276.083454,222.061783,-9918.759623,-2374.896044
3276.083782,740.205942,-11251.130318,-229.828649
3276.084110,1628.453072,-10807.006753,229.828649
3276.084437,2220.617826,-10214.842000,383.047749
3276.084765,1184.329507,-9622.677246,-153.219100
3276.085092,370.102971,-8438.347739,-306.438199
3276.085420,888.247130,-8956.491898,0.000000
3276.085748,518.144159,-10288.862594,-153.219100
3276.086075,-518.144159,-10658.965565,-383.047749
3276.086403,1036.288319,-10140.821405,-842.705048
3276.086730,370.102971,-8882.471304,-306.438199
3276.087058,0.000000,-10140.821405,995.924147
3276.087386,222.061783,-10732.986159,0.000000
3276.087713,-222.061783,-10288.862594,-766.095498
3276.088041,888.247130,-9548.656652,-1225.752797
3276.088368,1036.288319,-8216.285956,-766.095498
3276.088696,888.247130,-7772.162391,995.924147
3276.089024,148.041188,-7994.224174,2145.067394
3276.089351,-1110.308913,-9400.615463,2298.286494
3276.089679,-1110.308913,-10807.006753,0.000000
3276.090006,-592.164754,-10140.821405,-2451.505594
3276.090334,222.061783,-9622.677246,-1455.581446
3276.090662,518.144159,-10807.006753,-1378.971896
3276.090989,962.267725,-11769.274478,0.000000
3276.091317,2220.617826,-10881.027347,842.705048
3276.091644,2294.638420,-8438.347739,306.438199
3276.091972,740.205942,-7328.038826,76.609550
3276.092300,-814.226536,-7920.203579,689.485948
3276.092627,-1628.453072,-7772.162391,536.266849
3276.092955,-1776.494261,-7920.203579,0.000000
3276.093282,-666.185348,-8808.450710,-153.219100
3276.093610,-592.164754,-11473.192101,306.438199
3276.093938,148.041188,-13397.727550,0.000000
3276.094265,1184.329507,-11473.192101,-1455.581446
3276.094593,814.226536,-10584.944971,-3294.210641
3276.094920,74.020594,-8956.491898,-2528.115143
3276.095248,0.000000,-8956.491898,-689.485948
3276.095576,-370.102971,-8956.491898,1455.581446
3276.095903,370.102971,-8660.409521,2451.505594
3276.096231,1924.535449,-9992.780217,1991.848295
3276.096558,2590.720797,-8956.491898,0.000000
3276.096886,444.123565,-8586.388927,-1225.752797
3276.097214,-2368.659014,-11695.253884,-1149.143247
3276.097541,-2072.576638,-11029.068536,-2528.115143
3276.097869,518.144159,-11399.171507,-2681.334243
3276.098197,2220.617826,-9622.677246,-1532.190996
3276.098524,2738.761985,-9104.533087,1302.362347
3276.098852,2368.659014,-9844.739029,2987.772442
3276.099179,1776.494261,-10214.842000,2451.505594
3276.099507,370.102971,-9178.553681,0.000000
3276.099835,-1406.391290,-6809.894666,-1532.190996
3276.100162,-2664.741391,-7031.956449,-842.705048
3276.100490,-1332.370696,-10510.924376,-229.828649
3276.100817,-296.082377,-11103.089130,-383.047749
3276.101145,1406.391290,-11621.233289,-383.047749
3276.101473,1628.453072,-11621.233289,-153.219100
3276.101800,1998.556043,-10214.842000,459.657299
3276.102128,1332.370696,-9104.533087,76.609550
3276.102455,592.164754,-7920.203579,0.000000
3276.102783,-888.247130,-7772.162391,-689.485948
3276.103111,-962.267725,-8808.450710,229.828649
3276.103438,0.000000,-9178.553681,1532.190996
3276.103766,-444.123565,-10584.944971,1762.019645
3276.104093,-370.102971,-11547.212695,459.657299
3276.104421,74.020594,-11103.089130,-2451.505594
3276.104749,0.000000,-10066.800811,-3600.648841
3276.105076,0.000000,-8586.388927,-2987.772442
3276.105404,666.185348,-9622.677246,-689.485948
3276.105731,0.000000,-9474.636058,1915.238745
3276.106059,1258.350101,-10066.800811,1149.143247
3276.106387,1924.535449,-11547.212695,1072.533697
3276.106714,518.144159,-10214.842000,306.438199
3276.107042,1036.288319,-11103.089130,153.219100
3276.107369,814.226536,-9326.594869,-1532.190996
3276.107697,370.102971,-8660.409521,-1685.410096
3276.108025,222.061783,-10881.027347,-1072.533697
3276.108352,-1628.453072,-9844.739029,306.438199
3276.108680,-814.226536,-8956.491898,689.485948
3276.109007,148.041188,-9178.553681,-995.924147
3276.109335,-296.082377,-9844.739029,-919.314598
3276.109663,-222.061783,-10140.821405,-153.219100
3276.109990,370.102971,-9030.512492,229.828649
3276.110318,222.061783,-9474.636058,1072.533697
3276.110645,222.061783,-10066.800811,0.000000
3276.110973,-444.123565,-9696.697840,-383.047749
3276.111301,370.102971,-9622.677246,-1072.533697
3276.111628,814.226536,-8586.388927,-2068.457845
3276.111956,1554.432478,-10807.006753,0.000000
3276.112283,1184.329507,-11029.068536,1685.410096
3276.112611,666.185348,-9400.615463,1072.533697
3276.112939,666.185348,-9696.697840,1149.143247
3276.113266,518.144159,-9030.512492,-766.095498
3276.113594,-518.144159,-9474.636058,-842.705048
3276.113921,-444.123565,-8512.368333,-383.047749
3276.114249,1184.329507,-8364.327145,-306.438199
3276.114577,2072.576638,-11769.274478,689.485948
3276.114904,1998.556043,-11029.068536,1608.800546
3276.115232,1628.453072,-9770.718434,-229.828649
3276.115559,740.205942,-9474.636058,0.000000
3276.115887,-296.082377,-9400.615463,-2068.457845
3276.116215,-1406.391290,-9030.512492,-1991.848295
3276.116542,-1554.432478,-9030.512492,-919.314598
3276.116870,-444.123565,-8660.409521,76.609550
3276.117197,1628.453072,-9548.656652,689.485948
3276.117525,2368.659014,-9696.697840,1302.362347
3276.117853,1480.411884,-9992.780217,459.657299
3276.118180,222.061783,-10436.903782,-766.095498
3276.118508,148.041188,-9326.594869,-1608.800546
3276.118835,296.082377,-9918.759623,-995.924147
3276.119163,1110.308913,-9622.677246,229.828649
3276.119491,1850.514855,-10658.965565,1532.190996
3276.119818,1036.288319,-11251.130318,1455.581446
3276.120146,148.041188,-10140.821405,995.924147
3276.120473,-370.102971,-10214.842000,-766.095498
3276.120801,-1628.453072,-8660.409521,-1149.143247
3276.121129,-1184.329507,-8586.388927,-1072.533697
3276.121456,-370.102971,-8956.491898,-1072.533697
3276.121784,296.082377,-8364.327145,-153.219100
3276.122111,0.000000,-9844.739029,1685.410096
3276.122439,370.102971,-9844.739029,1608.800546
3276.122767,296.082377,-9474.636058,76.609550
3276.123094,-148.041188,-9548.656652,-689.485948
3276.123422,-814.226536,-8882.471304,-1685.410096
3276.123749,-592.164754,-10140.821405,-1455.581446
3276.124077,-1184.329507,-9622.677246,-919.314598
3276.124405,-814.226536,-9104.533087,-229.828649
3276.124732,148.041188,-10362.883188,612.876398
3276.125060,592.164754,-10881.027347,0.000000
3276.125387,0.000000,-10140.821405,536.266849
3276.125715,-814.226536,-8068.244768,0.000000
3276.126043,148.041188,-8660.409521,-766.095498
3276.126370,-296.082377,-9548.656652,-306.438199
3276.126698,-222.061783,-7476.080014,76.609550
3276.127025,148.041188,-8956.491898,-306.438199
3276.127353,962.267725,-10881.027347,-766.095498
3276.127681,1702.473667,-11621.233289,-1149.143247
3276.128008,1924.535449,-12287.418637,-766.095498
3276.128336,2294.638420,-9696.697840,-383.047749
3276.128663,1258.350101,-10214.842000,612.876398
3276.128991,666.185348,-10362.883188,-459.657299
3276.129319,-888.247130,-9474.636058,229.828649
3276.129646,-1406.391290,-9474.636058,-229.828649
3276.129974,-444.123565,-7550.100608,-1608.800546
3276.130301,-592.164754,-8808.450710,-306.438199
3276.130629,444.123565,-9474.636058,76.609550
3276.130957,370.102971,-9548.656652,76.609550
3276.131284,962.267725,-12139.377449,842.705048
3276.131612,370.102971,-10436.903782,-995.924147
3276.131939,296.082377,-9770.718434,-1149.143247
3276.132267,1332.370696,-8586.388927,-842.705048
3276.132595,1258.350101,-9326.594869,76.609550
3276.132922,1554.432478,-11843.295072,1455.581446
3276.133250,2220.617826,-9030.512492,995.924147
3276.133577,1924.535449,-9252.574275,689.485948
3276.133905,74.020594,-9474.636058,459.657299
3276.134233,-962.267725,-8364.327145,-995.924147
3276.134560,-1258.350101,-8290.306550,-1608.800546
3276.134888,74.020594,-7698.141797,-2145.067394
3276.135215,1036.288319,-9030.512492,-306.438199
3276.135543,2220.617826,-12509.480420,2681.334243
3276.135871,2664.741391,-11769.274478,1838.629195
3276.136198,3330.926739,-10732.986159,306.438199
3276.136526,1332.370696,-9992.780217,-689.485948
3276.136853,370.102971,-9548.656652,-689.485948
3276.137181,-888.247130,-8586.388927,-383.047749
3276.137509,-1184.329507,-8068.244768,-919.314598
3276.137836,0.000000,-9474.636058,-689.485948
3276.138164,1702.473667,-9844.739029,-689.485948
3276.138491,444.123565,-9400.615463,689.485948
3276.138819,-814.226536,-11547.212695,1149.143247
3276.139147,-666.185348,-10510.924376,-766.095498
3276.139474,814.226536,-9992.780217,-2528.115143
3276.139802,518.144159,-9252.574275,-919.314598
3276.140129,148.041188,-9252.574275,1608.800546
3276.140457,370.102971,-11251.130318,2757.943793
3276.140785,0.000000,-10658.965565,1838.629195
3276.141112,-222.061783,-9400.615463,-1378.971896
3276.141440,-1332.370696,-8068.244768,-2987.772442
3276.141767,-2368.659014,-8438.347739,-1302.362347
3276.142095,-1850.514855,-10362.883188,-306.438199
3276.142423,-1406.391290,-9474.636058,-612.876398
3276.142750,-962.267725,-9474.636058,229.828649
3276.143078,296.082377,-9992.780217,1455.581446
3276.143405,888.247130,-9400.615463,1685.410096
3276.143733,222.061783,-10288.862594,1685.410096
3276.144061,222.061783,-9400.615463,0.000000
3276.144388,296.082377,-8808.450710,-1991.848295
3276.144716,148.041188,-9252.574275,-1838.629195
3276.145043,-666.185348,-8882.471304,0.000000
3276.145371,-1110.308913,-9770.718434,1685.410096
3276.145698,148.041188,-10436.903782,0.000000
3276.146026,296.082377,-11547.212695,-1378.971896
3276.146353,74.020594,-11177.109724,-1225.752797
3276.146681,740.205942,-8438.347739,-383.047749
3276.147008,1332.370696,-9474.636058,995.924147
3276.147336,1036.288319,-10658.965565,1149.143247
3276.147664,814.226536,-9252.574275,-459.657299
3276.147991,1332.370696,-8734.430116,-2145.067394
3276.148319,2294.638420,-9178.553681,-1378.971896
3276.148646,2220.617826,-11991.336260,842.705048
3276.148974,1702.473667,-12287.418637,1302.362347
3276.149301,1258.350101,-9030.512492,612.876398
3276.149629,74.020594,-9400.615463,-612.876398
3276.149956,-888.247130,-9326.594869,0.000000
3276.150284,-1628.453072,-11029.068536,0.000000
3276.150611,-1850.514855,-10140.821405,-995.924147
3276.150939,-1184.329507,-7920.203579,-2604.724693
3276.151266,592.164754,-8956.491898,-1915.238745
3276.151594,2812.782580,-7846.182985,-995.924147
3276.151921,2294.638420,-9474.636058,2528.115143
3276.152249,814.226536,-10732.986159,3294.210641
3276.152576,666.185348,-10881.027347,919.314598
3276.152904,1258.350101,-10436.903782,-1378.971896
3276.153232,1332.370696,-8290.306550,-2145.067394
3276.153559,0.000000,-9474.636058,612.876398
3276.153887,444.123565,-11325.150913,2374.896044
3276.154214,1850.514855,-9548.656652,-383.047749
3276.154542,1850.514855,-9474.636058,-2757.943793
3276.154869,666.185348,-9104.533087,-2451.505594
3276.155197,0.000000,-9326.594869,0.000000
3276.155524,222.061783,-8216.285956,919.314598
3276.155852,518.144159,-7698.141797,919.314598
3276.156179,814.226536,-9770.718434,1072.533697
3276.156507,1036.288319,-10584.944971,1762.019645
3276.156834,2072.576638,-9844.739029,1225.752797
3276.157162,1628.453072,-11103.089130,-229.828649
3276.157489,-296.082377,-10658.965565,-1762.019645
3276.157817,-888.247130,-9548.656652,-2681.334243
3276.158144,-2368.659014,-8438.347739,-2681.334243
3276.158472,-1628.453072,-9548.656652,-459.657299
3276.158799,444.123565,-9918.759623,1072.533697
3276.159127,1850.514855,-9252.574275,1915.238745
3276.159455,666.185348,-10214.842000,1608.800546
3276.159782,-962.267725,-10436.903782,919.314598
3276.160110,-888.247130,-8882.471304,-1149.143247
3276.160437,-814.226536,-9104.533087,-1302.362347
3276.160765,222.061783,-8882.471304,-459.657299
3276.161092,518.144159,-10436.903782,0.000000
3276.161420,962.267725,-11621.233289,0.000000
3276.161747,296.082377,-11103.089130,536.266849
3276.162075,-518.144159,-9844.739029,-766.095498
3276.162402,-1184.329507,-8882.471304,-689.485948
3276.162730,-2072.576638,-8586.388927,306.438199
3276.163057,-2146.597232,-8216.285956,0.000000
3276.163385,-1554.432478,-7476.080014,0.000000
3276.163712,-444.123565,-10066.800811,459.657299
3276.164040,-666.185348,-9696.697840,689.485948
3276.164367,518.144159,-10066.800811,0.000000
3276.164695,1184.329507,-10140.821405,-689.485948
3276.165023,1628.453072,-9548.656652,-1532.190996
3276.165350,1406.391290,-10510.924376,-1608.800546
3276.165678,740.205942,-10066.800811,-1378.971896
3276.166005,0.000000,-9696.697840,383.047749
3276.166333,74.020594,-9400.615463,1838.629195
3276.166660,518.144159,-8956.491898,459.657299
3276.166988,-518.144159,-9992.780217,766.095498
3276.167315,-296.082377,-9696.697840,-229.828649
3276.167643,0.000000,-9918.759623,-689.485948
3276.167970,814.226536,-9474.636058,-1072.533697
3276.168298,0.000000,-7846.182985,-1608.800546
3276.168625,296.082377,-9400.615463,-1072.533697
3276.168953,1628.453072,-10436.903782,-919.314598
3276.169280,1998.556043,-11251.130318,153.219100
3276.169608,2812.782580,-11621.233289,1378.971896
3276.169935,3034.844362,-8734.430116,766.095498
3276.170263,2072.576638,-10140.821405,2068.457845
3276.170591,-962.267725,-9622.677246,1378.971896
3276.170918,-1332.370696,-9992.780217,0.000000
3276.171246,-1554.432478,-9992.780217,-2834.553343
3276.171573,-1036.288319,-8290.306550,-4826.401637
3276.171901,-888.247130,-8882.471304,-2911.162892
3276.172228,296.082377,-10510.924376,-383.047749
3276.172556,296.082377,-10288.862594,1378.971896
3276.172883,1998.556043,-10881.027347,2298.286494
3276.173211,2590.720797,-8956.491898,842.705048
3276.173538,2368.659014,-8808.450710,1455.581446
3276.173866,1776.494261,-8956.491898,2374.896044
3276.174193,1850.514855,-9474.636058,1072.533697
3276.174521,1036.288319,-9844.739029,0.000000
3276.174848,-518.144159,-9030.512492,-1072.533697
3276.175176,-518.144159,-9474.636058,-1915.238745
3276.175503,-592.164754,-10732.986159,-2221.676944
3276.175831,-444.123565,-10881.027347,-1915.238745
3276.176159,-592.164754,-10436.903782,-766.095498
3276.176486,0.000000,-9474.636058,536.266849
3276.176814,2960.823768,-9326.594869,919.314598
3276.177141,2294.638420,-10140.821405,3294.210641
3276.177469,814.226536,-9622.677246,1608.800546
3276.177796,296.082377,-9474.636058,-842.705048
3276.178124,0.000000,-9030.512492,-3217.601092
3276.178451,-592.164754,-8734.430116,-2604.724693
3276.178779,-2146.597232,-9104.533087,-919.314598
3276.179106,-2146.597232,-10214.842000,689.485948
3276.179434,-370.102971,-11325.150913,-689.485948
3276.179761,2072.576638,-9918.759623,-1991.848295
3276.180089,296.082377,-8660.409521,-306.438199
3276.180416,0.000000,-9474.636058,1838.629195
3276.180744,-296.082377,-9178.553681,1378.971896
3276.181071,1036.288319,-9622.677246,-306.438199
3276.181399,888.247130,-8364.327145,-536.266849
3276.181726,592.164754,-8290.306550,766.095498
3276.182054,1554.432478,-10584.944971,1455.581446
3276.182382,-592.164754,-11473.192101,76.609550
3276.182709,-1628.453072,-10436.903782,-1378.971896
3276.183037,-1554.432478,-8734.430116,-2451.505594
3276.183364,-370.102971,-8438.347739,-1378.971896
3276.183692,-740.205942,-10066.800811,1149.143247
3276.184019,-1036.288319,-10584.944971,2068.457845
3276.184347,-148.041188,-9178.553681,1149.143247
3276.184674,1850.514855,-9548.656652,-995.924147
3276.185002,74.020594,-9104.533087,0.000000
3276.185329,148.041188,-8586.388927,1149.143247
3276.185657,148.041188,-9252.574275,689.485948
3276.185984,74.020594,-10362.883188,76.609550
3276.186312,666.185348,-9918.759623,-1455.581446
3276.186639,0.000000,-8660.409521,-1762.019645
3276.186967,-888.247130,-9326.594869,536.266849
3276.187294,0.000000,-11843.295072,229.828649
3276.187622,888.247130,-10955.047942,-1532.190996
3276.187950,740.205942,-9548.656652,-1991.848295
3276.188277,666.185348,-8660.409521,-1225.752797
3276.188605,1110.308913,-9400.615463,1225.752797
3276.188932,1110.308913,-10807.006753,1455.581446
3276.189260,962.267725,-9400.615463,766.095498
3276.189587,1776.494261,-8512.368333,-1149.143247
3276.189915,1406.391290,-9178.553681,-1149.143247
3276.190242,1184.329507,-10362.883188,306.438199
3276.190570,1554.432478,-10140.821405,536.266849
3276.190897,1628.453072,-10066.800811,229.828649
3276.191225,888.247130,-10288.862594,-995.924147
3276.191552,-1184.329507,-9548.656652,-766.095498
3276.191880,-592.164754,-9696.697840,-612.876398
3276.192207,0.000000,-9770.718434,-1225.752797
3276.192535,-370.102971,-9104.533087,-842.705048
3276.192862,-296.082377,-9474.636058,0.000000
3276.193190,-148.041188,-8882.471304,306.438199
3276.193518,1184.329507,-8956.491898,76.609550
3276.193845,1480.411884,-10362.883188,383.047749
3276.194173,740.205942,-10807.006753,842.705048
3276.194500,888.247130,-10362.883188,0.000000
3276.194828,444.123565,-8882.471304,-1225.752797
3276.195155,1036.288319,-9474.636058,-306.438199
3276.195483,666.185348,-9548.656652,612.876398
3276.195810,0.000000,-9770.718434,1455.581446
3276.196138,-888.247130,-9252.574275,919.314598
3276.196465,-222.061783,-8882.471304,-1149.143247
3276.196793,-518.144159,-8068.244768,-1455.581446
3276.197120,-444.123565,-9104.533087,0.000000
3276.197448,222.061783,-10510.924376,1149.143247
3276.197775,2220.617826,-11325.150913,766.095498
3276.198103,1258.350101,-11399.171507,-995.924147
3276.198430,148.041188,-10214.842000,-1838.629195
3276.198758,-296.082377,-10362.883188,-1378.971896
3276.199085,-2146.597232,-9918.759623,-459.657299
3276.199413,-1924.535449,-9030.512492,-612.876398
3276.199741,-1924.535449,-8364.327145,-612.876398
3276.200068,-1036.288319,-7846.182985,-1149.143247
3276.200396,370.102971,-9326.594869,1149.143247
3276.200723,962.267725,-9474.636058,306.438199
3276.201051,74.020594,-9918.759623,306.438199
3276.201378,0.000000,-9992.780217,-766.095498
3276.201706,518.144159,-8956.491898,-2145.067394
3276.202033,296.082377,-9770.718434,-1225.752797
3276.202361,1332.370696,-10584.944971,612.876398
3276.202688,2146.597232,-9992.780217,1608.800546
3276.203016,2368.659014,-10436.903782,766.095498
3276.203343,518.144159,-10658.965565,383.047749
3276.203671,-814.226536,-8586.388927,-919.314598
3276.203998,-1258.350101,-7179.997637,-1302.362347
3276.204326,74.020594,-9030.512492,-1072.533697
3276.204653,296.082377,-11843.295072,-229.828649
3276.204981,-296.082377,-9622.677246,229.828649
3276.205309,1258.350101,-8586.388927,383.047749
3276.205636,1998.556043,-10584.944971,153.219100
3276.205964,1184.329507,-10881.027347,76.609550
3276.206291,148.041188,-9178.553681,306.438199
3276.206619,296.082377,-7105.977043,0.000000
3276.206946,1554.432478,-7846.182985,-383.047749
3276.207274,1332.370696,-11399.171507,1072.533697
3276.207601,148.041188,-10658.965565,1225.752797
3276.207929,370.102971,-9622.677246,0.000000
3276.208256,666.185348,-9770.718434,-2145.067394
3276.208584,518.144159,-10288.862594,-1838.629195
3276.208911,0.000000,-10066.800811,-995.924147
3276.209239,-592.164754,-8068.244768,76.609550
3276.209566,740.205942,-9844.739029,229.828649
3276.209894,370.102971,-9844.739029,0.000000
3276.210221,518.144159,-8364.327145,459.657299
3276.210549,666.185348,-9252.574275,0.000000
3276.210877,1480.411884,-10807.006753,0.000000
3276.211204,1554.432478,-11547.212695,-689.485948
3276.211532,1332.370696,-9844.739029,-995.924147
3276.211859,888.247130,-8512.368333,-306.438199
3276.212187,-1406.391290,-9474.636058,689.485948
3276.212514,-2368.659014,-10288.862594,612.876398
3276.212842,-2516.700203,-10362.883188,-1149.143247
3276.213169,-1480.411884,-8956.491898,-2834.553343
3276.213497,-1258.350101,-8068.244768,-2298.286494
3276.213824,-1480.411884,-9918.759623,229.828649
3276.214152,-148.041188,-10436.903782,1532.190996
3276.214479,1258.350101,-10955.047942,76.609550
3276.214807,1998.556043,-10066.800811,-919.314598
3276.215134,888.247130,-9844.739029,-383.047749
3276.215462,1554.432478,-11695.253884,766.095498
3276.215789,1184.329507,-9992.780217,766.095498
3276.216117,296.082377,-8808.450710,536.266849
3276.216444,-296.082377,-7476.080014,153.219100
3276.216772,-1184.329507,-9178.553681,-306.438199
3276.217100,-1628.453072,-11251.130318,0.000000
3276.217427,-1184.329507,-10214.842000,-919.314598
3276.217755,-222.061783,-8586.388927,-1991.848295
3276.218082,1850.514855,-9400.615463,-1915.238745
3276.218410,2368.659014,-11325.150913,-306.438199
3276.218737,2294.638420,-11917.315666,2834.553343
3276.219065,1776.494261,-10436.903782,1838.629195
3276.219392,1110.308913,-9178.553681,-459.657299
3276.219720,0.000000,-8512.368333,-2068.457845
3276.220047,-1776.494261,-7698.141797,-1149.143247
3276.220375,-3108.864956,-8068.244768,229.828649
3276.220702,-2220.617826,-10066.800811,229.828649
3276.221030,-370.102971,-10584.944971,-1608.800546
3276.221357,1554.432478,-10214.842000,-1915.238745
3276.221685,1480.411884,-9548.656652,-536.266849
3276.222012,1258.350101,-10362.883188,1762.019645
3276.222340,1480.411884,-9326.594869,2221.676944
3276.222668,1036.288319,-8660.409521,612.876398
3276.222995,1110.308913,-9474.636058,842.705048
3276.223323,1406.391290,-8438.347739,1149.143247
3276.223650,1406.391290,-10362.883188,1225.752797
3276.223978,-296.082377,-11843.295072,76.609550
3276.224305,-222.061783,-11251.130318,-2528.115143
3276.224633,148.041188,-9548.656652,-3830.477490
3276.224960,1184.329507,-9474.636058,-2068.457845
3276.225288,888.247130,-10732.986159,306.438199
3276.225615,1258.350101,-10658.965565,1302.362347
3276.225943,888.247130,-8438.347739,1149.143247
3276.226270,1258.350101,-8660.409521,995.924147
3276.226598,148.041188,-7846.182985,1302.362347
3276.226925,296.082377,-7920.203579,995.924147
3276.227253,148.041188,-9474.636058,383.047749
3276.227580,814.226536,-10066.800811,-1762.019645
3276.227908,296.082377,-10140.821405,-2604.724693
3276.228236,0.000000,-10955.047942,-995.924147
3276.228563,-444.123565,-10436.903782,-689.485948
3276.228891,148.041188,-11029.068536,-306.438199
3276.229218,0.000000,-10362.883188,-995.924147
3276.229546,0.000000,-9326.594869,0.000000
3276.229873,74.020594,-7254.018232,1762.019645
3276.230201,518.144159,-8364.327145,2221.676944
3276.230528,-592.164754,-10510.924376,1762.019645
3276.230856,-296.082377,-8660.409521,-383.047749
3276.231183,518.144159,-8660.409521,-2374.896044
3276.231511,1332.370696,-11103.089130,-1685.410096
3276.231838,1850.514855,-11843.295072,-689.485948
3276.232166,2368.659014,-10881.027347,-229.828649
3276.232493,518.144159,-8808.450710,1072.533697
3276.232821,370.102971,-9548.656652,1072.533697
3276.233148,-1036.288319,-9474.636058,459.657299
3276.233476,-2368.659014,-8438.347739,306.438199
3276.233804,-2294.638420,-8660.409521,-766.095498
3276.234131,-2220.617826,-8734.430116,-1762.019645
3276.234459,-1258.350101,-9178.553681,-2221.676944
3276.234786,-370.102971,-10658.965565,-1762.019645
3276.235114,444.123565,-10510.924376,0.000000
3276.235441,2368.659014,-11547.212695,0.000000
3276.235769,1628.453072,-11029.068536,383.047749
3276.236096,370.102971,-9474.636058,536.266849
3276.236424,666.185348,-8586.388927,76.609550
3276.236751,888.247130,-9474.636058,995.924147
3276.237079,0.000000,-9696.697840,1915.238745
3276.237406,-740.205942,-9030.512492,995.924147
3276.237734,-666.185348,-9104.533087,-766.095498
3276.238061,-814.226536,-10140.821405,-2681.334243
3276.238389,-1998.556043,-9474.636058,-2528.115143
3276.238716,-666.185348,-8734.430116,-995.924147
3276.239044,-74.020594,-9474.636058,766.095498
3276.239371,1776.494261,-11695.253884,1532.190996
3276.239699,1850.514855,-12213.398043,1991.848295
3276.240027,2072.576638,-8956.491898,536.266849
3276.240354,1258.350101,-9400.615463,459.657299
3276.240682,-222.061783,-10436.903782,76.609550
3276.241009,-444.123565,-7254.018232,-1378.971896
3276.241337,-370.102971,-7772.162391,-1455.581446
3276.241664,74.020594,-8956.491898,-1532.190996
3276.241992,1480.411884,-10436.903782,459.657299
3276.242319,1776.494261,-10362.883188,612.876398
3276.242647,1776.494261,-9474.636058,306.438199
3276.242974,1406.391290,-10288.862594,0.000000
3276.243302,888.247130,-9104.533087,-536.266849
3276.243630,740.205942,-9178.553681,689.485948
3276.243957,888.247130,-9622.677246,229.828649
3276.244285,1036.288319,-9622.677246,-536.266849
3276.244613,1554.432478,-10436.903782,-842.705048
3276.244940,1332.370696,-9548.656652,-842.705048
3276.245268,962.267725,-9400.615463,-919.314598
3276.245596,1110.308913,-9696.697840,-1149.143247
3276.245923,-518.144159,-9770.718434,-919.314598
3276.246251,-1480.411884,-10436.903782,-612.876398
3276.246579,-370.102971,-9992.780217,-229.828649
3276.246906,814.226536,-10436.903782,0.000000
3276.247234,888.247130,-11325.150913,842.705048
3276.247561,962.267725,-9548.656652,229.828649
3276.247889,2368.659014,-9474.636058,-383.047749
3276.248217,2294.638420,-9178.553681,-842.705048
3276.248544,1110.308913,-8364.327145,76.609550
3276.248872,-222.061783,-8364.327145,459.657299
3276.249200,-1554.432478,-9030.512492,919.314598
3276.249527,-1554.432478,-10436.903782,459.657299
3276.249855,-740.205942,-10955.047942,-1378.971896
3276.250183,-1406.391290,-9918.759623,-612.876398
3276.250510,-814.226536,-9992.780217,459.657299
3276.250838,0.000000,-9770.718434,-459.657299
3276.251166,0.000000,-9252.574275,-1225.752797
3276.251493,-444.123565,-8660.409521,-1455.581446
3276.251821,0.000000,-7550.100608,-766.095498
3276.252149,444.123565,-8068.244768,153.219100
3276.252476,0.000000,-10066.800811,1991.848295
3276.252804,592.164754,-11621.233289,1762.019645
3276.253132,1036.288319,-9178.553681,689.485948
3276.253459,148.041188,-9622.677246,0.000000
3276.253787,-1406.391290,-11177.109724,-153.219100
3276.254115,-2812.782580,-10584.944971,-1149.143247
3276.254442,-2516.700203,-9178.553681,-2374.896044
3276.254770,-1332.370696,-9030.512492,-3064.381992
3276.255098,-1332.370696,-8660.409521,-1991.848295
3276.255425,0.000000,-9326.594869,-153.219100
3276.255753,-370.102971,-10362.883188,1302.362347
3276.256081,1036.288319,-10881.027347,1302.362347
3276.256408,2590.720797,-11251.130318,0.000000
3276.256736,1258.350101,-9770.718434,306.438199
3276.257064,888.247130,-9622.677246,689.485948
3276.257391,814.226536,-10362.883188,229.828649
3276.257719,592.164754,-9622.677246,-536.266849
3276.258046,1036.288319,-9844.739029,-459.657299
3276.258374,-74.020594,-10807.006753,-1608.800546
3276.258702,518.144159,-9992.780217,-1685.410096
3276.259029,1924.535449,-9252.574275,-1608.800546
3276.259357,1258.350101,-9104.533087,383.047749
3276.259685,1702.473667,-9400.615463,2068.457845
3276.260012,1406.391290,-9992.780217,3447.429741
3276.260340,1702.473667,-9622.677246,1991.848295
3276.260668,222.061783,-9548.656652,-842.705048
3276.260995,-592.164754,-8364.327145,-2298.286494
3276.261323,-814.226536,-8586.388927,-2528.115143
3276.261651,-1332.370696,-8956.491898,-1149.143247
3276.261978,-296.082377,-8808.450710,0.000000
3276.262306,1110.308913,-9474.636058,229.828649
3276.262634,814.226536,-9030.512492,919.314598
3276.262961,2886.803174,-9844.739029,919.314598
3276.263289,1998.556043,-9326.594869,1302.362347
3276.263617,1258.350101,-10510.924376,2145.067394
3276.263944,814.226536,-10140.821405,919.314598
3276.264272,814.226536,-8438.347739,-1225.752797
3276.264600,2146.597232,-8882.471304,-1532.190996
3276.264927,1110.308913,-10288.862594,0.000000
3276.265255,0.000000,-10066.800811,842.705048
3276.265583,-740.205942,-9030.512492,-842.705048
3276.265910,-962.267725,-9992.780217,-1762.019645
3276.266238,222.061783,-10807.006753,-1532.190996
3276.266566,222.061783,-9474.636058,-536.266849
3276.266893,-222.061783,-9474.636058,2451.505594
3276.267221,222.061783,-11769.274478,842.705048
3276.267548,148.041188,-11103.089130,-995.924147
3276.267876,740.205942,-9104.533087,-1455.581446
3276.268204,-296.082377,-8882.471304,-1225.752797
3276.268531,-518.144159,-9252.574275,0.000000
3276.268859,296.082377,-9326.594869,536.266849
3276.269187,-296.082377,-9030.512492,0.000000
3276.269514,-1332.370696,-9770.718434,995.924147
3276.269842,-1184.329507,-10214.842000,-306.438199
3276.270170,-2294.638420,-9918.759623,229.828649
3276.270497,-1110.308913,-11103.089130,-766.095498
3276.270825,-962.267725,-10140.821405,-1685.410096
3276.271153,0.000000,-8956.491898,-383.047749
3276.271480,666.185348,-8882.471304,0.000000
3276.271808,148.041188,-9178.553681,1225.752797
3276.272136,962.267725,-9326.594869,536.266849
3276.272463,-296.082377,-7550.100608,0.000000
3276.272791,-1702.473667,-7920.203579,0.000000
3276.273119,-888.247130,-9326.594869,0.000000
3276.273446,0.000000,-9474.636058,1072.533697
3276.273774,1924.535449,-11843.295072,153.219100
3276.274102,1702.473667,-11695.253884,-919.314598
3276.274429,2220.617826,-9918.759623,-459.657299
3276.274757,1776.494261,-9030.512492,-536.266849
3276.275085,-296.082377,-8364.327145,153.219100
3276.275412,-1554.432478,-8660.409521,229.828649
3276.275740,-1998.556043,-8068.244768,-1149.143247
3276.276068,-1776.494261,-9326.594869,-1762.019645
3276.276395,-666.185348,-10066.800811,-919.314598
3276.276723,222.061783,-10066.800811,0.000000
3276.277051,1184.329507,-11029.068536,153.219100
3276.277378,2220.617826,-11843.295072,-1225.752797
3276.277706,1998.556043,-10584.944971,-1302.362347
3276.278033,2146.597232,-9252.574275,-995.924147
3276.278361,2294.638420,-8438.347739,0.000000
3276.278689,1406.391290,-8808.450710,919.314598
3276.279016,296.082377,-10658.965565,1455.581446
3276.279344,-370.102971,-10362.883188,-383.047749
3276.279672,518.144159,-9696.697840,-2374.896044
3276.279999,370.102971,-9252.574275,-2221.676944
3276.280327,444.123565,-11103.089130,0.000000
3276.280655,1036.288319,-11547.212695,383.047749
3276.280982,2146.597232,-10807.006753,-229.828649
3276.281310,3108.864956,-11547.212695,-1302.362347
3276.281638,2590.720797,-9252.574275,-766.095498
3276.281965,1776.494261,-7105.977043,229.828649
3276.282293,370.102971,-7698.141797,1455.581446
3276.282621,0.000000,-9474.636058,1072.533697
3276.282948,-444.123565,-8586.388927,229.828649
3276.283276,0.000000,-8364.327145,-153.219100
3276.283604,296.082377,-8808.450710,-995.924147
3276.283931,222.061783,-10436.903782,0.000000
3276.284259,-296.082377,-10658.965565,612.876398
3276.284587,1332.370696,-9696.697840,-766.095498
3276.284914,1480.411884,-8808.450710,-459.657299
3276.285242,1184.329507,-8290.306550,1072.533697
3276.285570,222.061783,-8956.491898,2528.115143
3276.285897,0.000000,-8660.409521,2298.286494
3276.286225,0.000000,-10214.842000,459.657299
3276.286553,-1702.473667,-11325.150913,-612.876398
3276.286880,-1036.288319,-9104.533087,-1915.238745
3276.287208,-1036.288319,-8882.471304,-1532.190996
3276.287536,-1184.329507,-10658.965565,-1149.143247
3276.287863,-962.267725,-11325.150913,-919.314598
3276.288191,-1184.329507,-9622.677246,-1532.190996
3276.288518,-740.205942,-7994.224174,-1608.800546
3276.288846,518.144159,-10436.903782,-306.438199
3276.289174,296.082377,-9992.780217,995.924147
3276.289501,666.185348,-8882.471304,1149.143247
3276.289829,0.000000,-9030.512492,766.095498
3276.290157,0.000000,-10140.821405,-1149.143247
3276.290484,0.000000,-11177.109724,-995.924147
3276.290812,-1184.329507,-10732.986159,-919.314598
3276.291140,-1628.453072,-9474.636058,-995.924147
3276.291467,-962.267725,-9104.533087,-2221.676944
3276.291795,-148.041188,-9400.615463,-1685.410096
3276.292123,1184.329507,-10658.965565,0.000000
3276.292450,-370.102971,-8586.388927,1378.971896
3276.292778,444.123565,-9696.697840,1838.629195
3276.293106,518.144159,-9622.677246,612.876398
3276.293433,74.020594,-8216.285956,-383.047749
3276.293761,592.164754,-9178.553681,153.219100
3276.294089,370.102971,-9770.718434,153.219100
3276.294416,148.041188,-10288.862594,0.000000
3276.294744,814.226536,-10362.883188,-995.924147
3276.295072,370.102971,-8808.450710,-919.314598
3276.295399,518.144159,-8808.450710,153.219100
3276.295727,444.123565,-10658.965565,612.876398
3276.296055,1258.350101,-10732.986159,459.657299
3276.296382,1702.473667,-8956.491898,-229.828649
3276.296710,814.226536,-7402.059420,-306.438199
3276.297038,518.144159,-9326.594869,306.438199
3276.297365,-222.061783,-10362.883188,536.266849
3276.297693,-962.267725,-9104.533087,-1149.143247
3276.298020,-592.164754,-7920.203579,-3140.991542
3276.298348,-592.164754,-8586.388927,-2528.115143
3276.298676,518.144159,-10214.842000,-459.657299
3276.299003,1998.556043,-10732.986159,536.266849
3276.299331,1628.453072,-11769.274478,2221.676944
3276.299659,2368.659014,-11769.274478,766.095498
3276.299986,1184.329507,-9844.739029,-689.485948
3276.300314,1628.453072,-9030.512492,-842.705048
3276.300642,1850.514855,-9252.574275,-995.924147
3276.300969,814.226536,-9622.677246,459.657299
3276.301297,1628.453072,-9622.677246,459.657299
3276.301625,1110.308913,-8290.306550,153.219100
3276.301952,666.185348,-9400.615463,0.000000
3276.302280,-592.164754,-10955.047942,459.657299
3276.302608,-1184.329507,-10066.800811,-306.438199
3276.302935,148.041188,-9178.553681,-1685.410096
3276.303263,1480.411884,-9622.677246,-1455.581446
3276.303591,1332.370696,-11177.109724,919.314598
3276.303918,1702.473667,-10732.986159,1915.238745
3276.304246,1702.473667,-9918.759623,919.314598
3276.304574,962.267725,-8660.409521,-1838.629195
3276.304901,-592.164754,-7328.038826,-2451.505594
3276.305229,-1702.473667,-8068.244768,0.000000
3276.305557,-1480.411884,-8882.471304,1608.800546
3276.305884,-1480.411884,-9178.553681,1838.629195
3276.306212,148.041188,-9030.512492,689.485948
3276.306540,370.102971,-9918.759623,-306.438199
3276.306867,222.061783,-11177.109724,76.609550
3276.307195,370.102971,-11399.171507,153.219100
3276.307523,-148.041188,-9474.636058,-459.657299
3276.307850,1406.391290,-8660.409521,-1991.848295
3276.308178,814.226536,-9104.533087,-459.657299
3276.308505,-666.185348,-9918.759623,2451.505594
3276.308833,-296.082377,-8882.471304,1838.629195
3276.309161,-1850.514855,-8956.491898,153.219100
3276.309488,-1480.411884,-10140.821405,-1225.752797
3276.309816,-1184.329507,-9696.697840,-995.924147
3276.310144,-1036.288319,-9918.759623,0.000000
3276.310471,814.226536,-11621.233289,229.828649
3276.310799,962.267725,-11251.130318,-2145.067394
3276.311127,296.082377,-9622.677246,-1915.238745
3276.311454,0.000000,-9030.512492,-995.924147
3276.311782,-666.185348,-8882.471304,0.000000
3276.312110,0.000000,-9844.739029,995.924147
3276.312437,0.000000,-10066.800811,1149.143247
3276.312765,592.164754,-9178.553681,842.705048
3276.313093,222.061783,-8364.327145,76.609550
3276.313420,-962.267725,-9844.739029,0.000000
3276.313748,-518.144159,-10732.986159,-1072.533697
3276.314076,-222.061783,-10658.965565,-3064.381992
3276.314403,444.123565,-9548.656652,-2834.553343
3276.314731,1554.432478,-9474.636058,-689.485948
3276.315059,1480.411884,-10066.800811,1608.800546
3276.315386,2812.782580,-9770.718434,1915.238745
3276.315714,2146.597232,-10066.800811,1072.533697
3276.316042,592.164754,-9400.615463,536.266849
3276.316369,74.020594,-8438.347739,612.876398
3276.316697,148.041188,-8068.244768,229.828649
3276.317025,1702.473667,-10436.903782,-383.047749
3276.317352,1850.514855,-12287.418637,-536.266849
3276.317680,666.185348,-9474.636058,-1455.581446
3276.318008,1554.432478,-9252.574275,-2221.676944
3276.318335,74.020594,-9474.636058,-842.705048
3276.318663,-518.144159,-9696.697840,842.705048
3276.318990,-1110.308913,-7994.224174,229.828649
3276.319318,-888.247130,-7254.018232,0.000000
3276.319646,444.123565,-8438.347739,383.047749
3276.319973,0.000000,-10288.862594,919.314598
3276.320301,222.061783,-11325.150913,995.924147
3276.320629,1332.370696,-12361.439231,-1608.800546
3276.320956,1258.350101,-9622.677246,-3524.039291
3276.321284,1628.453072,-9696.697840,-2451.505594
3276.321612,1702.473667,-10658.965565,76.609550
3276.321939,1998.556043,-8808.450710,2374.896044
3276.322267,2220.617826,-9252.574275,1532.190996
3276.322595,666.185348,-9992.780217,536.266849
3276.322922,74.020594,-9548.656652,229.828649
3276.323250,-814.226536,-8142.265362,153.219100
3276.323578,-1258.350101,-8364.327145,383.047749
3276.323905,-518.144159,-10066.800811,-1149.143247
3276.324233,296.082377,-10362.883188,-1225.752797
3276.324561,2886.803174,-11177.109724,-1302.362347
3276.324888,3404.947333,-10658.965565,-1838.629195
3276.325216,1554.432478,-9178.553681,0.000000
3276.325544,444.123565,-9474.636058,766.095498
3276.325871,-1036.288319,-8956.491898,689.485948
3276.326199,-888.247130,-8290.306550,1302.362347
3276.326527,-962.267725,-8586.388927,229.828649
3276.326854,-370.102971,-8882.471304,0.000000
3276.327182,222.061783,-10807.006753,-153.219100
3276.327510,-1258.350101,-10955.047942,-919.314598
3276.327837,-296.082377,-10584.944971,-1991.848295
3276.328165,74.020594,-8882.471304,-2374.896044
3276.328493,-296.082377,-8660.409521,-536.266849
3276.328820,-296.082377,-9252.574275,842.705048
3276.329148,-222.061783,-10066.800811,1455.581446
3276.329475,0.000000,-11547.212695,2145.067394
3276.329803,740.205942,-10066.800811,0.000000
3276.330131,-814.226536,-8882.471304,459.657299
3276.330458,-740.205942,-10214.842000,612.876398
3276.330786,-888.247130,-9622.677246,-689.485948
3276.331114,-222.061783,-9178.553681,-1838.629195
3276.331441,0.000000,-9252.574275,-2221.676944
3276.331769,-370.102971,-9252.574275,-1072.533697
3276.332097,74.020594,-8882.471304,-153.219100
3276.332424,0.000000,-10066.800811,459.657299
3276.332752,-370.102971,-10362.883188,1149.143247
3276.333080,962.267725,-9104.533087,76.609550
3276.333407,0.000000,-9178.553681,689.485948
3276.333735,518.144159,-9844.739029,1455.581446
3276.334063,1036.288319,-10214.842000,306.438199
3276.334390,814.226536,-10066.800811,-459.657299
3276.334718,1924.535449,-10881.027347,-2221.676944
3276.335046,370.102971,-8956.491898,-1991.848295
3276.335373,0.000000,-7920.203579,153.219100
3276.335701,888.247130,-9622.677246,229.828649
3276.336029,592.164754,-10066.800811,612.876398
3276.336356,370.102971,-9474.636058,536.266849
3276.336684,0.000000,-9030.512492,0.000000
3276.337012,1332.370696,-9622.677246,-383.047749
3276.337339,1036.288319,-10584.944971,229.828649
3276.337667,666.185348,-10066.800811,306.438199
3276.337995,1110.308913,-8290.306550,-842.705048
3276.338322,740.205942,-9104.533087,-1685.410096
3276.338650,1702.473667,-11251.130318,-536.266849
3276.338977,2516.700203,-11325.150913,0.000000
3276.339305,962.267725,-9474.636058,919.314598
3276.339633,0.000000,-8438.347739,1455.581446
3276.339960,-2442.679609,-8734.430116,842.705048
3276.340288,-1924.535449,-8290.306550,0.000000
3276.340616,-888.247130,-9326.594869,-536.266849
3276.340943,-1702.473667,-10066.800811,-2451.505594
3276.341271,-1554.432478,-10214.842000,-2221.676944
3276.341599,-1110.308913,-9178.553681,-1762.019645
3276.341926,1850.514855,-8882.471304,-1762.019645
3276.342254,2886.803174,-10807.006753,-383.047749
3276.342582,1184.329507,-11843.295072,2757.943793
3276.342909,2072.576638,-10658.965565,2221.676944
3276.343237,2368.659014,-8364.327145,0.000000
3276.343565,1036.288319,-10140.821405,0.000000
3276.343892,-592.164754,-11325.150913,842.705048
3276.344220,-1628.453072,-9474.636058,0.000000
3276.344548,518.144159,-7920.203579,-2451.505594
3276.344878,0.000000,-8438.347739,-2681.334243
3276.345206,148.041188,-10362.883188,-459.657299
3276.345533,1036.288319,-9844.739029,1532.190996
3276.345861,1776.494261,-9474.636058,1149.143247
3276.346188,2072.576638,-10584.944971,229.828649
3276.346516,666.185348,-11621.233289,229.828649
3276.346843,-296.082377,-9178.553681,612.876398
3276.347171,74.020594,-8586.388927,-919.314598
3276.347498,-814.226536,-11177.109724,-919.314598
3276.347826,0.000000,-10214.842000,-689.485948
3276.348153,296.082377,-8438.347739,-1149.143247
3276.348481,-370.102971,-8956.491898,-153.219100
3276.348809,-518.144159,-9548.656652,383.047749
3276.349136,-518.144159,-9474.636058,459.657299
3276.349464,444.123565,-8068.244768,459.657299
3276.349791,1480.411884,-8956.491898,459.657299
3276.350119,222.061783,-9622.677246,1762.019645
3276.350446,592.164754,-10807.006753,1455.581446
3276.350774,1036.288319,-10732.986159,0.000000
3276.351101,1480.411884,-9918.759623,-1532.190996
3276.351429,1110.308913,-10140.821405,-1225.752797
3276.351756,0.000000,-9104.533087,459.657299
3276.352084,370.102971,-9178.553681,-229.828649
3276.352412,-592.164754,-9918.759623,-612.876398
3276.352739,-444.123565,-10066.800811,-229.828649
3276.353067,370.102971,-10140.821405,-459.657299
3276.353394,-962.267725,-10288.862594,459.657299
3276.353722,-1110.308913,-9474.636058,689.485948
3276.354049,0.000000,-9178.553681,-536.266849
3276.354377,518.144159,-9770.718434,-1378.971896
3276.354704,1480.411884,-9252.574275,-1225.752797
3276.355032,148.041188,-9178.553681,229.828649
3276.355359,518.144159,-9474.636058,1072.533697
3276.355687,1702.473667,-10288.862594,-383.047749
3276.356015,148.041188,-9474.636058,0.000000
3276.356342,-148.041188,-9696.697840,153.219100
3276.356670,370.102971,-10066.800811,459.657299
3276.356997,1258.350101,-10214.842000,-459.657299
3276.357325,296.082377,-9770.718434,-1455.581446
3276.357652,-1554.432478,-9178.553681,-766.095498
3276.357980,-370.102971,-8438.347739,-1225.752797
3276.358307,-74.020594,-9030.512492,-536.266849
3276.358635,222.061783,-8956.491898,229.828649
3276.358962,1702.473667,-9992.780217,0.000000
3276.359290,1628.453072,-10140.821405,153.219100
3276.359618,2960.823768,-11769.274478,536.266849
3276.359945,2812.782580,-10807.006753,459.657299
3276.360273,1332.370696,-9252.574275,1532.190996
3276.360600,0.000000,-9104.533087,459.657299
3276.360928,-2516.700203,-9178.553681,-306.438199
3276.361255,-1628.453072,-9622.677246,-1532.190996
3276.361583,-1924.535449,-9622.677246,-2145.067394
3276.361910,-2220.617826,-9622.677246,-1915.238745
3276.362238,-296.082377,-9400.615463,-1991.848295
3276.362565,666.185348,-9770.718434,-1302.362347
3276.362893,1554.432478,-11399.171507,1685.410096
3276.363221,1554.432478,-10955.047942,2374.896044
3276.363548,888.247130,-10436.903782,1149.143247
3276.363876,2146.597232,-9548.656652,0.000000
3276.364203,1850.514855,-9844.739029,-1685.410096
3276.364531,1554.432478,-10510.924376,229.828649
3276.364858,814.226536,-9474.636058,919.314598
3276.365186,0.000000,-9252.574275,459.657299
3276.365513,740.205942,-10214.842000,-1302.362347
3276.365841,-1184.329507,-10066.800811,-2451.505594
3276.366168,-1850.514855,-9400.615463,-306.438199
3276.366496,0.000000,-8364.327145,0.000000
3276.366823,296.082377,-8956.491898,383.047749
3276.367151,1258.350101,-11843.295072,1378.971896
3276.367479,1702.473667,-12213.398043,1685.410096
3276.367806,2442.679609,-9844.739029,383.047749
3276.368134,1258.350101,-8216.285956,-383.047749
3276.368461,-1036.288319,-8438.347739,-306.438199
3276.368789,-962.267725,-7328.038826,-689.485948
3276.369116,-1924.535449,-8364.327145,-153.219100
3276.369444,-1628.453072,-9992.780217,1072.533697
3276.369771,222.061783,-10066.800811,919.314598
3276.370099,1406.391290,-9178.553681,383.047749
3276.370426,814.226536,-9992.780217,0.000000
3276.370754,74.020594,-12139.377449,-459.657299
3276.371082,-370.102971,-11029.068536,-766.095498
3276.371409,1480.411884,-7698.141797,-2374.896044
3276.371737,1406.391290,-8290.306550,-1225.752797
3276.372064,1480.411884,-10362.883188,2451.505594
3276.372392,1628.453072,-10732.986159,2834.553343
3276.372719,-222.061783,-10288.862594,1685.410096
3276.373047,-518.144159,-9474.636058,-1915.238745
3276.373374,-1776.494261,-9178.553681,-2451.505594
3276.373702,-962.267725,-9844.739029,-1378.971896
3276.374029,-1036.288319,-10584.944971,-1225.752797
3276.374357,-666.185348,-12065.356855,-995.924147
3276.374685,1406.391290,-10362.883188,-1302.362347
3276.375012,962.267725,-8068.244768,-383.047749
3276.375340,2368.659014,-8586.388927,1378.971896
3276.375667,1406.391290,-9178.553681,1685.410096
3276.375995,-666.185348,-9474.636058,2451.505594
3276.376322,-370.102971,-9030.512492,-459.657299
3276.376650,-592.164754,-8882.471304,-1915.238745
3276.376977,-444.123565,-9918.759623,-1838.629195
