#time,accel_x,accel_y,accel_z
2818.757097,-148.041188,-9474.636058,-766.095498
2818.757425,0.000000,-9992.780217,-383.047749
2818.757753,74.020594,-9770.718434,459.657299
2818.758080,518.144159,-10066.800811,-383.047749
2818.758408,592.164754,-9622.677246,153.219100
2818.758736,666.185348,-9918.759623,689.485948
2818.759064,518.144159,-9400.615463,536.266849
2818.759391,444.123565,-9104.533087,459.657299
2818.759719,296.082377,-8956.491898,842.705048
2818.760047,0.000000,-8734.430116,612.876398
2818.760375,-370.102971,-8956.491898,-383.047749
2818.760703,0.000000,-9178.553681,-459.657299
2818.761030,0.000000,-9474.636058,-536.266849
2818.761358,0.000000,-9770.718434,-612.876398
2818.761686,370.102971,-9622.677246,-383.047749
2818.762014,1110.308913,-9844.739029,-536.266849
2818.762341,814.226536,-10214.842000,-153.219100
2818.762669,1110.308913,-10362.883188,-383.047749
2818.762997,814.226536,-9992.780217,-459.657299
2818.763325,666.185348,-10066.800811,0.000000
2818.763652,222.061783,-9696.697840,0.000000
2818.763980,222.061783,-9696.697840,0.000000
2818.764308,-222.061783,-10066.800811,-383.047749
2818.764636,-296.082377,-10140.821405,-383.047749
2818.764964,148.041188,-10140.821405,-842.705048
2818.765291,148.041188,-10510.924376,-459.657299
2818.765619,222.061783,-10362.883188,-306.438199
2818.765947,592.164754,-10288.862594,0.000000
2818.766275,592.164754,-10214.842000,0.000000
2818.766602,444.123565,-9400.615463,612.876398
2818.766930,296.082377,-9400.615463,0.000000
2818.767258,0.000000,-8734.430116,0.000000
2818.767586,0.000000,-9030.512492,0.000000
2818.767914,0.000000,-9178.553681,-229.828649
2818.768241,0.000000,-9400.615463,-306.438199
2818.768569,-370.102971,-9474.636058,-536.266849
2818.768897,148.041188,-9400.615463,0.000000
2818.769225,518.144159,-9770.718434,-766.095498
2818.769552,444.123565,-9326.594869,229.828649
2818.769880,1184.329507,-9252.574275,306.438199
2818.770208,1702.473667,-8956.491898,689.485948
2818.770536,2072.576638,-8956.491898,612.876398
2818.770864,3034.844362,-8290.306550,153.219100
2818.771191,3182.885551,-7846.182985,459.657299
2818.771519,3775.050304,-8586.388927,-306.438199
2818.771847,4219.173869,-9696.697840,-459.657299
2818.772175,5625.565159,-9400.615463,-766.095498
2818.772502,6661.853478,-9770.718434,-842.705048
2818.772830,7550.100608,-11029.068536,-383.047749
2818.773158,8660.409521,-10584.944971,-306.438199
2818.773486,9104.533087,-10807.006753,383.047749
2818.773814,8882.471304,-10584.944971,612.876398
2818.774141,9326.594869,-9400.615463,0.000000
2818.774469,9252.574275,-8956.491898,-383.047749
2818.774797,9326.594869,-8956.491898,-459.657299
2818.775125,10214.842000,-8882.471304,-306.438199
2818.775452,11843.295072,-9474.636058,0.000000
2818.775780,11547.212695,-10510.924376,0.000000
2818.776108,11547.212695,-10732.986159,-153.219100
2818.776436,10436.903782,-9770.718434,-842.705048
2818.776763,11103.089130,-9770.718434,-459.657299
2818.777091,12879.583391,-10881.027347,-536.266849
2818.777419,14063.912898,-10881.027347,153.219100
2818.777747,15544.324782,-10436.903782,1915.238745
2818.778075,15470.304188,-9178.553681,1455.581446
2818.778402,15470.304188,-8586.388927,1838.629195
2818.778730,13619.789333,-8364.327145,1072.533697
2818.779058,12435.459826,-8364.327145,459.657299
2818.779386,12065.356855,-9474.636058,0.000000
2818.779713,12213.398043,-10436.903782,-306.438199
2818.780041,11843.295072,-10140.821405,1608.800546
2818.780369,12509.480420,-9030.512492,1685.410096
2818.780697,10807.006753,-8068.244768,1072.533697
2818.781025,10436.903782,-10066.800811,1455.581446
2818.781352,9252.574275,-10732.986159,842.705048
2818.781680,7698.141797,-9474.636058,76.609550
2818.782008,5921.647536,-8364.327145,0.000000
2818.782336,3627.009116,-8290.306550,0.000000
2818.782663,2738.761985,-9178.553681,229.828649
2818.782991,2220.617826,-7179.997637,383.047749
2818.783319,3627.009116,-8660.409521,-306.438199
2818.783647,4589.276840,-11103.089130,0.000000
2818.783975,4145.153275,-11843.295072,-153.219100
2818.784302,2590.720797,-11177.109724,229.828649
2818.784630,666.185348,-9326.594869,-229.828649
2818.784958,148.041188,-7772.162391,-995.924147
2818.785286,962.267725,-8364.327145,-612.876398
2818.785613,2886.803174,-9548.656652,0.000000
2818.785941,4589.276840,-11325.150913,995.924147
2818.786269,3775.050304,-12065.356855,842.705048
2818.786597,888.247130,-11917.315666,0.000000
2818.786925,-1628.453072,-9844.739029,-1991.848295
2818.787252,-2442.679609,-8956.491898,-3983.696590
2818.787580,-1702.473667,-10214.842000,-3370.820191
2818.787908,-962.267725,-12065.356855,-995.924147
2818.788236,1110.308913,-10732.986159,536.266849
2818.788563,1702.473667,-8142.265362,1149.143247
2818.788891,222.061783,-8142.265362,1455.581446
2818.789219,-2812.782580,-9474.636058,1608.800546
2818.789547,-3997.112087,-10066.800811,76.609550
2818.789874,-2664.741391,-8660.409521,-2604.724693
2818.790202,-1332.370696,-8512.368333,-3524.039291
2818.790530,-296.082377,-9178.553681,-1608.800546
2818.790858,-296.082377,-9104.533087,1532.190996
2818.791186,0.000000,-10214.842000,2374.896044
2818.791513,-296.082377,-11177.109724,919.314598
2818.791841,-814.226536,-9696.697840,-919.314598
2818.792169,-296.082377,-7698.141797,-2528.115143
2818.792497,74.020594,-7328.038826,-1302.362347
2818.792824,0.000000,-8216.285956,229.828649
2818.793152,370.102971,-9474.636058,995.924147
2818.793480,1406.391290,-9030.512492,536.266849
2818.793808,3404.947333,-7772.162391,0.000000
2818.794136,4441.235652,-8956.491898,-612.876398
2818.794463,3775.050304,-11843.295072,76.609550
2818.794791,3256.906145,-11769.274478,0.000000
2818.795119,3330.926739,-9178.553681,-1378.971896
2818.795447,3552.988522,-8068.244768,-1838.629195
2818.795774,3182.885551,-10140.821405,0.000000
2818.796102,2960.823768,-11103.089130,1225.752797
2818.796430,3404.947333,-11547.212695,1532.190996
2818.796758,3330.926739,-10436.903782,383.047749
2818.797086,2664.741391,-9030.512492,-1378.971896
2818.797413,888.247130,-8438.347739,-459.657299
2818.797741,-296.082377,-9178.553681,459.657299
2818.798069,0.000000,-10510.924376,-766.095498
2818.798397,1258.350101,-10510.924376,-2221.676944
2818.798724,2294.638420,-9030.512492,-1149.143247
2818.799052,2220.617826,-9844.739029,0.000000
2818.799380,1406.391290,-11029.068536,2374.896044
2818.799708,1036.288319,-12805.562797,1685.410096
2818.800036,2220.617826,-12287.418637,-1225.752797
2818.800363,2294.638420,-10214.842000,-2221.676944
2818.800691,222.061783,-9696.697840,-536.266849
2818.801019,-296.082377,-10436.903782,1608.800546
2818.801347,-740.205942,-10510.924376,1762.019645
2818.801674,-1332.370696,-7994.224174,689.485948
2818.802002,-740.205942,-6587.832884,-689.485948
2818.802330,-1998.556043,-7994.224174,536.266849
2818.802658,-2960.823768,-9770.718434,2145.067394
2818.802986,-2516.700203,-10214.842000,995.924147
2818.803313,-888.247130,-7994.224174,-2068.457845
2818.803641,-296.082377,-7254.018232,-1685.410096
2818.803969,-1406.391290,-8734.430116,536.266849
2818.804297,-2220.617826,-10214.842000,2451.505594
2818.804624,-1776.494261,-10955.047942,1455.581446
2818.804952,-666.185348,-10436.903782,-1302.362347
2818.805280,-1554.432478,-9030.512492,-1378.971896
2818.805608,-2516.700203,-8808.450710,-153.219100
2818.805935,-3256.906145,-9178.553681,612.876398
2818.806263,-2146.597232,-10584.944971,-919.314598
2818.806591,-222.061783,-9252.574275,-1915.238745
2818.806919,518.144159,-7994.224174,-1532.190996
2818.807247,0.000000,-9030.512492,612.876398
2818.807574,0.000000,-9918.759623,1378.971896
2818.807902,518.144159,-9844.739029,383.047749
2818.808230,666.185348,-9474.636058,-1991.848295
2818.808558,74.020594,-9326.594869,-2604.724693
2818.808885,-592.164754,-10510.924376,-1378.971896
2818.809213,-592.164754,-11991.336260,-383.047749
2818.809541,0.000000,-12805.562797,-1378.971896
2818.809869,1480.411884,-11621.233289,-2911.162892
2818.810197,1258.350101,-10066.800811,-3294.210641
2818.810524,-148.041188,-10288.862594,-689.485948
2818.810852,444.123565,-10881.027347,919.314598
2818.811180,1332.370696,-9622.677246,459.657299
2818.811508,1850.514855,-7550.100608,-612.876398
2818.811835,1332.370696,-7031.956449,153.219100
2818.812163,888.247130,-8364.327145,1378.971896
2818.812491,1628.453072,-10214.842000,1532.190996
2818.812819,2146.597232,-10732.986159,689.485948
2818.813147,2590.720797,-9474.636058,-995.924147
2818.813474,1702.473667,-9178.553681,-919.314598
2818.813802,1480.411884,-10881.027347,306.438199
2818.814130,1480.411884,-11399.171507,689.485948
2818.814458,1924.535449,-10436.903782,76.609550
2818.814785,2960.823768,-8586.388927,-689.485948
2818.815113,2368.659014,-8808.450710,-612.876398
2818.815441,888.247130,-9030.512492,2221.676944
2818.815769,666.185348,-9400.615463,3140.991542
2818.816097,1406.391290,-8068.244768,1072.533697
2818.816424,2072.576638,-7402.059420,-1072.533697
2818.816752,1258.350101,-8512.368333,-383.047749
2818.817080,370.102971,-9178.553681,1455.581446
2818.817408,592.164754,-10066.800811,2145.067394
2818.817735,888.247130,-10732.986159,76.609550
2818.818063,444.123565,-10362.883188,-1378.971896
2818.818391,-888.247130,-9992.780217,-229.828649
2818.818718,-2664.741391,-10140.821405,536.266849
2818.819046,-2368.659014,-11177.109724,-995.924147
2818.819374,-2146.597232,-9548.656652,-2757.943793
2818.819701,-1850.514855,-7402.059420,-1991.848295
2818.820029,-1924.535449,-7994.224174,-766.095498
2818.820357,-1332.370696,-10214.842000,0.000000
2818.820684,0.000000,-11251.130318,-306.438199
2818.821012,1850.514855,-10658.965565,-1225.752797
2818.821340,2516.700203,-9178.553681,-1225.752797
2818.821667,1036.288319,-9844.739029,229.828649
2818.821995,-148.041188,-10732.986159,1302.362347
2818.822323,1184.329507,-11769.274478,612.876398
2818.822650,888.247130,-10584.944971,-1532.190996
2818.822978,296.082377,-9326.594869,-2068.457845
2818.823306,-1258.350101,-8512.368333,229.828649
2818.823633,-2368.659014,-9474.636058,1149.143247
2818.823961,-1998.556043,-9992.780217,-842.705048
2818.824289,-1480.411884,-9030.512492,-1991.848295
2818.824616,-1628.453072,-7254.018232,-1685.410096
2818.824944,-2220.617826,-7920.203579,0.000000
2818.825272,-2146.597232,-9252.574275,1149.143247
2818.825599,-888.247130,-10214.842000,689.485948
2818.825927,962.267725,-9844.739029,-536.266849
2818.826255,1110.308913,-8956.491898,-1302.362347
2818.826582,148.041188,-10066.800811,536.266849
2818.826910,-222.061783,-10140.821405,1149.143247
2818.827238,74.020594,-10658.965565,-306.438199
2818.827565,962.267725,-9844.739029,-1532.190996
2818.827893,1332.370696,-8586.388927,-1532.190996
2818.828221,1110.308913,-9104.533087,229.828649
2818.828548,1036.288319,-10436.903782,2298.286494
2818.828876,1776.494261,-11399.171507,842.705048
2818.829204,2072.576638,-9178.553681,-153.219100
2818.829531,1850.514855,-8068.244768,-689.485948
2818.829859,740.205942,-9178.553681,612.876398
2818.830187,1258.350101,-10732.986159,1225.752797
2818.830514,1776.494261,-11325.150913,76.609550
2818.830842,2516.700203,-9992.780217,-1532.190996
2818.831170,1850.514855,-9844.739029,-1608.800546
2818.831497,-518.144159,-10214.842000,612.876398
2818.831825,-1628.453072,-11177.109724,306.438199
2818.832153,-962.267725,-11177.109724,-1225.752797
2818.832480,222.061783,-9770.718434,-2451.505594
2818.832808,740.205942,-8808.450710,-1685.410096
2818.833136,518.144159,-8956.491898,536.266849
2818.833463,666.185348,-9474.636058,1762.019645
2818.833791,1776.494261,-9474.636058,1149.143247
2818.834119,3034.844362,-8586.388927,-306.438199
2818.834446,2590.720797,-8808.450710,-306.438199
2818.834774,1184.329507,-9326.594869,995.924147
2818.835101,148.041188,-10436.903782,1302.362347
2818.835429,148.041188,-10955.047942,-229.828649
2818.835757,518.144159,-9622.677246,-1532.190996
2818.836084,0.000000,-9844.739029,-689.485948
2818.836412,-1036.288319,-10288.862594,536.266849
2818.836740,-1184.329507,-10288.862594,229.828649
2818.837067,-518.144159,-9992.780217,-1225.752797
2818.837395,-740.205942,-8068.244768,-766.095498
2818.837723,-888.247130,-6513.812290,689.485948
2818.838050,-1480.411884,-7920.203579,1608.800546
2818.838378,-1850.514855,-8956.491898,1762.019645
2818.838706,-444.123565,-9474.636058,0.000000
2818.839033,74.020594,-9178.553681,-1838.629195
2818.839361,-1406.391290,-9474.636058,-995.924147
2818.839689,-814.226536,-11029.068536,-612.876398
2818.840016,-148.041188,-12583.501014,-766.095498
2818.840344,814.226536,-11621.233289,-1302.362347
2818.840672,2368.659014,-9770.718434,-1532.190996
2818.840999,1702.473667,-9622.677246,229.828649
2818.841327,-444.123565,-10288.862594,1838.629195
2818.841655,-1924.535449,-10362.883188,1378.971896
2818.841982,-1480.411884,-8586.388927,-919.314598
2818.842310,-888.247130,-7402.059420,-2451.505594
2818.842638,-1702.473667,-7994.224174,-612.876398
2818.842965,-1776.494261,-9474.636058,536.266849
2818.843293,-1036.288319,-10214.842000,612.876398
2818.843621,888.247130,-10288.862594,-995.924147
2818.843948,740.205942,-9474.636058,-1149.143247
2818.844276,0.000000,-9326.594869,0.000000
2818.844604,148.041188,-10658.965565,766.095498
2818.844931,296.082377,-11251.130318,0.000000
2818.845259,1184.329507,-10214.842000,-842.705048
2818.845587,1258.350101,-9178.553681,-612.876398
2818.845914,518.144159,-9030.512492,689.485948
2818.846242,444.123565,-9474.636058,1225.752797
2818.846570,962.267725,-10214.842000,459.657299
2818.846897,1998.556043,-8808.450710,-1455.581446
2818.847225,2738.761985,-7994.224174,-1149.143247
2818.847553,1628.453072,-8364.327145,306.438199
2818.847880,740.205942,-9548.656652,1838.629195
2818.848208,1036.288319,-10807.006753,1378.971896
2818.848536,2220.617826,-9622.677246,-766.095498
2818.848863,1924.535449,-8882.471304,-1455.581446
2818.849191,1110.308913,-10214.842000,536.266849
2818.849519,814.226536,-10955.047942,689.485948
2818.849846,888.247130,-11547.212695,-766.095498
2818.850174,1406.391290,-10140.821405,-2374.896044
2818.850502,148.041188,-8734.430116,-2221.676944
2818.850829,-1110.308913,-8808.450710,229.828649
2818.851157,-296.082377,-10214.842000,842.705048
2818.851485,1332.370696,-10881.027347,76.609550
2818.851812,1776.494261,-9104.533087,-306.438199
2818.852140,2442.679609,-8290.306550,-536.266849
2818.852467,1406.391290,-8956.491898,1302.362347
2818.852795,888.247130,-10066.800811,1455.581446
2818.853123,1110.308913,-10288.862594,0.000000
2818.853450,1332.370696,-9030.512492,-1532.190996
2818.853778,1184.329507,-9548.656652,-1149.143247
2818.854106,0.000000,-10732.986159,0.000000
2818.854433,-1110.308913,-10955.047942,766.095498
2818.854761,-444.123565,-11843.295072,0.000000
2818.855089,592.164754,-10066.800811,-1838.629195
2818.855416,0.000000,-8734.430116,-995.924147
2818.855744,-1554.432478,-9400.615463,306.438199
2818.856072,-1258.350101,-8882.471304,995.924147
2818.856399,-148.041188,-7624.121203,383.047749
2818.856727,74.020594,-7772.162391,-995.924147
2818.857055,-296.082377,-8216.285956,306.438199
2818.857382,-518.144159,-9844.739029,1608.800546
2818.857710,-1036.288319,-11103.089130,1532.190996
2818.858038,-666.185348,-11399.171507,-689.485948
2818.858365,0.000000,-10066.800811,-2451.505594
2818.858693,-1406.391290,-8882.471304,-766.095498
2818.859021,-2220.617826,-9992.780217,459.657299
2818.859348,-1702.473667,-10362.883188,306.438199
2818.859676,-592.164754,-9770.718434,-995.924147
2818.860004,0.000000,-7994.224174,-1378.971896
2818.860331,-444.123565,-7698.141797,153.219100
2818.860659,-1036.288319,-9030.512492,1302.362347
2818.860987,-1628.453072,-10066.800811,1302.362347
2818.861314,370.102971,-10732.986159,-1838.629195
2818.861642,1332.370696,-9400.615463,-2451.505594
2818.861970,1258.350101,-10066.800811,-689.485948
2818.862297,1850.514855,-11473.192101,1225.752797
2818.862625,2072.576638,-12287.418637,919.314598
2818.862953,1850.514855,-11399.171507,-536.266849
2818.863280,1998.556043,-9252.574275,-2221.676944
2818.863608,74.020594,-8734.430116,-1302.362347
2818.863936,-1184.329507,-9474.636058,1455.581446
2818.864263,-1036.288319,-9844.739029,536.266849
2818.864591,0.000000,-9252.574275,-1455.581446
2818.864919,740.205942,-8438.347739,-2068.457845
2818.865246,740.205942,-8438.347739,-612.876398
2818.865574,888.247130,-9326.594869,919.314598
2818.865902,1406.391290,-10955.047942,919.314598
2818.866229,2516.700203,-10658.965565,-842.705048
2818.866557,3034.844362,-9326.594869,-1455.581446
2818.866885,2072.576638,-9104.533087,-229.828649
2818.867212,296.082377,-9844.739029,1838.629195
2818.867540,370.102971,-10436.903782,1302.362347
2818.867868,1924.535449,-9696.697840,-536.266849
2818.868195,2072.576638,-7698.141797,-1685.410096
2818.868523,1036.288319,-8364.327145,153.219100
2818.868851,444.123565,-9918.759623,1455.581446
2818.869178,370.102971,-9918.759623,766.095498
2818.869506,1628.453072,-8808.450710,-1378.971896
2818.869833,1110.308913,-8068.244768,-1225.752797
2818.870161,518.144159,-8660.409521,76.609550
2818.870489,814.226536,-10584.944971,1991.848295
2818.870816,1406.391290,-11251.130318,1378.971896
2818.871144,2294.638420,-10955.047942,-1149.143247
2818.871472,1480.411884,-10584.944971,-1608.800546
2818.871799,-666.185348,-10955.047942,-689.485948
2818.872127,-1480.411884,-10881.027347,-536.266849
2818.872455,-1332.370696,-9548.656652,-689.485948
2818.872782,-592.164754,-9474.636058,-1838.629195
2818.873110,-888.247130,-9252.574275,-1915.238745
2818.873438,-2220.617826,-8956.491898,383.047749
2818.873765,-2886.803174,-9030.512492,1532.190996
2818.874093,-1554.432478,-10066.800811,383.047749
2818.874421,518.144159,-9400.615463,-1149.143247
2818.874748,1702.473667,-8882.471304,-1915.238745
2818.875076,444.123565,-9252.574275,536.266849
2818.875404,0.000000,-11325.150913,2145.067394
2818.875731,-592.164754,-11177.109724,689.485948
2818.876059,-1332.370696,-9252.574275,-1225.752797
2818.876387,-1702.473667,-8660.409521,-1532.190996
2818.876714,-2220.617826,-10214.842000,-536.266849
2818.877042,-2220.617826,-11177.109724,306.438199
2818.877370,-1406.391290,-9622.677246,0.000000
2818.877697,-296.082377,-8216.285956,-842.705048
2818.878025,-962.267725,-7179.997637,153.219100
2818.878353,-814.226536,-8438.347739,1149.143247
2818.878680,444.123565,-9696.697840,1225.752797
2818.879008,1998.556043,-9400.615463,383.047749
2818.879336,2738.761985,-8364.327145,689.485948
2818.879663,1480.411884,-8882.471304,0.000000
2818.879991,-592.164754,-10436.903782,383.047749
2818.880319,-444.123565,-11103.089130,-842.705048
2818.880646,592.164754,-11473.192101,-2681.334243
2818.880974,1998.556043,-10732.986159,-3140.991542
2818.881302,2738.761985,-9992.780217,-1378.971896
2818.881629,2368.659014,-10288.862594,995.924147
2818.881957,1480.411884,-10955.047942,2298.286494
2818.882285,592.164754,-9326.594869,76.609550
2818.882612,370.102971,-6883.915261,-2298.286494
2818.882940,0.000000,-7105.977043,-2068.457845
2818.883268,-370.102971,-9252.574275,0.000000
2818.883595,0.000000,-11177.109724,1225.752797
2818.883923,1554.432478,-10140.821405,76.609550
2818.884251,2590.720797,-9992.780217,-1838.629195
2818.884578,1850.514855,-10807.006753,-1608.800546
2818.884906,888.247130,-11843.295072,-689.485948
2818.885234,1258.350101,-11695.253884,-1225.752797
2818.885561,2368.659014,-10362.883188,-1838.629195
2818.885889,2886.803174,-8734.430116,-536.266849
2818.886217,2072.576638,-7846.182985,1608.800546
2818.886544,666.185348,-8882.471304,3140.991542
2818.886872,-370.102971,-9918.759623,2068.457845
2818.887200,444.123565,-9770.718434,-1225.752797
2818.887527,888.247130,-8068.244768,-2681.334243
2818.887855,148.041188,-7994.224174,-1149.143247
2818.888182,-814.226536,-9400.615463,1532.190996
2818.888510,-370.102971,-10584.944971,1915.238745
2818.888838,370.102971,-9992.780217,459.657299
2818.889165,666.185348,-9178.553681,-1378.971896
2818.889493,-444.123565,-9030.512492,-306.438199
2818.889821,-1184.329507,-10584.944971,919.314598
2818.890148,-518.144159,-11991.336260,766.095498
2818.890476,0.000000,-10214.842000,-689.485948
2818.890804,0.000000,-7402.059420,-1532.190996
2818.891131,-1554.432478,-9178.553681,-689.485948
2818.891459,-1702.473667,-10584.944971,536.266849
2818.891787,-518.144159,-10214.842000,0.000000
2818.892114,1258.350101,-9178.553681,-1072.533697
2818.892442,1480.411884,-9178.553681,-229.828649
2818.892770,0.000000,-9030.512492,1608.800546
2818.893097,-1184.329507,-9252.574275,2145.067394
2818.893425,-1258.350101,-9770.718434,306.438199
2818.893753,-666.185348,-9696.697840,-2221.676944
2818.894080,-592.164754,-9622.677246,-2451.505594
2818.894408,-1332.370696,-9918.759623,-306.438199
2818.894736,-1184.329507,-10881.027347,536.266849
2818.895063,-592.164754,-11177.109724,459.657299
2818.895391,-370.102971,-10288.862594,-1378.971896
2818.895719,-592.164754,-9030.512492,-1225.752797
2818.896046,-370.102971,-9252.574275,-1225.752797
2818.896374,-592.164754,-10436.903782,229.828649
2818.896702,148.041188,-10436.903782,76.609550
2818.897029,1110.308913,-8512.368333,-536.266849
2818.897357,1258.350101,-8364.327145,-689.485948
2818.897685,888.247130,-9992.780217,1149.143247
2818.898012,1036.288319,-11177.109724,1378.971896
2818.898340,1998.556043,-10214.842000,-459.657299
2818.898668,2220.617826,-8956.491898,-1685.410096
2818.898995,962.267725,-9030.512492,-536.266849
2818.899323,-740.205942,-9474.636058,919.314598
2818.899651,-1258.350101,-9770.718434,1532.190996
2818.899978,74.020594,-10140.821405,0.000000
2818.900306,1628.453072,-9178.553681,-1762.019645
2818.900634,1480.411884,-8290.306550,-919.314598
2818.900961,814.226536,-9104.533087,1685.410096
2818.901289,1110.308913,-10288.862594,1532.190996
2818.901617,1332.370696,-10584.944971,-306.438199
2818.901944,1850.514855,-8660.409521,-1608.800546
2818.902272,1184.329507,-8586.388927,-919.314598
2818.902600,1406.391290,-9992.780217,383.047749
2818.902927,1554.432478,-11325.150913,766.095498
2818.903255,2220.617826,-11621.233289,153.219100
2818.903583,2294.638420,-9474.636058,-995.924147
2818.903910,1258.350101,-9474.636058,-153.219100
2818.904238,296.082377,-10510.924376,842.705048
2818.904566,740.205942,-10807.006753,689.485948
2818.904893,1628.453072,-9770.718434,-919.314598
2818.905221,1184.329507,-8438.347739,-1378.971896
2818.905548,518.144159,-9326.594869,0.000000
2818.905876,-666.185348,-10214.842000,1455.581446
2818.906204,-1480.411884,-10584.944971,842.705048
2818.906531,-296.082377,-10584.944971,-1455.581446
2818.906859,222.061783,-9770.718434,-3140.991542
2818.907187,148.041188,-9548.656652,-689.485948
2818.907514,-962.267725,-9400.615463,1455.581446
2818.907842,-814.226536,-10288.862594,1915.238745
2818.908170,0.000000,-9770.718434,459.657299
2818.908497,370.102971,-8290.306550,-459.657299
2818.908825,0.000000,-7624.121203,689.485948
2818.909153,-1036.288319,-8068.244768,1225.752797
2818.909480,-888.247130,-10584.944971,842.705048
2818.909808,-592.164754,-10214.842000,-919.314598
2818.910136,-740.205942,-8216.285956,-1991.848295
2818.910463,-888.247130,-9104.533087,-612.876398
2818.910791,-666.185348,-10362.883188,383.047749
2818.911119,666.185348,-11177.109724,383.047749
2818.911446,2368.659014,-10658.965565,-1149.143247
2818.911774,2590.720797,-9178.553681,-919.314598
2818.912102,296.082377,-9474.636058,1608.800546
2818.912429,-1480.411884,-10140.821405,1915.238745
2818.912757,-1850.514855,-9548.656652,0.000000
2818.913085,-814.226536,-9104.533087,-2681.334243
2818.913412,-814.226536,-8956.491898,-3064.381992
2818.913740,-1850.514855,-8660.409521,-612.876398
2818.914068,-1258.350101,-9622.677246,0.000000
2818.914395,-296.082377,-10510.924376,0.000000
2818.914723,740.205942,-9696.697840,-1915.238745
2818.915051,888.247130,-8956.491898,-1838.629195
2818.915378,444.123565,-9326.594869,0.000000
2818.915706,1776.494261,-11103.089130,842.705048
2818.916034,2220.617826,-11621.233289,612.876398
2818.916361,2590.720797,-10288.862594,-383.047749
2818.916689,1258.350101,-9326.594869,-383.047749
2818.917017,-148.041188,-10436.903782,459.657299
2818.917344,0.000000,-11325.150913,0.000000
2818.917672,888.247130,-10807.006753,-1915.238745
2818.918000,1702.473667,-9400.615463,-2681.334243
2818.918327,1184.329507,-8364.327145,-306.438199
2818.918655,814.226536,-7994.224174,2145.067394
2818.918983,666.185348,-9104.533087,2681.334243
2818.919310,1332.370696,-9992.780217,1302.362347
2818.919638,2738.761985,-9030.512492,-842.705048
2818.919965,1480.411884,-8660.409521,-766.095498
2818.920293,0.000000,-9696.697840,919.314598
2818.920621,-148.041188,-10214.842000,1072.533697
2818.920948,740.205942,-9992.780217,-1532.190996
2818.921276,1184.329507,-9474.636058,-1302.362347
2818.921604,1480.411884,-9474.636058,-766.095498
2818.921931,740.205942,-9622.677246,919.314598
2818.922259,-296.082377,-10881.027347,1762.019645
2818.922587,-370.102971,-10362.883188,153.219100
2818.922914,148.041188,-7772.162391,-919.314598
2818.923242,-444.123565,-6883.915261,0.000000
2818.923570,-962.267725,-8586.388927,459.657299
2818.923897,74.020594,-10510.924376,842.705048
2818.924225,1702.473667,-10658.965565,0.000000
2818.924553,1850.514855,-9474.636058,-995.924147
2818.924880,1110.308913,-9548.656652,-383.047749
2818.925208,-1258.350101,-10732.986159,-766.095498
2818.925536,-1480.411884,-12361.439231,-766.095498
2818.925863,0.000000,-11473.192101,-1991.848295
2818.926191,1480.411884,-9474.636058,-2451.505594
2818.926519,740.205942,-8956.491898,0.000000
2818.926846,-666.185348,-9844.739029,2298.286494
2818.927174,-1184.329507,-10436.903782,2145.067394
2818.927502,-592.164754,-9992.780217,-995.924147
2818.927829,-296.082377,-7476.080014,-2528.115143
2818.928157,-1036.288319,-7328.038826,-1072.533697
2818.928484,-1924.535449,-8808.450710,1072.533697
2818.928812,-1332.370696,-10807.006753,1302.362347
2818.929140,-148.041188,-11251.130318,-383.047749
2818.929467,296.082377,-9696.697840,-2145.067394
2818.929795,370.102971,-10066.800811,-766.095498
2818.930123,296.082377,-11325.150913,0.000000
2818.930450,740.205942,-11991.336260,153.219100
2818.930778,1406.391290,-10510.924376,-689.485948
2818.931106,1480.411884,-7846.182985,-995.924147
2818.931433,0.000000,-7772.162391,459.657299
2818.931761,-1332.370696,-8734.430116,2451.505594
2818.932089,-740.205942,-8882.471304,1378.971896
2818.932416,1406.391290,-8882.471304,-383.047749
2818.932744,1776.494261,-8142.265362,-1149.143247
2818.933072,666.185348,-8660.409521,229.828649
2818.933399,0.000000,-9474.636058,1838.629195
2818.933727,74.020594,-10140.821405,1072.533697
2818.934055,888.247130,-9178.553681,-919.314598
2818.934382,444.123565,-8660.409521,-1838.629195
2818.934710,-888.247130,-9474.636058,-919.314598
2818.935038,0.000000,-10807.006753,536.266849
2818.935365,296.082377,-11695.253884,76.609550
2818.935693,666.185348,-10658.965565,-1225.752797
2818.936021,592.164754,-9400.615463,-1915.238745
2818.936348,518.144159,-10214.842000,-459.657299
2818.936676,740.205942,-10436.903782,153.219100
2818.937004,1924.535449,-10362.883188,306.438199
2818.937331,2738.761985,-9622.677246,-536.266849
2818.937659,2664.741391,-8660.409521,306.438199
2818.937987,1702.473667,-9326.594869,1302.362347
2818.938314,74.020594,-10807.006753,2145.067394
2818.938642,1036.288319,-11769.274478,0.000000
2818.938970,2738.761985,-10362.883188,-2834.553343
2818.939297,1406.391290,-9178.553681,-1838.629195
2818.939625,-296.082377,-9474.636058,612.876398
2818.939953,-1554.432478,-10066.800811,1915.238745
2818.940280,-1702.473667,-9992.780217,0.000000
2818.940608,-1406.391290,-8438.347739,-2681.334243
2818.940936,-1924.535449,-7402.059420,-2221.676944
2818.941263,-1924.535449,-8586.388927,689.485948
2818.941591,-1258.350101,-10214.842000,1455.581446
2818.941918,0.000000,-10732.986159,306.438199
2818.942246,1258.350101,-9104.533087,-1915.238745
2818.942574,1110.308913,-8734.430116,-1225.752797
2818.942901,962.267725,-9844.739029,919.314598
2818.943229,1406.391290,-10732.986159,1762.019645
2818.943557,1776.494261,-10288.862594,0.000000
2818.943884,2368.659014,-9622.677246,-919.314598
2818.944212,1998.556043,-9696.697840,-612.876398
2818.944540,-370.102971,-9770.718434,1608.800546
2818.944867,-1702.473667,-9992.780217,1149.143247
2818.945195,-1184.329507,-9622.677246,-919.314598
2818.945523,148.041188,-8364.327145,-2757.943793
2818.945850,0.000000,-7994.224174,-1149.143247
2818.946178,-888.247130,-9696.697840,1685.410096
2818.946506,-1406.391290,-9844.739029,1302.362347
2818.946833,-666.185348,-10066.800811,-919.314598
2818.947161,0.000000,-9252.574275,-3140.991542
2818.947489,-592.164754,-9844.739029,-2604.724693
2818.947816,-1036.288319,-11177.109724,0.000000
2818.948144,-592.164754,-11769.274478,1149.143247
2818.948472,1110.308913,-10955.047942,0.000000
2818.948799,2146.597232,-9770.718434,-995.924147
2818.949127,1554.432478,-9178.553681,229.828649
2818.949455,518.144159,-9548.656652,1532.190996
2818.949782,814.226536,-9770.718434,842.705048
2818.950110,2146.597232,-9474.636058,-919.314598
2818.950438,2294.638420,-8216.285956,-229.828649
2818.950765,-222.061783,-7402.059420,995.924147
2818.951093,-222.061783,-9326.594869,1532.190996
2818.951421,148.041188,-11103.089130,306.438199
2818.951748,1776.494261,-11177.109724,-1532.190996
2818.952076,2368.659014,-9844.739029,-1991.848295
2818.952404,1776.494261,-10214.842000,76.609550
2818.952731,1110.308913,-10807.006753,1685.410096
2818.953059,222.061783,-11103.089130,1455.581446
2818.953387,592.164754,-10140.821405,-383.047749
2818.953714,-444.123565,-7772.162391,-1532.190996
2818.954042,-1776.494261,-7994.224174,-459.657299
2818.954370,-3108.864956,-9178.553681,766.095498
2818.954697,-2590.720797,-9474.636058,383.047749
2818.955025,-888.247130,-7846.182985,-1532.190996
2818.955352,0.000000,-7328.038826,-1762.019645
2818.955680,-518.144159,-8882.471304,612.876398
2818.956008,148.041188,-10214.842000,536.266849
2818.956335,1110.308913,-11399.171507,76.609550
2818.956663,2442.679609,-10955.047942,-766.095498
2818.956991,2590.720797,-9770.718434,-306.438199
2818.957318,222.061783,-9992.780217,1455.581446
2818.957646,-1184.329507,-10362.883188,1378.971896
2818.957974,-740.205942,-10881.027347,-689.485948
2818.958301,444.123565,-10436.903782,-2604.724693
2818.958629,0.000000,-9178.553681,-2374.896044
2818.958957,-370.102971,-8734.430116,-306.438199
2818.959284,-888.247130,-8808.450710,1762.019645
2818.959612,-518.144159,-9474.636058,1225.752797
2818.959940,962.267725,-8586.388927,-229.828649
2818.960267,370.102971,-8142.265362,-995.924147
2818.960595,-444.123565,-8438.347739,0.000000
2818.960923,-592.164754,-11251.130318,536.266849
2818.961250,222.061783,-12435.459826,-306.438199
2818.961578,1332.370696,-10584.944971,-1838.629195
2818.961906,1628.453072,-9844.739029,-1532.190996
2818.962233,888.247130,-10732.986159,306.438199
2818.962561,0.000000,-10881.027347,0.000000
2818.962889,0.000000,-9696.697840,-459.657299
2818.963216,370.102971,-8068.244768,-1225.752797
2818.963544,518.144159,-7698.141797,-459.657299
2818.963872,-296.082377,-7920.203579,1762.019645
2818.964199,0.000000,-8808.450710,2451.505594
2818.964527,1406.391290,-9252.574275,1532.190996
2818.964855,2368.659014,-8734.430116,-1762.019645
2818.965182,1406.391290,-8364.327145,-1302.362347
2818.965510,74.020594,-9622.677246,-153.219100
2818.965838,0.000000,-10955.047942,76.609550
2818.966165,962.267725,-11251.130318,-1532.190996
2818.966493,1628.453072,-10214.842000,-1838.629195
2818.966821,1110.308913,-8734.430116,-995.924147
2818.967148,962.267725,-10658.965565,842.705048
2818.967476,370.102971,-11769.274478,995.924147
2818.967804,1036.288319,-11029.068536,0.000000
2818.968131,1258.350101,-7698.141797,-1762.019645
2818.968459,518.144159,-7179.997637,-1149.143247
2818.968786,148.041188,-8660.409521,766.095498
2818.969114,0.000000,-10510.924376,612.876398
2818.969442,666.185348,-10510.924376,-383.047749
2818.969769,1184.329507,-9178.553681,-1532.190996
2818.970097,1110.308913,-10066.800811,-1455.581446
2818.970425,74.020594,-11695.253884,-306.438199
2818.970752,-370.102971,-12287.418637,153.219100
2818.971080,1110.308913,-12065.356855,-1378.971896
2818.971408,1480.411884,-10066.800811,-2604.724693
2818.971735,148.041188,-8956.491898,-995.924147
2818.972063,-888.247130,-9326.594869,1072.533697
2818.972391,-1776.494261,-9400.615463,2068.457845
2818.972718,-222.061783,-8290.306550,306.438199
2818.973046,888.247130,-7105.977043,-1455.581446
2818.973374,370.102971,-7105.977043,-229.828649
2818.973701,-1110.308913,-8364.327145,2374.896044
2818.974029,-1776.494261,-9918.759623,1762.019645
2818.974357,-666.185348,-10140.821405,-536.266849
2818.974684,444.123565,-9104.533087,-2528.115143
2818.975012,148.041188,-10214.842000,-1302.362347
2818.975340,222.061783,-11917.315666,536.266849
2818.975667,1406.391290,-12213.398043,1149.143247
2818.975995,2294.638420,-11251.130318,153.219100
2818.976323,1554.432478,-8216.285956,-995.924147
2818.976650,-444.123565,-8068.244768,153.219100
2818.976978,-1924.535449,-9178.553681,536.266849
2818.977306,-1998.556043,-9252.574275,-229.828649
2818.977633,74.020594,-8660.409521,-1838.629195
2818.977961,1258.350101,-8290.306550,-2221.676944
2818.978289,-296.082377,-9326.594869,919.314598
2818.978616,-666.185348,-10658.965565,2221.676944
2818.978944,666.185348,-11029.068536,612.876398
2818.979272,1776.494261,-10436.903782,-2221.676944
2818.979599,592.164754,-9400.615463,-2374.896044
2818.979927,-1554.432478,-9104.533087,-459.657299
2818.980255,-2220.617826,-9992.780217,1225.752797
2818.980582,-2294.638420,-11029.068536,1072.533697
2818.980910,-1110.308913,-10066.800811,-2298.286494
2818.981238,-740.205942,-8660.409521,-2451.505594
2818.981565,-666.185348,-9918.759623,-1072.533697
2818.981893,0.000000,-11029.068536,0.000000
2818.982220,1554.432478,-11103.089130,-536.266849
2818.982548,3182.885551,-9696.697840,-1302.362347
2818.982876,2960.823768,-7846.182985,536.266849
2818.983203,1850.514855,-8956.491898,2757.943793
2818.983531,1184.329507,-10584.944971,2374.896044
2818.983859,1924.535449,-10881.027347,536.266849
2818.984186,2368.659014,-10140.821405,-1532.190996
2818.984514,1258.350101,-9400.615463,-1455.581446
2818.984842,-444.123565,-10066.800811,612.876398
2818.985169,-1776.494261,-10066.800811,1225.752797
2818.985497,-518.144159,-9992.780217,-766.095498
2818.985825,888.247130,-8068.244768,-1532.190996
2818.986152,592.164754,-7994.224174,-842.705048
2818.986480,-666.185348,-9474.636058,1991.848295
2818.986808,-1184.329507,-9844.739029,2528.115143
2818.987135,0.000000,-9400.615463,0.000000
2818.987463,444.123565,-8734.430116,-1991.848295
2818.987791,-370.102971,-8956.491898,-1608.800546
2818.988118,-1184.329507,-9696.697840,-536.266849
2818.988446,0.000000,-10807.006753,153.219100
2818.988774,1850.514855,-11399.171507,0.000000
2818.989101,2886.803174,-10066.800811,-612.876398
2818.989429,1850.514855,-8660.409521,0.000000
2818.989757,0.000000,-8882.471304,1608.800546
2818.990084,-518.144159,-10066.800811,1378.971896
2818.990412,296.082377,-10288.862594,-842.705048
2818.990740,1258.350101,-8734.430116,-1915.238745
2818.991067,814.226536,-7402.059420,-536.266849
2818.991395,-518.144159,-9474.636058,919.314598
2818.991723,0.000000,-11917.315666,1225.752797
2818.992050,888.247130,-11029.068536,-1608.800546
2818.992378,1110.308913,-8956.491898,-3447.429741
2818.992706,-296.082377,-9992.780217,-2145.067394
2818.993033,0.000000,-11917.315666,0.000000
2818.993361,74.020594,-12139.377449,766.095498
2818.993689,592.164754,-11769.274478,0.000000
2818.994016,1110.308913,-9326.594869,-842.705048
2818.994344,0.000000,-8734.430116,-536.266849
2818.994672,-2220.617826,-9104.533087,536.266849
2818.994999,-2146.597232,-9326.594869,-153.219100
2818.995327,-666.185348,-8364.327145,-1225.752797
2818.995654,518.144159,-7994.224174,-1762.019645
2818.995982,-370.102971,-8216.285956,0.000000
2818.996310,-666.185348,-9178.553681,1991.848295
2818.996637,0.000000,-10658.965565,1378.971896
2818.996965,1554.432478,-10732.986159,-383.047749
2818.997293,1776.494261,-10436.903782,-2145.067394
2818.997620,296.082377,-9770.718434,229.828649
2818.997948,-592.164754,-9622.677246,2068.457845
2818.998276,-740.205942,-9770.718434,1149.143247
2818.998603,0.000000,-8364.327145,-919.314598
2818.998931,0.000000,-7105.977043,-1838.629195
2818.999259,-740.205942,-7550.100608,-153.219100
2818.999586,-1702.473667,-9770.718434,1455.581446
2818.999914,-962.267725,-11177.109724,536.266849
2819.000242,518.144159,-9474.636058,-1685.410096
2819.000569,1184.329507,-8364.327145,-2068.457845
2819.000897,1036.288319,-9992.780217,-229.828649
2819.001225,1258.350101,-12139.377449,1225.752797
2819.001552,2590.720797,-12805.562797,459.657299
2819.001880,4293.194464,-10807.006753,-1225.752797
2819.002208,3552.988522,-9622.677246,-1149.143247
2819.002535,518.144159,-9474.636058,919.314598
2819.002863,-1480.411884,-9844.739029,1455.581446
2819.003191,-1110.308913,-9844.739029,-536.266849
2819.003518,518.144159,-8882.471304,-2681.334243
2819.003846,1702.473667,-8734.430116,-1149.143247
2819.004174,518.144159,-9400.615463,1378.971896
2819.004501,0.000000,-9474.636058,2757.943793
2819.004829,740.205942,-9844.739029,842.705048
2819.005157,1480.411884,-8660.409521,-1685.410096
2819.005484,888.247130,-8438.347739,-1762.019645
2819.005812,-518.144159,-9104.533087,0.000000
2819.006140,-518.144159,-10881.027347,1072.533697
2819.006467,592.164754,-11695.253884,153.219100
2819.006795,1406.391290,-10288.862594,-1915.238745
2819.007123,740.205942,-9326.594869,-1608.800546
2819.007450,-370.102971,-10436.903782,612.876398
2819.007778,-370.102971,-10807.006753,842.705048
2819.008106,1406.391290,-10214.842000,-1072.533697
2819.008433,2516.700203,-7550.100608,-995.924147
2819.008761,1258.350101,-6661.853478,383.047749
2819.009088,-1110.308913,-7994.224174,3217.601092
2819.009416,-1702.473667,-9178.553681,2987.772442
2819.009744,-444.123565,-9252.574275,-153.219100
2819.010071,962.267725,-9178.553681,-2757.943793
2819.010399,444.123565,-10214.842000,-2221.676944
2819.010727,-814.226536,-11103.089130,0.000000
2819.011054,-592.164754,-11843.295072,689.485948
2819.011382,222.061783,-11769.274478,-1302.362347
2819.011710,888.247130,-10066.800811,-2604.724693
2819.012037,74.020594,-9030.512492,-1532.190996
2819.012365,-592.164754,-9400.615463,919.314598
2819.012693,-592.164754,-10732.986159,1838.629195
2819.013020,1036.288319,-9844.739029,383.047749
2819.013348,1258.350101,-7328.038826,-306.438199
2819.013676,296.082377,-7031.956449,0.000000
2819.014003,-222.061783,-9548.656652,995.924147
2819.014331,-518.144159,-11547.212695,229.828649
2819.014659,888.247130,-10658.965565,-2068.457845
2819.014986,2294.638420,-9400.615463,-2221.676944
2819.015314,1258.350101,-9696.697840,306.438199
2819.015642,0.000000,-11325.150913,1838.629195
2819.015969,-148.041188,-11917.315666,1378.971896
2819.016297,518.144159,-10362.883188,-1149.143247
2819.016625,1332.370696,-8290.306550,-3064.381992
2819.016952,-592.164754,-7920.203579,-689.485948
2819.017280,-1628.453072,-7994.224174,2068.457845
2819.017608,0.000000,-9696.697840,1149.143247
2819.017935,518.144159,-9252.574275,-383.047749
2819.018263,1258.350101,-8438.347739,-1532.190996
2819.018591,518.144159,-8882.471304,-383.047749
2819.018918,296.082377,-10955.047942,1225.752797
2819.019246,592.164754,-11843.295072,689.485948
2819.019574,1702.473667,-10658.965565,-766.095498
2819.019901,1332.370696,-8512.368333,-1302.362347
2819.020229,148.041188,-8808.450710,76.609550
2819.020557,-592.164754,-10140.821405,1685.410096
2819.020884,-518.144159,-10732.986159,766.095498
2819.021212,0.000000,-9474.636058,-1378.971896
2819.021539,-370.102971,-8068.244768,-1915.238745
2819.021867,-1628.453072,-8882.471304,-689.485948
2819.022195,-1554.432478,-9992.780217,383.047749
2819.022522,-740.205942,-10732.986159,306.438199
2819.022850,1628.453072,-10066.800811,-1532.190996
2819.023177,2516.700203,-9030.512492,-1762.019645
2819.023505,1850.514855,-10288.862594,766.095498
2819.023832,1110.308913,-11029.068536,2374.896044
2819.024160,1850.514855,-10584.944971,995.924147
2819.024487,2072.576638,-9548.656652,-689.485948
2819.024815,74.020594,-8734.430116,-1838.629195
2819.025143,-1110.308913,-9400.615463,-383.047749
2819.025470,-1406.391290,-10436.903782,689.485948
2819.025798,-592.164754,-11177.109724,0.000000
2819.026125,814.226536,-10214.842000,-1762.019645
2819.026453,444.123565,-8808.450710,-1608.800546
2819.026780,-592.164754,-8660.409521,536.266849
2819.027108,-592.164754,-9696.697840,766.095498
2819.027435,222.061783,-10658.965565,-153.219100
2819.027763,1406.391290,-8956.491898,-1608.800546
2819.028091,888.247130,-7698.141797,-536.266849
2819.028418,-592.164754,-8882.471304,1455.581446
2819.028746,0.000000,-11029.068536,1532.190996
2819.029073,0.000000,-11029.068536,-383.047749
2819.029401,962.267725,-9104.533087,-1991.848295
2819.029728,1110.308913,-8734.430116,-1838.629195
2819.030056,296.082377,-9696.697840,0.000000
2819.030383,-444.123565,-9992.780217,1608.800546
2819.030711,370.102971,-9474.636058,766.095498
2819.031039,1406.391290,-7624.121203,-766.095498
2819.031366,888.247130,-7994.224174,0.000000
2819.031694,0.000000,-9474.636058,1302.362347
2819.032021,-370.102971,-10881.027347,1225.752797
2819.032349,222.061783,-10288.862594,-689.485948
2819.032676,1258.350101,-10066.800811,-2911.162892
2819.033004,814.226536,-10214.842000,-1915.238745
2819.033331,-962.267725,-11029.068536,0.000000
2819.033659,222.061783,-11991.336260,536.266849
2819.033987,2368.659014,-11769.274478,-1838.629195
2819.034314,2368.659014,-10066.800811,-1532.190996
2819.034642,592.164754,-9178.553681,459.657299
2819.034969,-2220.617826,-8586.388927,1915.238745
2819.035297,-2812.782580,-9252.574275,1225.752797
2819.035624,-962.267725,-9696.697840,-1072.533697
2819.035952,444.123565,-7846.182985,-2911.162892
2819.036279,-148.041188,-7254.018232,-536.266849
2819.036607,-814.226536,-9178.553681,1302.362347
2819.036934,-740.205942,-11621.233289,995.924147
2819.037262,740.205942,-11621.233289,-995.924147
2819.037590,1110.308913,-9844.739029,-2451.505594
2819.037917,-296.082377,-8882.471304,-536.266849
2819.038245,-888.247130,-9844.739029,1532.190996
2819.038572,74.020594,-11177.109724,1149.143247
2819.038900,1480.411884,-9992.780217,153.219100
2819.039227,1554.432478,-7476.080014,-306.438199
2819.039555,-444.123565,-7550.100608,1072.533697
2819.039882,-1480.411884,-8956.491898,1149.143247
2819.040210,-666.185348,-9104.533087,-306.438199
2819.040538,888.247130,-9178.553681,-2221.676944
2819.040865,2294.638420,-9104.533087,-1608.800546
2819.041193,1258.350101,-9548.656652,306.438199
2819.041520,296.082377,-10732.986159,2221.676944
2819.041848,962.267725,-12139.377449,995.924147
2819.042175,2590.720797,-11769.274478,-1915.238745
2819.042503,2368.659014,-9770.718434,-2757.943793
2819.042830,-74.020594,-8734.430116,-995.924147
2819.043158,-1924.535449,-8660.409521,1685.410096
2819.043486,-1258.350101,-9030.512492,842.705048
2819.043813,-148.041188,-8586.388927,-995.924147
2819.044141,74.020594,-8142.265362,-1532.190996
2819.044468,-370.102971,-9770.718434,-536.266849
2819.044796,-296.082377,-11769.274478,153.219100
2819.045123,0.000000,-11621.233289,-459.657299
2819.045451,962.267725,-9474.636058,-1532.190996
2819.045778,1702.473667,-9104.533087,-1685.410096
2819.046106,962.267725,-9918.759623,0.000000
2819.046434,1184.329507,-11177.109724,1149.143247
2819.046761,1924.535449,-11695.253884,536.266849
2819.047089,2664.741391,-10436.903782,-689.485948
2819.047416,1702.473667,-9622.677246,-766.095498
2819.047744,-666.185348,-8956.491898,229.828649
2819.048071,-1998.556043,-9548.656652,459.657299
2819.048399,-666.185348,-10584.944971,-229.828649
2819.048726,1480.411884,-9918.759623,-1455.581446
2819.049054,1702.473667,-8216.285956,-306.438199
2819.049382,-222.061783,-7402.059420,2528.115143
2819.049709,-1258.350101,-8956.491898,3217.601092
2819.050037,-444.123565,-9844.739029,1302.362347
2819.050364,222.061783,-8142.265362,-1302.362347
2819.050692,0.000000,-7772.162391,-1762.019645
2819.051019,-666.185348,-9770.718434,306.438199
2819.051347,-518.144159,-11325.150913,1225.752797
2819.051674,74.020594,-11177.109724,76.609550
2819.052002,592.164754,-9918.759623,-1838.629195
2819.052330,740.205942,-9770.718434,-1532.190996
2819.052657,-370.102971,-10140.821405,306.438199
2819.052985,0.000000,-10436.903782,536.266849
2819.053312,1332.370696,-9400.615463,153.219100
2819.053640,2294.638420,-7031.956449,76.609550
2819.053967,1258.350101,-7179.997637,1149.143247
2819.054295,-740.205942,-9326.594869,2298.286494
2819.054622,-1554.432478,-10362.883188,76.609550
2819.054950,370.102971,-10955.047942,-2221.676944
2819.055278,1258.350101,-9696.697840,-3600.648841
2819.055605,-370.102971,-9696.697840,-1608.800546
2819.055933,-1184.329507,-11325.150913,689.485948
2819.056260,-740.205942,-11103.089130,383.047749
2819.056588,-222.061783,-11177.109724,-1608.800546
2819.056915,592.164754,-8808.450710,-3524.039291
2819.057243,0.000000,-8290.306550,-1378.971896
2819.057570,-740.205942,-9696.697840,1685.410096
2819.057898,-740.205942,-11325.150913,1915.238745
2819.058226,592.164754,-9918.759623,0.000000
2819.058553,1628.453072,-8364.327145,-1991.848295
2819.058881,1332.370696,-9326.594869,-1302.362347
2819.059208,518.144159,-11029.068536,-612.876398
2819.059536,666.185348,-11473.192101,536.266849
2819.059863,1850.514855,-9844.739029,-459.657299
2819.060191,2368.659014,-8808.450710,-1378.971896
2819.060518,1036.288319,-9030.512492,842.705048
2819.060846,-1036.288319,-8956.491898,2681.334243
2819.061174,-1406.391290,-9326.594869,1225.752797
2819.061501,-444.123565,-8956.491898,-842.705048
2819.061829,-814.226536,-7179.997637,-2604.724693
2819.062156,-2146.597232,-7476.080014,-459.657299
2819.062484,-2516.700203,-8808.450710,1302.362347
2819.062811,-1036.288319,-9770.718434,153.219100
2819.063139,1628.453072,-10066.800811,-1991.848295
2819.063466,2590.720797,-9178.553681,-1378.971896
2819.063794,1406.391290,-9844.739029,76.609550
2819.064122,1554.432478,-11843.295072,2528.115143
2819.064449,1628.453072,-12139.377449,1685.410096
2819.064777,2886.803174,-10288.862594,-995.924147
2819.065104,2368.659014,-8586.388927,-1915.238745
2819.065432,74.020594,-9474.636058,0.000000
2819.065759,-370.102971,-10214.842000,1838.629195
2819.066087,296.082377,-10584.944971,919.314598
2819.066414,1110.308913,-9252.574275,-919.314598
2819.066742,518.144159,-8956.491898,-1532.190996
2819.067070,-1480.411884,-9400.615463,-306.438199
2819.067397,-2368.659014,-9770.718434,-153.219100
2819.067725,-740.205942,-10807.006753,-1302.362347
2819.068052,1332.370696,-10288.862594,-766.095498
2819.068380,1110.308913,-9400.615463,-306.438199
2819.068707,814.226536,-9992.780217,2221.676944
2819.069035,-444.123565,-10362.883188,1915.238745
2819.069362,-370.102971,-10066.800811,0.000000
2819.069690,222.061783,-9622.677246,-2451.505594
2819.070018,0.000000,-8734.430116,-1532.190996
2819.070345,-1406.391290,-7772.162391,536.266849
2819.070673,-814.226536,-9770.718434,1915.238745
2819.071000,0.000000,-10732.986159,612.876398
2819.071328,1406.391290,-9178.553681,-766.095498
2819.071655,1924.535449,-8216.285956,-766.095498
2819.071983,1036.288319,-9400.615463,0.000000
2819.072310,444.123565,-10510.924376,842.705048
2819.072638,2368.659014,-10658.965565,306.438199
2819.072966,2516.700203,-8660.409521,-1378.971896
2819.073293,296.082377,-8734.430116,-229.828649
2819.073621,-592.164754,-9992.780217,612.876398
2819.073948,-1184.329507,-11547.212695,0.000000
2819.074276,-814.226536,-11547.212695,-1838.629195
2819.074603,222.061783,-9400.615463,-3064.381992
2819.074931,-666.185348,-8364.327145,-1302.362347
2819.075258,-1998.556043,-8808.450710,1225.752797
2819.075586,-1924.535449,-9770.718434,1378.971896
2819.075914,-444.123565,-9030.512492,-842.705048
2819.076241,962.267725,-7846.182985,-2451.505594
2819.076569,962.267725,-8734.430116,-995.924147
2819.076896,296.082377,-10436.903782,1072.533697
2819.077224,592.164754,-11843.295072,2298.286494
2819.077551,814.226536,-11325.150913,-842.705048
2819.077879,814.226536,-10955.047942,-2834.553343
2819.078206,0.000000,-10584.944971,-2681.334243
2819.078534,0.000000,-10955.047942,-766.095498
2819.078862,222.061783,-10955.047942,229.828649
2819.079189,740.205942,-9918.759623,306.438199
2819.079517,962.267725,-8068.244768,536.266849
2819.079844,-444.123565,-7105.977043,995.924147
2819.080172,-1406.391290,-8438.347739,1455.581446
2819.080499,-1110.308913,-9474.636058,153.219100
2819.080827,814.226536,-9918.759623,-1149.143247
2819.081154,1628.453072,-9326.594869,-689.485948
2819.081482,814.226536,-9030.512492,995.924147
2819.081810,0.000000,-10362.883188,1838.629195
2819.082137,370.102971,-11473.192101,1378.971896
2819.082465,1628.453072,-10658.965565,-1532.190996
2819.082792,2072.576638,-9178.553681,-2298.286494
2819.083120,444.123565,-8734.430116,0.000000
2819.083447,-814.226536,-9326.594869,2374.896044
2819.083775,-370.102971,-9326.594869,1838.629195
2819.084102,1036.288319,-8734.430116,459.657299
2819.084430,814.226536,-7772.162391,-153.219100
2819.084758,0.000000,-8586.388927,0.000000
2819.085085,-222.061783,-10436.903782,-153.219100
2819.085413,296.082377,-11103.089130,-612.876398
2819.085740,1480.411884,-9844.739029,-1455.581446
2819.086068,1554.432478,-8586.388927,-919.314598
2819.086395,148.041188,-9252.574275,383.047749
2819.086723,0.000000,-11621.233289,-536.266849
2819.087050,370.102971,-12435.459826,-919.314598
2819.087378,1480.411884,-11029.068536,-1915.238745
2819.087706,1258.350101,-9104.533087,-1378.971896
2819.088033,-814.226536,-9104.533087,536.266849
2819.088361,-1406.391290,-9844.739029,1149.143247
2819.088688,-740.205942,-9770.718434,0.000000
2819.089016,888.247130,-8734.430116,-1915.238745
2819.089343,1332.370696,-7698.141797,-1532.190996
2819.089671,74.020594,-8956.491898,919.314598
2819.089998,-1184.329507,-10955.047942,2374.896044
2819.090326,-592.164754,-11325.150913,383.047749
2819.090654,370.102971,-9696.697840,-2145.067394
2819.090981,814.226536,-8660.409521,-3140.991542
2819.091309,148.041188,-10140.821405,-689.485948
2819.091636,444.123565,-11399.171507,1225.752797
2819.091964,592.164754,-10881.027347,689.485948
2819.092291,2072.576638,-9178.553681,-536.266849
2819.092619,1480.411884,-8290.306550,-536.266849
2819.092946,0.000000,-8364.327145,842.705048
2819.093274,-222.061783,-9252.574275,1302.362347
2819.093602,592.164754,-9548.656652,0.000000
2819.093929,1924.535449,-8290.306550,-306.438199
2819.094257,1258.350101,-7031.956449,459.657299
2819.094584,-740.205942,-8438.347739,2451.505594
2819.094912,-1258.350101,-11103.089130,1838.629195
2819.095239,444.123565,-11251.130318,-842.705048
2819.095567,1850.514855,-9548.656652,-3370.820191
2819.095894,814.226536,-9030.512492,-1762.019645
2819.096222,-1184.329507,-10066.800811,919.314598
2819.096550,-1406.391290,-11029.068536,1532.190996
2819.096877,0.000000,-11103.089130,-459.657299
2819.097205,1332.370696,-9104.533087,-2604.724693
2819.097532,814.226536,-8364.327145,-1838.629195
2819.097860,148.041188,-10510.924376,-229.828649
2819.098187,592.164754,-11251.130318,842.705048
2819.098515,2812.782580,-10881.027347,-383.047749
2819.098842,2442.679609,-9696.697840,-536.266849
2819.099170,962.267725,-8882.471304,0.000000
2819.099498,0.000000,-9474.636058,0.000000
2819.099825,-296.082377,-11399.171507,0.000000
2819.100153,814.226536,-11473.192101,-995.924147
2819.100480,1332.370696,-9178.553681,-995.924147
2819.100808,592.164754,-9030.512492,153.219100
2819.101135,-1554.432478,-9178.553681,1915.238745
2819.101463,-2294.638420,-10658.965565,1302.362347
2819.101790,-1554.432478,-9548.656652,-1149.143247
2819.102118,-962.267725,-7624.121203,-2528.115143
2819.102446,-1850.514855,-7105.977043,-1455.581446
2819.102773,-1628.453072,-9770.718434,1302.362347
2819.103101,-962.267725,-10584.944971,2068.457845
2819.103428,1184.329507,-9696.697840,0.000000
2819.103756,2072.576638,-8660.409521,-2298.286494
2819.104083,1702.473667,-9696.697840,-995.924147
2819.104411,1406.391290,-10955.047942,689.485948
2819.104738,1924.535449,-11177.109724,459.657299
2819.105066,3552.988522,-10584.944971,-229.828649
2819.105394,2738.761985,-8808.450710,-306.438199
2819.105721,888.247130,-8808.450710,842.705048
2819.106049,-1110.308913,-9252.574275,1608.800546
2819.106376,-1332.370696,-9992.780217,383.047749
2819.106704,74.020594,-9992.780217,-1838.629195
2819.107031,-222.061783,-8660.409521,-2911.162892
2819.107359,-1998.556043,-7994.224174,0.000000
2819.107686,-2146.597232,-8512.368333,153.219100
2819.108014,-1036.288319,-10510.924376,-153.219100
2819.108342,518.144159,-10584.944971,-1685.410096
2819.108669,1628.453072,-9474.636058,-1991.848295
2819.108997,814.226536,-10584.944971,229.828649
2819.109324,444.123565,-12139.377449,1225.752797
2819.109652,1184.329507,-11473.192101,842.705048
2819.109979,1628.453072,-9400.615463,-1225.752797
2819.110307,1110.308913,-8364.327145,-1685.410096
2819.110634,222.061783,-9326.594869,-536.266849
2819.110962,148.041188,-10732.986159,842.705048
2819.111290,1332.370696,-10510.924376,689.485948
2819.111617,2146.597232,-8586.388927,-536.266849
2819.111945,1258.350101,-8290.306550,-383.047749
2819.112272,0.000000,-8882.471304,995.924147
2819.112600,-370.102971,-10066.800811,1149.143247
2819.112927,1110.308913,-11251.130318,76.609550
2819.113255,2590.720797,-9770.718434,-1225.752797
2819.113582,2220.617826,-9178.553681,-306.438199
2819.113910,148.041188,-10066.800811,1991.848295
2819.114238,-1554.432478,-9622.677246,1762.019645
2819.114565,-962.267725,-9474.636058,-383.047749
2819.114893,-1036.288319,-8512.368333,-2757.943793
2819.115220,-1258.350101,-7624.121203,-1685.410096
2819.115548,-1924.535449,-7846.182985,689.485948
2819.115875,-1850.514855,-9400.615463,2145.067394
2819.116203,0.000000,-9844.739029,383.047749
2819.116530,1924.535449,-8660.409521,-1302.362347
2819.116858,2146.597232,-8512.368333,-995.924147
2819.117186,1036.288319,-10140.821405,306.438199
2819.117513,666.185348,-11843.295072,1149.143247
2819.117841,1406.391290,-10807.006753,229.828649
2819.118168,1258.350101,-9326.594869,-536.266849
2819.118496,296.082377,-9622.677246,-995.924147
2819.118823,-1480.411884,-9548.656652,-306.438199
2819.119151,-2368.659014,-11251.130318,0.000000
2819.119478,-1406.391290,-11325.150913,-1302.362347
2819.119806,-592.164754,-9178.553681,-2911.162892
2819.120134,-1258.350101,-8216.285956,-919.314598
2819.120461,-1258.350101,-8438.347739,842.705048
2819.120789,-666.185348,-10288.862594,842.705048
2819.121116,740.205942,-10436.903782,76.609550
2819.121444,2146.597232,-8956.491898,-1072.533697
2819.121771,1036.288319,-9178.553681,-919.314598
2819.122099,0.000000,-11177.109724,766.095498
2819.122427,-518.144159,-11843.295072,612.876398
2819.122754,-296.082377,-10881.027347,-1685.410096
2819.123082,740.205942,-9474.636058,-3064.381992
2819.123409,962.267725,-9474.636058,-1532.190996
2819.123737,444.123565,-9474.636058,919.314598
2819.124064,666.185348,-10214.842000,1991.848295
2819.124392,2146.597232,-9252.574275,1302.362347
2819.124719,2146.597232,-7698.141797,153.219100
2819.125047,296.082377,-7550.100608,306.438199
2819.125375,-1110.308913,-8290.306550,689.485948
2819.125702,-666.185348,-9252.574275,0.000000
2819.126030,1110.308913,-9844.739029,-1225.752797
2819.126357,1184.329507,-9030.512492,-1455.581446
2819.126685,148.041188,-9030.512492,0.000000
2819.127012,222.061783,-11399.171507,459.657299
2819.127340,888.247130,-12435.459826,-459.657299
2819.127667,1702.473667,-10732.986159,-1991.848295
2819.127995,1628.453072,-8364.327145,-2221.676944
2819.128323,-296.082377,-7402.059420,842.705048
2819.128650,-666.185348,-9030.512492,2528.115143
2819.128978,444.123565,-10288.862594,2221.676944
2819.129305,2220.617826,-9474.636058,76.609550
2819.129633,2072.576638,-8734.430116,-1378.971896
2819.129960,592.164754,-9622.677246,-919.314598
2819.130288,-1036.288319,-10584.944971,919.314598
2819.130616,-814.226536,-11399.171507,-536.266849
2819.130943,962.267725,-10288.862594,-1915.238745
2819.131271,2294.638420,-10214.842000,-1378.971896
2819.131598,1184.329507,-10807.006753,383.047749
2819.131926,296.082377,-11547.212695,1149.143247
2819.132253,0.000000,-11251.130318,919.314598
2819.132581,296.082377,-9770.718434,-995.924147
2819.132908,296.082377,-8068.244768,-1455.581446
2819.133236,-1480.411884,-8068.244768,766.095498
2819.133564,-1406.391290,-8882.471304,1455.581446
2819.133891,0.000000,-9622.677246,842.705048
2819.134219,1258.350101,-8808.450710,0.000000
2819.134546,222.061783,-7476.080014,-306.438199
2819.134874,-1702.473667,-9252.574275,1225.752797
2819.135201,-2220.617826,-11103.089130,1225.752797
2819.135529,0.000000,-11177.109724,-919.314598
2819.135856,1702.473667,-9474.636058,-2374.896044
2819.136184,740.205942,-8882.471304,-1149.143247
2819.136512,-814.226536,-9622.677246,1378.971896
2819.136839,-592.164754,-10658.965565,1378.971896
2819.137167,296.082377,-10140.821405,-1149.143247
2819.137494,1110.308913,-9400.615463,-2911.162892
2819.137822,444.123565,-7846.182985,-2298.286494
2819.138149,-740.205942,-9400.615463,612.876398
2819.138477,-740.205942,-11251.130318,1532.190996
2819.138805,1036.288319,-11103.089130,0.000000
2819.139132,2368.659014,-9178.553681,-1915.238745
2819.139460,1110.308913,-8660.409521,-919.314598
2819.139787,0.000000,-10066.800811,536.266849
2819.140115,-370.102971,-10807.006753,459.657299
2819.140442,518.144159,-10214.842000,-842.705048
2819.140770,740.205942,-9030.512492,-2451.505594
2819.141097,-370.102971,-9104.533087,-536.266849
2819.141425,-1702.473667,-9474.636058,1302.362347
2819.141753,-1332.370696,-11621.233289,0.000000
2819.142080,-814.226536,-10584.944971,-1762.019645
2819.142408,296.082377,-8586.388927,-3064.381992
2819.142735,222.061783,-8586.388927,-1762.019645
2819.143063,-296.082377,-9992.780217,1072.533697
2819.143390,666.185348,-11029.068536,1608.800546
2819.143718,2960.823768,-10214.842000,76.609550
2819.144045,3478.967927,-8438.347739,-766.095498
2819.144373,2294.638420,-8956.491898,229.828649
2819.144701,814.226536,-10436.903782,1532.190996
2819.145028,592.164754,-11547.212695,1225.752797
2819.145356,1850.514855,-11103.089130,-689.485948
2819.145683,2516.700203,-9696.697840,-1685.410096
2819.146011,962.267725,-8808.450710,383.047749
2819.146338,0.000000,-9696.697840,2298.286494
2819.146666,-592.164754,-9770.718434,1991.848295
2819.146993,592.164754,-9326.594869,-536.266849
2819.147321,74.020594,-7254.018232,-1532.190996
2819.147649,-1332.370696,-7254.018232,0.000000
2819.147976,-2220.617826,-8734.430116,1532.190996
2819.148304,-1554.432478,-10658.965565,1225.752797
2819.148631,222.061783,-10510.924376,-1225.752797
2819.148959,1258.350101,-9474.636058,-2681.334243
2819.149286,1036.288319,-10140.821405,-995.924147
2819.149614,222.061783,-11325.150913,1072.533697
2819.149942,814.226536,-11325.150913,919.314598
2819.150269,2294.638420,-9770.718434,-689.485948
2819.150597,2442.679609,-8216.285956,-383.047749
2819.150924,444.123565,-8882.471304,1991.848295
2819.151252,-518.144159,-9696.697840,1685.410096
2819.151579,-296.082377,-9622.677246,76.609550
2819.151907,740.205942,-9770.718434,-1838.629195
2819.152234,222.061783,-9178.553681,-1608.800546
2819.152562,-666.185348,-9400.615463,0.000000
2819.152890,-518.144159,-10436.903782,536.266849
2819.153217,-666.185348,-10807.006753,-689.485948
2819.153545,518.144159,-10362.883188,-2604.724693
2819.153872,518.144159,-9474.636058,-2145.067394
2819.154200,-1184.329507,-9770.718434,306.438199
2819.154527,-1406.391290,-10732.986159,1685.410096
2819.154855,0.000000,-11029.068536,-229.828649
2819.155182,1406.391290,-9770.718434,-1455.581446
2819.155510,1258.350101,-9030.512492,-1072.533697
2819.155838,-814.226536,-8808.450710,306.438199
2819.156165,-1850.514855,-9992.780217,1225.752797
2819.156493,-814.226536,-9844.739029,-842.705048
2819.156820,1110.308913,-8438.347739,-2451.505594
2819.157148,1406.391290,-8216.285956,-766.095498
2819.157475,962.267725,-9326.594869,1455.581446
2819.157803,148.041188,-10362.883188,2221.676944
2819.158131,0.000000,-10658.965565,459.657299
2819.158458,1406.391290,-9844.739029,-1915.238745
2819.158786,0.000000,-8660.409521,-1608.800546
2819.159113,-2220.617826,-8512.368333,995.924147
2819.159441,-2368.659014,-9104.533087,1225.752797
2819.159768,-370.102971,-10510.924376,-306.438199
2819.160096,0.000000,-9252.574275,-1838.629195
2819.160423,222.061783,-8808.450710,-1378.971896
2819.160751,-296.082377,-9474.636058,536.266849
2819.161079,-148.041188,-11399.171507,1455.581446
2819.161406,1554.432478,-11251.130318,0.000000
2819.161734,3404.947333,-9326.594869,-1072.533697
2819.162061,2368.659014,-8808.450710,383.047749
2819.162389,1850.514855,-10066.800811,1072.533697
2819.162716,888.247130,-10658.965565,1608.800546
2819.163044,1480.411884,-10436.903782,-459.657299
2819.163371,1924.535449,-9178.553681,-2221.676944
2819.163699,1258.350101,-9252.574275,-919.314598
2819.164027,-444.123565,-10066.800811,1072.533697
2819.164354,-740.205942,-10436.903782,995.924147
2819.164682,888.247130,-9844.739029,153.219100
2819.165009,2294.638420,-8660.409521,-842.705048
2819.165337,888.247130,-9104.533087,76.609550
2819.165664,-962.267725,-9622.677246,1532.190996
2819.165992,-1036.288319,-9622.677246,1225.752797
2819.166320,444.123565,-9400.615463,-919.314598
2819.166647,444.123565,-7994.224174,-1532.190996
2819.166975,-666.185348,-8882.471304,-306.438199
2819.167302,-1406.391290,-10140.821405,919.314598
2819.167630,222.061783,-12287.418637,229.828649
2819.167957,1332.370696,-11103.089130,-1838.629195
2819.168285,1480.411884,-8808.450710,-2298.286494
2819.168612,666.185348,-8512.368333,0.000000
2819.168940,0.000000,-9844.739029,1838.629195
2819.169268,666.185348,-10510.924376,1608.800546
2819.169595,2516.700203,-8512.368333,-306.438199
2819.169923,2368.659014,-8290.306550,-612.876398
2819.170250,370.102971,-8882.471304,842.705048
2819.170578,-1776.494261,-10140.821405,1072.533697
2819.170905,-1850.514855,-11029.068536,-689.485948
2819.171233,-222.061783,-9770.718434,-3140.991542
2819.171560,0.000000,-9178.553681,-3140.991542
2819.171888,-370.102971,-9474.636058,-383.047749
2819.172216,-518.144159,-10955.047942,1685.410096
2819.172543,370.102971,-11251.130318,919.314598
2819.172871,1184.329507,-9474.636058,-919.314598
2819.173198,444.123565,-7846.182985,-1532.190996
2819.173526,-1036.288319,-8290.306550,306.438199
2819.173853,-1776.494261,-8956.491898,1991.848295
2819.174181,0.000000,-10362.883188,306.438199
2819.174509,1332.370696,-9252.574275,-1378.971896
2819.174836,518.144159,-8142.265362,-1378.971896
2819.175164,-592.164754,-10140.821405,459.657299
2819.175491,-740.205942,-11843.295072,842.705048
2819.175819,370.102971,-11399.171507,-689.485948
2819.176146,2368.659014,-10436.903782,-3064.381992
2819.176474,2146.597232,-8734.430116,-1455.581446
2819.176801,518.144159,-9548.656652,1838.629195
2819.177129,-888.247130,-10436.903782,2757.943793
2819.177457,-740.205942,-10140.821405,459.657299
2819.177784,222.061783,-8956.491898,-2528.115143
2819.178112,222.061783,-8660.409521,-2451.505594
2819.178439,-962.267725,-8734.430116,0.000000
2819.178767,-888.247130,-9844.739029,1762.019645
2819.179094,962.267725,-10955.047942,-306.438199
2819.179422,2146.597232,-9992.780217,-1302.362347
2819.179749,1702.473667,-9030.512492,-1149.143247
2819.180077,0.000000,-9030.512492,689.485948
2819.180405,-296.082377,-10140.821405,1455.581446
2819.180732,1480.411884,-10584.944971,76.609550
2819.181060,2072.576638,-8734.430116,-766.095498
2819.181387,1036.288319,-8438.347739,0.000000
2819.181715,-518.144159,-10214.842000,1302.362347
2819.182042,-444.123565,-11251.130318,612.876398
2819.182370,592.164754,-10436.903782,-1532.190996
2819.182698,1480.411884,-9104.533087,-2221.676944
2819.183025,1406.391290,-9030.512492,-689.485948
2819.183353,148.041188,-9326.594869,1762.019645
2819.183680,-740.205942,-10807.006753,2145.067394
2819.184008,0.000000,-10214.842000,0.000000
2819.184335,1258.350101,-8290.306550,-2834.553343
2819.184663,592.164754,-8290.306550,-1685.410096
2819.184990,0.000000,-9252.574275,842.705048
2819.185318,-222.061783,-10362.883188,919.314598
2819.185646,1406.391290,-10140.821405,-459.657299
2819.185973,1332.370696,-8956.491898,-1838.629195
2819.186301,0.000000,-9696.697840,-459.657299
2819.186628,-1258.350101,-11103.089130,1302.362347
2819.186956,-1110.308913,-11547.212695,536.266849
2819.187283,1258.350101,-10362.883188,-1225.752797
2819.187611,1628.453072,-8364.327145,-1685.410096
2819.187938,222.061783,-8660.409521,689.485948
2819.188266,-962.267725,-9400.615463,2145.067394
2819.188594,0.000000,-10066.800811,383.047749
2819.188921,74.020594,-9548.656652,-1915.238745
2819.189249,370.102971,-8586.388927,-2451.505594
2819.189576,0.000000,-8734.430116,-689.485948
2819.189904,-592.164754,-10436.903782,1455.581446
2819.190231,-370.102971,-10881.027347,1072.533697
2819.190559,1110.308913,-10510.924376,-995.924147
2819.190887,1628.453072,-9548.656652,-2374.896044
2819.191214,370.102971,-9252.574275,-689.485948
2819.191542,-666.185348,-9030.512492,1149.143247
2819.191869,0.000000,-9252.574275,919.314598
2819.192197,1184.329507,-8882.471304,-1149.143247
2819.192524,222.061783,-6883.915261,-612.876398
2819.192852,-962.267725,-8142.265362,536.266849
2819.193179,-1184.329507,-10807.006753,842.705048
2819.193507,-148.041188,-11843.295072,-689.485948
2819.193835,1036.288319,-10807.006753,-2681.334243
2819.194162,1110.308913,-9400.615463,-2298.286494
2819.194490,888.247130,-10140.821405,229.828649
2819.194817,0.000000,-11325.150913,1991.848295
2819.195145,592.164754,-10955.047942,995.924147
2819.195472,2072.576638,-9696.697840,-919.314598
2819.195800,2294.638420,-9104.533087,-766.095498
2819.196127,74.020594,-9178.553681,766.095498
2819.196455,-962.267725,-9474.636058,1149.143247
2819.196783,-1776.494261,-9622.677246,-153.219100
2819.197110,148.041188,-9474.636058,-2451.505594
2819.197438,962.267725,-9178.553681,-2528.115143
2819.197765,222.061783,-9178.553681,-459.657299
2819.198093,-296.082377,-10140.821405,1072.533697
2819.198420,296.082377,-10584.944971,536.266849
2819.198748,1628.453072,-9400.615463,-842.705048
2819.199076,962.267725,-7920.203579,0.000000
2819.199403,-888.247130,-8956.491898,1455.581446
2819.199731,-2368.659014,-10584.944971,1915.238745
2819.200058,-1184.329507,-11251.130318,-229.828649
2819.200386,-444.123565,-9400.615463,-2451.505594
2819.200713,-222.061783,-8290.306550,-2145.067394
2819.201041,-222.061783,-10140.821405,-536.266849
2819.201368,-888.247130,-11695.253884,1072.533697
2819.201696,1480.411884,-10955.047942,-612.876398
2819.202024,3552.988522,-8956.491898,-1838.629195
2819.202351,2960.823768,-8660.409521,-153.219100
2819.202679,592.164754,-9252.574275,1838.629195
2819.203006,-444.123565,-10214.842000,2298.286494
2819.203334,814.226536,-10140.821405,-383.047749
2819.203661,1480.411884,-8216.285956,-2221.676944
2819.203989,1036.288319,-8364.327145,-2221.676944
2819.204316,-148.041188,-10066.800811,919.314598
2819.204644,-592.164754,-10807.006753,1685.410096
2819.204972,0.000000,-10584.944971,-383.047749
2819.205299,0.000000,-8660.409521,-2068.457845
2819.205627,-518.144159,-8290.306550,-2298.286494
2819.205954,-1406.391290,-10288.862594,536.266849
2819.206282,-1258.350101,-9844.739029,1455.581446
2819.206609,1480.411884,-10140.821405,-229.828649
2819.206937,2590.720797,-9474.636058,-1225.752797
2819.207265,1480.411884,-9326.594869,-536.266849
2819.207592,-518.144159,-10362.883188,536.266849
2819.207920,296.082377,-11399.171507,306.438199
2819.208247,1406.391290,-10510.924376,-2451.505594
2819.208575,2220.617826,-9104.533087,-2221.676944
2819.208902,1406.391290,-9400.615463,0.000000
2819.209230,0.000000,-9548.656652,2528.115143
2819.209557,74.020594,-9844.739029,1991.848295
2819.209885,1480.411884,-9992.780217,-536.266849
2819.210213,2146.597232,-8660.409521,-1608.800546
2819.210540,0.000000,-7846.182985,-459.657299
2819.210868,-962.267725,-8586.388927,1685.410096
2819.211195,-740.205942,-9548.656652,1225.752797
2819.211523,370.102971,-9252.574275,-612.876398
2819.211850,222.061783,-9178.553681,-1608.800546
2819.212178,-370.102971,-10584.944971,-229.828649
2819.212505,-962.267725,-11621.233289,536.266849
2819.212833,-222.061783,-11917.315666,0.000000
2819.213161,740.205942,-9770.718434,-1762.019645
2819.213488,1406.391290,-7846.182985,-1225.752797
2819.213816,518.144159,-8734.430116,1149.143247
2819.214143,0.000000,-10362.883188,2604.724693
2819.214471,888.247130,-10288.862594,1455.581446
2819.214798,2368.659014,-8882.471304,-306.438199
2819.215126,1406.391290,-7179.997637,-919.314598
2819.215454,-740.205942,-8882.471304,919.314598
2819.215781,-1998.556043,-10732.986159,1072.533697
2819.216109,-888.247130,-11769.274478,-612.876398
2819.216436,1184.329507,-11177.109724,-3217.601092
2819.216764,1924.535449,-10362.883188,-2834.553343
2819.217091,0.000000,-10140.821405,919.314598
2819.217419,-1406.391290,-10140.821405,2451.505594
2819.217746,-962.267725,-9844.739029,919.314598
2819.218074,-740.205942,-8216.285956,-1608.800546
2819.218402,-888.247130,-7624.121203,-2528.115143
2819.218729,-1406.391290,-9030.512492,-842.705048
2819.219057,-1184.329507,-11103.089130,1149.143247
2819.219384,444.123565,-11325.150913,459.657299
2819.219712,1480.411884,-10140.821405,-1302.362347
2819.220039,888.247130,-9400.615463,-1378.971896
2819.220367,814.226536,-9252.574275,153.219100
2819.220694,1036.288319,-11251.130318,229.828649
2819.221022,1554.432478,-11547.212695,0.000000
2819.221350,2220.617826,-8956.491898,-689.485948
2819.221677,1332.370696,-7105.977043,76.609550
2819.222005,-518.144159,-9030.512492,1991.848295
2819.222332,-1110.308913,-10214.842000,2528.115143
2819.222660,-74.020594,-9992.780217,-612.876398
2819.222987,814.226536,-8586.388927,-3140.991542
2819.223315,444.123565,-8586.388927,-2451.505594
2819.223643,-444.123565,-9548.656652,383.047749
2819.223970,-1036.288319,-9770.718434,1991.848295
2819.224298,296.082377,-9622.677246,76.609550
2819.224625,2812.782580,-8808.450710,-2757.943793
2819.224953,2442.679609,-8734.430116,-1532.190996
2819.225280,962.267725,-9770.718434,1608.800546
2819.225608,962.267725,-11103.089130,2068.457845
2819.225936,2220.617826,-11177.109724,0.000000
2819.226263,2146.597232,-9400.615463,-1302.362347
2819.226591,444.123565,-8512.368333,-689.485948
2819.226918,-1110.308913,-9770.718434,1302.362347
2819.227246,-962.267725,-10807.006753,383.047749
2819.227574,444.123565,-10584.944971,-919.314598
2819.227901,1110.308913,-9474.636058,-1149.143247
2819.228229,148.041188,-8882.471304,306.438199
2819.228556,-1480.411884,-9252.574275,1762.019645
2819.228884,-2368.659014,-9992.780217,766.095498
2819.229211,0.000000,-10658.965565,-1608.800546
2819.229539,1480.411884,-8364.327145,-2298.286494
2819.229867,1110.308913,-8956.491898,-612.876398
2819.230194,0.000000,-11251.130318,2757.943793
2819.230522,222.061783,-11769.274478,2221.676944
2819.230849,1036.288319,-9992.780217,-919.314598
2819.231177,1184.329507,-8808.450710,-2911.162892
2819.231504,-222.061783,-9104.533087,-1455.581446
2819.231832,-1110.308913,-9326.594869,1608.800546
2819.232160,0.000000,-9992.780217,842.705048
2819.232487,1332.370696,-9030.512492,0.000000
2819.232815,888.247130,-7624.121203,0.000000
2819.233142,0.000000,-8586.388927,842.705048
2819.233470,-740.205942,-10362.883188,0.000000
2819.233797,-148.041188,-11399.171507,-1149.143247
2819.234125,1184.329507,-10140.821405,-2604.724693
2819.234453,1480.411884,-9104.533087,-2221.676944
2819.234780,296.082377,-10066.800811,459.657299
2819.235108,-518.144159,-10955.047942,2374.896044
2819.235435,-444.123565,-10955.047942,995.924147
2819.235763,1184.329507,-10510.924376,-1302.362347
2819.236090,1924.535449,-7994.224174,-2298.286494
2819.236418,-444.123565,-7476.080014,0.000000
2819.236746,-2072.576638,-8660.409521,2528.115143
2819.237073,-1258.350101,-9030.512492,1455.581446
2819.237401,518.144159,-8216.285956,-1532.190996
2819.237728,888.247130,-8068.244768,-2451.505594
2819.238056,-148.041188,-9696.697840,-229.828649
2819.238383,-148.041188,-10732.986159,766.095498
2819.238711,444.123565,-11325.150913,0.000000
2819.239039,1924.535449,-11177.109724,-2298.286494
2819.239366,1776.494261,-9770.718434,-1532.190996
2819.239694,222.061783,-10584.944971,1149.143247
2819.240021,-518.144159,-11621.233289,1225.752797
2819.240349,148.041188,-11917.315666,-383.047749
2819.240676,592.164754,-9252.574275,-2145.067394
2819.241004,296.082377,-7698.141797,-1685.410096
2819.241332,-1258.350101,-8956.491898,766.095498
2819.241659,-1702.473667,-10214.842000,1991.848295
2819.241987,592.164754,-10436.903782,0.000000
2819.242314,2812.782580,-9474.636058,-2451.505594
2819.242642,2516.700203,-9104.533087,-1455.581446
2819.242969,1258.350101,-9474.636058,2145.067394
2819.243297,518.144159,-10214.842000,2528.115143
2819.243625,518.144159,-9622.677246,689.485948
2819.243952,1332.370696,-8660.409521,-1991.848295
2819.244280,444.123565,-8882.471304,-612.876398
2819.244607,-962.267725,-9474.636058,1762.019645
2819.244935,-814.226536,-10732.986159,1762.019645
2819.245262,-666.185348,-9548.656652,0.000000
2819.245590,0.000000,-8512.368333,-1838.629195
2819.245918,-888.247130,-7772.162391,-1225.752797
2819.246245,-1258.350101,-8882.471304,612.876398
2819.246573,-444.123565,-9992.780217,1149.143247
2819.246900,1480.411884,-10584.944971,383.047749
2819.247228,2220.617826,-9622.677246,-612.876398
2819.247555,2294.638420,-9030.512492,-612.876398
2819.247883,370.102971,-9696.697840,1302.362347
2819.248211,-444.123565,-11621.233289,536.266849
2819.248538,370.102971,-10807.006753,-1838.629195
2819.248866,1776.494261,-9474.636058,-3140.991542
2819.249193,592.164754,-9326.594869,-1532.190996
2819.249521,-370.102971,-9474.636058,1378.971896
2819.249848,-888.247130,-9844.739029,1685.410096
2819.250176,1184.329507,-10066.800811,-612.876398
2819.250504,1776.494261,-8364.327145,-1532.190996
2819.250831,666.185348,-8364.327145,-536.266849
2819.251159,-1480.411884,-9622.677246,1149.143247
2819.251486,-1036.288319,-11029.068536,536.266849
2819.251814,962.267725,-10658.965565,-1838.629195
2819.252141,666.185348,-9400.615463,-1991.848295
2819.252469,0.000000,-10584.944971,-229.828649
2819.252797,296.082377,-11769.274478,0.000000
2819.253124,444.123565,-11695.253884,-383.047749
2819.253452,1258.350101,-10510.924376,-1532.190996
2819.253779,1406.391290,-8586.388927,-1532.190996
2819.254107,666.185348,-8512.368333,612.876398
2819.254434,-370.102971,-8882.471304,3370.820191
2819.254762,-222.061783,-9104.533087,2298.286494
2819.255090,1480.411884,-8808.450710,383.047749
2819.255417,1406.391290,-7402.059420,-612.876398
2819.255745,-1036.288319,-7920.203579,536.266849
2819.256072,-3256.906145,-9252.574275,1225.752797
2819.256400,-2590.720797,-8808.450710,-612.876398
2819.256728,0.000000,-9474.636058,-2757.943793
2819.257055,888.247130,-9548.656652,-1991.848295
2819.257383,0.000000,-11029.068536,842.705048
2819.257710,-962.267725,-11621.233289,2068.457845
2819.258038,-370.102971,-11325.150913,153.219100
2819.258365,370.102971,-9622.677246,-1685.410096
2819.258693,0.000000,-7550.100608,-1532.190996
2819.259021,-370.102971,-9326.594869,459.657299
2819.259348,888.247130,-11029.068536,842.705048
2819.259676,1776.494261,-11251.130318,229.828649
2819.260003,2886.803174,-10881.027347,-995.924147
2819.260331,2072.576638,-8956.491898,-383.047749
2819.260658,740.205942,-9104.533087,-229.828649
2819.260986,-592.164754,-11473.192101,0.000000
2819.261314,0.000000,-11029.068536,-1378.971896
2819.261641,2294.638420,-9400.615463,-2298.286494
2819.261969,2146.597232,-9400.615463,-536.266849
2819.262296,222.061783,-9770.718434,1991.848295
2819.262624,-1332.370696,-10066.800811,2221.676944
2819.262951,-1110.308913,-10140.821405,0.000000
2819.263279,222.061783,-8438.347739,-2911.162892
2819.263607,0.000000,-7402.059420,-2987.772442
2819.263934,-1924.535449,-9252.574275,766.095498
2819.264262,-1258.350101,-11473.192101,2068.457845
2819.264589,444.123565,-10732.986159,459.657299
2819.264917,1406.391290,-8216.285956,-1532.190996
2819.265244,1628.453072,-8216.285956,-995.924147
2819.265572,1036.288319,-9992.780217,766.095498
2819.265900,2072.576638,-10881.027347,1838.629195
2819.266227,2664.741391,-9992.780217,-153.219100
2819.266555,2664.741391,-8660.409521,-229.828649
2819.266882,888.247130,-8364.327145,689.485948
2819.267210,-1110.308913,-9474.636058,2145.067394
2819.267537,-1554.432478,-9918.759623,1149.143247
2819.267865,-592.164754,-10214.842000,-2298.286494
2819.268193,444.123565,-9178.553681,-1838.629195
2819.268520,0.000000,-9178.553681,-919.314598
2819.268848,-1554.432478,-9400.615463,1455.581446
2819.269175,-2072.576638,-9992.780217,919.314598
2819.269503,-740.205942,-9474.636058,-1225.752797
2819.269830,1184.329507,-8956.491898,-2911.162892
2819.270158,1258.350101,-9326.594869,-1149.143247
2819.270486,740.205942,-10807.006753,1762.019645
2819.270813,740.205942,-11843.295072,2221.676944
2819.271141,1258.350101,-11621.233289,-842.705048
2819.271468,1480.411884,-9696.697840,-2451.505594
2819.271796,444.123565,-9474.636058,-1302.362347
2819.272123,148.041188,-10436.903782,229.828649
2819.272451,1110.308913,-11325.150913,-306.438199
2819.272779,2738.761985,-9918.759623,-766.095498
2819.273106,2294.638420,-8216.285956,76.609550
2819.273434,444.123565,-8142.265362,1455.581446
2819.273761,-1184.329507,-9548.656652,1838.629195
2819.274089,-1406.391290,-10288.862594,-306.438199
2819.274416,74.020594,-10362.883188,-2528.115143
2819.274744,888.247130,-9030.512492,-2298.286494
2819.275072,0.000000,-9252.574275,0.000000
2819.275399,-888.247130,-10436.903782,2451.505594
2819.275727,-1258.350101,-10732.986159,842.705048
2819.276054,296.082377,-10584.944971,-1378.971896
2819.276382,962.267725,-8734.430116,-1991.848295
2819.276709,-740.205942,-7920.203579,536.266849
2819.277037,-1924.535449,-9178.553681,2145.067394
2819.277365,-814.226536,-9992.780217,1685.410096
2819.277692,1406.391290,-9326.594869,-536.266849
2819.278020,518.144159,-7550.100608,-919.314598
2819.278347,222.061783,-8734.430116,459.657299
2819.278675,962.267725,-10436.903782,459.657299
2819.279002,1924.535449,-11029.068536,-689.485948
2819.279330,2072.576638,-10066.800811,-1838.629195
2819.279658,1628.453072,-9622.677246,-1149.143247
2819.279985,592.164754,-9696.697840,1302.362347
2819.280313,-962.267725,-11399.171507,1685.410096
2819.280640,-962.267725,-12065.356855,0.000000
2819.280968,814.226536,-10288.862594,-2221.676944
2819.281295,1776.494261,-8882.471304,-2604.724693
2819.281623,296.082377,-9622.677246,76.609550
2819.281951,-1776.494261,-10436.903782,689.485948
2819.282278,-1406.391290,-9252.574275,0.000000
2819.282606,518.144159,-7920.203579,-2451.505594
2819.282933,518.144159,-8512.368333,-2221.676944
2819.283261,74.020594,-10214.842000,0.000000
2819.283588,74.020594,-11103.089130,1532.190996
2819.283916,1332.370696,-11177.109724,0.000000
2819.284244,2294.638420,-9992.780217,-1532.190996
2819.284571,2368.659014,-8956.491898,-1149.143247
2819.284899,-518.144159,-9104.533087,1455.581446
2819.285226,-518.144159,-10881.027347,1608.800546
2819.285554,518.144159,-10510.924376,0.000000
2819.285882,1110.308913,-8660.409521,-1149.143247
2819.286209,0.000000,-7402.059420,0.000000
2819.286537,-2294.638420,-8216.285956,1378.971896
2819.286864,-1702.473667,-10214.842000,536.266849
2819.287192,-444.123565,-9696.697840,-689.485948
2819.287519,1480.411884,-8882.471304,-2145.067394
2819.287847,1480.411884,-8438.347739,-306.438199
2819.288175,296.082377,-9400.615463,1762.019645
2819.288502,148.041188,-11029.068536,1685.410096
2819.288830,1110.308913,-11251.130318,-383.047749
2819.289157,1924.535449,-9030.512492,-1608.800546
2819.289485,296.082377,-8142.265362,-689.485948
2819.289812,-1406.391290,-9696.697840,919.314598
2819.290140,-1110.308913,-10732.986159,612.876398
2819.290468,148.041188,-10436.903782,-1072.533697
2819.290795,1110.308913,-8216.285956,-2068.457845
2819.291123,1110.308913,-8660.409521,-689.485948
2819.291450,0.000000,-10214.842000,612.876398
2819.291778,0.000000,-11177.109724,306.438199
2819.292105,814.226536,-9918.759623,-1149.143247
2819.292433,1850.514855,-8882.471304,-1762.019645
2819.292761,592.164754,-9992.780217,-229.828649
2819.293088,-740.205942,-11325.150913,1225.752797
2819.293416,-370.102971,-10807.006753,766.095498
2819.293743,1036.288319,-10436.903782,-1455.581446
2819.294071,1406.391290,-9548.656652,-2451.505594
2819.294398,0.000000,-9252.574275,0.000000
2819.294726,-888.247130,-9326.594869,1685.410096
2819.295054,-222.061783,-9400.615463,1225.752797
2819.295381,1258.350101,-9104.533087,-306.438199
2819.295709,1036.288319,-6883.915261,0.000000
2819.296036,-1184.329507,-6957.935855,1225.752797
2819.296364,-2442.679609,-9844.739029,1991.848295
2819.296691,-1554.432478,-11029.068536,153.219100
2819.297019,666.185348,-9918.759623,-2604.724693
2819.297347,962.267725,-9104.533087,-2451.505594
2819.297674,74.020594,-10066.800811,459.657299
2819.298002,-296.082377,-11177.109724,1838.629195
2819.298329,148.041188,-11251.130318,-306.438199
2819.298657,370.102971,-9326.594869,-2221.676944
2819.298984,518.144159,-8068.244768,-1915.238745
2819.299312,0.000000,-8808.450710,459.657299
2819.299640,0.000000,-10510.924376,2374.896044
2819.299967,666.185348,-10955.047942,919.314598
2819.300295,1850.514855,-9252.574275,-1225.752797
2819.300622,1036.288319,-7698.141797,-1149.143247
2819.300950,0.000000,-9252.574275,0.000000
2819.301277,-962.267725,-10140.821405,-153.219100
2819.301605,-370.102971,-9992.780217,-1149.143247
2819.301933,1110.308913,-9844.739029,-2604.724693
2819.302260,1110.308913,-9622.677246,-1378.971896
2819.302588,0.000000,-10066.800811,1302.362347
2819.302915,-1036.288319,-11917.315666,1991.848295
2819.303243,-518.144159,-11695.253884,-536.266849
2819.303570,740.205942,-9474.636058,-3370.820191
2819.303898,740.205942,-8290.306550,-2221.676944
2819.304226,0.000000,-9030.512492,536.266849
2819.304553,0.000000,-10955.047942,2221.676944
2819.304881,1258.350101,-10214.842000,459.657299
2819.305208,1998.556043,-9178.553681,-1455.581446
2819.305536,1924.535449,-8956.491898,-1302.362347
2819.305863,518.144159,-9622.677246,612.876398
2819.306191,0.000000,-10362.883188,1302.362347
2819.306519,1850.514855,-10881.027347,306.438199
2819.306846,2664.741391,-9548.656652,-1302.362347
2819.307174,1628.453072,-8586.388927,0.000000
2819.307501,0.000000,-8438.347739,2528.115143
2819.307829,-1406.391290,-8734.430116,1991.848295
2819.308156,-1110.308913,-9030.512492,-306.438199
2819.308484,-444.123565,-8216.285956,-1302.362347
2819.308812,-740.205942,-7550.100608,-842.705048
2819.309139,-1702.473667,-8956.491898,1455.581446
2819.309467,-1554.432478,-11103.089130,459.657299
2819.309794,-296.082377,-9992.780217,-1532.190996
2819.310122,1776.494261,-8364.327145,-2145.067394
2819.310449,1628.453072,-9474.636058,-229.828649
2819.310777,148.041188,-10955.047942,2451.505594
2819.311105,1184.329507,-11325.150913,1608.800546
2819.311432,2220.617826,-9992.780217,-766.095498
2819.311760,1850.514855,-8956.491898,-1838.629195
2819.312087,592.164754,-8956.491898,-383.047749
2819.312415,-370.102971,-9770.718434,536.266849
2819.312742,-1258.350101,-10510.924376,229.828649
2819.313070,222.061783,-9918.759623,-1532.190996
2819.313398,1702.473667,-9030.512492,-2221.676944
2819.313725,592.164754,-9474.636058,0.000000
2819.314053,-592.164754,-10584.944971,995.924147
2819.314380,-1184.329507,-10214.842000,-612.876398
2819.314708,444.123565,-9770.718434,-2911.162892
2819.315036,814.226536,-9252.574275,-2757.943793
2819.315363,-370.102971,-9104.533087,-459.657299
2819.315691,-1332.370696,-10658.965565,1838.629195
2819.316018,-666.185348,-11473.192101,919.314598
2819.316346,444.123565,-10362.883188,-1915.238745
2819.316673,666.185348,-8660.409521,-2374.896044
2819.317001,0.000000,-8660.409521,383.047749
2819.317329,-814.226536,-10140.821405,1915.238745
2819.317656,296.082377,-10066.800811,383.047749
2819.317984,1850.514855,-8882.471304,-995.924147
2819.318311,1480.411884,-7550.100608,-536.266849
2819.318639,148.041188,-9252.574275,1685.410096
2819.318966,-296.082377,-9178.553681,2298.286494
2819.319294,0.000000,-8734.430116,842.705048
2819.319622,518.144159,-9252.574275,-2145.067394
2819.319949,814.226536,-9030.512492,-1608.800546
2819.320277,0.000000,-9326.594869,536.266849
2819.320604,-962.267725,-10510.924376,1532.190996
2819.320932,-740.205942,-11325.150913,306.438199
2819.321259,-592.164754,-9474.636058,-1608.800546
2819.321587,888.247130,-8956.491898,-1991.848295
2819.321915,-666.185348,-9104.533087,0.000000
2819.322242,-1184.329507,-11029.068536,1302.362347
2819.322570,370.102971,-10807.006753,306.438199
2819.322897,1850.514855,-9178.553681,-1991.848295
2819.323225,1850.514855,-8512.368333,-1685.410096
2819.323553,666.185348,-9770.718434,766.095498
2819.323880,148.041188,-10807.006753,612.876398
2819.324208,1480.411884,-11325.150913,-766.095498
2819.324535,2960.823768,-10288.862594,-2374.896044
2819.324863,2738.761985,-9622.677246,-766.095498
2819.325191,1406.391290,-9770.718434,2068.457845
2819.325518,148.041188,-10140.821405,2374.896044
2819.325846,0.000000,-9844.739029,459.657299
2819.326173,962.267725,-8586.388927,-1838.629195
2819.326501,148.041188,-7476.080014,-1608.800546
2819.326829,-1702.473667,-8512.368333,536.266849
2819.327156,-2146.597232,-9622.677246,1072.533697
2819.327484,-518.144159,-9622.677246,0.000000
2819.327812,666.185348,-8956.491898,-1149.143247
2819.328139,740.205942,-9252.574275,-842.705048
2819.328467,0.000000,-10584.944971,0.000000
2819.328794,0.000000,-11843.295072,536.266849
2819.329122,740.205942,-11843.295072,-689.485948
2819.329450,2368.659014,-9030.512492,-1608.800546
2819.329777,962.267725,-7179.997637,306.438199
2819.330105,-592.164754,-8808.450710,2834.553343
2819.330432,-740.205942,-9918.759623,2145.067394
2819.330760,518.144159,-9326.594869,-1378.971896
2819.331088,1184.329507,-8216.285956,-2221.676944
2819.331415,74.020594,-8512.368333,-306.438199
2819.331743,-1184.329507,-9918.759623,1532.190996
2819.332070,-1258.350101,-10362.883188,1149.143247
2819.332398,222.061783,-9548.656652,-1378.971896
2819.332726,1332.370696,-9474.636058,-2757.943793
2819.333053,592.164754,-10066.800811,-1225.752797
2819.333381,-592.164754,-10584.944971,1225.752797
2819.333709,-370.102971,-10436.903782,612.876398
2819.334036,518.144159,-10066.800811,-1225.752797
2819.334364,962.267725,-9030.512492,-2221.676944
2819.334691,0.000000,-9030.512492,-612.876398
2819.335019,-814.226536,-9770.718434,383.047749
2819.335347,592.164754,-10807.006753,842.705048
2819.335674,2442.679609,-10658.965565,-842.705048
2819.336002,2664.741391,-8660.409521,-383.047749
2819.336329,592.164754,-7550.100608,1225.752797
2819.336657,-962.267725,-9622.677246,1838.629195
2819.336985,0.000000,-11399.171507,-383.047749
2819.337312,1924.535449,-10362.883188,-2451.505594
2819.337640,2738.761985,-8882.471304,-1532.190996
2819.337968,1036.288319,-9622.677246,995.924147
2819.338295,-814.226536,-11325.150913,2298.286494
2819.338623,-888.247130,-10436.903782,0.000000
2819.338950,-296.082377,-9178.553681,-2604.724693
2819.339278,0.000000,-8512.368333,-2681.334243
2819.339606,-1406.391290,-8586.388927,0.000000
2819.339933,-888.247130,-9918.759623,1302.362347
2819.340261,888.247130,-10658.965565,612.876398
2819.340588,1998.556043,-9474.636058,0.000000
2819.340916,1480.411884,-8438.347739,0.000000
2819.341244,74.020594,-9252.574275,612.876398
2819.341571,-814.226536,-10140.821405,459.657299
2819.341899,-296.082377,-10732.986159,0.000000
2819.342227,296.082377,-9622.677246,-2145.067394
2819.342554,296.082377,-8660.409521,-1302.362347
2819.342882,-370.102971,-9770.718434,919.314598
2819.343209,-888.247130,-11177.109724,1455.581446
2819.343537,-370.102971,-11251.130318,-612.876398
2819.343865,1184.329507,-9918.759623,-2681.334243
2819.344192,1702.473667,-8512.368333,-2604.724693
2819.344520,0.000000,-8364.327145,1455.581446
2819.344847,-740.205942,-9770.718434,2528.115143
2819.345175,-444.123565,-10436.903782,1072.533697
2819.345503,1110.308913,-9400.615463,-1838.629195
2819.345830,1258.350101,-8734.430116,-2298.286494
2819.346158,444.123565,-10436.903782,0.000000
2819.346485,148.041188,-11103.089130,459.657299
2819.346813,888.247130,-10436.903782,-153.219100
2819.347141,2072.576638,-9844.739029,-1532.190996
2819.347468,1110.308913,-9474.636058,-536.266849
2819.347796,-666.185348,-10362.883188,1532.190996
2819.348124,-1702.473667,-9918.759623,1455.581446
2819.348451,-444.123565,-11177.109724,0.000000
2819.348779,296.082377,-8660.409521,-1991.848295
2819.349106,-814.226536,-8290.306550,-536.266849
2819.349434,-1776.494261,-8068.244768,1072.533697
2819.349762,-888.247130,-9770.718434,-229.828649
2819.350089,0.000000,-11473.192101,-1532.190996
2819.350417,1406.391290,-9474.636058,-2068.457845
2819.350744,1554.432478,-9252.574275,-229.828649
2819.351072,1036.288319,-10288.862594,1762.019645
2819.351400,74.020594,-10807.006753,1378.971896
2819.351727,962.267725,-9844.739029,76.609550
2819.352055,2146.597232,-8734.430116,-1072.533697
2819.352383,1258.350101,-8660.409521,-459.657299
2819.352710,-296.082377,-9474.636058,1072.533697
2819.353038,-1184.329507,-8956.491898,1455.581446
2819.353365,0.000000,-9104.533087,-612.876398
2819.353693,518.144159,-7994.224174,-1915.238745
2819.354021,74.020594,-9178.553681,-612.876398
2819.354348,-740.205942,-11103.089130,995.924147
2819.354676,0.000000,-11917.315666,-153.219100
2819.355003,1628.453072,-11325.150913,-1991.848295
2819.355331,2072.576638,-9030.512492,-2451.505594
2819.355659,1480.411884,-8734.430116,306.438199
2819.355986,0.000000,-10732.986159,2298.286494
2819.356314,370.102971,-11103.089130,1455.581446
2819.356642,1406.391290,-9844.739029,-1225.752797
2819.356969,1554.432478,-9474.636058,-1532.190996
2819.357297,74.020594,-8956.491898,383.047749
2819.357624,-1332.370696,-9030.512492,2221.676944
2819.357952,-1702.473667,-9548.656652,842.705048
2819.358280,0.000000,-9770.718434,-1915.238745
2819.358607,2220.617826,-9548.656652,-2298.286494
2819.358935,814.226536,-9252.574275,536.266849
2819.359262,-444.123565,-9178.553681,2757.943793
2819.359590,-148.041188,-9252.574275,1532.190996
2819.359918,888.247130,-9400.615463,-1149.143247
2819.360245,814.226536,-9178.553681,-1685.410096
2819.360573,-518.144159,-9474.636058,0.000000
2819.360900,-1258.350101,-10955.047942,229.828649
2819.361228,-222.061783,-11991.336260,76.609550
2819.361556,1332.370696,-10584.944971,-1225.752797
2819.361883,888.247130,-8142.265362,-995.924147
2819.362211,-370.102971,-7920.203579,1149.143247
2819.362539,-370.102971,-9548.656652,612.876398
2819.362866,74.020594,-10732.986159,-612.876398
2819.363194,666.185348,-9252.574275,-1762.019645
2819.363521,740.205942,-7698.141797,-1072.533697
2819.363849,-518.144159,-8660.409521,1072.533697
2819.364177,-1110.308913,-10288.862594,1149.143247
2819.364504,-518.144159,-11251.130318,-919.314598
2819.364832,888.247130,-10436.903782,-2528.115143
2819.365159,1924.535449,-10436.903782,-2451.505594
2819.365487,-370.102971,-9992.780217,459.657299
2819.365815,-1110.308913,-10066.800811,1532.190996
2819.366142,-370.102971,-9622.677246,612.876398
2819.366470,296.082377,-8364.327145,-1149.143247
2819.366798,-148.041188,-8290.306550,-995.924147
2819.367125,-2442.679609,-9548.656652,536.266849
2819.367453,-3034.844362,-10510.924376,306.438199
2819.367780,-962.267725,-10584.944971,-1455.581446
2819.368108,814.226536,-9622.677246,-3140.991542
2819.368436,888.247130,-9548.656652,-1532.190996
2819.368763,666.185348,-11029.068536,842.705048
2819.369091,1628.453072,-11991.336260,536.266849
2819.369418,3108.864956,-11991.336260,-919.314598
2819.369746,3701.029710,-9770.718434,-919.314598
2819.370074,2368.659014,-8438.347739,1532.190996
2819.370401,74.020594,-8438.347739,2987.772442
2819.370729,-814.226536,-8290.306550,1991.848295
2819.371057,-296.082377,-8586.388927,-459.657299
2819.371384,1406.391290,-8586.388927,-1455.581446
2819.371712,592.164754,-8216.285956,0.000000
2819.372039,-370.102971,-8734.430116,2145.067394
2819.372367,-1480.411884,-9030.512492,1302.362347
2819.372695,148.041188,-9844.739029,-1149.143247
2819.373022,1702.473667,-9400.615463,-2451.505594
2819.373350,814.226536,-9326.594869,-766.095498
2819.373677,148.041188,-10214.842000,1455.581446
2819.374005,518.144159,-11695.253884,1762.019645
2819.374333,1776.494261,-11029.068536,-383.047749
2819.374660,2220.617826,-9030.512492,-1762.019645
2819.374988,666.185348,-8660.409521,-306.438199
2819.375315,-296.082377,-10288.862594,612.876398
2819.375643,296.082377,-10510.924376,-383.047749
2819.375971,962.267725,-9918.759623,-2145.067394
2819.376298,1776.494261,-9030.512492,-1532.190996
2819.376626,1406.391290,-8734.430116,1685.410096
2819.376954,-592.164754,-9178.553681,2987.772442
2819.377281,-592.164754,-10881.027347,1149.143247
2819.377609,1110.308913,-10584.944971,-2068.457845
2819.377936,1998.556043,-9548.656652,-2757.943793
2819.378264,222.061783,-9548.656652,-306.438199
2819.378592,-1184.329507,-10658.965565,2145.067394
2819.378919,-1628.453072,-9548.656652,76.609550
2819.379247,-444.123565,-9622.677246,-2145.067394
2819.379574,370.102971,-9844.739029,-2374.896044
2819.379902,0.000000,-9844.739029,-306.438199
2819.380230,-740.205942,-10732.986159,689.485948
2819.380557,0.000000,-10807.006753,229.828649
2819.380885,1406.391290,-9104.533087,-383.047749
2819.381213,1406.391290,-7105.977043,-689.485948
2819.381540,370.102971,-8290.306550,1532.190996
2819.381868,444.123565,-10140.821405,2145.067394
2819.382195,1110.308913,-10140.821405,306.438199
2819.382523,1480.411884,-9252.574275,-1378.971896
2819.382851,148.041188,-8882.471304,-1378.971896
2819.383178,-1554.432478,-9770.718434,995.924147
2819.383506,-3182.885551,-10214.842000,383.047749
2819.383833,-2072.576638,-10955.047942,-2068.457845
2819.384161,444.123565,-10436.903782,-3140.991542
2819.384489,1184.329507,-9326.594869,-1762.019645
2819.384816,-666.185348,-9178.553681,1838.629195
2819.385144,-1628.453072,-8882.471304,2451.505594
2819.385472,-1110.308913,-8438.347739,536.266849
2819.385799,148.041188,-8142.265362,-2221.676944
2819.386127,0.000000,-7772.162391,-2221.676944
2819.386454,0.000000,-9770.718434,229.828649
2819.386782,666.185348,-12361.439231,1608.800546
2819.387110,1554.432478,-12435.459826,153.219100
2819.387437,2442.679609,-10584.944971,-1455.581446
2819.387765,2220.617826,-8956.491898,-1225.752797
2819.388092,1110.308913,-10436.903782,-383.047749
2819.388420,-296.082377,-10510.924376,76.609550
2819.388748,0.000000,-10140.821405,-766.095498
2819.389075,962.267725,-8956.491898,-766.095498
2819.389403,444.123565,-7846.182985,383.047749
2819.389731,-518.144159,-8808.450710,1991.848295
2819.390058,-1480.411884,-9770.718434,612.876398
2819.390386,-444.123565,-11029.068536,-1915.238745
2819.390713,1628.453072,-10140.821405,-3753.867940
2819.391041,1184.329507,-8882.471304,-1762.019645
2819.391369,222.061783,-9992.780217,1838.629195
2819.391696,592.164754,-10436.903782,2987.772442
2819.392024,1406.391290,-9030.512492,995.924147
2819.392351,1998.556043,-8142.265362,-919.314598
2819.392679,2294.638420,-9474.636058,-229.828649
2819.393007,222.061783,-9104.533087,1608.800546
2819.393334,-518.144159,-10066.800811,1532.190996
2819.393662,74.020594,-9104.533087,-766.095498
2819.393989,518.144159,-8216.285956,-1762.019645
2819.394317,444.123565,-8586.388927,-229.828649
2819.394645,0.000000,-9844.739029,383.047749
2819.394972,814.226536,-11843.295072,0.000000
2819.395300,1850.514855,-11843.295072,-1915.238745
2819.395628,2442.679609,-9474.636058,-1838.629195
2819.395955,1184.329507,-8956.491898,842.705048
2819.396283,-962.267725,-9326.594869,2451.505594
2819.396610,-888.247130,-10584.944971,1378.971896
2819.396938,0.000000,-10288.862594,-1225.752797
2819.397266,1406.391290,-8956.491898,-2374.896044
2819.397593,0.000000,-9030.512492,-459.657299
2819.397921,-1628.453072,-9622.677246,1838.629195
2819.398248,-2072.576638,-9474.636058,919.314598
2819.398576,-592.164754,-9326.594869,-2145.067394
2819.398904,666.185348,-9326.594869,-3294.210641
2819.399231,148.041188,-9696.697840,-306.438199
2819.399559,0.000000,-10584.944971,1149.143247
2819.399887,296.082377,-10807.006753,842.705048
2819.400214,1406.391290,-10436.903782,-306.438199
2819.400542,1924.535449,-9252.574275,-1149.143247
2819.400869,222.061783,-9844.739029,0.000000
2819.401197,-962.267725,-10732.986159,612.876398
2819.401525,0.000000,-11103.089130,-229.828649
2819.401852,666.185348,-9770.718434,-1685.410096
2819.402180,814.226536,-8586.388927,-842.705048
2819.402507,-592.164754,-8882.471304,1378.971896
2819.402835,-1554.432478,-10140.821405,2221.676944
2819.403163,-1184.329507,-10214.842000,0.000000
2819.403490,1036.288319,-9104.533087,-2528.115143
2819.403818,1184.329507,-7698.141797,-1532.190996
2819.404146,-222.061783,-8290.306550,1762.019645
2819.404473,-962.267725,-9104.533087,2528.115143
2819.404801,148.041188,-10066.800811,536.266849
2819.405128,1406.391290,-10140.821405,-1838.629195
2819.405456,1332.370696,-9696.697840,-1762.019645
2819.405784,-296.082377,-9844.739029,536.266849
2819.406111,-370.102971,-10362.883188,1302.362347
2819.406439,0.000000,-10288.862594,229.828649
2819.406766,296.082377,-8660.409521,-995.924147
2819.407094,-222.061783,-7994.224174,-229.828649
2819.407422,-1184.329507,-9030.512492,612.876398
2819.407749,-1036.288319,-10436.903782,306.438199
2819.408077,518.144159,-10140.821405,-1225.752797
2819.408404,1850.514855,-9326.594869,-2221.676944
2819.408732,1258.350101,-9252.574275,0.000000
2819.409060,962.267725,-10807.006753,1608.800546
2819.409387,296.082377,-11473.192101,842.705048
2819.409715,888.247130,-11473.192101,-1302.362347
2819.410043,2294.638420,-10436.903782,-2987.772442
2819.410370,2072.576638,-9474.636058,-995.924147
2819.410698,370.102971,-9252.574275,1455.581446
2819.411025,-296.082377,-9030.512492,2145.067394
2819.411353,444.123565,-8660.409521,459.657299
2819.411681,1702.473667,-8586.388927,-1378.971896
2819.412008,1036.288319,-8882.471304,-383.047749
2819.412336,-592.164754,-9622.677246,1378.971896
2819.412663,-666.185348,-10362.883188,612.876398
2819.412991,0.000000,-10436.903782,-1378.971896
2819.413319,814.226536,-9844.739029,-2451.505594
2819.413646,888.247130,-9030.512492,-1149.143247
2819.413974,0.000000,-10510.924376,689.485948
2819.414302,296.082377,-12065.356855,536.266849
2819.414629,1776.494261,-11547.212695,-995.924147
2819.414957,2294.638420,-9326.594869,-1302.362347
2819.415284,740.205942,-7846.182985,1225.752797
2819.415612,-962.267725,-9104.533087,2604.724693
2819.415940,-962.267725,-9622.677246,919.314598
2819.416267,0.000000,-9326.594869,-1532.190996
2819.416595,518.144159,-8586.388927,-2298.286494
2819.416922,222.061783,-8586.388927,0.000000
2819.417250,-962.267725,-9030.512492,2451.505594
2819.417578,-888.247130,-9400.615463,1991.848295
2819.417905,148.041188,-9622.677246,-1762.019645
2819.418233,1036.288319,-9474.636058,-2681.334243
2819.418561,518.144159,-10066.800811,-689.485948
2819.418888,-740.205942,-10807.006753,1149.143247
2819.419216,-814.226536,-11399.171507,1149.143247
2819.419543,370.102971,-10436.903782,-1149.143247
2819.419871,444.123565,-8882.471304,-1685.410096
2819.420199,148.041188,-9178.553681,-1072.533697
2819.420526,-370.102971,-10140.821405,1149.143247
2819.420854,518.144159,-10584.944971,-459.657299
2819.421181,1776.494261,-9622.677246,-919.314598
2819.421509,2220.617826,-8290.306550,0.000000
2819.421837,1776.494261,-8586.388927,2068.457845
2819.422164,0.000000,-10214.842000,2604.724693
2819.422492,-962.267725,-11325.150913,0.000000
2819.422819,814.226536,-10362.883188,-2681.334243
2819.423147,1776.494261,-9252.574275,-2834.553343
2819.423475,0.000000,-9992.780217,766.095498
2819.423802,-1998.556043,-10288.862594,2911.162892
2819.424130,-1110.308913,-9474.636058,766.095498
2819.424458,-222.061783,-8882.471304,-2528.115143
2819.424785,0.000000,-8808.450710,-2145.067394
2819.425113,-2146.597232,-8586.388927,-306.438199
2819.425441,-2294.638420,-9252.574275,1225.752797
2819.425768,-444.123565,-10584.944971,459.657299
2819.426096,1776.494261,-10362.883188,-995.924147
2819.426424,2220.617826,-9400.615463,-612.876398
2819.426751,2146.597232,-10362.883188,612.876398
2819.427079,1702.473667,-10288.862594,536.266849
2819.427407,1702.473667,-10288.862594,-459.657299
2819.427734,1554.432478,-9474.636058,-1915.238745
2819.428062,1924.535449,-9252.574275,0.000000
2819.428389,296.082377,-9770.718434,1915.238745
2819.428717,-1628.453072,-10214.842000,2145.067394
2819.429045,-1776.494261,-10584.944971,0.000000
2819.429372,666.185348,-9474.636058,-3447.429741
2819.429700,444.123565,-8216.285956,-3140.991542
2819.430028,-2072.576638,-8364.327145,919.314598
2819.430355,-2146.597232,-9030.512492,1608.800546
2819.430683,-370.102971,-9326.594869,-229.828649
2819.431011,1628.453072,-9474.636058,-1915.238745
2819.431338,1554.432478,-10214.842000,-1225.752797
2819.431666,-222.061783,-9696.697840,919.314598
2819.431994,-444.123565,-10881.027347,1149.143247
2819.432321,740.205942,-11325.150913,-1302.362347
2819.432649,2368.659014,-10066.800811,-1762.019645
2819.432977,1998.556043,-9030.512492,-229.828649
2819.433304,888.247130,-9548.656652,1762.019645
2819.433632,370.102971,-10288.862594,1532.190996
2819.433960,1036.288319,-9622.677246,-766.095498
2819.434287,1332.370696,-8364.327145,-1455.581446
2819.434615,444.123565,-8660.409521,459.657299
2819.434943,-666.185348,-9474.636058,1608.800546
2819.435270,-962.267725,-10584.944971,76.609550
2819.435598,222.061783,-10807.006753,-2528.115143
2819.435926,1554.432478,-9622.677246,-2757.943793
2819.436253,1110.308913,-9178.553681,766.095498
2819.436581,-592.164754,-9400.615463,2834.553343
2819.436909,-1036.288319,-10584.944971,1762.019645
2819.437236,74.020594,-9696.697840,-842.705048
2819.437564,592.164754,-8290.306550,-1762.019645
2819.437892,-296.082377,-8882.471304,153.219100
2819.438219,-1406.391290,-9622.677246,1762.019645
2819.438547,-1998.556043,-9252.574275,612.876398
2819.438875,-444.123565,-9252.574275,-1455.581446
2819.439202,740.205942,-8586.388927,-2068.457845
2819.439530,1036.288319,-9030.512492,-306.438199
2819.439858,814.226536,-10584.944971,1685.410096
2819.440185,740.205942,-11103.089130,536.266849
2819.440513,2368.659014,-10584.944971,-1838.629195
2819.440840,2072.576638,-9622.677246,-2298.286494
2819.441168,1110.308913,-10288.862594,1762.019645
2819.441496,-962.267725,-10881.027347,2068.457845
2819.441823,-740.205942,-10881.027347,153.219100
2819.442151,0.000000,-9696.697840,-2451.505594
2819.442479,518.144159,-8882.471304,-2145.067394
2819.442806,-962.267725,-8512.368333,229.828649
2819.443134,-2664.741391,-8512.368333,1302.362347
2819.443462,-1554.432478,-9178.553681,0.000000
2819.443789,666.185348,-9474.636058,-2681.334243
2819.444117,1702.473667,-8956.491898,-2068.457845
2819.444445,962.267725,-9548.656652,919.314598
2819.444772,592.164754,-10881.027347,2298.286494
2819.445100,888.247130,-10955.047942,153.219100
2819.445428,1850.514855,-10584.944971,-1991.848295
2819.445755,1406.391290,-8956.491898,-1685.410096
2819.446083,222.061783,-9252.574275,229.828649
2819.446411,-518.144159,-10362.883188,919.314598
2819.446738,0.000000,-10658.965565,76.609550
2819.447066,0.000000,-8734.430116,-1225.752797
2819.447394,-962.267725,-7920.203579,-919.314598
2819.447721,-962.267725,-9326.594869,612.876398
2819.448049,-1480.411884,-10288.862594,1302.362347
2819.448377,-148.041188,-10436.903782,-306.438199
2819.448704,1998.556043,-9474.636058,-1378.971896
2819.449032,2146.597232,-8882.471304,-689.485948
2819.449360,1184.329507,-10362.883188,1225.752797
2819.449687,74.020594,-10807.006753,1608.800546
2819.450015,592.164754,-10436.903782,-995.924147
2819.450343,962.267725,-9030.512492,-3294.210641
2819.450670,222.061783,-8290.306550,-2145.067394
2819.450998,-1036.288319,-9252.574275,1149.143247
2819.451326,-888.247130,-10140.821405,2451.505594
2819.451653,888.247130,-9992.780217,766.095498
2819.451981,2294.638420,-8586.388927,-1838.629195
2819.452308,1998.556043,-8660.409521,-459.657299
2819.452636,814.226536,-9178.553681,919.314598
2819.452964,370.102971,-10066.800811,766.095498
2819.453291,518.144159,-10436.903782,-229.828649
2819.453619,1554.432478,-9474.636058,-1532.190996
2819.453947,1702.473667,-9844.739029,-459.657299
2819.454274,962.267725,-11325.150913,995.924147
2819.454602,-370.102971,-11695.253884,1455.581446
2819.454930,370.102971,-11325.150913,-1608.800546
2819.455257,1332.370696,-9474.636058,-2604.724693
2819.455585,518.144159,-8068.244768,-689.485948
2819.455913,-962.267725,-8660.409521,2298.286494
2819.456240,-1480.411884,-9030.512492,2528.115143
2819.456568,0.000000,-9326.594869,76.609550
2819.456896,1554.432478,-8660.409521,-1072.533697
2819.457223,370.102971,-8364.327145,-229.828649
2819.457551,-1924.535449,-9474.636058,1378.971896
2819.457879,-1776.494261,-10732.986159,1072.533697
2819.458206,444.123565,-10658.965565,-2451.505594
2819.458534,1702.473667,-10140.821405,-3447.429741
2819.458862,1554.432478,-10881.027347,-612.876398
2819.459189,74.020594,-11325.150913,2068.457845
2819.459517,-222.061783,-11177.109724,1762.019645
2819.459845,592.164754,-9770.718434,-766.095498
2819.460172,1184.329507,-8142.265362,-1838.629195
2819.460500,444.123565,-7772.162391,76.609550
2819.460828,-666.185348,-8734.430116,1685.410096
2819.461155,-1036.288319,-9252.574275,919.314598
2819.461483,666.185348,-9178.553681,-306.438199
2819.461811,1184.329507,-8808.450710,-2145.067394
2819.462138,0.000000,-10214.842000,-153.219100
2819.462466,-888.247130,-10881.027347,919.314598
2819.462794,-222.061783,-11029.068536,-383.047749
2819.463121,1628.453072,-11325.150913,-1991.848295
2819.463449,1702.473667,-9770.718434,-1608.800546
2819.463777,518.144159,-9474.636058,995.924147
2819.464104,-1924.535449,-9844.739029,2145.067394
2819.464432,-1406.391290,-9918.759623,0.000000
2819.464759,-296.082377,-8956.491898,-3064.381992
2819.465087,0.000000,-8512.368333,-2528.115143
2819.465415,-814.226536,-9178.553681,-153.219100
2819.465742,-370.102971,-10584.944971,1762.019645
2819.466070,222.061783,-11251.130318,459.657299
2819.466398,1776.494261,-9844.739029,-1915.238745
2819.466725,2886.803174,-9474.636058,-1532.190996
2819.467053,2516.700203,-10066.800811,536.266849
2819.467381,1110.308913,-9992.780217,1762.019645
2819.467708,1036.288319,-9844.739029,536.266849
2819.468036,1850.514855,-9400.615463,-612.876398
2819.468364,888.247130,-9030.512492,-306.438199
2819.468691,-1184.329507,-9252.574275,2451.505594
2819.469019,-2812.782580,-9178.553681,1072.533697
2819.469347,-2072.576638,-9326.594869,-1915.238745
2819.469674,-296.082377,-8956.491898,-3753.867940
2819.470002,0.000000,-8142.265362,-1762.019645
2819.470330,0.000000,-8882.471304,1455.581446
2819.470657,-148.041188,-10584.944971,3140.991542
2819.470985,814.226536,-10510.924376,995.924147
2819.471313,1776.494261,-9992.780217,-1608.800546
2819.471640,1850.514855,-9474.636058,-1685.410096
2819.471968,518.144159,-10362.883188,383.047749
2819.472296,0.000000,-10732.986159,1072.533697
2819.472623,666.185348,-10510.924376,0.000000
2819.472951,1924.535449,-9400.615463,-2068.457845
2819.473279,1850.514855,-9474.636058,-229.828649
2819.473606,370.102971,-10288.862594,1072.533697
2819.473934,-1184.329507,-10140.821405,1608.800546
2819.474262,-296.082377,-9474.636058,-842.705048
2819.474589,1258.350101,-8808.450710,-2298.286494
2819.474917,1110.308913,-8586.388927,-383.047749
2819.475245,-444.123565,-9622.677246,2451.505594
2819.475572,-740.205942,-9696.697840,1455.581446
2819.475900,444.123565,-10140.821405,-1302.362347
2819.476227,592.164754,-9474.636058,-2757.943793
2819.476555,-370.102971,-9622.677246,-919.314598
2819.476883,-1406.391290,-10510.924376,1455.581446
2819.477210,-1406.391290,-11399.171507,1378.971896
2819.477538,74.020594,-10214.842000,-689.485948
2819.477866,1036.288319,-8882.471304,-1838.629195
2819.478193,962.267725,-8364.327145,0.000000
2819.478521,-666.185348,-9326.594869,1915.238745
2819.478849,-666.185348,-9474.636058,1455.581446
2819.479176,962.267725,-8882.471304,-766.095498
2819.479504,1998.556043,-7846.182985,-2145.067394
2819.479832,1776.494261,-8660.409521,995.924147
2819.480159,148.041188,-9992.780217,2068.457845
2819.480487,0.000000,-10732.986159,0.000000
2819.480815,666.185348,-10658.965565,-2757.943793
2819.481142,1554.432478,-10140.821405,-2834.553343
2819.481470,666.185348,-10140.821405,-383.047749
2819.481798,74.020594,-10288.862594,1608.800546
2819.482125,0.000000,-10584.944971,1225.752797
2819.482453,518.144159,-9030.512492,-1149.143247
2819.482781,370.102971,-7772.162391,-1991.848295
2819.483108,-888.247130,-8364.327145,0.000000
2819.483436,-2146.597232,-9474.636058,995.924147
2819.483764,-1406.391290,-10658.965565,-306.438199
2819.484091,962.267725,-10140.821405,-1685.410096
2819.484419,1628.453072,-8882.471304,-2298.286494
2819.484747,1776.494261,-10288.862594,0.000000
2819.485074,666.185348,-10732.986159,1302.362347
2819.485402,1110.308913,-11029.068536,-153.219100
2819.485730,2590.720797,-10288.862594,-1608.800546
2819.486057,2664.741391,-8956.491898,-919.314598
2819.486385,1184.329507,-8956.491898,2451.505594
2819.486713,-740.205942,-9622.677246,3064.381992
2819.487040,-1998.556043,-9178.553681,842.705048
2819.487368,-1628.453072,-8438.347739,-1915.238745
2819.487696,-1628.453072,-9104.533087,-2374.896044
2819.488023,-2368.659014,-9696.697840,0.000000
2819.488351,-2146.597232,-9844.739029,459.657299
2819.488678,0.000000,-9918.759623,-612.876398
2819.489006,1924.535449,-9252.574275,-1532.190996
2819.489334,1628.453072,-8808.450710,0.000000
2819.489661,814.226536,-10066.800811,1915.238745
2819.489989,-666.185348,-11103.089130,2068.457845
2819.490317,74.020594,-10436.903782,-995.924147
2819.490644,1110.308913,-8734.430116,-2681.334243
2819.490972,814.226536,-8142.265362,-919.314598
2819.491300,74.020594,-9696.697840,1378.971896
2819.491627,-296.082377,-10362.883188,1991.848295
2819.491955,592.164754,-10436.903782,-689.485948
2819.492283,2220.617826,-9474.636058,-2451.505594
2819.492610,2146.597232,-9474.636058,-842.705048
2819.492938,666.185348,-9474.636058,1378.971896
2819.493266,-592.164754,-9474.636058,2145.067394
2819.493593,666.185348,-10066.800811,76.609550
2819.493921,1702.473667,-9474.636058,-2681.334243
2819.494249,1110.308913,-8956.491898,-766.095498
2819.494576,-148.041188,-10584.944971,1225.752797
2819.494904,-1036.288319,-11695.253884,612.876398
2819.495232,0.000000,-10584.944971,-2068.457845
2819.495559,1480.411884,-9252.574275,-3983.696590
2819.495887,370.102971,-9252.574275,-1455.581446
2819.496215,-296.082377,-10066.800811,459.657299
2819.496542,-592.164754,-10510.924376,1608.800546
2819.496870,444.123565,-10288.862594,0.000000
2819.497198,1924.535449,-8586.388927,-1378.971896
2819.497525,1332.370696,-7772.162391,536.266849
2819.497853,0.000000,-9252.574275,2145.067394
2819.498181,-296.082377,-9992.780217,1302.362347
2819.498508,1406.391290,-10436.903782,-1608.800546
2819.498836,1850.514855,-9992.780217,-2834.553343
2819.499164,1332.370696,-10288.862594,-766.095498
2819.499491,0.000000,-11399.171507,1455.581446
2819.499819,-962.267725,-10955.047942,1608.800546
2819.500146,-222.061783,-9622.677246,-229.828649
2819.500474,1406.391290,-8364.327145,-1378.971896
2819.500802,1332.370696,-8364.327145,383.047749
2819.501129,0.000000,-8216.285956,3294.210641
2819.501457,-666.185348,-8808.450710,2298.286494
2819.501785,666.185348,-8364.327145,-536.266849
2819.502112,370.102971,-8216.285956,-1838.629195
2819.502440,-1110.308913,-9178.553681,0.000000
2819.502768,-1628.453072,-11399.171507,1302.362347
2819.503095,148.041188,-11991.336260,-536.266849
2819.503423,1554.432478,-11177.109724,-2681.334243
2819.503751,2368.659014,-10140.821405,-1991.848295
2819.504078,888.247130,-10066.800811,1225.752797
2819.504406,-814.226536,-9548.656652,2374.896044
2819.504734,-1480.411884,-9400.615463,612.876398
2819.505061,-592.164754,-8586.388927,-1838.629195
2819.505389,666.185348,-8216.285956,-2451.505594
2819.505717,0.000000,-9252.574275,459.657299
2819.506044,-1554.432478,-11251.130318,1838.629195
2819.506372,-1184.329507,-11695.253884,76.609550
2819.506700,1332.370696,-10584.944971,-2451.505594
2819.507027,2072.576638,-9474.636058,-3370.820191
2819.507355,814.226536,-9252.574275,-229.828649
2819.507683,370.102971,-10214.842000,2221.676944
2819.508010,222.061783,-9474.636058,1149.143247
2819.508338,1406.391290,-9622.677246,-383.047749
2819.508666,740.205942,-8882.471304,-383.047749
2819.508993,-666.185348,-9030.512492,1455.581446
2819.509321,-2960.823768,-10584.944971,1838.629195
2819.509649,-1850.514855,-9992.780217,-995.924147
2819.509976,74.020594,-8586.388927,-4366.744339
2819.510304,222.061783,-7698.141797,-1915.238745
2819.510632,-222.061783,-8956.491898,1915.238745
2819.510959,-518.144159,-10436.903782,2681.334243
2819.511287,1332.370696,-10732.986159,153.219100
2819.511615,2220.617826,-9918.759623,-2068.457845
2819.511942,2368.659014,-9326.594869,-1455.581446
2819.512270,1628.453072,-9548.656652,1915.238745
2819.512597,370.102971,-9622.677246,1685.410096
2819.512925,370.102971,-9770.718434,76.609550
2819.513253,1258.350101,-9104.533087,-1762.019645
2819.513580,1406.391290,-8734.430116,-1762.019645
2819.513908,148.041188,-9178.553681,459.657299
2819.514236,-296.082377,-10140.821405,612.876398
2819.514563,0.000000,-9548.656652,-612.876398
2819.514891,814.226536,-8660.409521,-1608.800546
2819.515219,1184.329507,-8216.285956,-1225.752797
2819.515546,0.000000,-10288.862594,1072.533697
2819.515874,148.041188,-12287.418637,1455.581446
2819.516202,1184.329507,-11029.068536,-842.705048
2819.516529,2294.638420,-9770.718434,-2145.067394
2819.516857,740.205942,-9030.512492,-995.924147
2819.517185,0.000000,-10214.842000,612.876398
2819.517512,-1258.350101,-11251.130318,1149.143247
2819.517840,444.123565,-10658.965565,-1608.800546
2819.518168,1628.453072,-9844.739029,-2451.505594
2819.518495,1332.370696,-9252.574275,0.000000
2819.518823,222.061783,-9326.594869,2604.724693
2819.519151,-888.247130,-9178.553681,2528.115143
2819.519478,296.082377,-9252.574275,-383.047749
2819.519806,1406.391290,-8586.388927,-2068.457845
2819.520134,1184.329507,-8808.450710,-306.438199
2819.520461,-222.061783,-9622.677246,1532.190996
2819.520789,-888.247130,-9770.718434,1149.143247
2819.521117,-888.247130,-9548.656652,-1149.143247
2819.521444,0.000000,-9326.594869,-2757.943793
2819.521772,0.000000,-9992.780217,-1149.143247
2819.522100,-1258.350101,-10955.047942,1149.143247
2819.522427,-1628.453072,-11103.089130,1072.533697
2819.522755,296.082377,-9696.697840,-842.705048
2819.523082,1184.329507,-8068.244768,-1762.019645
2819.523410,370.102971,-8364.327145,995.924147
2819.523737,-1332.370696,-9474.636058,2528.115143
2819.524065,-888.247130,-10214.842000,766.095498
2819.524392,1258.350101,-9918.759623,-2145.067394
2819.524720,1628.453072,-9474.636058,-2528.115143
2819.525048,1036.288319,-9770.718434,0.000000
2819.525375,0.000000,-11029.068536,2374.896044
2819.525703,0.000000,-10881.027347,919.314598
2819.526030,1258.350101,-10288.862594,-2068.457845
2819.526358,1406.391290,-9400.615463,-2221.676944
2819.526685,740.205942,-9400.615463,306.438199
2819.527013,-592.164754,-9770.718434,2298.286494
2819.527340,-1998.556043,-9252.574275,1608.800546
2819.527668,-1924.535449,-7772.162391,-1072.533697
2819.527996,-1110.308913,-8512.368333,-2068.457845
2819.528323,-1406.391290,-9918.759623,-1378.971896
2819.528651,-1702.473667,-10955.047942,0.000000
2819.528978,0.000000,-11251.130318,-383.047749
2819.529306,2368.659014,-10510.924376,-1608.800546
2819.529633,2960.823768,-10066.800811,-1149.143247
2819.529961,2220.617826,-9992.780217,1302.362347
2819.530288,1184.329507,-11769.274478,2374.896044
2819.530616,962.267725,-10140.821405,-536.266849
2819.530943,2368.659014,-8364.327145,-2374.896044
2819.531271,2146.597232,-7402.059420,-766.095498
2819.531599,296.082377,-8586.388927,2451.505594
2819.531926,-222.061783,-9770.718434,2528.115143
2819.532254,592.164754,-10214.842000,0.000000
2819.532581,1332.370696,-9252.574275,-2604.724693
2819.532909,1776.494261,-9400.615463,-1455.581446
2819.533236,370.102971,-9326.594869,536.266849
2819.533564,-296.082377,-8882.471304,1378.971896
2819.533891,-370.102971,-9178.553681,229.828649
2819.534219,814.226536,-9030.512492,-995.924147
2819.534547,1332.370696,-9474.636058,-995.924147
2819.534874,74.020594,-10288.862594,1149.143247
2819.535202,-888.247130,-11695.253884,383.047749
2819.535529,296.082377,-11177.109724,-1991.848295
2819.535857,1332.370696,-9622.677246,-2834.553343
2819.536184,518.144159,-8512.368333,-1762.019645
2819.536512,-518.144159,-9622.677246,1378.971896
2819.536839,-518.144159,-10807.006753,1608.800546
2819.537167,1110.308913,-10955.047942,0.000000
2819.537494,2442.679609,-9178.553681,-1225.752797
2819.537822,1702.473667,-7994.224174,0.000000
2819.538150,370.102971,-9770.718434,2374.896044
2819.538477,-962.267725,-10510.924376,1685.410096
2819.538805,-592.164754,-9326.594869,-1455.581446
2819.539132,814.226536,-8660.409521,-3370.820191
2819.539460,1110.308913,-9992.780217,-612.876398
2819.539787,0.000000,-11251.130318,1685.410096
2819.540115,-1850.514855,-10214.842000,1685.410096
2819.540442,-666.185348,-9770.718434,-1072.533697
2819.540770,74.020594,-9030.512492,-2451.505594
2819.541097,148.041188,-8586.388927,-306.438199
2819.541425,-1110.308913,-9178.553681,1685.410096
2819.541753,-1480.411884,-9844.739029,1991.848295
2819.542080,1110.308913,-8882.471304,0.000000
2819.542408,1628.453072,-7920.203579,-1302.362347
2819.542735,444.123565,-9030.512492,612.876398
2819.543063,-1110.308913,-10066.800811,1762.019645
2819.543390,-962.267725,-10658.965565,0.000000
2819.543718,962.267725,-11473.192101,-2451.505594
2819.544045,2220.617826,-10510.924376,-2911.162892
2819.544373,1184.329507,-9400.615463,919.314598
2819.544701,296.082377,-10658.965565,2528.115143
2819.545028,-740.205942,-10658.965565,1532.190996
2819.545356,-370.102971,-9326.594869,-1608.800546
2819.545683,222.061783,-7105.977043,-2374.896044
2819.546011,-1332.370696,-8290.306550,689.485948
2819.546338,-2072.576638,-9622.677246,1685.410096
2819.546666,-1110.308913,-9844.739029,612.876398
2819.546993,222.061783,-9252.574275,-2221.676944
2819.547321,1184.329507,-10214.842000,-2987.772442
2819.547648,1628.453072,-10584.944971,-1072.533697
2819.547976,592.164754,-11325.150913,689.485948
2819.548304,666.185348,-11473.192101,306.438199
2819.548631,2516.700203,-9918.759623,-1378.971896
2819.548959,2368.659014,-8660.409521,-842.705048
2819.549286,888.247130,-9622.677246,1455.581446
2819.549614,0.000000,-10658.965565,2911.162892
2819.549941,296.082377,-10066.800811,612.876398
2819.550269,1702.473667,-8956.491898,-2451.505594
2819.550596,1406.391290,-8438.347739,-1302.362347
2819.550924,0.000000,-9400.615463,459.657299
2819.551252,-1258.350101,-9474.636058,1225.752797
2819.551579,-1702.473667,-9696.697840,-383.047749
2819.551907,148.041188,-9474.636058,-2221.676944
2819.552234,1406.391290,-9400.615463,-1762.019645
2819.552562,1110.308913,-9178.553681,1302.362347
2819.552889,148.041188,-10066.800811,2757.943793
2819.553217,888.247130,-9696.697840,1685.410096
2819.553544,1924.535449,-8956.491898,-766.095498
2819.553872,444.123565,-8142.265362,-1838.629195
2819.554199,-518.144159,-9474.636058,306.438199
2819.554527,-1628.453072,-9844.739029,689.485948
2819.554855,-444.123565,-9992.780217,-842.705048
2819.555182,1110.308913,-8882.471304,-2145.067394
2819.555510,1258.350101,-9104.533087,-459.657299
2819.555837,222.061783,-10510.924376,1685.410096
2819.556165,0.000000,-11325.150913,1915.238745
2819.556492,814.226536,-10288.862594,-1762.019645
2819.556820,1628.453072,-8882.471304,-3140.991542
2819.557147,1258.350101,-9252.574275,-689.485948
2819.557475,0.000000,-10140.821405,2068.457845
2819.557802,-1258.350101,-10584.944971,2298.286494
2819.558130,0.000000,-10510.924376,-1378.971896
2819.558458,222.061783,-9844.739029,-3140.991542
2819.558785,0.000000,-9992.780217,-1608.800546
2819.559113,-1406.391290,-9770.718434,612.876398
2819.559440,-1702.473667,-9252.574275,995.924147
2819.559768,-296.082377,-8142.265362,-459.657299
2819.560095,1406.391290,-8142.265362,-1378.971896
2819.560423,1184.329507,-8438.347739,306.438199
2819.560750,296.082377,-10288.862594,1532.190996
2819.561078,-666.185348,-11029.068536,1302.362347
2819.561406,0.000000,-10658.965565,-1302.362347
