#time,accel_x,accel_y,accel_z
3251.045223,-148.041188,-9400.615463,-229.828649
3251.045551,0.000000,-9474.636058,-383.047749
3251.045878,370.102971,-9548.656652,0.000000
3251.046206,888.247130,-10066.800811,0.000000
3251.046534,666.185348,-10066.800811,0.000000
3251.046861,740.205942,-9696.697840,153.219100
3251.047189,592.164754,-9696.697840,-306.438199
3251.047517,444.123565,-9474.636058,-306.438199
3251.047844,148.041188,-9326.594869,-536.266849
3251.048172,-518.144159,-9178.553681,-306.438199
3251.048500,0.000000,-9918.759623,-689.485948
3251.048827,74.020594,-10066.800811,-1149.143247
3251.049155,0.000000,-10288.862594,-1072.533697
3251.049483,222.061783,-10362.883188,-536.266849
3251.049810,592.164754,-10510.924376,-306.438199
3251.050138,592.164754,-10066.800811,153.219100
3251.050466,814.226536,-10214.842000,536.266849
3251.050793,740.205942,-10140.821405,-229.828649
3251.051121,518.144159,-9918.759623,0.000000
3251.051448,-222.061783,-9474.636058,0.000000
3251.051776,74.020594,-9474.636058,-229.828649
3251.052104,0.000000,-9474.636058,-383.047749
3251.052431,0.000000,-9326.594869,-383.047749
3251.052759,0.000000,-9326.594869,-536.266849
3251.053087,0.000000,-9400.615463,-306.438199
3251.053414,74.020594,-9104.533087,0.000000
3251.053742,518.144159,-9918.759623,153.219100
3251.054070,814.226536,-9696.697840,76.609550
3251.054397,666.185348,-9770.718434,0.000000
3251.054725,888.247130,-9622.677246,153.219100
3251.055053,370.102971,-9252.574275,229.828649
3251.055380,74.020594,-9326.594869,306.438199
3251.055708,0.000000,-9104.533087,153.219100
3251.056036,0.000000,-9178.553681,-383.047749
3251.056363,74.020594,-9326.594869,-306.438199
3251.056691,296.082377,-9918.759623,-153.219100
3251.057019,518.144159,-10066.800811,153.219100
3251.057346,296.082377,-9770.718434,-536.266849
3251.057674,444.123565,-10066.800811,-689.485948
3251.058002,740.205942,-9696.697840,0.000000
3251.058329,666.185348,-9622.677246,0.000000
3251.058657,370.102971,-9622.677246,-229.828649
3251.058984,74.020594,-9252.574275,-306.438199
3251.059312,0.000000,-9400.615463,-383.047749
3251.059640,0.000000,-9474.636058,-842.705048
3251.059967,0.000000,-9326.594869,-766.095498
3251.060295,74.020594,-9918.759623,-306.438199
3251.060623,0.000000,-10066.800811,-689.485948
3251.060950,444.123565,-10436.903782,-383.047749
3251.061278,370.102971,-10140.821405,76.609550
3251.061606,444.123565,-9918.759623,229.828649
3251.061933,666.185348,-9844.739029,229.828649
3251.062261,0.000000,-9844.739029,689.485948
3251.062589,74.020594,-9474.636058,153.219100
3251.062916,296.082377,-8956.491898,0.000000
3251.063244,666.185348,-9326.594869,0.000000
3251.063572,1258.350101,-9178.553681,-306.438199
3251.063899,2442.679609,-9104.533087,0.000000
3251.064227,3108.864956,-8808.450710,-306.438199
3251.064555,4589.276840,-9104.533087,306.438199
3251.064882,5625.565159,-9474.636058,0.000000
3251.065210,6661.853478,-9992.780217,229.828649
3251.065538,7254.018232,-9770.718434,536.266849
3251.065865,7624.121203,-9770.718434,306.438199
3251.066193,7920.203579,-9696.697840,0.000000
3251.066520,7476.080014,-9844.739029,612.876398
3251.066848,7254.018232,-9622.677246,842.705048
3251.067176,8142.265362,-9400.615463,-306.438199
3251.067503,8956.491898,-8956.491898,-842.705048
3251.067831,9696.697840,-9178.553681,-383.047749
3251.068159,10658.965565,-9178.553681,76.609550
3251.068486,11399.171507,-9474.636058,153.219100
3251.068814,11843.295072,-9844.739029,229.828649
3251.069142,11621.233289,-9992.780217,-459.657299
3251.069469,10807.006753,-9400.615463,459.657299
3251.069797,11769.274478,-9030.512492,76.609550
3251.070125,12287.418637,-9326.594869,0.000000
3251.070452,13101.645173,-11029.068536,76.609550
3251.070780,13175.665768,-10807.006753,0.000000
3251.071108,13915.871710,-9548.656652,-153.219100
3251.071435,13989.892304,-8660.409521,-459.657299
3251.071763,13693.809927,-9326.594869,153.219100
3251.072091,13841.851115,-9770.718434,306.438199
3251.072418,13693.809927,-9548.656652,459.657299
3251.072746,13545.768739,-10436.903782,1072.533697
3251.073074,13767.830521,-10807.006753,1149.143247
3251.073401,12805.562797,-9030.512492,229.828649
3251.073729,12213.398043,-8438.347739,1685.410096
3251.074056,11843.295072,-8808.450710,536.266849
3251.074384,11177.109724,-9622.677246,0.000000
3251.074712,10362.883188,-9844.739029,383.047749
3251.075039,9992.780217,-10066.800811,0.000000
3251.075367,8512.368333,-9474.636058,76.609550
3251.075695,7624.121203,-9030.512492,0.000000
3251.076022,8216.285956,-8216.285956,-153.219100
3251.076350,9844.739029,-8956.491898,0.000000
3251.076678,10658.965565,-9918.759623,229.828649
3251.077005,10510.924376,-11473.192101,1455.581446
3251.077333,9326.594869,-10140.821405,1302.362347
3251.077661,8438.347739,-8068.244768,383.047749
3251.077988,7402.059420,-7105.977043,229.828649
3251.078316,8142.265362,-8808.450710,-689.485948
3251.078644,8586.388927,-11177.109724,-536.266849
3251.078971,8364.327145,-11177.109724,0.000000
3251.079299,8660.409521,-8882.471304,-536.266849
3251.079627,8290.306550,-9104.533087,-612.876398
3251.079954,6809.894666,-10955.047942,766.095498
3251.080282,7105.977043,-10955.047942,-229.828649
3251.080610,7846.182985,-9474.636058,-1838.629195
3251.080937,9918.759623,-9326.594869,-2068.457845
3251.081265,10732.986159,-9178.553681,-459.657299
3251.081592,9178.553681,-8364.327145,2221.676944
3251.081920,6883.915261,-8290.306550,3217.601092
3251.082248,7994.224174,-9400.615463,689.485948
3251.082575,11103.089130,-9622.677246,-2298.286494
3251.082903,11695.253884,-10066.800811,-2374.896044
3251.083231,10584.944971,-9622.677246,0.000000
3251.083558,9178.553681,-11473.192101,1149.143247
3251.083886,8586.388927,-11695.253884,536.266849
3251.084214,7920.203579,-9326.594869,-995.924147
3251.084541,6957.935855,-7846.182985,-1149.143247
3251.084869,7328.038826,-9252.574275,0.000000
3251.085197,8290.306550,-10214.842000,0.000000
3251.085524,8290.306550,-8290.306550,995.924147
3251.085852,7105.977043,-8882.471304,306.438199
3251.086180,6143.709319,-8438.347739,383.047749
3251.086507,5107.421000,-7402.059420,306.438199
3251.086835,5477.523971,-8586.388927,-153.219100
3251.087163,8142.265362,-9474.636058,-1991.848295
3251.087490,10066.800811,-10066.800811,-1072.533697
3251.087818,8438.347739,-11547.212695,1762.019645
3251.088146,7105.977043,-11843.295072,2221.676944
3251.088473,8216.285956,-9918.759623,306.438199
3251.088801,7179.997637,-9770.718434,-1455.581446
3251.089128,5699.585753,-11177.109724,-1608.800546
3251.089456,6439.791695,-10584.944971,-1532.190996
3251.089784,5181.441594,-8808.450710,1149.143247
3251.090111,4737.318029,-9548.656652,4213.525239
3251.090439,2812.782580,-9400.615463,1532.190996
3251.090767,666.185348,-8734.430116,-306.438199
3251.091094,-1924.535449,-8438.347739,-459.657299
3251.091422,-296.082377,-8438.347739,-2374.896044
3251.091750,814.226536,-9030.512492,-2834.553343
3251.092077,1110.308913,-10288.862594,0.000000
3251.092405,4145.153275,-8808.450710,842.705048
3251.092733,4367.215058,-9696.697840,0.000000
3251.093060,3404.947333,-12879.583391,1149.143247
3251.093388,4367.215058,-13841.851115,0.000000
3251.093716,2590.720797,-11843.295072,-1378.971896
3251.094043,1036.288319,-10807.006753,-995.924147
3251.094371,370.102971,-10140.821405,-689.485948
3251.094699,-1332.370696,-9770.718434,1455.581446
3251.095026,-3256.906145,-8882.471304,2221.676944
3251.095354,-4441.235652,-8586.388927,1302.362347
3251.095682,-4663.297435,-7476.080014,306.438199
3251.096009,-3627.009116,-8142.265362,-919.314598
3251.096337,-4293.194464,-8438.347739,-1532.190996
3251.096664,-5181.441594,-6513.812290,306.438199
3251.096992,-3256.906145,-7920.203579,-306.438199
3251.097320,-2516.700203,-10436.903782,-1762.019645
3251.097647,-1554.432478,-10881.027347,-306.438199
3251.097975,-1258.350101,-10140.821405,0.000000
3251.098303,-962.267725,-11621.233289,-612.876398
3251.098630,-962.267725,-12731.542202,-1608.800546
3251.098958,-444.123565,-10436.903782,-1915.238745
3251.099286,0.000000,-9326.594869,-1532.190996
3251.099613,0.000000,-10214.842000,1072.533697
3251.099941,814.226536,-9622.677246,1378.971896
3251.100269,148.041188,-6957.935855,459.657299
3251.100596,-888.247130,-6957.935855,383.047749
3251.100924,666.185348,-7254.018232,-995.924147
3251.101252,592.164754,-7476.080014,-1225.752797
3251.101579,-222.061783,-9104.533087,-153.219100
3251.101907,1702.473667,-9474.636058,-153.219100
3251.102235,2886.803174,-11325.150913,-995.924147
3251.102562,3034.844362,-13249.686362,-612.876398
3251.102890,3552.988522,-11621.233289,-229.828649
3251.103218,2368.659014,-11695.253884,-383.047749
3251.103545,814.226536,-11843.295072,536.266849
3251.103873,-222.061783,-11029.068536,-1149.143247
3251.104200,-1036.288319,-9178.553681,-1455.581446
3251.104528,-518.144159,-7476.080014,-459.657299
3251.104856,592.164754,-7920.203579,766.095498
3251.105183,1628.453072,-7328.038826,919.314598
3251.105511,3108.864956,-8808.450710,229.828649
3251.105839,2812.782580,-10584.944971,153.219100
3251.106166,2590.720797,-10214.842000,0.000000
3251.106494,3256.906145,-9918.759623,-1072.533697
3251.106822,2368.659014,-10881.027347,229.828649
3251.107149,3182.885551,-11251.130318,842.705048
3251.107477,2738.761985,-11917.315666,842.705048
3251.107805,740.205942,-11769.274478,919.314598
3251.108132,888.247130,-9992.780217,-612.876398
3251.108460,-222.061783,-9252.574275,-919.314598
3251.108788,-2220.617826,-9030.512492,0.000000
3251.109115,-2072.576638,-8142.265362,0.000000
3251.109443,-518.144159,-7402.059420,-383.047749
3251.109771,1110.308913,-6513.812290,229.828649
3251.110098,1850.514855,-7105.977043,1915.238745
3251.110426,2072.576638,-8438.347739,2757.943793
3251.110754,2738.761985,-10732.986159,2681.334243
3251.111081,1258.350101,-11843.295072,536.266849
3251.111409,370.102971,-10658.965565,-1608.800546
3251.111736,-592.164754,-10807.006753,-3064.381992
3251.112064,-2960.823768,-12213.398043,-1915.238745
3251.112392,-3775.050304,-10584.944971,-1302.362347
3251.112719,-3849.070898,-10732.986159,-1838.629195
3251.113047,-3849.070898,-9252.574275,-1302.362347
3251.113374,-1628.453072,-8290.306550,-2068.457845
3251.113702,-1554.432478,-8290.306550,-536.266849
3251.114030,-666.185348,-7846.182985,1149.143247
3251.114357,296.082377,-8734.430116,1532.190996
3251.114685,-1110.308913,-7624.121203,612.876398
3251.115012,-148.041188,-8068.244768,-995.924147
3251.115340,592.164754,-10362.883188,-2528.115143
3251.115667,1406.391290,-12509.480420,-1991.848295
3251.115995,740.205942,-13397.727550,-1762.019645
3251.116323,-222.061783,-14063.912898,-1378.971896
3251.116650,-296.082377,-10807.006753,-1838.629195
3251.116978,-888.247130,-10362.883188,-1915.238745
3251.117305,-962.267725,-10436.903782,-76.609550
3251.117633,74.020594,-10140.821405,306.438199
3251.117961,148.041188,-8290.306550,766.095498
3251.118288,444.123565,-6143.709319,995.924147
3251.118616,74.020594,-5773.606348,1149.143247
3251.118943,-370.102971,-7476.080014,1532.190996
3251.119271,666.185348,-7846.182985,766.095498
3251.119598,444.123565,-9770.718434,0.000000
3251.119926,-222.061783,-9474.636058,-383.047749
3251.120254,888.247130,-9770.718434,-2451.505594
3251.120581,296.082377,-11991.336260,-1762.019645
3251.120909,2072.576638,-11991.336260,-995.924147
3251.121236,3108.864956,-13027.624579,0.000000
3251.121564,2590.720797,-12435.459826,2834.553343
3251.121892,2738.761985,-8660.409521,1149.143247
3251.122219,1924.535449,-7402.059420,229.828649
3251.122547,74.020594,-8142.265362,919.314598
3251.122874,296.082377,-7920.203579,459.657299
3251.123202,222.061783,-7105.977043,0.000000
3251.123529,370.102971,-5403.503377,306.438199
3251.123857,1332.370696,-7476.080014,689.485948
3251.124185,2368.659014,-10807.006753,995.924147
3251.124512,3256.906145,-12139.377449,1302.362347
3251.124840,2738.761985,-12583.501014,0.000000
3251.125167,1776.494261,-10955.047942,-1838.629195
3251.125495,1110.308913,-11843.295072,-2604.724693
3251.125823,-296.082377,-11843.295072,-1762.019645
3251.126150,-148.041188,-10288.862594,-612.876398
3251.126478,222.061783,-11177.109724,306.438199
3251.126805,148.041188,-8068.244768,1302.362347
3251.127133,1628.453072,-6883.915261,-229.828649
3251.127460,-222.061783,-8956.491898,306.438199
3251.127788,-1332.370696,-10288.862594,1149.143247
3251.128116,-518.144159,-9178.553681,-306.438199
3251.128443,740.205942,-8586.388927,-383.047749
3251.128771,1998.556043,-9178.553681,76.609550
3251.129098,962.267725,-10881.027347,919.314598
3251.129426,-518.144159,-11251.130318,1838.629195
3251.129754,-370.102971,-11473.192101,-383.047749
3251.130081,-1850.514855,-11769.274478,-2528.115143
3251.130409,-3627.009116,-8808.450710,-2528.115143
3251.130736,-3997.112087,-7624.121203,-1915.238745
3251.131064,-2516.700203,-7550.100608,-1378.971896
3251.131391,-370.102971,-9844.739029,-229.828649
3251.131719,740.205942,-10288.862594,1378.971896
3251.132047,1110.308913,-7328.038826,1762.019645
3251.132374,1110.308913,-7254.018232,2374.896044
3251.132702,-1184.329507,-9548.656652,2298.286494
3251.133029,-1332.370696,-10436.903782,306.438199
3251.133357,-2146.597232,-10214.842000,-1991.848295
3251.133685,-2664.741391,-8882.471304,-3524.039291
3251.134012,-2960.823768,-9252.574275,-2757.943793
3251.134340,-1998.556043,-11621.233289,76.609550
3251.134667,-296.082377,-11029.068536,536.266849
3251.134995,1480.411884,-11473.192101,-919.314598
3251.135322,222.061783,-10362.883188,-995.924147
3251.135650,1110.308913,-9474.636058,-536.266849
3251.135978,666.185348,-9622.677246,-612.876398
3251.136305,-296.082377,-8882.471304,612.876398
3251.136633,370.102971,-9474.636058,612.876398
3251.136960,740.205942,-9844.739029,-229.828649
3251.137288,1110.308913,-8882.471304,-689.485948
3251.137616,1258.350101,-9474.636058,536.266849
3251.137943,962.267725,-10732.986159,306.438199
3251.138271,1406.391290,-11103.089130,-689.485948
3251.138598,1258.350101,-11103.089130,-536.266849
3251.138926,2072.576638,-10140.821405,-306.438199
3251.139253,2442.679609,-10955.047942,689.485948
3251.139581,2294.638420,-11399.171507,1532.190996
3251.139909,1850.514855,-9030.512492,1149.143247
3251.140236,1258.350101,-9326.594869,-229.828649
3251.140564,-666.185348,-9104.533087,0.000000
3251.140891,-592.164754,-6661.853478,-766.095498
3251.141219,0.000000,-6809.894666,-612.876398
3251.141547,-1110.308913,-8290.306550,1072.533697
3251.141874,-444.123565,-8956.491898,0.000000
3251.142202,518.144159,-10214.842000,-1455.581446
3251.142529,2812.782580,-10214.842000,-1455.581446
3251.142857,4737.318029,-11029.068536,-1302.362347
3251.143184,2886.803174,-13101.645173,2298.286494
3251.143512,2220.617826,-12287.418637,3370.820191
3251.143840,2220.617826,-9326.594869,306.438199
3251.144167,1702.473667,-8290.306550,-2221.676944
3251.144495,-1406.391290,-9030.512492,-1149.143247
3251.144822,-2072.576638,-9400.615463,-919.314598
3251.145150,-888.247130,-6217.729913,-919.314598
3251.145478,-888.247130,-8364.327145,-229.828649
3251.145805,-296.082377,-9770.718434,536.266849
3251.146133,1258.350101,-8956.491898,689.485948
3251.146460,814.226536,-10288.862594,612.876398
3251.146788,1332.370696,-12879.583391,459.657299
3251.147115,666.185348,-13397.727550,-1072.533697
3251.147443,-814.226536,-9696.697840,-1149.143247
3251.147771,-518.144159,-8660.409521,-2068.457845
3251.148098,-888.247130,-10732.986159,-612.876398
3251.148426,-1184.329507,-10807.006753,1378.971896
3251.148753,-148.041188,-9252.574275,1455.581446
3251.149081,0.000000,-7179.997637,-1149.143247
3251.149409,-1554.432478,-8660.409521,-383.047749
3251.149736,-2368.659014,-9844.739029,76.609550
3251.150064,-1554.432478,-9104.533087,0.000000
3251.150391,0.000000,-9770.718434,-306.438199
3251.150719,444.123565,-10436.903782,-383.047749
3251.151046,1110.308913,-9770.718434,306.438199
3251.151374,1480.411884,-9474.636058,536.266849
3251.151702,962.267725,-11029.068536,766.095498
3251.152029,-814.226536,-9400.615463,-383.047749
3251.152357,-1110.308913,-9400.615463,-1685.410096
3251.152684,-2368.659014,-8290.306550,-1762.019645
3251.153012,518.144159,-7772.162391,-2068.457845
3251.153340,592.164754,-9992.780217,536.266849
3251.153667,1332.370696,-12583.501014,2757.943793
3251.153995,2812.782580,-11473.192101,1149.143247
3251.154322,1480.411884,-8956.491898,0.000000
3251.154650,-296.082377,-8660.409521,-689.485948
3251.154977,-962.267725,-8438.347739,-919.314598
3251.155305,-1776.494261,-8956.491898,-612.876398
3251.155633,-814.226536,-7920.203579,-995.924147
3251.155960,0.000000,-8586.388927,-459.657299
3251.156288,962.267725,-9548.656652,842.705048
3251.156615,2516.700203,-10732.986159,383.047749
3251.156943,2220.617826,-11843.295072,-995.924147
3251.157271,1258.350101,-12657.521608,-995.924147
3251.157598,962.267725,-11621.233289,-2221.676944
3251.157926,1480.411884,-9474.636058,-2145.067394
3251.158253,962.267725,-8586.388927,-842.705048
3251.158581,814.226536,-9474.636058,1072.533697
3251.158908,2738.761985,-9400.615463,2221.676944
3251.159236,2442.679609,-8290.306550,1302.362347
3251.159564,1554.432478,-9474.636058,153.219100
3251.159891,1998.556043,-8956.491898,-612.876398
3251.160219,518.144159,-8956.491898,-306.438199
3251.160546,222.061783,-10584.944971,0.000000
3251.160874,1776.494261,-10955.047942,-919.314598
3251.161202,1332.370696,-10436.903782,-766.095498
3251.161529,2294.638420,-10436.903782,-383.047749
3251.161857,2368.659014,-11843.295072,76.609550
3251.162184,592.164754,-10436.903782,689.485948
3251.162512,370.102971,-9252.574275,-153.219100
3251.162839,-2072.576638,-8734.430116,-919.314598
3251.163167,-3923.091493,-6291.750507,-689.485948
3251.163495,-3182.885551,-6143.709319,-766.095498
3251.163822,-2812.782580,-8734.430116,-919.314598
3251.164150,-518.144159,-11547.212695,-689.485948
3251.164477,666.185348,-11399.171507,-842.705048
3251.164805,1332.370696,-9992.780217,0.000000
3251.165133,2072.576638,-10066.800811,995.924147
3251.165460,1554.432478,-10881.027347,842.705048
3251.165788,0.000000,-9400.615463,459.657299
3251.166115,0.000000,-9474.636058,-612.876398
3251.166443,0.000000,-7698.141797,-1302.362347
3251.166770,0.000000,-7179.997637,-766.095498
3251.167098,-1628.453072,-9548.656652,2298.286494
3251.167426,-1776.494261,-10510.924376,2145.067394
3251.167753,0.000000,-10214.842000,0.000000
3251.168081,0.000000,-9844.739029,-2681.334243
3251.168408,-1406.391290,-8808.450710,-2604.724693
3251.168736,-1554.432478,-9474.636058,-995.924147
3251.169064,74.020594,-9474.636058,0.000000
3251.169391,1628.453072,-10510.924376,153.219100
3251.169719,1998.556043,-10658.965565,1378.971896
3251.170046,2886.803174,-9326.594869,2145.067394
3251.170374,2664.741391,-8290.306550,1685.410096
3251.170701,-222.061783,-9696.697840,919.314598
3251.171029,-2516.700203,-11991.336260,0.000000
3251.171357,-2886.803174,-11399.171507,-2374.896044
3251.171684,-1554.432478,-8734.430116,-3753.867940
3251.172012,74.020594,-8660.409521,-2834.553343
3251.172339,0.000000,-10658.965565,459.657299
3251.172667,740.205942,-10584.944971,2451.505594
3251.172995,2960.823768,-9918.759623,306.438199
3251.173322,2294.638420,-9030.512492,-229.828649
3251.173650,1110.308913,-7772.162391,0.000000
3251.173977,-148.041188,-8660.409521,612.876398
3251.174305,74.020594,-8512.368333,536.266849
3251.174632,2442.679609,-10362.883188,-919.314598
3251.174960,1258.350101,-11621.233289,-1149.143247
3251.175288,1628.453072,-11251.130318,306.438199
3251.175615,2886.803174,-10584.944971,-612.876398
3251.175943,1554.432478,-10732.986159,-919.314598
3251.176270,0.000000,-10140.821405,0.000000
3251.176598,-1776.494261,-8142.265362,229.828649
3251.176926,0.000000,-6439.791695,-1455.581446
3251.177253,0.000000,-6809.894666,-1225.752797
3251.177581,-592.164754,-8068.244768,1225.752797
3251.177908,666.185348,-9844.739029,1455.581446
3251.178236,1998.556043,-11103.089130,-153.219100
3251.178563,1628.453072,-10362.883188,-1838.629195
3251.178891,1776.494261,-10214.842000,-1608.800546
3251.179219,1110.308913,-10955.047942,-1378.971896
3251.179546,1332.370696,-11029.068536,-536.266849
3251.179874,2072.576638,-10436.903782,-536.266849
3251.180201,888.247130,-10140.821405,536.266849
3251.180529,1776.494261,-9326.594869,459.657299
3251.180857,814.226536,-9030.512492,766.095498
3251.181184,-740.205942,-9474.636058,1378.971896
3251.181512,0.000000,-9918.759623,76.609550
3251.181839,-1110.308913,-10658.965565,-1608.800546
3251.182167,-1332.370696,-8142.265362,-2145.067394
3251.182494,-518.144159,-9030.512492,-1915.238745
3251.182822,222.061783,-10732.986159,-306.438199
3251.183150,1554.432478,-12435.459826,919.314598
3251.183477,1850.514855,-11843.295072,459.657299
3251.183805,2516.700203,-8882.471304,-612.876398
3251.184132,370.102971,-9030.512492,-459.657299
3251.184460,-3182.885551,-10510.924376,1378.971896
3251.184788,-4145.153275,-8438.347739,612.876398
3251.185115,-3034.844362,-7698.141797,-2451.505594
3251.185443,-2294.638420,-8216.285956,-3140.991542
3251.185770,-814.226536,-8586.388927,-1532.190996
3251.186098,-444.123565,-9548.656652,1455.581446
3251.186425,962.267725,-10584.944971,2451.505594
3251.186753,2220.617826,-10214.842000,1072.533697
3251.187081,1332.370696,-8808.450710,-689.485948
3251.187408,296.082377,-8660.409521,-306.438199
3251.187736,-888.247130,-9622.677246,383.047749
3251.188063,0.000000,-9104.533087,153.219100
3251.188391,296.082377,-10288.862594,0.000000
3251.188719,-1036.288319,-11473.192101,612.876398
3251.189046,222.061783,-8660.409521,-766.095498
3251.189374,-222.061783,-7402.059420,-842.705048
3251.189701,-592.164754,-11177.109724,-766.095498
3251.190029,-1850.514855,-11029.068536,-459.657299
3251.190356,-888.247130,-8734.430116,-1072.533697
3251.190684,0.000000,-7105.977043,-383.047749
3251.191012,1480.411884,-9474.636058,-229.828649
3251.191339,2294.638420,-11325.150913,2068.457845
3251.191667,2960.823768,-10510.924376,2451.505594
3251.191994,2368.659014,-10066.800811,0.000000
3251.192322,222.061783,-10881.027347,-1532.190996
3251.192650,-1924.535449,-10288.862594,-1915.238745
3251.192977,-1110.308913,-8586.388927,-2068.457845
3251.193305,296.082377,-8882.471304,-1915.238745
3251.193632,1110.308913,-10807.006753,-383.047749
3251.193960,1480.411884,-11621.233289,1072.533697
3251.194287,3478.967927,-9844.739029,536.266849
3251.194615,3256.906145,-9474.636058,-306.438199
3251.194943,1036.288319,-9252.574275,383.047749
3251.195270,222.061783,-9548.656652,919.314598
3251.195598,0.000000,-8512.368333,0.000000
3251.195925,1332.370696,-6735.874072,-842.705048
3251.196253,1998.556043,-8956.491898,-995.924147
3251.196581,0.000000,-11251.130318,1685.410096
3251.196908,666.185348,-10732.986159,1838.629195
3251.197236,1036.288319,-9474.636058,-995.924147
3251.197563,148.041188,-10066.800811,-2374.896044
3251.197891,0.000000,-10140.821405,-1608.800546
3251.198218,1110.308913,-9770.718434,-1225.752797
3251.198546,1184.329507,-8290.306550,459.657299
3251.198874,1110.308913,-9474.636058,2298.286494
3251.199201,0.000000,-9474.636058,2528.115143
3251.199529,-148.041188,-7624.121203,1225.752797
3251.199856,-740.205942,-9030.512492,-153.219100
3251.200184,-1702.473667,-9918.759623,-1838.629195
3251.200512,-2368.659014,-9030.512492,-1302.362347
3251.200839,-2738.761985,-9030.512492,-766.095498
3251.201167,-444.123565,-8068.244768,-1225.752797
3251.201494,740.205942,-10658.965565,-383.047749
3251.201822,814.226536,-13471.748144,1455.581446
3251.202149,1554.432478,-12213.398043,383.047749
3251.202477,1110.308913,-10584.944971,-612.876398
3251.202805,-222.061783,-8512.368333,-766.095498
3251.203132,-1332.370696,-9622.677246,0.000000
3251.203460,-1628.453072,-9696.697840,229.828649
3251.203787,-444.123565,-8438.347739,-306.438199
3251.204115,0.000000,-9030.512492,153.219100
3251.204443,370.102971,-7846.182985,766.095498
3251.204770,0.000000,-8956.491898,0.000000
3251.205098,0.000000,-11029.068536,-459.657299
3251.205425,0.000000,-10881.027347,-842.705048
3251.205753,-370.102971,-11695.253884,-612.876398
3251.206080,-814.226536,-11325.150913,-689.485948
3251.206408,148.041188,-9474.636058,-1762.019645
3251.206736,666.185348,-9252.574275,-1991.848295
3251.207063,-888.247130,-10288.862594,-229.828649
3251.207391,-888.247130,-11695.253884,842.705048
3251.207718,-518.144159,-9178.553681,842.705048
3251.208046,444.123565,-7031.956449,-536.266849
3251.208374,148.041188,-8364.327145,-1072.533697
3251.208701,-1554.432478,-9918.759623,0.000000
3251.209029,-666.185348,-9622.677246,-306.438199
3251.209356,296.082377,-8660.409521,-1838.629195
3251.209684,1258.350101,-7772.162391,-842.705048
3251.210011,1850.514855,-9326.594869,1225.752797
3251.210339,2516.700203,-11547.212695,2528.115143
3251.210667,3256.906145,-10807.006753,1991.848295
3251.210994,2368.659014,-9474.636058,76.609550
3251.211322,518.144159,-8586.388927,-689.485948
3251.211649,0.000000,-8512.368333,0.000000
3251.211977,-518.144159,-8808.450710,-689.485948
3251.212305,-296.082377,-9696.697840,-1149.143247
3251.212632,740.205942,-10732.986159,-1915.238745
3251.212960,2146.597232,-10732.986159,-919.314598
3251.213287,2886.803174,-8660.409521,153.219100
3251.213615,2072.576638,-9474.636058,1532.190996
3251.213943,0.000000,-10955.047942,842.705048
3251.214271,1110.308913,-10214.842000,-1149.143247
3251.214598,1702.473667,-8808.450710,-1915.238745
3251.214926,1702.473667,-8364.327145,229.828649
3251.215254,1258.350101,-10955.047942,2681.334243
3251.215581,1110.308913,-11843.295072,2221.676944
3251.215909,1776.494261,-11843.295072,-995.924147
3251.216237,74.020594,-12435.459826,-2834.553343
3251.216565,-1184.329507,-9326.594869,-2451.505594
3251.216892,-1110.308913,-6883.915261,-2374.896044
3251.217220,-592.164754,-9030.512492,-1532.190996
3251.217548,592.164754,-10140.821405,536.266849
3251.217875,1406.391290,-9918.759623,2298.286494
3251.218203,1776.494261,-8586.388927,2451.505594
3251.218531,1554.432478,-7846.182985,153.219100
3251.218859,-370.102971,-10214.842000,0.000000
3251.219186,-1406.391290,-11547.212695,-766.095498
3251.219514,-1776.494261,-11843.295072,-1838.629195
3251.219842,-888.247130,-9622.677246,-2604.724693
3251.220169,814.226536,-8068.244768,-2068.457845
3251.220497,148.041188,-10288.862594,1608.800546
3251.220825,-296.082377,-9992.780217,2681.334243
3251.221153,-888.247130,-8290.306550,1532.190996
3251.221480,-1332.370696,-8512.368333,-383.047749
3251.221808,-1554.432478,-6439.791695,-995.924147
3251.222136,-2072.576638,-7179.997637,-229.828649
3251.222463,-2368.659014,-8882.471304,1072.533697
3251.222791,-370.102971,-10288.862594,919.314598
3251.223119,1258.350101,-12657.521608,-459.657299
3251.223447,592.164754,-10436.903782,-766.095498
3251.223774,740.205942,-10510.924376,-1225.752797
3251.224102,740.205942,-11621.233289,-1149.143247
3251.224430,0.000000,-11251.130318,0.000000
3251.224757,0.000000,-10658.965565,-459.657299
3251.225085,1110.308913,-9178.553681,-1072.533697
3251.225413,1110.308913,-7920.203579,153.219100
3251.225741,592.164754,-9252.574275,1455.581446
3251.226068,592.164754,-8808.450710,1608.800546
3251.226396,296.082377,-10140.821405,459.657299
3251.226724,1110.308913,-10436.903782,-1915.238745
3251.227051,1258.350101,-8142.265362,-2451.505594
3251.227379,222.061783,-10658.965565,-842.705048
3251.227707,0.000000,-11917.315666,-766.095498
3251.228035,1110.308913,-9918.759623,-766.095498
3251.228362,1184.329507,-9622.677246,-1838.629195
3251.228690,1406.391290,-10584.944971,-689.485948
3251.229018,814.226536,-11177.109724,1302.362347
3251.229345,592.164754,-9178.553681,1532.190996
3251.229673,666.185348,-8956.491898,0.000000
3251.230001,-222.061783,-9474.636058,-1378.971896
3251.230329,-814.226536,-7550.100608,-1532.190996
3251.230656,666.185348,-7031.956449,-1302.362347
3251.230984,1776.494261,-9178.553681,-229.828649
3251.231312,2368.659014,-10214.842000,1532.190996
3251.231639,2442.679609,-10436.903782,2604.724693
3251.231967,2442.679609,-9770.718434,1532.190996
3251.232295,2294.638420,-9474.636058,0.000000
3251.232623,740.205942,-10140.821405,0.000000
3251.232950,-814.226536,-10881.027347,-383.047749
3251.233278,-444.123565,-10807.006753,-766.095498
3251.233606,-666.185348,-8882.471304,-1072.533697
3251.233933,-222.061783,-8216.285956,-612.876398
3251.234261,296.082377,-9474.636058,766.095498
3251.234589,148.041188,-9030.512492,1072.533697
3251.234917,666.185348,-8142.265362,0.000000
3251.235244,-592.164754,-9326.594869,-153.219100
3251.235572,-1332.370696,-8808.450710,-612.876398
3251.235900,888.247130,-9326.594869,-612.876398
3251.236227,444.123565,-10066.800811,536.266849
3251.236555,74.020594,-11399.171507,2145.067394
3251.236883,-444.123565,-11843.295072,842.705048
3251.237211,1406.391290,-11325.150913,-1149.143247
3251.237538,740.205942,-10436.903782,-2374.896044
3251.237866,-1924.535449,-10066.800811,-1685.410096
3251.238194,-2664.741391,-8216.285956,-612.876398
3251.238521,-1258.350101,-8290.306550,-995.924147
3251.238849,222.061783,-8512.368333,-995.924147
3251.239177,370.102971,-8364.327145,842.705048
3251.239504,1480.411884,-9474.636058,2298.286494
3251.239832,1776.494261,-11177.109724,1225.752797
3251.240160,1110.308913,-12435.459826,0.000000
3251.240488,-814.226536,-10732.986159,-1302.362347
3251.240815,-1258.350101,-8512.368333,-2298.286494
3251.241143,-962.267725,-8660.409521,-2681.334243
3251.241471,-888.247130,-9474.636058,-383.047749
3251.241798,1702.473667,-10881.027347,1762.019645
3251.242126,1258.350101,-9548.656652,1455.581446
3251.242454,962.267725,-9252.574275,536.266849
3251.242782,666.185348,-9400.615463,-306.438199
3251.243109,-1184.329507,-9696.697840,76.609550
3251.243437,-1110.308913,-9918.759623,153.219100
3251.243765,-666.185348,-8216.285956,-1302.362347
3251.244092,-370.102971,-6957.935855,-919.314598
3251.244420,814.226536,-8956.491898,536.266849
3251.244748,1480.411884,-10658.965565,1302.362347
3251.245076,1554.432478,-10288.862594,1302.362347
3251.245403,1480.411884,-10955.047942,229.828649
3251.245731,592.164754,-9992.780217,-1762.019645
3251.246059,1184.329507,-10807.006753,-1991.848295
3251.246386,592.164754,-9622.677246,-919.314598
3251.246714,74.020594,-9770.718434,766.095498
3251.247042,1036.288319,-11325.150913,766.095498
3251.247370,962.267725,-9992.780217,306.438199
3251.247697,1036.288319,-7550.100608,-229.828649
3251.248025,962.267725,-8290.306550,-689.485948
3251.248353,370.102971,-9252.574275,-383.047749
3251.248680,888.247130,-9696.697840,0.000000
3251.249008,74.020594,-9770.718434,229.828649
3251.249336,0.000000,-10066.800811,-842.705048
3251.249664,962.267725,-10066.800811,-1302.362347
3251.249991,666.185348,-10955.047942,-1915.238745
3251.250319,296.082377,-13249.686362,-1532.190996
3251.250647,444.123565,-12953.603985,0.000000
3251.250974,1036.288319,-9918.759623,-536.266849
3251.251302,740.205942,-8216.285956,-1072.533697
3251.251630,-740.205942,-8364.327145,-536.266849
3251.251958,-1036.288319,-7772.162391,153.219100
3251.252285,0.000000,-7624.121203,0.000000
3251.252613,222.061783,-7550.100608,229.828649
3251.252941,962.267725,-6439.791695,766.095498
3251.253268,1036.288319,-9030.512492,1685.410096
3251.253596,444.123565,-12139.377449,2451.505594
3251.253924,1332.370696,-12361.439231,0.000000
3251.254252,0.000000,-10732.986159,-1838.629195
3251.254579,0.000000,-10436.903782,-2451.505594
3251.254907,-444.123565,-11399.171507,-1225.752797
3251.255235,-814.226536,-8290.306550,-536.266849
3251.255562,-740.205942,-7476.080014,1455.581446
3251.255890,666.185348,-10066.800811,1991.848295
3251.256218,1850.514855,-7846.182985,1302.362347
3251.256546,296.082377,-6957.935855,612.876398
3251.256873,-1924.535449,-8882.471304,0.000000
3251.257201,-1776.494261,-10732.986159,-689.485948
3251.257529,-888.247130,-10807.006753,-1532.190996
3251.257856,-814.226536,-9548.656652,-689.485948
3251.258184,444.123565,-9326.594869,-229.828649
3251.258512,1924.535449,-11547.212695,-383.047749
3251.258840,1628.453072,-12213.398043,536.266849
3251.259167,1110.308913,-11695.253884,459.657299
3251.259495,296.082377,-9030.512492,-536.266849
3251.259823,-888.247130,-7328.038826,-1302.362347
3251.260150,-1850.514855,-8364.327145,-1072.533697
3251.260478,-1480.411884,-9326.594869,-995.924147
3251.260806,0.000000,-10732.986159,536.266849
3251.261134,1406.391290,-11103.089130,766.095498
3251.261461,2146.597232,-10288.862594,-459.657299
3251.261789,1406.391290,-11399.171507,-1915.238745
3251.262117,-222.061783,-10510.924376,76.609550
3251.262444,0.000000,-9474.636058,-612.876398
3251.262772,-222.061783,-8142.265362,-1378.971896
3251.263100,-370.102971,-7105.977043,0.000000
3251.263428,1036.288319,-8956.491898,919.314598
3251.263755,1406.391290,-11547.212695,1915.238745
3251.264083,2368.659014,-11991.336260,1455.581446
3251.264411,1406.391290,-10955.047942,-689.485948
3251.264738,-740.205942,-9030.512492,-1455.581446
3251.265066,-518.144159,-8438.347739,-1532.190996
3251.265394,-1184.329507,-8512.368333,-919.314598
3251.265722,-1332.370696,-7994.224174,459.657299
3251.266049,444.123565,-8882.471304,536.266849
3251.266377,1036.288319,-9252.574275,1302.362347
3251.266705,1406.391290,-9474.636058,1685.410096
3251.267032,1554.432478,-9696.697840,689.485948
3251.267360,-222.061783,-10658.965565,0.000000
3251.267688,0.000000,-11769.274478,-1225.752797
3251.268016,-222.061783,-11029.068536,-1762.019645
3251.268343,0.000000,-9696.697840,-1225.752797
3251.268671,444.123565,-10066.800811,-459.657299
3251.268999,1184.329507,-10955.047942,919.314598
3251.269326,888.247130,-8956.491898,306.438199
3251.269654,592.164754,-8586.388927,459.657299
3251.269982,0.000000,-7846.182985,306.438199
3251.270310,148.041188,-8956.491898,0.000000
3251.270637,-962.267725,-8216.285956,-383.047749
3251.270965,-1258.350101,-8142.265362,153.219100
3251.271293,-1036.288319,-12213.398043,612.876398
3251.271620,-814.226536,-12435.459826,-1225.752797
3251.271948,1036.288319,-10955.047942,-2374.896044
3251.272276,814.226536,-10362.883188,-2451.505594
3251.272604,296.082377,-11917.315666,-995.924147
3251.272931,74.020594,-11991.336260,919.314598
3251.273259,0.000000,-8142.265362,689.485948
3251.273587,814.226536,-7105.977043,0.000000
3251.273914,-444.123565,-8882.471304,459.657299
3251.274242,-1110.308913,-8586.388927,76.609550
3251.274570,-444.123565,-8290.306550,306.438199
3251.274898,-370.102971,-9622.677246,0.000000
3251.275225,0.000000,-9474.636058,0.000000
3251.275553,740.205942,-9474.636058,229.828649
3251.275881,592.164754,-10584.944971,459.657299
3251.276208,1110.308913,-10955.047942,153.219100
3251.276536,444.123565,-9400.615463,-536.266849
3251.276864,0.000000,-8364.327145,0.000000
3251.277192,888.247130,-9474.636058,0.000000
3251.277519,518.144159,-9844.739029,536.266849
3251.277847,0.000000,-9252.574275,1915.238745
3251.278175,222.061783,-9622.677246,1302.362347
3251.278502,592.164754,-8734.430116,-689.485948
3251.278830,-592.164754,-7698.141797,-1378.971896
3251.279158,-2960.823768,-9474.636058,-612.876398
3251.279486,-1998.556043,-9622.677246,-995.924147
3251.279813,444.123565,-10362.883188,-1149.143247
3251.280141,2146.597232,-10066.800811,153.219100
3251.280469,2220.617826,-9474.636058,1225.752797
3251.280796,1924.535449,-11177.109724,2145.067394
3251.281124,1776.494261,-11399.171507,76.609550
3251.281452,1110.308913,-10510.924376,-1685.410096
3251.281780,-666.185348,-9474.636058,-2145.067394
3251.282107,-1332.370696,-7698.141797,-1762.019645
3251.282435,0.000000,-8956.491898,-689.485948
3251.282763,222.061783,-10140.821405,842.705048
3251.283090,962.267725,-10288.862594,76.609550
3251.283418,814.226536,-11399.171507,842.705048
3251.283746,1480.411884,-9992.780217,-919.314598
3251.284074,1628.453072,-9844.739029,-1378.971896
3251.284401,222.061783,-9992.780217,-536.266849
3251.284729,-148.041188,-9326.594869,-306.438199
3251.285057,370.102971,-10510.924376,-919.314598
3251.285384,1110.308913,-9400.615463,229.828649
3251.285712,1850.514855,-8956.491898,766.095498
3251.286040,962.267725,-10288.862594,689.485948
3251.286367,222.061783,-10362.883188,0.000000
3251.286695,-592.164754,-9696.697840,-459.657299
3251.287023,-148.041188,-8512.368333,-1685.410096
3251.287351,-666.185348,-7031.956449,-306.438199
3251.287678,-296.082377,-8364.327145,1225.752797
3251.288006,-296.082377,-9770.718434,1072.533697
3251.288334,0.000000,-10436.903782,1762.019645
3251.288661,148.041188,-9844.739029,0.000000
3251.288989,814.226536,-9474.636058,-1762.019645
3251.289317,444.123565,-9252.574275,-459.657299
3251.289645,-592.164754,-10362.883188,229.828649
3251.289972,-518.144159,-10214.842000,306.438199
3251.290300,-296.082377,-10288.862594,0.000000
3251.290628,148.041188,-8438.347739,-995.924147
3251.290955,1406.391290,-7920.203579,-766.095498
3251.291283,592.164754,-10584.944971,995.924147
3251.291611,666.185348,-10955.047942,2298.286494
3251.291939,1480.411884,-10955.047942,459.657299
3251.292266,-370.102971,-9252.574275,-1072.533697
3251.292594,-1036.288319,-8364.327145,-919.314598
3251.292922,-1406.391290,-9474.636058,-1225.752797
3251.293249,-2072.576638,-10658.965565,-459.657299
3251.293577,0.000000,-11177.109724,-1532.190996
3251.293905,1554.432478,-10436.903782,-1302.362347
3251.294233,2368.659014,-11473.192101,229.828649
3251.294560,1406.391290,-11621.233289,1149.143247
3251.294888,0.000000,-10362.883188,1072.533697
3251.295216,-444.123565,-9992.780217,-842.705048
3251.295543,-1480.411884,-9548.656652,-2068.457845
3251.295871,-1184.329507,-6957.935855,-2374.896044
3251.296199,296.082377,-6735.874072,-766.095498
3251.296527,1258.350101,-9030.512492,1532.190996
3251.296854,1776.494261,-10214.842000,3217.601092
3251.297182,2442.679609,-10436.903782,2145.067394
3251.297510,1850.514855,-9918.759623,76.609550
3251.297837,1184.329507,-9326.594869,-1455.581446
3251.298165,0.000000,-8290.306550,-1838.629195
3251.298493,-222.061783,-10214.842000,-306.438199
3251.298821,444.123565,-11917.315666,-459.657299
3251.299148,1628.453072,-9770.718434,-459.657299
3251.299476,2146.597232,-8068.244768,76.609550
3251.299804,2146.597232,-9474.636058,612.876398
3251.300131,296.082377,-9326.594869,1225.752797
3251.300459,-740.205942,-8660.409521,306.438199
3251.300787,-2516.700203,-7920.203579,-536.266849
3251.301115,-1184.329507,-8142.265362,-1685.410096
3251.301442,444.123565,-9696.697840,-766.095498
3251.301770,444.123565,-10658.965565,766.095498
3251.302098,962.267725,-11621.233289,1685.410096
3251.302425,2220.617826,-13397.727550,-229.828649
3251.302753,2590.720797,-11843.295072,-1991.848295
3251.303081,1184.329507,-9178.553681,-1532.190996
3251.303409,-814.226536,-8216.285956,-459.657299
3251.303736,-962.267725,-7772.162391,0.000000
3251.304064,296.082377,-9400.615463,229.828649
3251.304392,592.164754,-9548.656652,-306.438199
3251.304719,222.061783,-9474.636058,766.095498
3251.305047,962.267725,-11325.150913,536.266849
3251.305375,1036.288319,-12509.480420,-383.047749
3251.305703,0.000000,-12139.377449,-1225.752797
3251.306030,-962.267725,-8512.368333,-3140.991542
3251.306358,-814.226536,-6883.915261,-3294.210641
3251.306686,962.267725,-9918.759623,-919.314598
3251.307013,1332.370696,-10658.965565,2374.896044
3251.307341,2368.659014,-9548.656652,3064.381992
3251.307669,2590.720797,-8660.409521,2374.896044
3251.307997,518.144159,-9104.533087,612.876398
3251.308324,-888.247130,-9844.739029,-612.876398
3251.308652,-2590.720797,-8808.450710,0.000000
3251.308980,-1776.494261,-8882.471304,-1072.533697
3251.309307,-1258.350101,-9326.594869,-1838.629195
3251.309635,-370.102971,-9252.574275,-1149.143247
3251.309963,222.061783,-8882.471304,536.266849
3251.310291,1628.453072,-10140.821405,459.657299
3251.310618,2072.576638,-9770.718434,153.219100
3251.310946,1036.288319,-9844.739029,1302.362347
3251.311274,296.082377,-8882.471304,306.438199
3251.311601,888.247130,-8734.430116,-229.828649
3251.311929,-222.061783,-10510.924376,383.047749
3251.312257,444.123565,-10510.924376,229.828649
3251.312585,814.226536,-10140.821405,-76.609550
3251.312912,518.144159,-10807.006753,-459.657299
3251.313240,666.185348,-9918.759623,-1685.410096
3251.313568,1628.453072,-9474.636058,-1532.190996
3251.313895,666.185348,-9474.636058,-536.266849
3251.314223,222.061783,-9178.553681,1378.971896
3251.314551,-592.164754,-8512.368333,1149.143247
3251.314878,-814.226536,-9992.780217,0.000000
3251.315206,296.082377,-11029.068536,-1225.752797
3251.315534,1184.329507,-10807.006753,-2604.724693
3251.315861,518.144159,-11695.253884,-766.095498
3251.316189,296.082377,-12953.603985,459.657299
3251.316517,370.102971,-9770.718434,-1149.143247
3251.316844,1110.308913,-8734.430116,-2834.553343
3251.317172,-592.164754,-9178.553681,-1532.190996
3251.317500,-814.226536,-8142.265362,229.828649
3251.317827,296.082377,-8068.244768,919.314598
3251.318155,666.185348,-7698.141797,1608.800546
3251.318483,888.247130,-8438.347739,2681.334243
3251.318810,962.267725,-9844.739029,2374.896044
3251.319138,1036.288319,-10955.047942,536.266849
3251.319466,1184.329507,-12509.480420,-919.314598
3251.319793,-296.082377,-9474.636058,-3600.648841
3251.320121,-370.102971,-8068.244768,-2987.772442
3251.320449,-370.102971,-9030.512492,-1302.362347
3251.320776,0.000000,-9104.533087,459.657299
3251.321104,740.205942,-9030.512492,2068.457845
3251.321432,1406.391290,-9178.553681,2757.943793
3251.321759,1776.494261,-7624.121203,1378.971896
3251.322087,1110.308913,-8068.244768,0.000000
3251.322415,-1554.432478,-9474.636058,612.876398
3251.322742,-2072.576638,-9844.739029,-383.047749
3251.323070,-518.144159,-11029.068536,-2374.896044
3251.323398,222.061783,-10732.986159,-2528.115143
3251.323725,666.185348,-10214.842000,-1532.190996
3251.324053,1406.391290,-10510.924376,459.657299
3251.324381,1924.535449,-11769.274478,-536.266849
3251.324708,1036.288319,-10732.986159,383.047749
3251.325036,-148.041188,-8068.244768,-766.095498
3251.325364,-1480.411884,-7105.977043,-1149.143247
3251.325691,-296.082377,-8142.265362,-689.485948
3251.326019,0.000000,-9548.656652,459.657299
3251.326347,370.102971,-12435.459826,842.705048
3251.326674,370.102971,-12287.418637,842.705048
3251.327002,1110.308913,-10658.965565,-2221.676944
3251.327330,1258.350101,-11325.150913,-3524.039291
3251.327657,-666.185348,-9622.677246,-2451.505594
3251.327985,-1480.411884,-8142.265362,-1608.800546
3251.328313,-296.082377,-9178.553681,0.000000
3251.328640,1480.411884,-9178.553681,995.924147
3251.328968,2886.803174,-9770.718434,2757.943793
3251.329296,2368.659014,-9326.594869,2757.943793
3251.329623,0.000000,-10362.883188,2604.724693
3251.329951,-518.144159,-11177.109724,-536.266849
3251.330279,-1110.308913,-8438.347739,-3447.429741
3251.330606,-1776.494261,-7179.997637,-3294.210641
3251.330934,-1702.473667,-6957.935855,-1532.190996
3251.331262,148.041188,-8438.347739,766.095498
3251.331589,1480.411884,-10658.965565,2451.505594
3251.331917,1850.514855,-10140.821405,1838.629195
3251.332245,2368.659014,-8956.491898,383.047749
3251.332572,1776.494261,-10140.821405,306.438199
3251.332900,0.000000,-9918.759623,842.705048
3251.333228,0.000000,-10732.986159,-153.219100
3251.333555,-444.123565,-10066.800811,-1378.971896
3251.333883,222.061783,-8956.491898,-1072.533697
3251.334211,888.247130,-9474.636058,-1455.581446
3251.334538,-296.082377,-10066.800811,0.000000
3251.334866,-814.226536,-9400.615463,1225.752797
3251.335194,0.000000,-9474.636058,0.000000
3251.335521,518.144159,-9030.512492,-1762.019645
3251.335849,-296.082377,-8956.491898,0.000000
3251.336177,0.000000,-10140.821405,1225.752797
3251.336504,0.000000,-13027.624579,995.924147
3251.336832,74.020594,-13915.871710,-689.485948
3251.337160,1184.329507,-10436.903782,-3447.429741
3251.337487,1480.411884,-9104.533087,-2757.943793
3251.337815,0.000000,-10362.883188,0.000000
3251.338143,-370.102971,-9992.780217,1072.533697
3251.338470,666.185348,-9770.718434,306.438199
3251.338798,148.041188,-7920.203579,-919.314598
3251.339126,0.000000,-7476.080014,-842.705048
3251.339453,0.000000,-7994.224174,0.000000
3251.339781,-222.061783,-9252.574275,995.924147
3251.340109,370.102971,-10881.027347,1838.629195
3251.340436,1406.391290,-10140.821405,459.657299
3251.340764,2146.597232,-10214.842000,0.000000
3251.341092,2072.576638,-9992.780217,0.000000
3251.341419,0.000000,-9548.656652,-459.657299
3251.341747,-592.164754,-9474.636058,0.000000
3251.342075,-1332.370696,-9104.533087,-1072.533697
3251.342402,148.041188,-7698.141797,-1302.362347
3251.342730,962.267725,-7698.141797,842.705048
3251.343058,74.020594,-8364.327145,2834.553343
3251.343385,1110.308913,-10584.944971,2221.676944
3251.343713,1332.370696,-11325.150913,689.485948
3251.344041,-1036.288319,-9252.574275,-995.924147
3251.344368,-1924.535449,-7550.100608,-1838.629195
3251.344696,-1258.350101,-9326.594869,-2604.724693
3251.345024,-444.123565,-11103.089130,0.000000
3251.345351,1110.308913,-10436.903782,1378.971896
3251.345679,1036.288319,-10066.800811,995.924147
3251.346007,1184.329507,-10807.006753,0.000000
3251.346334,370.102971,-11177.109724,-766.095498
3251.346662,-296.082377,-9844.739029,-1302.362347
3251.346990,-962.267725,-10066.800811,-1072.533697
3251.347317,-444.123565,-9622.677246,-1915.238745
3251.347645,444.123565,-7994.224174,-1532.190996
3251.347973,740.205942,-9400.615463,536.266849
3251.348300,370.102971,-11473.192101,2145.067394
3251.348628,1258.350101,-11769.274478,1532.190996
3251.348956,962.267725,-9474.636058,-919.314598
3251.349283,518.144159,-7772.162391,-2528.115143
3251.349611,0.000000,-8660.409521,-1762.019645
3251.349939,222.061783,-9474.636058,-229.828649
3251.350266,666.185348,-10658.965565,766.095498
3251.350594,1850.514855,-11103.089130,1302.362347
3251.350922,1998.556043,-9178.553681,0.000000
3251.351249,518.144159,-9548.656652,229.828649
3251.351577,-740.205942,-10288.862594,766.095498
3251.351905,-1184.329507,-8290.306550,-842.705048
3251.352232,-592.164754,-8290.306550,-1378.971896
3251.352560,-592.164754,-6957.935855,-766.095498
3251.352888,-444.123565,-7031.956449,842.705048
3251.353215,814.226536,-9474.636058,1915.238745
3251.353543,1036.288319,-10584.944971,1302.362347
3251.353871,1554.432478,-11843.295072,-153.219100
3251.354198,1628.453072,-11177.109724,-995.924147
3251.354526,-148.041188,-9770.718434,-1302.362347
3251.354854,888.247130,-10955.047942,-766.095498
3251.355181,296.082377,-10955.047942,-536.266849
3251.355509,0.000000,-9548.656652,689.485948
3251.355837,1036.288319,-8438.347739,689.485948
3251.356164,1406.391290,-7772.162391,612.876398
3251.356492,0.000000,-7994.224174,1072.533697
3251.356820,-962.267725,-9252.574275,919.314598
3251.357147,370.102971,-9992.780217,-766.095498
3251.357475,0.000000,-10362.883188,-766.095498
3251.357803,-518.144159,-10066.800811,-995.924147
3251.358130,-296.082377,-11103.089130,-919.314598
3251.358458,0.000000,-11547.212695,-1072.533697
3251.358786,888.247130,-10584.944971,-2145.067394
3251.359113,1332.370696,-10807.006753,-1072.533697
3251.359441,148.041188,-10658.965565,689.485948
3251.359769,-518.144159,-7994.224174,1149.143247
3251.360096,0.000000,-8734.430116,0.000000
3251.360424,-666.185348,-9548.656652,-1302.362347
3251.360752,-1332.370696,-10214.842000,-842.705048
3251.361079,-1258.350101,-8660.409521,-536.266849
3251.361407,148.041188,-7105.977043,-766.095498
3251.361735,888.247130,-10066.800811,153.219100
3251.362062,1110.308913,-10362.883188,1302.362347
3251.362390,1036.288319,-10140.821405,1762.019645
3251.362718,1480.411884,-10510.924376,1149.143247
3251.363045,1036.288319,-9696.697840,-383.047749
3251.363373,148.041188,-9696.697840,-689.485948
3251.363701,-1406.391290,-8660.409521,383.047749
3251.364028,-962.267725,-7994.224174,0.000000
3251.364356,0.000000,-9548.656652,153.219100
3251.364684,814.226536,-9918.759623,76.609550
3251.365011,1258.350101,-9474.636058,459.657299
3251.365339,1036.288319,-8956.491898,-229.828649
3251.365667,-1110.308913,-8586.388927,0.000000
3251.365994,-2146.597232,-9400.615463,-612.876398
3251.366322,-1702.473667,-9548.656652,-612.876398
3251.366650,296.082377,-9400.615463,-306.438199
3251.366977,2368.659014,-9770.718434,153.219100
3251.367305,2220.617826,-11843.295072,1225.752797
3251.367633,1332.370696,-12657.521608,1378.971896
3251.367960,1924.535449,-11251.130318,-1072.533697
3251.368288,-296.082377,-8142.265362,-2451.505594
3251.368616,-1776.494261,-8216.285956,-2681.334243
3251.368943,-2146.597232,-8586.388927,-1608.800546
3251.369271,0.000000,-9178.553681,-383.047749
3251.369599,1554.432478,-11177.109724,689.485948
3251.369926,1554.432478,-12139.377449,1838.629195
3251.370254,2516.700203,-11399.171507,1302.362347
3251.370582,2294.638420,-10140.821405,-153.219100
3251.370909,370.102971,-9622.677246,-1685.410096
3251.371237,-296.082377,-9844.739029,-2145.067394
3251.371565,-592.164754,-9474.636058,-1685.410096
3251.371892,1184.329507,-8734.430116,-536.266849
3251.372220,1258.350101,-8438.347739,1149.143247
3251.372548,1036.288319,-10066.800811,919.314598
3251.372875,444.123565,-11547.212695,1762.019645
3251.373203,0.000000,-10066.800811,-612.876398
3251.373531,-148.041188,-7698.141797,-2221.676944
3251.373858,-444.123565,-7846.182985,-1685.410096
3251.374186,-1258.350101,-7476.080014,76.609550
3251.374514,-666.185348,-8216.285956,2145.067394
3251.374841,1406.391290,-10436.903782,1762.019645
3251.375169,2812.782580,-9844.739029,0.000000
3251.375497,1924.535449,-9696.697840,0.000000
3251.375824,518.144159,-9696.697840,0.000000
3251.376152,222.061783,-10881.027347,-383.047749
3251.376480,444.123565,-11251.130318,-1149.143247
3251.376807,-592.164754,-8660.409521,-1378.971896
3251.377135,962.267725,-8290.306550,-536.266849
3251.377463,1184.329507,-9178.553681,766.095498
3251.377790,814.226536,-10214.842000,1149.143247
3251.378118,888.247130,-11029.068536,842.705048
3251.378446,962.267725,-10140.821405,-1685.410096
3251.378773,666.185348,-9326.594869,-1991.848295
3251.379101,370.102971,-9622.677246,-536.266849
3251.379429,74.020594,-8956.491898,153.219100
3251.379756,814.226536,-10955.047942,0.000000
3251.380084,1702.473667,-11695.253884,-383.047749
3251.380412,444.123565,-9474.636058,-383.047749
3251.380739,-1036.288319,-10584.944971,536.266849
3251.381067,-1850.514855,-10732.986159,-995.924147
3251.381395,-1480.411884,-10510.924376,-1838.629195
3251.381722,-888.247130,-10140.821405,-3983.696590
3251.382050,0.000000,-7846.182985,-2221.676944
3251.382378,148.041188,-8438.347739,1072.533697
3251.382705,666.185348,-9474.636058,2298.286494
3251.383033,888.247130,-9474.636058,1685.410096
3251.383361,518.144159,-9918.759623,689.485948
3251.383688,-148.041188,-9104.533087,0.000000
3251.384016,-1258.350101,-8512.368333,-536.266849
3251.384344,-1776.494261,-8586.388927,-766.095498
3251.384671,-1184.329507,-9548.656652,383.047749
3251.384999,0.000000,-11103.089130,689.485948
3251.385327,0.000000,-9696.697840,536.266849
3251.385654,1258.350101,-8882.471304,-766.095498
3251.385982,518.144159,-10066.800811,-1302.362347
3251.386310,-370.102971,-9030.512492,76.609550
3251.386637,74.020594,-9030.512492,76.609550
3251.386965,-296.082377,-8882.471304,536.266849
3251.387293,148.041188,-8438.347739,459.657299
3251.387620,1110.308913,-9474.636058,995.924147
3251.387948,1554.432478,-10140.821405,1149.143247
3251.388276,1628.453072,-10288.862594,0.000000
3251.388603,740.205942,-11399.171507,-766.095498
3251.388931,-370.102971,-10362.883188,-2451.505594
3251.389259,-1036.288319,-9252.574275,-1532.190996
3251.389586,0.000000,-8882.471304,-1072.533697
3251.389914,1184.329507,-9474.636058,-229.828649
3251.390242,1332.370696,-11325.150913,995.924147
3251.390569,1036.288319,-9770.718434,612.876398
3251.390897,1184.329507,-9326.594869,-536.266849
3251.391225,-222.061783,-10214.842000,0.000000
3251.391552,-1258.350101,-10214.842000,-689.485948
3251.391880,-814.226536,-10436.903782,-1532.190996
3251.392208,370.102971,-8956.491898,-2374.896044
3251.392535,1184.329507,-9104.533087,-1378.971896
3251.392863,2220.617826,-11325.150913,842.705048
3251.393191,1776.494261,-11325.150913,2145.067394
3251.393518,2146.597232,-9918.759623,842.705048
3251.393846,888.247130,-9400.615463,-1225.752797
3251.394174,-370.102971,-8808.450710,-766.095498
3251.394501,-1036.288319,-8364.327145,-306.438199
3251.394829,-1332.370696,-8882.471304,459.657299
3251.395157,-444.123565,-10066.800811,1149.143247
3251.395484,1036.288319,-11473.192101,919.314598
3251.395812,1184.329507,-10066.800811,-306.438199
3251.396140,888.247130,-9400.615463,-306.438199
3251.396467,1184.329507,-9326.594869,-383.047749
3251.396795,1406.391290,-9104.533087,0.000000
3251.397123,222.061783,-9474.636058,1455.581446
3251.397450,222.061783,-8364.327145,1532.190996
3251.397778,740.205942,-8956.491898,1225.752797
3251.398106,296.082377,-10510.924376,459.657299
3251.398433,-370.102971,-9992.780217,-689.485948
3251.398761,-444.123565,-9918.759623,-919.314598
3251.399089,-444.123565,-9548.656652,-995.924147
3251.399416,370.102971,-9104.533087,-919.314598
3251.399744,740.205942,-8734.430116,-766.095498
3251.400072,0.000000,-8290.306550,-229.828649
3251.400399,296.082377,-9844.739029,919.314598
3251.400727,370.102971,-10362.883188,766.095498
3251.401055,0.000000,-10510.924376,612.876398
3251.401382,962.267725,-11029.068536,-536.266849
3251.401710,296.082377,-10140.821405,-1455.581446
3251.402038,-1332.370696,-10658.965565,-306.438199
3251.402365,-3034.844362,-10362.883188,-766.095498
3251.402693,-2220.617826,-9030.512492,-2834.553343
3251.403021,-666.185348,-9474.636058,-2911.162892
3251.403348,370.102971,-9622.677246,-1762.019645
3251.403676,1258.350101,-8956.491898,536.266849
3251.404004,1850.514855,-11029.068536,2451.505594
3251.404331,1776.494261,-10584.944971,1378.971896
3251.404659,1628.453072,-9474.636058,-229.828649
3251.404987,-666.185348,-9992.780217,-383.047749
3251.405314,-888.247130,-10881.027347,-306.438199
3251.405642,-444.123565,-10140.821405,-306.438199
3251.405970,222.061783,-7920.203579,-1608.800546
3251.406297,666.185348,-8660.409521,-689.485948
3251.406625,222.061783,-10066.800811,1378.971896
3251.406953,148.041188,-8438.347739,1072.533697
3251.407280,814.226536,-8956.491898,229.828649
3251.407608,592.164754,-9474.636058,-306.438199
3251.407936,0.000000,-7698.141797,0.000000
3251.408263,148.041188,-7772.162391,766.095498
3251.408591,148.041188,-8290.306550,1608.800546
3251.408919,1332.370696,-10584.944971,1149.143247
3251.409246,1184.329507,-11621.233289,0.000000
3251.409574,1702.473667,-10066.800811,-612.876398
3251.409902,1998.556043,-8660.409521,-1685.410096
3251.410229,444.123565,-9622.677246,-995.924147
3251.410557,-1406.391290,-9918.759623,-383.047749
3251.410885,-592.164754,-10362.883188,-459.657299
3251.411212,962.267725,-8882.471304,-842.705048
3251.411540,2886.803174,-10066.800811,-612.876398
3251.411868,1184.329507,-10955.047942,1149.143247
3251.412195,740.205942,-10140.821405,1532.190996
3251.412523,962.267725,-11325.150913,-689.485948
3251.412851,0.000000,-11843.295072,-1685.410096
3251.413178,-1258.350101,-9400.615463,-2528.115143
3251.413506,-1258.350101,-7846.182985,-2145.067394
3251.413834,444.123565,-8586.388927,-689.485948
3251.414161,1702.473667,-11843.295072,1225.752797
3251.414489,592.164754,-12583.501014,1455.581446
3251.414817,1332.370696,-10362.883188,842.705048
3251.415144,2072.576638,-9548.656652,-1225.752797
3251.415472,-148.041188,-9548.656652,-1608.800546
3251.415800,-2294.638420,-8512.368333,306.438199
3251.416127,-2294.638420,-8586.388927,-459.657299
3251.416455,-518.144159,-7846.182985,-1302.362347
3251.416783,370.102971,-8068.244768,0.000000
3251.417110,-222.061783,-9104.533087,536.266849
3251.417438,-296.082377,-10214.842000,919.314598
3251.417766,296.082377,-10732.986159,-153.219100
3251.418094,0.000000,-9326.594869,-1072.533697
3251.418421,74.020594,-8512.368333,-689.485948
3251.418749,148.041188,-9104.533087,1455.581446
3251.419077,518.144159,-9326.594869,2145.067394
3251.419404,1184.329507,-11547.212695,919.314598
3251.419732,-518.144159,-11177.109724,0.000000
3251.420060,0.000000,-8956.491898,-766.095498
3251.420387,296.082377,-7698.141797,-1608.800546
3251.420715,-370.102971,-8512.368333,-689.485948
3251.421043,-814.226536,-9474.636058,76.609550
3251.421370,296.082377,-9770.718434,459.657299
3251.421698,518.144159,-9474.636058,0.000000
3251.422026,1628.453072,-10288.862594,0.000000
3251.422353,1406.391290,-11177.109724,229.828649
3251.422681,888.247130,-12509.480420,919.314598
3251.423009,1184.329507,-11547.212695,-306.438199
3251.423336,518.144159,-8586.388927,-1455.581446
3251.423664,-1554.432478,-8660.409521,-536.266849
3251.423992,-2960.823768,-9252.574275,-689.485948
3251.424320,-1998.556043,-8068.244768,-1762.019645
3251.424647,0.000000,-9178.553681,-1762.019645
3251.424975,1406.391290,-9548.656652,-459.657299
3251.425303,2294.638420,-9548.656652,1225.752797
3251.425630,1184.329507,-10214.842000,2451.505594
3251.425958,2368.659014,-11325.150913,1302.362347
3251.426286,2220.617826,-11769.274478,-536.266849
3251.426613,148.041188,-10436.903782,-1225.752797
3251.426941,-370.102971,-7920.203579,-612.876398
3251.427269,444.123565,-7624.121203,0.000000
3251.427596,814.226536,-8660.409521,919.314598
3251.427924,444.123565,-10584.944971,2068.457845
3251.428252,0.000000,-9622.677246,1302.362347
3251.428579,444.123565,-8364.327145,-1762.019645
3251.428907,222.061783,-9252.574275,-1455.581446
3251.429235,-148.041188,-10066.800811,0.000000
3251.429562,444.123565,-10066.800811,1072.533697
3251.429890,1480.411884,-9696.697840,1302.362347
3251.430218,1480.411884,-7698.141797,1455.581446
3251.430546,2294.638420,-8882.471304,383.047749
3251.430873,1554.432478,-9918.759623,536.266849
3251.431201,222.061783,-9326.594869,-383.047749
3251.431529,-1480.411884,-10362.883188,-1455.581446
3251.431856,-1702.473667,-10436.903782,-2451.505594
3251.432184,-592.164754,-8808.450710,-2221.676944
3251.432512,592.164754,-8956.491898,-383.047749
3251.432839,0.000000,-10066.800811,1685.410096
3251.433167,1332.370696,-13027.624579,919.314598
3251.433495,1480.411884,-10732.986159,-766.095498
3251.433822,0.000000,-7994.224174,-1685.410096
3251.434150,-888.247130,-8882.471304,-536.266849
3251.434478,-1628.453072,-8956.491898,-229.828649
3251.434805,-1184.329507,-8068.244768,-536.266849
3251.435133,-740.205942,-9770.718434,-1225.752797
3251.435461,-592.164754,-10658.965565,-842.705048
3251.435788,962.267725,-11547.212695,612.876398
3251.436116,1036.288319,-11547.212695,153.219100
3251.436444,1258.350101,-11473.192101,0.000000
3251.436771,592.164754,-10436.903782,-766.095498
3251.437099,74.020594,-8882.471304,-689.485948
3251.437427,0.000000,-7846.182985,-919.314598
3251.437755,-814.226536,-8142.265362,306.438199
3251.438082,-666.185348,-7994.224174,1685.410096
3251.438410,0.000000,-9622.677246,536.266849
3251.438738,-518.144159,-10066.800811,-612.876398
3251.439065,74.020594,-9178.553681,-842.705048
3251.439393,518.144159,-8956.491898,-1072.533697
3251.439721,1036.288319,-9918.759623,-383.047749
3251.440048,1110.308913,-10807.006753,229.828649
3251.440376,888.247130,-10510.924376,536.266849
3251.440704,1258.350101,-9844.739029,459.657299
3251.441031,1184.329507,-10362.883188,536.266849
3251.441359,1036.288319,-9178.553681,0.000000
3251.441687,296.082377,-7920.203579,76.609550
3251.442014,0.000000,-8882.471304,0.000000
3251.442342,-444.123565,-8586.388927,0.000000
3251.442670,0.000000,-9326.594869,-919.314598
3251.442997,0.000000,-9252.574275,-842.705048
3251.443325,1480.411884,-10214.842000,-1072.533697
3251.443653,2072.576638,-12139.377449,-383.047749
3251.443981,1480.411884,-12731.542202,383.047749
3251.444308,1924.535449,-10584.944971,612.876398
3251.444636,2072.576638,-9696.697840,-995.924147
3251.444964,74.020594,-8216.285956,229.828649
3251.445291,-1480.411884,-8734.430116,842.705048
3251.445619,-2368.659014,-8734.430116,0.000000
3251.445947,-962.267725,-8808.450710,-1302.362347
3251.446274,0.000000,-9326.594869,-1838.629195
3251.446602,1184.329507,-9474.636058,-1532.190996
3251.446930,1776.494261,-11621.233289,1072.533697
3251.447257,1998.556043,-12361.439231,1225.752797
3251.447585,2220.617826,-11029.068536,-612.876398
3251.447913,1110.308913,-10732.986159,-1225.752797
3251.448240,222.061783,-9474.636058,-459.657299
3251.448568,814.226536,-7402.059420,536.266849
3251.448896,222.061783,-7698.141797,1762.019645
3251.449223,-296.082377,-7994.224174,2145.067394
3251.449551,-518.144159,-8734.430116,1149.143247
3251.449879,-370.102971,-9474.636058,0.000000
3251.450206,-370.102971,-9326.594869,-1455.581446
3251.450534,-296.082377,-10510.924376,-1915.238745
3251.450862,0.000000,-10955.047942,-919.314598
3251.451190,222.061783,-9548.656652,0.000000
3251.451517,518.144159,-8364.327145,306.438199
3251.451845,1332.370696,-8216.285956,1455.581446
3251.452173,1406.391290,-9548.656652,2451.505594
3251.452500,592.164754,-9474.636058,1302.362347
3251.452828,-1036.288319,-9918.759623,-306.438199
3251.453156,-1702.473667,-9770.718434,-1762.019645
3251.453483,0.000000,-9400.615463,-2911.162892
3251.453811,222.061783,-10510.924376,-1378.971896
3251.454139,0.000000,-11325.150913,0.000000
3251.454466,370.102971,-11103.089130,-229.828649
3251.454794,2146.597232,-10955.047942,-842.705048
3251.455122,2072.576638,-9770.718434,-306.438199
3251.455449,-370.102971,-9030.512492,842.705048
3251.455777,-1480.411884,-8586.388927,1762.019645
3251.456105,-962.267725,-8068.244768,-229.828649
3251.456432,296.082377,-9474.636058,-1532.190996
3251.456760,-592.164754,-9918.759623,-919.314598
3251.457088,-666.185348,-11251.130318,1072.533697
3251.457416,444.123565,-12435.459826,0.000000
3251.457743,222.061783,-11177.109724,-2068.457845
3251.458071,1332.370696,-10214.842000,-2221.676944
3251.458399,518.144159,-8956.491898,-1225.752797
3251.458726,222.061783,-7846.182985,689.485948
3251.459054,74.020594,-8512.368333,1608.800546
3251.459382,-222.061783,-9178.553681,1991.848295
3251.459709,444.123565,-8956.491898,1608.800546
3251.460037,370.102971,-8068.244768,0.000000
3251.460365,-814.226536,-8290.306550,306.438199
3251.460692,962.267725,-10807.006753,-153.219100
3251.461020,1332.370696,-10881.027347,-1225.752797
3251.461348,1036.288319,-9474.636058,-1072.533697
3251.461675,814.226536,-8660.409521,-1302.362347
3251.462003,518.144159,-9400.615463,536.266849
3251.462331,888.247130,-11547.212695,766.095498
3251.462658,0.000000,-10140.821405,612.876398
3251.462986,666.185348,-8586.388927,0.000000
3251.463314,1110.308913,-8438.347739,-306.438199
3251.463642,518.144159,-9326.594869,-306.438199
3251.463969,-222.061783,-9844.739029,536.266849
3251.464297,222.061783,-10732.986159,-536.266849
3251.464625,592.164754,-9622.677246,-2221.676944
3251.464952,888.247130,-9696.697840,-2145.067394
3251.465280,888.247130,-10214.842000,-1225.752797
3251.465608,1406.391290,-11695.253884,459.657299
3251.465935,1702.473667,-11843.295072,919.314598
3251.466263,1184.329507,-10658.965565,306.438199
3251.466591,370.102971,-8956.491898,-766.095498
3251.466918,-1110.308913,-7105.977043,1149.143247
3251.467246,-2368.659014,-7550.100608,1838.629195
3251.467574,-2220.617826,-10362.883188,383.047749
3251.467901,-1702.473667,-10881.027347,-1532.190996
3251.468229,888.247130,-8956.491898,-3447.429741
3251.468557,1258.350101,-9252.574275,-2451.505594
3251.468884,74.020594,-10955.047942,1225.752797
3251.469212,666.185348,-10881.027347,2451.505594
3251.469540,1406.391290,-10288.862594,995.924147
3251.469867,740.205942,-9400.615463,76.609550
3251.470195,518.144159,-9104.533087,229.828649
3251.470523,-370.102971,-7476.080014,1302.362347
3251.470851,-444.123565,-9030.512492,1762.019645
3251.471178,0.000000,-9696.697840,0.000000
3251.471506,-592.164754,-8364.327145,-1149.143247
3251.471834,0.000000,-8586.388927,-1149.143247
3251.472161,666.185348,-10807.006753,-766.095498
3251.472489,296.082377,-9178.553681,0.000000
3251.472817,0.000000,-9474.636058,0.000000
3251.473144,0.000000,-9474.636058,0.000000
3251.473472,444.123565,-8808.450710,536.266849
3251.473800,888.247130,-9474.636058,1915.238745
3251.474127,1258.350101,-10140.821405,2987.772442
3251.474455,1924.535449,-10658.965565,0.000000
3251.474783,74.020594,-10658.965565,-2145.067394
3251.475110,-1702.473667,-9918.759623,-3140.991542
3251.475438,-1924.535449,-9400.615463,-2451.505594
3251.475766,-222.061783,-9030.512492,-1455.581446
3251.476093,1110.308913,-9918.759623,-383.047749
3251.476421,1776.494261,-11991.336260,1685.410096
3251.476749,1702.473667,-10732.986159,1838.629195
3251.477077,1480.411884,-8882.471304,1225.752797
3251.477404,-296.082377,-9030.512492,612.876398
3251.477732,-1332.370696,-9326.594869,-306.438199
3251.478060,-1998.556043,-8956.491898,-1455.581446
3251.478387,-1036.288319,-8660.409521,-2221.676944
3251.478715,1332.370696,-10140.821405,-1378.971896
3251.479043,1184.329507,-11473.192101,0.000000
3251.479370,666.185348,-10658.965565,995.924147
3251.479698,888.247130,-10066.800811,0.000000
3251.480026,148.041188,-9622.677246,-1072.533697
3251.480353,0.000000,-7920.203579,-1072.533697
3251.480681,-370.102971,-7698.141797,229.828649
3251.481009,-370.102971,-8512.368333,1455.581446
3251.481336,1406.391290,-10140.821405,1762.019645
3251.481664,666.185348,-10658.965565,1225.752797
3251.481992,1184.329507,-9770.718434,-995.924147
3251.482319,74.020594,-9548.656652,-1072.533697
3251.482647,-666.185348,-9326.594869,-1762.019645
3251.482975,0.000000,-8216.285956,-1915.238745
3251.483302,-740.205942,-8438.347739,-1225.752797
3251.483630,-888.247130,-8586.388927,76.609550
3251.483958,0.000000,-10288.862594,612.876398
3251.484286,0.000000,-11103.089130,995.924147
3251.484613,592.164754,-10066.800811,383.047749
3251.484941,1406.391290,-9992.780217,-1072.533697
3251.485269,740.205942,-10140.821405,-842.705048
3251.485596,444.123565,-9622.677246,-1149.143247
3251.485924,888.247130,-9474.636058,0.000000
3251.486252,814.226536,-8882.471304,-383.047749
3251.486579,666.185348,-9326.594869,0.000000
3251.486907,296.082377,-10214.842000,0.000000
3251.487235,-370.102971,-9548.656652,-229.828649
3251.487562,0.000000,-11251.130318,306.438199
3251.487890,740.205942,-10584.944971,-919.314598
3251.488218,-666.185348,-10288.862594,229.828649
3251.488545,-1332.370696,-10288.862594,0.000000
3251.488873,-1110.308913,-9696.697840,-1991.848295
3251.489201,-888.247130,-8808.450710,-2221.676944
3251.489528,518.144159,-8734.430116,-2451.505594
3251.489856,1406.391290,-9770.718434,-459.657299
3251.490184,814.226536,-10955.047942,3600.648841
3251.490512,74.020594,-9326.594869,2911.162892
3251.490839,370.102971,-9252.574275,76.609550
3251.491167,-962.267725,-9622.677246,-842.705048
3251.491495,-222.061783,-9622.677246,-1378.971896
3251.491822,-296.082377,-9474.636058,-383.047749
3251.492150,0.000000,-8438.347739,153.219100
3251.492478,1406.391290,-9030.512492,-153.219100
3251.492805,888.247130,-9918.759623,459.657299
3251.493133,1258.350101,-9104.533087,306.438199
3251.493461,1036.288319,-9400.615463,0.000000
3251.493788,-296.082377,-9548.656652,383.047749
3251.494116,-222.061783,-8586.388927,-153.219100
3251.494444,296.082377,-9104.533087,-1302.362347
3251.494771,-370.102971,-8290.306550,689.485948
3251.495099,814.226536,-10066.800811,1072.533697
3251.495427,1332.370696,-12065.356855,919.314598
3251.495754,1406.391290,-10140.821405,-1378.971896
3251.496082,-592.164754,-10288.862594,-2451.505594
3251.496410,-1480.411884,-9770.718434,-1455.581446
3251.496738,148.041188,-8956.491898,-2145.067394
3251.497065,740.205942,-9178.553681,-842.705048
3251.497393,962.267725,-9326.594869,1072.533697
3251.497721,1554.432478,-10732.986159,1378.971896
3251.498048,2072.576638,-11843.295072,1072.533697
3251.498376,1702.473667,-10510.924376,612.876398
3251.498704,0.000000,-10436.903782,-306.438199
3251.499031,-1628.453072,-10732.986159,-919.314598
3251.499359,-1036.288319,-9696.697840,-2528.115143
3251.499687,0.000000,-9474.636058,-2757.943793
3251.500014,740.205942,-9474.636058,-1762.019645
3251.500342,1036.288319,-10955.047942,919.314598
3251.500670,962.267725,-11177.109724,1762.019645
3251.500997,1258.350101,-9178.553681,306.438199
3251.501325,370.102971,-7550.100608,612.876398
3251.501653,-666.185348,-7994.224174,612.876398
3251.501980,-444.123565,-9252.574275,229.828649
3251.502308,-814.226536,-9548.656652,-383.047749
3251.502636,666.185348,-9474.636058,-995.924147
3251.502963,1406.391290,-9992.780217,-1149.143247
3251.503291,740.205942,-10955.047942,306.438199
3251.503619,1110.308913,-10584.944971,536.266849
3251.503947,444.123565,-9474.636058,383.047749
3251.504274,0.000000,-7772.162391,536.266849
3251.504602,0.000000,-8364.327145,-229.828649
3251.504930,-1702.473667,-7994.224174,689.485948
3251.505257,-1184.329507,-8882.471304,919.314598
3251.505585,-592.164754,-10658.965565,-153.219100
3251.505913,1036.288319,-10955.047942,-2987.772442
3251.506240,814.226536,-9474.636058,-1915.238745
3251.506568,740.205942,-9474.636058,-1532.190996
3251.506896,518.144159,-9474.636058,-459.657299
3251.507223,888.247130,-10066.800811,306.438199
3251.507551,740.205942,-9252.574275,76.609550
3251.507879,444.123565,-8956.491898,612.876398
3251.508206,1036.288319,-9844.739029,76.609550
3251.508534,-296.082377,-10362.883188,459.657299
3251.508862,962.267725,-11251.130318,-306.438199
3251.509189,518.144159,-10881.027347,-919.314598
3251.509517,-888.247130,-9918.759623,-919.314598
3251.509845,-1998.556043,-10584.944971,-1762.019645
3251.510173,-1924.535449,-10510.924376,-2604.724693
3251.510500,0.000000,-8882.471304,-3217.601092
3251.510828,962.267725,-9696.697840,-1378.971896
3251.511156,740.205942,-10658.965565,1762.019645
3251.511483,1702.473667,-9326.594869,2451.505594
3251.511811,1406.391290,-9178.553681,1455.581446
3251.512139,814.226536,-9918.759623,612.876398
3251.512466,-148.041188,-10510.924376,-612.876398
3251.512794,0.000000,-8882.471304,-1302.362347
3251.513122,-296.082377,-7328.038826,-1455.581446
3251.513449,0.000000,-8068.244768,-383.047749
3251.513777,1184.329507,-9104.533087,766.095498
3251.514105,1332.370696,-10140.821405,1532.190996
3251.514432,1406.391290,-10584.944971,1072.533697
3251.514760,1628.453072,-9104.533087,459.657299
3251.515088,222.061783,-7994.224174,-153.219100
3251.515415,0.000000,-7402.059420,0.000000
3251.515743,74.020594,-9992.780217,995.924147
3251.516070,148.041188,-9992.780217,1532.190996
3251.516398,592.164754,-7920.203579,1072.533697
3251.516726,2442.679609,-9770.718434,-612.876398
3251.517053,1850.514855,-10140.821405,-612.876398
3251.517381,666.185348,-10881.027347,-1762.019645
3251.517708,-2146.597232,-10510.924376,-1455.581446
3251.518036,-1110.308913,-9030.512492,-2834.553343
3251.518364,666.185348,-8956.491898,-2145.067394
3251.518691,1258.350101,-9918.759623,459.657299
3251.519019,1554.432478,-11621.233289,3294.210641
3251.519346,3404.947333,-12583.501014,1532.190996
3251.519674,2664.741391,-10140.821405,-842.705048
3251.520002,666.185348,-9400.615463,-1685.410096
3251.520329,-2220.617826,-8438.347739,-1838.629195
3251.520657,-2146.597232,-8216.285956,-1915.238745
3251.520984,-1036.288319,-9696.697840,-1685.410096
3251.521312,-444.123565,-11547.212695,-842.705048
3251.521639,222.061783,-11473.192101,1149.143247
3251.521967,1850.514855,-11325.150913,1302.362347
3251.522295,888.247130,-9992.780217,612.876398
3251.522622,0.000000,-9252.574275,0.000000
3251.522950,-1406.391290,-8438.347739,-1915.238745
3251.523277,-888.247130,-7550.100608,-2374.896044
3251.523605,-592.164754,-7550.100608,0.000000
3251.523933,-296.082377,-8216.285956,2451.505594
3251.524260,1258.350101,-9548.656652,2681.334243
3251.524588,888.247130,-10658.965565,1762.019645
3251.524915,0.000000,-10140.821405,-612.876398
3251.525243,-518.144159,-8734.430116,-1302.362347
3251.525571,-888.247130,-8364.327145,-383.047749
3251.525898,-666.185348,-8660.409521,-459.657299
3251.526226,-740.205942,-9992.780217,842.705048
3251.526553,-518.144159,-9770.718434,229.828649
3251.526881,962.267725,-10140.821405,229.828649
3251.527209,888.247130,-10955.047942,-153.219100
3251.527536,0.000000,-10066.800811,-536.266849
3251.527864,222.061783,-9548.656652,-1225.752797
3251.528191,148.041188,-9104.533087,-995.924147
3251.528519,296.082377,-9474.636058,-1302.362347
3251.528847,0.000000,-9696.697840,0.000000
3251.529174,444.123565,-8956.491898,689.485948
3251.529502,1776.494261,-10436.903782,153.219100
3251.529829,1480.411884,-13027.624579,536.266849
3251.530157,2220.617826,-10732.986159,-1072.533697
3251.530485,296.082377,-8364.327145,-689.485948
3251.530812,-1480.411884,-9400.615463,536.266849
3251.531140,-666.185348,-10732.986159,-1455.581446
3251.531467,-888.247130,-10584.944971,-2068.457845
3251.531795,0.000000,-8512.368333,-3064.381992
3251.532123,518.144159,-9030.512492,-1149.143247
3251.532450,1554.432478,-11621.233289,766.095498
3251.532778,2886.803174,-11251.130318,1455.581446
3251.533105,1554.432478,-10658.965565,1149.143247
3251.533433,-296.082377,-9696.697840,-229.828649
3251.533761,222.061783,-8956.491898,-1991.848295
3251.534088,148.041188,-7994.224174,-2834.553343
3251.534416,0.000000,-6883.915261,-612.876398
3251.534743,740.205942,-8364.327145,1302.362347
3251.535071,1184.329507,-10807.006753,3294.210641
3251.535398,2738.761985,-10214.842000,1838.629195
3251.535726,1554.432478,-9992.780217,229.828649
3251.536054,222.061783,-8808.450710,-306.438199
3251.536381,-592.164754,-8512.368333,-689.485948
3251.536709,-444.123565,-9252.574275,-1072.533697
3251.537036,0.000000,-9622.677246,-995.924147
3251.537364,444.123565,-9178.553681,0.000000
3251.537692,1406.391290,-7994.224174,2298.286494
3251.538019,3182.885551,-9474.636058,2374.896044
3251.538347,814.226536,-10362.883188,1608.800546
3251.538674,-1850.514855,-9474.636058,766.095498
3251.539002,-3108.864956,-9474.636058,-1762.019645
3251.539330,-814.226536,-9844.739029,-3447.429741
3251.539657,888.247130,-10066.800811,-2834.553343
3251.539985,888.247130,-11695.253884,536.266849
3251.540312,814.226536,-11917.315666,1762.019645
3251.540640,2590.720797,-11547.212695,76.609550
3251.540968,2294.638420,-10584.944971,-2145.067394
3251.541295,0.000000,-8660.409521,0.000000
3251.541623,-1850.514855,-7920.203579,842.705048
3251.541950,-1554.432478,-9030.512492,0.000000
3251.542278,-962.267725,-8882.471304,-919.314598
3251.542606,-1776.494261,-11177.109724,-766.095498
3251.542933,-296.082377,-10288.862594,536.266849
3251.543261,1850.514855,-11547.212695,0.000000
3251.543588,1258.350101,-12213.398043,-383.047749
3251.543916,518.144159,-9770.718434,-1838.629195
3251.544244,0.000000,-8438.347739,-2145.067394
3251.544571,148.041188,-7402.059420,-1149.143247
3251.544899,0.000000,-8512.368333,612.876398
3251.545226,-148.041188,-9474.636058,2681.334243
3251.545554,0.000000,-8586.388927,1455.581446
3251.545882,1036.288319,-10288.862594,-229.828649
3251.546209,1036.288319,-11029.068536,-689.485948
3251.546537,1036.288319,-9400.615463,0.000000
3251.546864,296.082377,-8956.491898,842.705048
3251.547192,370.102971,-7994.224174,153.219100
3251.547520,592.164754,-9030.512492,-766.095498
3251.547847,-518.144159,-10066.800811,-383.047749
3251.548175,0.000000,-9770.718434,153.219100
3251.548502,222.061783,-10066.800811,0.000000
3251.548830,222.061783,-9104.533087,-459.657299
3251.549157,-222.061783,-9400.615463,689.485948
3251.549485,0.000000,-9696.697840,-689.485948
3251.549813,592.164754,-9030.512492,-842.705048
3251.550140,222.061783,-11399.171507,-459.657299
3251.550468,1258.350101,-11695.253884,-383.047749
3251.550795,1702.473667,-9696.697840,-1302.362347
3251.551123,1332.370696,-10510.924376,-689.485948
3251.551451,0.000000,-10732.986159,306.438199
3251.551778,2516.700203,-8882.471304,-306.438199
3251.552106,1702.473667,-8882.471304,1072.533697
3251.552433,296.082377,-9548.656652,1838.629195
3251.552761,-740.205942,-9770.718434,1072.533697
3251.553089,-2368.659014,-9696.697840,-612.876398
3251.553416,-1480.411884,-8734.430116,-2145.067394
3251.553744,-148.041188,-10214.842000,-2834.553343
3251.554071,592.164754,-11917.315666,-689.485948
3251.554399,2590.720797,-11473.192101,-229.828649
3251.554727,2590.720797,-10732.986159,0.000000
3251.555054,1554.432478,-9844.739029,76.609550
3251.555382,0.000000,-9918.759623,0.000000
3251.555709,-1702.473667,-7698.141797,0.000000
3251.556037,-1258.350101,-5847.626942,766.095498
3251.556365,-740.205942,-8068.244768,842.705048
3251.556692,0.000000,-9474.636058,1991.848295
3251.557020,666.185348,-10955.047942,2298.286494
3251.557347,666.185348,-10362.883188,459.657299
3251.557675,1406.391290,-9326.594869,-2145.067394
3251.558003,296.082377,-9474.636058,-2604.724693
3251.558330,-1628.453072,-8290.306550,-1302.362347
3251.558658,-518.144159,-7920.203579,-153.219100
3251.558985,962.267725,-9474.636058,1225.752797
3251.559313,1998.556043,-10362.883188,2451.505594
3251.559641,1110.308913,-10436.903782,3983.696590
3251.559968,222.061783,-8512.368333,2298.286494
3251.560296,-444.123565,-8364.327145,-689.485948
3251.560623,-2960.823768,-10881.027347,-2451.505594
3251.560951,-3923.091493,-9474.636058,-4596.572988
3251.561279,-666.185348,-9178.553681,-3370.820191
3251.561606,1924.535449,-10881.027347,-1225.752797
3251.561934,1628.453072,-11029.068536,1455.581446
3251.562261,2072.576638,-12139.377449,1455.581446
3251.562589,1776.494261,-10881.027347,306.438199
3251.562916,592.164754,-8512.368333,-766.095498
3251.563244,-592.164754,-7772.162391,-383.047749
3251.563572,-1110.308913,-8512.368333,229.828649
3251.563899,-444.123565,-9474.636058,1225.752797
3251.564227,962.267725,-11991.336260,-153.219100
3251.564554,518.144159,-11547.212695,-383.047749
3251.564882,888.247130,-11325.150913,-612.876398
3251.565210,814.226536,-9696.697840,-612.876398
3251.565537,296.082377,-9474.636058,-1455.581446
3251.565865,-962.267725,-8586.388927,-766.095498
3251.566192,-1332.370696,-6883.915261,-1302.362347
3251.566520,0.000000,-8438.347739,919.314598
3251.566848,74.020594,-10066.800811,1991.848295
3251.567175,-444.123565,-9992.780217,2834.553343
3251.567503,-222.061783,-10288.862594,1302.362347
3251.567830,666.185348,-9622.677246,-1915.238745
3251.568158,1628.453072,-10214.842000,-2757.943793
3251.568486,962.267725,-9104.533087,-1072.533697
3251.568813,0.000000,-7772.162391,383.047749
3251.569141,1332.370696,-8586.388927,229.828649
3251.569468,444.123565,-10140.821405,842.705048
3251.569796,-222.061783,-9400.615463,842.705048
3251.570124,-1036.288319,-8586.388927,1149.143247
3251.570451,-518.144159,-9400.615463,536.266849
3251.570779,370.102971,-10584.944971,-766.095498
3251.571106,-148.041188,-10584.944971,-1455.581446
3251.571434,0.000000,-8734.430116,-1762.019645
3251.571762,740.205942,-9178.553681,-1991.848295
3251.572089,1554.432478,-9918.759623,-842.705048
3251.572417,2220.617826,-9844.739029,-689.485948
3251.572744,1036.288319,-10288.862594,919.314598
3251.573072,592.164754,-9992.780217,0.000000
3251.573400,740.205942,-10807.006753,76.609550
3251.573727,1998.556043,-11695.253884,-229.828649
3251.574055,1702.473667,-9178.553681,229.828649
3251.574382,296.082377,-9548.656652,919.314598
3251.574710,-888.247130,-9992.780217,0.000000
3251.575038,-518.144159,-9992.780217,-1685.410096
3251.575365,-592.164754,-7994.224174,-2145.067394
3251.575693,0.000000,-8068.244768,-1915.238745
3251.576020,1480.411884,-11029.068536,459.657299
3251.576348,2368.659014,-12953.603985,1149.143247
3251.576675,1924.535449,-11399.171507,1225.752797
3251.577003,592.164754,-9326.594869,229.828649
3251.577331,0.000000,-8882.471304,-383.047749
3251.577658,0.000000,-9844.739029,-536.266849
3251.577986,-1776.494261,-9104.533087,229.828649
3251.578313,-1036.288319,-7698.141797,-383.047749
3251.578641,0.000000,-7846.182985,76.609550
3251.578969,740.205942,-8808.450710,1532.190996
3251.579296,592.164754,-7846.182985,1991.848295
3251.579624,0.000000,-8882.471304,689.485948
3251.579951,-1036.288319,-8586.388927,-383.047749
3251.580279,-296.082377,-8660.409521,-2221.676944
3251.580607,-222.061783,-9400.615463,-1149.143247
3251.580934,740.205942,-10140.821405,995.924147
3251.581262,1332.370696,-11473.192101,2451.505594
3251.581589,1628.453072,-11177.109724,2221.676944
3251.581917,1924.535449,-9252.574275,0.000000
3251.582245,74.020594,-8882.471304,-1532.190996
3251.582572,-1998.556043,-7328.038826,-2145.067394
3251.582900,-2220.617826,-9400.615463,-1915.238745
3251.583227,-1702.473667,-11325.150913,-1608.800546
3251.583555,740.205942,-11325.150913,-842.705048
3251.583883,1776.494261,-10955.047942,0.000000
3251.584210,1628.453072,-10658.965565,459.657299
3251.584538,1110.308913,-10955.047942,1378.971896
3251.584865,148.041188,-11843.295072,-536.266849
3251.585193,-814.226536,-7920.203579,-2604.724693
3251.585521,-1036.288319,-8660.409521,-3447.429741
3251.585848,-592.164754,-10066.800811,-1685.410096
3251.586176,222.061783,-9548.656652,1532.190996
3251.586503,1110.308913,-10955.047942,2374.896044
3251.586831,1184.329507,-10732.986159,536.266849
3251.587159,1480.411884,-11177.109724,-995.924147
3251.587486,0.000000,-9548.656652,-1685.410096
3251.587814,-1406.391290,-8290.306550,-536.266849
3251.588141,-1258.350101,-8068.244768,-459.657299
3251.588469,-444.123565,-9326.594869,-459.657299
3251.588797,-592.164754,-10066.800811,76.609550
3251.589124,1258.350101,-8956.491898,995.924147
3251.589452,2442.679609,-7476.080014,842.705048
3251.589779,3997.112087,-10288.862594,842.705048
3251.590107,1258.350101,-11399.171507,995.924147
3251.590434,444.123565,-8586.388927,306.438199
3251.590762,148.041188,-6883.915261,-842.705048
3251.591090,-296.082377,-8734.430116,459.657299
3251.591417,0.000000,-10288.862594,612.876398
3251.591745,-592.164754,-11325.150913,459.657299
3251.592072,-666.185348,-10288.862594,-766.095498
3251.592400,962.267725,-10066.800811,-2528.115143
3251.592728,74.020594,-9252.574275,-1685.410096
3251.593055,222.061783,-7031.956449,306.438199
3251.593383,74.020594,-7846.182985,766.095498
3251.593710,888.247130,-9992.780217,383.047749
3251.594038,2146.597232,-11325.150913,-383.047749
3251.594366,1628.453072,-12139.377449,306.438199
3251.594693,888.247130,-10658.965565,842.705048
3251.595021,444.123565,-12287.418637,919.314598
3251.595348,-666.185348,-11547.212695,-1072.533697
3251.595676,592.164754,-9622.677246,-2604.724693
3251.596004,0.000000,-7772.162391,-2298.286494
3251.596331,222.061783,-7254.018232,153.219100
3251.596659,-296.082377,-9622.677246,1991.848295
3251.596986,-962.267725,-11103.089130,1149.143247
3251.597314,0.000000,-9104.533087,-995.924147
3251.597642,592.164754,-9622.677246,-3064.381992
3251.597969,296.082377,-11399.171507,-1455.581446
3251.598297,2146.597232,-12361.439231,536.266849
3251.598624,2294.638420,-12139.377449,229.828649
3251.598952,962.267725,-10732.986159,-383.047749
3251.599280,444.123565,-9400.615463,-1378.971896
3251.599607,-888.247130,-7254.018232,-383.047749
3251.599935,-888.247130,-6661.853478,306.438199
3251.600262,-814.226536,-8438.347739,1149.143247
3251.600590,-888.247130,-7772.162391,919.314598
3251.600918,296.082377,-9252.574275,842.705048
3251.601245,74.020594,-10288.862594,1149.143247
3251.601573,740.205942,-9104.533087,919.314598
3251.601900,592.164754,-9326.594869,-536.266849
3251.602228,-370.102971,-10362.883188,-919.314598
3251.602556,148.041188,-9326.594869,-919.314598
3251.602883,444.123565,-9252.574275,-306.438199
3251.603211,962.267725,-8216.285956,1455.581446
3251.603538,1554.432478,-9030.512492,2451.505594
3251.603866,592.164754,-9696.697840,1302.362347
3251.604193,-1258.350101,-9104.533087,0.000000
3251.604521,-1332.370696,-9622.677246,-2145.067394
3251.604849,-666.185348,-9400.615463,-2834.553343
3251.605176,518.144159,-10807.006753,-1072.533697
3251.605504,1924.535449,-10955.047942,383.047749
3251.605831,1776.494261,-10584.944971,1149.143247
3251.606159,2442.679609,-11325.150913,612.876398
3251.606487,2294.638420,-9622.677246,-995.924147
3251.606814,740.205942,-8660.409521,-766.095498
3251.607142,-814.226536,-9548.656652,-689.485948
3251.607469,-1554.432478,-8512.368333,-1072.533697
3251.607797,-592.164754,-10362.883188,-995.924147
3251.608125,-518.144159,-11177.109724,76.609550
3251.608452,0.000000,-11547.212695,689.485948
3251.608780,740.205942,-11399.171507,919.314598
3251.609107,0.000000,-9992.780217,-995.924147
3251.609435,-148.041188,-9770.718434,-1685.410096
3251.609763,-222.061783,-7772.162391,-2451.505594
3251.610090,-1480.411884,-6883.915261,-1455.581446
3251.610418,-888.247130,-9400.615463,612.876398
3251.610745,-222.061783,-10214.842000,1838.629195
3251.611073,1332.370696,-9696.697840,842.705048
3251.611401,2072.576638,-10955.047942,842.705048
3251.611728,1924.535449,-11547.212695,229.828649
3251.612056,1702.473667,-9696.697840,0.000000
3251.612383,888.247130,-8660.409521,-383.047749
3251.612711,-518.144159,-8364.327145,0.000000
3251.613039,-888.247130,-8142.265362,-229.828649
3251.613366,-1702.473667,-9030.512492,689.485948
3251.613694,-1406.391290,-8364.327145,383.047749
3251.614022,-518.144159,-8216.285956,-766.095498
3251.614349,-592.164754,-8808.450710,229.828649
3251.614677,0.000000,-9326.594869,0.000000
3251.615005,888.247130,-9622.677246,-689.485948
3251.615333,1554.432478,-10288.862594,-306.438199
3251.615660,2368.659014,-11769.274478,-306.438199
3251.615988,2294.638420,-11843.295072,0.000000
3251.616316,1554.432478,-9252.574275,-766.095498
3251.616643,444.123565,-10510.924376,0.000000
3251.616971,444.123565,-10288.862594,0.000000
3251.617299,518.144159,-8364.327145,-919.314598
3251.617626,296.082377,-8808.450710,-1225.752797
3251.617954,-74.020594,-8586.388927,229.828649
3251.618282,-666.185348,-10362.883188,1072.533697
3251.618610,-888.247130,-10807.006753,612.876398
3251.618937,0.000000,-9696.697840,-1991.848295
3251.619265,888.247130,-10881.027347,-2987.772442
3251.619593,1924.535449,-11473.192101,-1991.848295
3251.619920,1924.535449,-12583.501014,689.485948
3251.620248,1924.535449,-10436.903782,612.876398
3251.620576,1258.350101,-8808.450710,153.219100
3251.620903,222.061783,-9696.697840,-153.219100
3251.621231,-1554.432478,-7698.141797,153.219100
3251.621559,-1628.453072,-7254.018232,306.438199
3251.621887,-1258.350101,-7402.059420,536.266849
3251.622214,-592.164754,-8068.244768,0.000000
3251.622542,222.061783,-10066.800811,689.485948
3251.622870,1184.329507,-10658.965565,919.314598
3251.623197,1776.494261,-9770.718434,1302.362347
3251.623525,2294.638420,-9770.718434,459.657299
3251.623853,814.226536,-8512.368333,-536.266849
3251.624180,148.041188,-8216.285956,153.219100
3251.624508,-370.102971,-8660.409521,1072.533697
3251.624836,740.205942,-9770.718434,919.314598
3251.625164,296.082377,-10807.006753,1762.019645
3251.625491,-148.041188,-9474.636058,1608.800546
3251.625819,-962.267725,-9030.512492,-1149.143247
3251.626147,-2368.659014,-12509.480420,-1915.238745
3251.626474,-1406.391290,-11399.171507,-2757.943793
3251.626802,370.102971,-8808.450710,-2604.724693
3251.627130,888.247130,-8364.327145,-536.266849
3251.627457,1702.473667,-10066.800811,2451.505594
3251.627785,1406.391290,-11695.253884,3524.039291
3251.628113,1110.308913,-9992.780217,689.485948
3251.628441,518.144159,-9770.718434,-1455.581446
3251.628768,-1258.350101,-9918.759623,-2068.457845
3251.629096,-1554.432478,-9400.615463,-1532.190996
3251.629424,-370.102971,-11029.068536,-995.924147
3251.629751,0.000000,-11695.253884,-612.876398
3251.630079,370.102971,-11547.212695,-1149.143247
3251.630407,74.020594,-9622.677246,-536.266849
3251.630734,370.102971,-8660.409521,76.609550
3251.631062,-444.123565,-7994.224174,229.828649
3251.631390,-962.267725,-7994.224174,0.000000
3251.631718,-888.247130,-7846.182985,-459.657299
3251.632045,-592.164754,-9252.574275,-229.828649
3251.632373,-592.164754,-8142.265362,536.266849
3251.632701,1406.391290,-9622.677246,1608.800546
3251.633028,962.267725,-12583.501014,1302.362347
3251.633356,1776.494261,-12731.542202,-919.314598
3251.633684,1924.535449,-9770.718434,-2068.457845
3251.634011,1332.370696,-8660.409521,-842.705048
3251.634339,1184.329507,-8068.244768,612.876398
3251.634667,0.000000,-9030.512492,2221.676944
3251.634995,-1850.514855,-9104.533087,689.485948
3251.635322,-2368.659014,-7994.224174,-306.438199
3251.635650,-1406.391290,-8364.327145,-1915.238745
3251.635978,-148.041188,-8216.285956,-1072.533697
3251.636305,444.123565,-9992.780217,612.876398
3251.636633,962.267725,-11399.171507,229.828649
3251.636961,2368.659014,-11029.068536,-1532.190996
3251.637288,2812.782580,-12139.377449,-2374.896044
3251.637616,2664.741391,-10955.047942,-1225.752797
3251.637944,2442.679609,-9918.759623,612.876398
3251.638272,1110.308913,-10288.862594,1762.019645
3251.638599,1258.350101,-10066.800811,995.924147
3251.638927,888.247130,-9548.656652,0.000000
3251.639255,888.247130,-8290.306550,-383.047749
3251.639582,444.123565,-6735.874072,842.705048
3251.639910,-592.164754,-9622.677246,842.705048
3251.640238,-1036.288319,-10584.944971,-229.828649
3251.640565,-444.123565,-10288.862594,-2987.772442
3251.640893,592.164754,-9548.656652,-3677.258390
3251.641221,2072.576638,-10436.903782,-1991.848295
3251.641549,1776.494261,-11547.212695,1455.581446
3251.641876,2146.597232,-10362.883188,2987.772442
3251.642204,1406.391290,-10584.944971,1302.362347
3251.642532,0.000000,-10288.862594,0.000000
3251.642859,-1036.288319,-7846.182985,-229.828649
3251.643187,-1332.370696,-7846.182985,153.219100
3251.643515,-888.247130,-7476.080014,0.000000
3251.643842,-962.267725,-7254.018232,-1072.533697
3251.644170,-1480.411884,-10140.821405,-1149.143247
3251.644498,-740.205942,-9178.553681,0.000000
3251.644826,2146.597232,-11029.068536,459.657299
3251.645153,1480.411884,-10510.924376,1685.410096
3251.645481,1110.308913,-9252.574275,1532.190996
3251.645809,592.164754,-7772.162391,1072.533697
3251.646136,740.205942,-8142.265362,-229.828649
3251.646464,888.247130,-9252.574275,459.657299
3251.646792,74.020594,-10214.842000,1685.410096
3251.647119,0.000000,-9622.677246,-229.828649
3251.647447,-666.185348,-11399.171507,-2451.505594
3251.647775,-1554.432478,-11917.315666,-3600.648841
3251.648103,-814.226536,-10732.986159,-3140.991542
3251.648430,740.205942,-9696.697840,-1532.190996
3251.648758,1776.494261,-8808.450710,536.266849
3251.649086,1258.350101,-9844.739029,2451.505594
3251.649413,1036.288319,-10510.924376,2987.772442
3251.649741,888.247130,-9030.512492,2068.457845
3251.650069,444.123565,-9326.594869,536.266849
3251.650396,-666.185348,-10436.903782,-995.924147
3251.650724,-962.267725,-10436.903782,-2451.505594
3251.651052,-1110.308913,-10066.800811,-3064.381992
3251.651380,-444.123565,-9992.780217,-2451.505594
3251.651707,592.164754,-11251.130318,-1532.190996
3251.652035,666.185348,-11325.150913,229.828649
3251.652363,1036.288319,-9474.636058,1838.629195
3251.652690,148.041188,-8216.285956,2145.067394
3251.653018,-592.164754,-7994.224174,766.095498
3251.653346,-962.267725,-8438.347739,229.828649
3251.653673,-1110.308913,-9326.594869,0.000000
3251.654001,148.041188,-8142.265362,-1455.581446
3251.654329,1702.473667,-10140.821405,-1072.533697
3251.654657,1628.453072,-11843.295072,-689.485948
3251.654984,2294.638420,-10214.842000,-612.876398
3251.655312,2442.679609,-9400.615463,536.266849
3251.655640,962.267725,-9030.512492,766.095498
3251.655967,-592.164754,-9326.594869,1991.848295
3251.656295,-1924.535449,-9622.677246,1838.629195
3251.656623,-2072.576638,-8586.388927,153.219100
3251.656950,-1628.453072,-8512.368333,-1302.362347
3251.657278,-1406.391290,-8660.409521,-995.924147
3251.657606,370.102971,-8290.306550,-2528.115143
3251.657934,1628.453072,-10362.883188,-1072.533697
3251.658261,1998.556043,-10436.903782,-766.095498
3251.658589,2368.659014,-11103.089130,-459.657299
3251.658917,2072.576638,-11029.068536,0.000000
3251.659244,2368.659014,-10658.965565,0.000000
3251.659572,1110.308913,-11251.130318,1225.752797
3251.659900,444.123565,-11029.068536,1915.238745
3251.660227,0.000000,-9326.594869,153.219100
3251.660555,592.164754,-9770.718434,-383.047749
3251.660883,-222.061783,-9326.594869,-536.266849
3251.661211,-740.205942,-8734.430116,-766.095498
3251.661538,-1332.370696,-8808.450710,-995.924147
3251.661866,-222.061783,-8438.347739,-1685.410096
3251.662194,1110.308913,-9474.636058,-2451.505594
3251.662521,1110.308913,-10955.047942,153.219100
3251.662849,1184.329507,-11547.212695,2451.505594
3251.663177,74.020594,-11177.109724,842.705048
3251.663504,-666.185348,-10658.965565,-766.095498
3251.663832,-296.082377,-9992.780217,-2068.457845
3251.664160,222.061783,-9400.615463,-1378.971896
3251.664488,444.123565,-8290.306550,306.438199
3251.664815,296.082377,-9474.636058,76.609550
3251.665143,222.061783,-8734.430116,-306.438199
3251.665471,-148.041188,-7254.018232,-1149.143247
3251.665798,-888.247130,-8734.430116,-612.876398
3251.666126,-740.205942,-9178.553681,229.828649
3251.666454,444.123565,-8882.471304,459.657299
3251.666781,296.082377,-8882.471304,1225.752797
3251.667109,1332.370696,-9400.615463,2068.457845
3251.667437,2368.659014,-11029.068536,2068.457845
3251.667765,2886.803174,-10955.047942,1455.581446
3251.668092,1036.288319,-10066.800811,-459.657299
3251.668420,-1480.411884,-9104.533087,-2145.067394
3251.668748,-1184.329507,-7698.141797,-3217.601092
3251.669075,-370.102971,-8882.471304,-1915.238745
3251.669403,-370.102971,-9622.677246,383.047749
3251.669731,-148.041188,-10658.965565,1915.238745
3251.670058,1332.370696,-9770.718434,842.705048
3251.670386,962.267725,-8882.471304,-766.095498
3251.670714,-1110.308913,-10732.986159,-383.047749
3251.671042,-1036.288319,-10955.047942,-995.924147
3251.671369,740.205942,-9400.615463,-919.314598
3251.671697,2590.720797,-10955.047942,-2145.067394
3251.672025,2294.638420,-11251.130318,-1149.143247
3251.672352,2146.597232,-10436.903782,306.438199
3251.672680,1628.453072,-10807.006753,306.438199
3251.673008,0.000000,-10955.047942,-383.047749
3251.673335,-2146.597232,-8956.491898,-1838.629195
3251.673663,-2738.761985,-7550.100608,-1608.800546
3251.673991,-1554.432478,-7846.182985,-766.095498
3251.674319,-370.102971,-9844.739029,995.924147
3251.674646,814.226536,-11547.212695,1838.629195
3251.674974,1776.494261,-10658.965565,995.924147
3251.675302,1628.453072,-8882.471304,-1302.362347
3251.675629,1850.514855,-7772.162391,-2298.286494
3251.675957,1184.329507,-9030.512492,-459.657299
3251.676285,518.144159,-9104.533087,919.314598
3251.676612,888.247130,-8512.368333,1532.190996
3251.676940,1332.370696,-10140.821405,995.924147
3251.677268,962.267725,-10732.986159,1302.362347
3251.677596,0.000000,-11103.089130,1378.971896
3251.677923,-2664.741391,-11029.068536,536.266849
3251.678251,-3108.864956,-9030.512492,-3447.429741
3251.678579,-2220.617826,-7698.141797,-4673.182538
3251.678906,-1554.432478,-6513.812290,-3524.039291
3251.679234,-222.061783,-7772.162391,459.657299
3251.679562,1036.288319,-10288.862594,2757.943793
3251.679889,2368.659014,-10658.965565,2451.505594
3251.680217,2368.659014,-11473.192101,995.924147
3251.680545,1924.535449,-10214.842000,-383.047749
3251.680873,1036.288319,-9622.677246,-383.047749
3251.681200,222.061783,-11843.295072,229.828649
3251.681528,444.123565,-11695.253884,-842.705048
3251.681856,592.164754,-9770.718434,-1915.238745
3251.682183,370.102971,-9474.636058,-1915.238745
3251.682511,592.164754,-7994.224174,-306.438199
3251.682839,296.082377,-9622.677246,1302.362347
3251.683166,222.061783,-9400.615463,995.924147
3251.683494,592.164754,-8808.450710,229.828649
3251.683822,518.144159,-8882.471304,-383.047749
3251.684150,1998.556043,-9918.759623,-459.657299
3251.684477,1628.453072,-11917.315666,1149.143247
3251.684805,1998.556043,-12287.418637,919.314598
3251.685133,1258.350101,-10066.800811,-612.876398
3251.685460,-370.102971,-9622.677246,-1532.190996
3251.685788,-888.247130,-8512.368333,-1915.238745
3251.686116,-814.226536,-8512.368333,-766.095498
3251.686443,-888.247130,-8882.471304,0.000000
3251.686771,-444.123565,-8216.285956,-612.876398
3251.687099,222.061783,-9030.512492,306.438199
3251.687427,592.164754,-8956.491898,1072.533697
3251.687754,444.123565,-8586.388927,1149.143247
3251.688082,518.144159,-9918.759623,1149.143247
3251.688410,222.061783,-11029.068536,-536.266849
3251.688737,370.102971,-10510.924376,-919.314598
3251.689065,518.144159,-8808.450710,-1072.533697
3251.689393,444.123565,-7846.182985,-229.828649
3251.689720,0.000000,-9474.636058,1532.190996
3251.690048,0.000000,-9918.759623,1149.143247
3251.690376,0.000000,-9400.615463,-306.438199
3251.690704,-148.041188,-10362.883188,-689.485948
3251.691031,-1480.411884,-9474.636058,-766.095498
3251.691359,-1258.350101,-9622.677246,-689.485948
3251.691687,-592.164754,-9696.697840,-612.876398
3251.692014,518.144159,-9252.574275,-1072.533697
3251.692342,0.000000,-9474.636058,842.705048
3251.692670,1184.329507,-9326.594869,0.000000
3251.692997,1036.288319,-8808.450710,0.000000
3251.693325,1036.288319,-12509.480420,229.828649
3251.693653,0.000000,-10732.986159,0.000000
3251.693981,148.041188,-9992.780217,-383.047749
3251.694308,0.000000,-9400.615463,-842.705048
3251.694636,592.164754,-9844.739029,-995.924147
3251.694964,-592.164754,-10732.986159,612.876398
3251.695291,-814.226536,-10140.821405,0.000000
3251.695619,-888.247130,-8956.491898,-1455.581446
3251.695947,-666.185348,-9178.553681,-1838.629195
3251.696274,-592.164754,-7624.121203,-1991.848295
3251.696602,444.123565,-8956.491898,383.047749
3251.696930,296.082377,-8882.471304,459.657299
3251.697258,2368.659014,-9326.594869,1378.971896
3251.697585,2368.659014,-10955.047942,1072.533697
3251.697913,1998.556043,-11177.109724,919.314598
3251.698241,1480.411884,-9178.553681,229.828649
3251.698568,296.082377,-9178.553681,0.000000
3251.698896,-592.164754,-9548.656652,0.000000
3251.699224,-814.226536,-10066.800811,-995.924147
3251.699551,-1924.535449,-8512.368333,-1072.533697
3251.699879,-1258.350101,-7698.141797,-1149.143247
3251.700207,-1036.288319,-9622.677246,-919.314598
3251.700535,0.000000,-9844.739029,-1225.752797
3251.700862,222.061783,-9474.636058,-153.219100
3251.701190,2072.576638,-9622.677246,1149.143247
3251.701518,3701.029710,-9622.677246,1608.800546
3251.701845,3552.988522,-11843.295072,1072.533697
3251.702173,2072.576638,-10436.903782,995.924147
3251.702501,1776.494261,-9622.677246,-306.438199
3251.702828,518.144159,-10658.965565,-766.095498
3251.703156,0.000000,-9252.574275,-1532.190996
3251.703484,-296.082377,-8586.388927,-689.485948
3251.703812,222.061783,-9326.594869,0.000000
3251.704139,148.041188,-10140.821405,459.657299
3251.704467,0.000000,-10955.047942,1225.752797
3251.704795,296.082377,-9178.553681,0.000000
3251.705122,666.185348,-8364.327145,-612.876398
3251.705450,444.123565,-9992.780217,-153.219100
3251.705778,1776.494261,-11029.068536,229.828649
3251.706105,1554.432478,-11251.130318,0.000000
3251.706433,1628.453072,-10584.944971,-383.047749
3251.706761,296.082377,-8364.327145,-842.705048
3251.707089,-1110.308913,-10288.862594,0.000000
3251.707416,-3034.844362,-9696.697840,-459.657299
3251.707744,-3330.926739,-9474.636058,-689.485948
3251.708072,-2516.700203,-9474.636058,-1838.629195
3251.708399,0.000000,-8216.285956,-1762.019645
3251.708727,0.000000,-9252.574275,459.657299
3251.709055,444.123565,-9992.780217,1762.019645
3251.709382,1332.370696,-9400.615463,995.924147
3251.709710,1924.535449,-10362.883188,-306.438199
3251.710038,1036.288319,-9400.615463,-1225.752797
3251.710366,740.205942,-8586.388927,229.828649
3251.710693,518.144159,-8734.430116,1225.752797
3251.711021,296.082377,-9548.656652,1072.533697
3251.711349,-1628.453072,-10881.027347,1225.752797
3251.711676,-962.267725,-9474.636058,-689.485948
3251.712004,-222.061783,-9104.533087,-1762.019645
3251.712332,0.000000,-10584.944971,-689.485948
3251.712659,-296.082377,-10288.862594,-612.876398
3251.712987,-222.061783,-9696.697840,-383.047749
3251.713315,296.082377,-7328.038826,-766.095498
3251.713643,222.061783,-7624.121203,0.000000
3251.713970,148.041188,-9696.697840,1608.800546
3251.714298,296.082377,-9474.636058,1302.362347
3251.714626,-814.226536,-10881.027347,306.438199
3251.714953,-222.061783,-12361.439231,-995.924147
3251.715281,1406.391290,-10955.047942,-2604.724693
3251.715609,1406.391290,-9770.718434,-383.047749
3251.715936,0.000000,-10732.986159,842.705048
3251.716264,444.123565,-10436.903782,0.000000
3251.716592,814.226536,-9326.594869,-1455.581446
3251.716919,296.082377,-8216.285956,-1149.143247
3251.717247,-518.144159,-8290.306550,842.705048
3251.717575,-148.041188,-10066.800811,1838.629195
3251.717902,0.000000,-9400.615463,1072.533697
3251.718230,222.061783,-9474.636058,-1149.143247
3251.718558,148.041188,-9326.594869,-1608.800546
3251.718885,2294.638420,-10140.821405,-766.095498
3251.719213,2664.741391,-11843.295072,919.314598
3251.719541,3182.885551,-10362.883188,919.314598
3251.719868,1998.556043,-8660.409521,0.000000
3251.720196,1184.329507,-9030.512492,383.047749
3251.720524,0.000000,-8438.347739,536.266849
3251.720851,-1110.308913,-9252.574275,919.314598
3251.721179,-2368.659014,-9104.533087,0.000000
3251.721507,-2442.679609,-9400.615463,-1838.629195
3251.721835,-2368.659014,-9770.718434,-1532.190996
3251.722162,296.082377,-9178.553681,-1685.410096
3251.722490,1554.432478,-9548.656652,76.609550
3251.722818,1776.494261,-10881.027347,1915.238745
3251.723145,2886.803174,-10732.986159,153.219100
3251.723473,2664.741391,-10584.944971,-995.924147
3251.723801,1702.473667,-9030.512492,-536.266849
3251.724128,814.226536,-9400.615463,1302.362347
3251.724456,-518.144159,-10288.862594,1838.629195
3251.724784,296.082377,-9178.553681,0.000000
3251.725111,-444.123565,-10510.924376,-1225.752797
3251.725439,-444.123565,-9622.677246,-1608.800546
3251.725767,-740.205942,-9548.656652,-766.095498
3251.726094,-1036.288319,-10955.047942,612.876398
3251.726422,0.000000,-9548.656652,-1072.533697
3251.726750,740.205942,-9400.615463,-1991.848295
3251.727077,1480.411884,-10288.862594,-612.876398
3251.727405,1776.494261,-10732.986159,0.000000
3251.727733,1110.308913,-10732.986159,1762.019645
3251.728060,1110.308913,-9548.656652,1149.143247
3251.728388,-1110.308913,-8364.327145,0.000000
3251.728716,-2664.741391,-9400.615463,-306.438199
3251.729043,-4071.132681,-7772.162391,-1149.143247
3251.729371,-2738.761985,-9104.533087,-1532.190996
3251.729699,-1406.391290,-8586.388927,-2451.505594
3251.730027,0.000000,-9622.677246,-2604.724693
3251.730354,-296.082377,-10658.965565,-383.047749
3251.730682,1702.473667,-10288.862594,0.000000
3251.731010,1776.494261,-9030.512492,1072.533697
3251.731337,2294.638420,-9622.677246,1302.362347
3251.731665,962.267725,-9326.594869,1455.581446
3251.731993,962.267725,-9400.615463,1762.019645
3251.732320,1628.453072,-9104.533087,842.705048
3251.732648,0.000000,-10066.800811,766.095498
3251.732976,-666.185348,-11695.253884,919.314598
3251.733303,222.061783,-10658.965565,-842.705048
3251.733631,1258.350101,-10066.800811,-2528.115143
3251.733959,666.185348,-9696.697840,-2604.724693
3251.734286,814.226536,-9030.512492,-1149.143247
3251.734614,1184.329507,-8142.265362,842.705048
3251.734942,1406.391290,-8068.244768,1762.019645
3251.735269,1036.288319,-8956.491898,1991.848295
3251.735597,222.061783,-9696.697840,2145.067394
3251.735925,0.000000,-8808.450710,842.705048
3251.736252,592.164754,-10881.027347,-766.095498
3251.736580,1628.453072,-12213.398043,-1608.800546
3251.736908,2220.617826,-10362.883188,-2451.505594
3251.737235,1332.370696,-9918.759623,-1302.362347
3251.737563,1628.453072,-9474.636058,-995.924147
3251.737891,2442.679609,-9474.636058,-919.314598
3251.738219,1406.391290,-10066.800811,1455.581446
3251.738546,370.102971,-7698.141797,2221.676944
3251.738874,296.082377,-7772.162391,1532.190996
3251.739202,518.144159,-9474.636058,612.876398
3251.739529,0.000000,-10140.821405,0.000000
3251.739857,0.000000,-11103.089130,0.000000
3251.740185,1332.370696,-9474.636058,-1838.629195
3251.740512,1924.535449,-10066.800811,-2298.286494
3251.740840,0.000000,-11029.068536,-1225.752797
3251.741168,740.205942,-9548.656652,0.000000
3251.741495,666.185348,-9252.574275,689.485948
3251.741823,370.102971,-9252.574275,1532.190996
3251.742151,-1924.535449,-8808.450710,2068.457845
3251.742478,-2590.720797,-10140.821405,1455.581446
3251.742806,-2812.782580,-8882.471304,-1149.143247
3251.743134,-3256.906145,-9400.615463,-2451.505594
3251.743461,-2886.803174,-8808.450710,-2604.724693
3251.743789,-592.164754,-9252.574275,-2451.505594
3251.744117,444.123565,-10807.006753,-536.266849
3251.744444,1332.370696,-10214.842000,536.266849
3251.744772,2220.617826,-9400.615463,306.438199
3251.745100,1924.535449,-10066.800811,383.047749
3251.745427,666.185348,-9474.636058,842.705048
3251.745755,-592.164754,-11251.130318,1378.971896
3251.746083,-888.247130,-10066.800811,1072.533697
3251.746411,-666.185348,-8142.265362,-689.485948
3251.746738,-666.185348,-10066.800811,-1225.752797
3251.747066,-1480.411884,-9474.636058,-1532.190996
3251.747394,-1554.432478,-9696.697840,0.000000
3251.747721,-1036.288319,-9474.636058,-1149.143247
3251.748049,222.061783,-7402.059420,-2911.162892
3251.748377,222.061783,-10140.821405,-1455.581446
3251.748704,592.164754,-11325.150913,689.485948
3251.749032,1332.370696,-11473.192101,1532.190996
3251.749360,1480.411884,-11473.192101,1838.629195
3251.749687,1184.329507,-9548.656652,0.000000
3251.750015,-666.185348,-9252.574275,-153.219100
3251.750343,-2220.617826,-9326.594869,229.828649
3251.750670,-1554.432478,-9474.636058,-995.924147
3251.750998,-1258.350101,-8290.306550,-2604.724693
3251.751326,0.000000,-7920.203579,-3447.429741
3251.751653,592.164754,-8808.450710,-1532.190996
3251.751981,1776.494261,-9844.739029,612.876398
3251.752309,1924.535449,-10436.903782,2145.067394
3251.752636,3108.864956,-11843.295072,1608.800546
3251.752964,2294.638420,-9918.759623,0.000000
3251.753292,1628.453072,-8512.368333,-229.828649
3251.753619,1184.329507,-9474.636058,612.876398
3251.753947,1332.370696,-10140.821405,842.705048
3251.754275,518.144159,-8882.471304,0.000000
3251.754603,0.000000,-9918.759623,-1225.752797
3251.754930,592.164754,-9844.739029,-919.314598
3251.755258,2146.597232,-9474.636058,-1225.752797
3251.755586,1110.308913,-8808.450710,76.609550
3251.755913,148.041188,-9474.636058,689.485948
3251.756241,1258.350101,-9918.759623,459.657299
3251.756569,1332.370696,-8882.471304,-229.828649
3251.756896,666.185348,-9770.718434,1838.629195
3251.757224,1184.329507,-11621.233289,1762.019645
3251.757552,2442.679609,-10510.924376,0.000000
3251.757879,1554.432478,-10066.800811,-689.485948
3251.758207,1776.494261,-10362.883188,-1455.581446
3251.758535,2516.700203,-9252.574275,-1991.848295
3251.758862,1036.288319,-8438.347739,-153.219100
3251.759190,-592.164754,-8734.430116,0.000000
3251.759518,-518.144159,-10362.883188,306.438199
3251.759845,0.000000,-10066.800811,76.609550
3251.760173,0.000000,-9252.574275,766.095498
3251.760501,0.000000,-10658.965565,919.314598
3251.760828,666.185348,-11473.192101,153.219100
3251.761156,2294.638420,-10288.862594,-1378.971896
3251.761484,518.144159,-9178.553681,-1302.362347
3251.761811,-1110.308913,-8364.327145,0.000000
3251.762139,-592.164754,-8290.306550,0.000000
3251.762467,-518.144159,-8142.265362,-383.047749
3251.762794,-1628.453072,-10214.842000,459.657299
3251.763122,-1184.329507,-11325.150913,1302.362347
3251.763450,-296.082377,-9622.677246,1149.143247
3251.763778,0.000000,-9548.656652,1149.143247
3251.764105,-2738.761985,-10436.903782,459.657299
3251.764433,-3478.967927,-9918.759623,-842.705048
3251.764761,-3330.926739,-8734.430116,-1991.848295
3251.765088,-1258.350101,-7402.059420,-3447.429741
3251.765416,-592.164754,-7105.977043,-1302.362347
3251.765744,-370.102971,-8808.450710,1302.362347
3251.766071,74.020594,-10214.842000,1915.238745
3251.766399,888.247130,-11843.295072,612.876398
3251.766727,666.185348,-11843.295072,-1072.533697
3251.767054,-222.061783,-10807.006753,-612.876398
3251.767382,-666.185348,-10658.965565,0.000000
3251.767710,814.226536,-10066.800811,-612.876398
3251.768037,1332.370696,-10066.800811,-1378.971896
3251.768365,1332.370696,-10066.800811,-306.438199
3251.768693,962.267725,-7772.162391,-383.047749
3251.769020,222.061783,-7772.162391,0.000000
3251.769348,-592.164754,-9030.512492,0.000000
3251.769676,-888.247130,-8882.471304,-153.219100
3251.770003,0.000000,-9326.594869,-842.705048
3251.770331,592.164754,-9992.780217,-383.047749
3251.770659,2146.597232,-12435.459826,0.000000
3251.770986,2664.741391,-12657.521608,0.000000
3251.771314,1998.556043,-10658.965565,-612.876398
3251.771642,0.000000,-10658.965565,-766.095498
3251.771970,-962.267725,-8660.409521,-1532.190996
3251.772297,-222.061783,-6957.935855,-1685.410096
3251.772625,370.102971,-7179.997637,-229.828649
3251.772953,222.061783,-8216.285956,1532.190996
3251.773280,888.247130,-10436.903782,1762.019645
3251.773608,1406.391290,-10288.862594,76.609550
3251.773936,888.247130,-9770.718434,-1149.143247
3251.774263,1110.308913,-11473.192101,-1378.971896
3251.774591,1776.494261,-10362.883188,-1455.581446
3251.774919,2368.659014,-9252.574275,76.609550
3251.775246,2590.720797,-10436.903782,536.266849
3251.775574,2294.638420,-8586.388927,612.876398
3251.775902,1776.494261,-8956.491898,1915.238745
3251.776229,666.185348,-8734.430116,995.924147
3251.776557,-962.267725,-9030.512492,229.828649
3251.776885,-1554.432478,-9992.780217,-229.828649
3251.777212,-1406.391290,-8216.285956,-1455.581446
3251.777540,814.226536,-9770.718434,-1225.752797
3251.777868,2146.597232,-10807.006753,-919.314598
3251.778195,1036.288319,-10658.965565,995.924147
3251.778523,0.000000,-9770.718434,1149.143247
3251.778851,592.164754,-8808.450710,-1072.533697
3251.779178,888.247130,-8956.491898,-536.266849
3251.779506,888.247130,-9992.780217,306.438199
3251.779834,666.185348,-9252.574275,1532.190996
3251.780162,962.267725,-9696.697840,1608.800546
3251.780489,518.144159,-10658.965565,153.219100
3251.780817,-1184.329507,-10362.883188,-612.876398
3251.781145,-2442.679609,-9474.636058,-1072.533697
3251.781472,-1998.556043,-9918.759623,-1762.019645
3251.781800,-888.247130,-10436.903782,-1149.143247
3251.782128,74.020594,-10436.903782,-536.266849
3251.782455,518.144159,-8660.409521,-689.485948
3251.782783,1406.391290,-9474.636058,766.095498
3251.783111,296.082377,-9326.594869,766.095498
3251.783438,-444.123565,-9400.615463,229.828649
3251.783766,-1628.453072,-9696.697840,0.000000
3251.784094,-1036.288319,-9252.574275,-995.924147
3251.784421,-296.082377,-10436.903782,-689.485948
3251.784749,222.061783,-12361.439231,612.876398
3251.785077,1702.473667,-11399.171507,-306.438199
3251.785404,296.082377,-10066.800811,153.219100
3251.785732,-962.267725,-9474.636058,-842.705048
3251.786060,-1332.370696,-7920.203579,-1072.533697
3251.786387,-1480.411884,-7476.080014,-689.485948
3251.786715,-444.123565,-7994.224174,0.000000
3251.787043,-740.205942,-9474.636058,1225.752797
3251.787370,-296.082377,-9770.718434,1838.629195
3251.787698,370.102971,-8586.388927,229.828649
3251.788026,1406.391290,-9474.636058,-766.095498
3251.788354,1776.494261,-11325.150913,-1225.752797
3251.788681,1702.473667,-11695.253884,-459.657299
3251.789009,888.247130,-10436.903782,-383.047749
3251.789337,888.247130,-8586.388927,-995.924147
3251.789664,1258.350101,-9178.553681,-383.047749
3251.789992,888.247130,-9474.636058,612.876398
3251.790320,370.102971,-9474.636058,1302.362347
3251.790647,0.000000,-8364.327145,1302.362347
3251.790975,592.164754,-7846.182985,-2068.457845
3251.791303,666.185348,-9030.512492,-1838.629195
3251.791630,148.041188,-10584.944971,-306.438199
3251.791958,1258.350101,-10584.944971,229.828649
3251.792286,2294.638420,-11991.336260,76.609550
3251.792613,1850.514855,-11473.192101,-1072.533697
3251.792941,1332.370696,-9104.533087,-1378.971896
3251.793269,296.082377,-9548.656652,0.000000
3251.793596,222.061783,-9622.677246,536.266849
3251.793924,0.000000,-10510.924376,0.000000
3251.794252,-518.144159,-8586.388927,0.000000
3251.794579,74.020594,-7476.080014,-1302.362347
3251.794907,0.000000,-9770.718434,-306.438199
3251.795235,370.102971,-11103.089130,0.000000
3251.795562,0.000000,-10436.903782,229.828649
3251.795890,1332.370696,-9548.656652,-1915.238745
3251.796218,1628.453072,-7476.080014,-2374.896044
3251.796545,444.123565,-9400.615463,153.219100
3251.796873,592.164754,-10140.821405,2374.896044
3251.797201,1480.411884,-9326.594869,1762.019645
3251.797529,1554.432478,-10362.883188,919.314598
3251.797856,74.020594,-10066.800811,0.000000
3251.798184,-2220.617826,-7179.997637,229.828649
3251.798512,-1184.329507,-8068.244768,-612.876398
3251.798839,-740.205942,-10140.821405,-1302.362347
3251.799167,-1110.308913,-10584.944971,-1302.362347
3251.799495,-1850.514855,-7402.059420,-1225.752797
3251.799822,-814.226536,-7994.224174,-536.266849
3251.800150,296.082377,-10584.944971,153.219100
3251.800478,740.205942,-10807.006753,306.438199
3251.800805,-444.123565,-10066.800811,1072.533697
3251.801133,666.185348,-9844.739029,0.000000
3251.801461,962.267725,-8956.491898,-689.485948
3251.801788,518.144159,-10584.944971,842.705048
3251.802116,-370.102971,-11103.089130,689.485948
3251.802444,-444.123565,-9030.512492,-1302.362347
3251.802771,-444.123565,-8512.368333,-1608.800546
3251.803099,370.102971,-8882.471304,-2451.505594
3251.803427,-370.102971,-9400.615463,-459.657299
3251.803754,-444.123565,-9770.718434,689.485948
3251.804082,444.123565,-11325.150913,0.000000
3251.804410,888.247130,-11399.171507,-842.705048
3251.804737,592.164754,-9178.553681,-1455.581446
3251.805065,962.267725,-8438.347739,0.000000
3251.805393,1776.494261,-10955.047942,153.219100
3251.805721,1628.453072,-11991.336260,0.000000
3251.806048,740.205942,-10362.883188,-306.438199
3251.806376,740.205942,-8808.450710,-1685.410096
3251.806704,444.123565,-9548.656652,-919.314598
3251.807031,740.205942,-10658.965565,153.219100
3251.807359,1406.391290,-10288.862594,153.219100
3251.807687,1036.288319,-9770.718434,842.705048
3251.808014,1036.288319,-8956.491898,0.000000
3251.808342,592.164754,-7994.224174,612.876398
3251.808670,0.000000,-8512.368333,1455.581446
3251.808997,-296.082377,-10288.862594,2451.505594
3251.809325,-814.226536,-9400.615463,-306.438199
3251.809653,740.205942,-9400.615463,-2145.067394
3251.809980,-222.061783,-7994.224174,-2451.505594
3251.810308,148.041188,-9400.615463,0.000000
3251.810636,518.144159,-11399.171507,1149.143247
3251.810963,1702.473667,-11695.253884,536.266849
3251.811291,1332.370696,-10066.800811,0.000000
3251.811619,888.247130,-8290.306550,-612.876398
3251.811946,666.185348,-7772.162391,919.314598
3251.812274,1702.473667,-9622.677246,2145.067394
3251.812602,1924.535449,-9918.759623,229.828649
3251.812929,592.164754,-8586.388927,-383.047749
3251.813257,74.020594,-9104.533087,-1455.581446
3251.813585,296.082377,-8290.306550,-1608.800546
3251.813913,222.061783,-9474.636058,383.047749
3251.814240,-1702.473667,-10510.924376,995.924147
3251.814568,-962.267725,-11473.192101,-153.219100
3251.814896,296.082377,-11621.233289,-1685.410096
3251.815223,962.267725,-10214.842000,-1838.629195
3251.815551,148.041188,-10214.842000,229.828649
3251.815879,740.205942,-11177.109724,1072.533697
3251.816206,370.102971,-9474.636058,0.000000
3251.816534,0.000000,-8808.450710,-2451.505594
3251.816862,-1406.391290,-7624.121203,-2374.896044
3251.817189,-1110.308913,-9030.512492,-459.657299
3251.817517,-1628.453072,-9548.656652,612.876398
3251.817845,-1332.370696,-8956.491898,383.047749
3251.818173,-592.164754,-10807.006753,612.876398
3251.818500,592.164754,-10584.944971,76.609550
3251.818828,888.247130,-9770.718434,-689.485948
3251.819156,888.247130,-10807.006753,0.000000
3251.819483,962.267725,-9844.739029,-459.657299
3251.819811,148.041188,-10066.800811,-459.657299
3251.820139,-74.020594,-9030.512492,-383.047749
3251.820467,-74.020594,-7179.997637,306.438199
3251.820794,0.000000,-8586.388927,1532.190996
3251.821122,-740.205942,-9696.697840,1838.629195
3251.821450,-1332.370696,-10066.800811,229.828649
3251.821777,-1702.473667,-9178.553681,-842.705048
3251.822105,-444.123565,-9104.533087,-766.095498
3251.822433,814.226536,-9770.718434,-459.657299
3251.822761,592.164754,-10140.821405,306.438199
3251.823088,370.102971,-10362.883188,306.438199
3251.823416,2886.803174,-10658.965565,-995.924147
3251.823744,1998.556043,-8586.388927,-1149.143247
3251.824071,296.082377,-9326.594869,306.438199
3251.824399,-592.164754,-9622.677246,1225.752797
3251.824727,-444.123565,-8586.388927,536.266849
3251.825054,444.123565,-9696.697840,0.000000
3251.825382,888.247130,-11177.109724,-919.314598
3251.825710,962.267725,-10066.800811,-1685.410096
3251.826038,814.226536,-10436.903782,-536.266849
3251.826365,1036.288319,-10807.006753,-1225.752797
3251.826693,1406.391290,-10288.862594,-2221.676944
3251.827021,888.247130,-9696.697840,-1685.410096
3251.827348,1702.473667,-9178.553681,-536.266849
3251.827676,2294.638420,-10510.924376,995.924147
3251.828004,2368.659014,-9992.780217,612.876398
3251.828332,1554.432478,-9844.739029,1072.533697
3251.828659,0.000000,-10510.924376,766.095498
3251.828987,-592.164754,-9400.615463,-842.705048
3251.829315,-296.082377,-9918.759623,-1225.752797
3251.829642,1480.411884,-11399.171507,-1455.581446
3251.829970,2294.638420,-10584.944971,-919.314598
3251.830298,2664.741391,-10066.800811,612.876398
3251.830626,2220.617826,-8586.388927,689.485948
3251.830953,222.061783,-8512.368333,1302.362347
3251.831281,-518.144159,-9252.574275,1072.533697
3251.831609,-1184.329507,-8142.265362,-153.219100
3251.831936,-1702.473667,-8512.368333,-306.438199
3251.832264,-2368.659014,-8956.491898,-306.438199
3251.832592,-1628.453072,-9548.656652,995.924147
3251.832920,888.247130,-11399.171507,229.828649
3251.833247,1184.329507,-11325.150913,-1225.752797
3251.833575,814.226536,-9992.780217,-842.705048
3251.833903,148.041188,-8438.347739,-306.438199
3251.834230,148.041188,-7698.141797,0.000000
3251.834558,1332.370696,-9400.615463,1225.752797
3251.834886,1036.288319,-9030.512492,1685.410096
3251.835214,-740.205942,-8956.491898,2374.896044
3251.835541,-1110.308913,-9844.739029,1302.362347
3251.835869,-1480.411884,-9474.636058,-995.924147
3251.836197,-1554.432478,-10658.965565,-2374.896044
3251.836524,-1480.411884,-11473.192101,-2298.286494
3251.836852,592.164754,-10510.924376,-1762.019645
3251.837180,2072.576638,-10732.986159,-766.095498
3251.837507,1924.535449,-11621.233289,-766.095498
3251.837835,592.164754,-11547.212695,383.047749
3251.838163,296.082377,-9030.512492,-612.876398
3251.838491,-444.123565,-7624.121203,-1608.800546
3251.838818,-1702.473667,-8586.388927,0.000000
3251.839146,-1850.514855,-8438.347739,536.266849
3251.839474,-1850.514855,-9178.553681,1149.143247
3251.839801,1406.391290,-12435.459826,612.876398
3251.840129,2294.638420,-11251.130318,-1378.971896
3251.840457,962.267725,-9548.656652,-1532.190996
3251.840785,0.000000,-10066.800811,-1455.581446
3251.841112,0.000000,-9178.553681,-1991.848295
3251.841440,1258.350101,-9622.677246,-612.876398
3251.841768,592.164754,-10066.800811,842.705048
3251.842095,592.164754,-10362.883188,2068.457845
3251.842423,1554.432478,-9696.697840,2451.505594
3251.842751,592.164754,-7402.059420,1302.362347
3251.843079,222.061783,-9474.636058,459.657299
3251.843406,-1332.370696,-9770.718434,76.609550
3251.843734,-1184.329507,-8734.430116,-995.924147
3251.844062,222.061783,-9252.574275,-2911.162892
3251.844389,0.000000,-10362.883188,-2221.676944
3251.844717,1110.308913,-9696.697840,-306.438199
3251.845045,2146.597232,-9770.718434,306.438199
3251.845373,1628.453072,-9844.739029,766.095498
3251.845700,1184.329507,-10214.842000,1455.581446
3251.846028,370.102971,-8364.327145,459.657299
3251.846356,-444.123565,-6809.894666,0.000000
3251.846683,-592.164754,-9474.636058,1149.143247
3251.847011,-888.247130,-10955.047942,766.095498
3251.847339,0.000000,-10658.965565,-306.438199
3251.847666,814.226536,-10732.986159,-2757.943793
3251.847994,1702.473667,-9622.677246,-3600.648841
3251.848322,1554.432478,-9770.718434,-1225.752797
3251.848650,814.226536,-10214.842000,919.314598
3251.848977,0.000000,-10214.842000,1149.143247
3251.849305,-666.185348,-9770.718434,536.266849
3251.849633,148.041188,-9252.574275,-919.314598
3251.849960,-296.082377,-9918.759623,229.828649
3251.850288,444.123565,-11621.233289,1149.143247
3251.850616,1258.350101,-10955.047942,-459.657299
3251.850944,888.247130,-10214.842000,-2221.676944
3251.851271,222.061783,-8808.450710,-2221.676944
3251.851599,1036.288319,-7698.141797,-1378.971896
3251.851927,962.267725,-9770.718434,842.705048
3251.852254,518.144159,-10732.986159,2145.067394
3251.852582,518.144159,-9326.594869,1072.533697
3251.852910,-148.041188,-8808.450710,229.828649
