#time,accel_x,accel_y,accel_z
3219.367085,0.000000,-9030.512492,0.000000
3219.367413,0.000000,-8512.368333,-229.828649
3219.367741,-592.164754,-8956.491898,-689.485948
3219.368068,-370.102971,-9400.615463,-919.314598
3219.368396,148.041188,-10140.821405,-689.485948
3219.368724,444.123565,-10658.965565,-459.657299
3219.369052,444.123565,-10436.903782,-306.438199
3219.369379,888.247130,-10510.924376,-383.047749
3219.369707,592.164754,-9696.697840,0.000000
3219.370035,740.205942,-9918.759623,-383.047749
3219.370362,740.205942,-9474.636058,-153.219100
3219.370690,222.061783,-9622.677246,-153.219100
3219.371018,0.000000,-9474.636058,0.000000
3219.371346,-148.041188,-9548.656652,-153.219100
3219.371673,0.000000,-9622.677246,-612.876398
3219.372001,74.020594,-9844.739029,-536.266849
3219.372329,222.061783,-10214.842000,-1149.143247
3219.372656,888.247130,-10510.924376,-766.095498
3219.372984,666.185348,-10362.883188,0.000000
3219.373312,518.144159,-9844.739029,0.000000
3219.373640,444.123565,-9474.636058,0.000000
3219.373967,814.226536,-9400.615463,689.485948
3219.374295,370.102971,-8808.450710,0.000000
3219.374623,74.020594,-8808.450710,0.000000
3219.374950,0.000000,-9030.512492,0.000000
3219.375278,0.000000,-9030.512492,0.000000
3219.375606,74.020594,-9474.636058,-229.828649
3219.375934,222.061783,-9622.677246,-306.438199
3219.376261,518.144159,-9918.759623,0.000000
3219.376589,1036.288319,-9918.759623,0.000000
3219.376917,1036.288319,-10436.903782,-153.219100
3219.377245,444.123565,-9918.759623,0.000000
3219.377572,444.123565,-9548.656652,0.000000
3219.377900,222.061783,-9326.594869,0.000000
3219.378228,148.041188,-9104.533087,-306.438199
3219.378555,0.000000,-9030.512492,-229.828649
3219.378883,-222.061783,-9030.512492,-153.219100
3219.379211,0.000000,-9474.636058,-919.314598
3219.379539,296.082377,-9918.759623,-459.657299
3219.379866,518.144159,-10436.903782,-842.705048
3219.380194,888.247130,-10510.924376,-459.657299
3219.380522,962.267725,-9992.780217,-383.047749
3219.380849,1406.391290,-10066.800811,-612.876398
3219.381177,1776.494261,-9844.739029,76.609550
3219.381505,2072.576638,-9178.553681,0.000000
3219.381833,2220.617826,-8512.368333,76.609550
3219.382160,3182.885551,-8734.430116,-536.266849
3219.382488,3775.050304,-9918.759623,-459.657299
3219.382816,4959.379811,-9844.739029,-459.657299
3219.383143,6069.688724,-9992.780217,-995.924147
3219.383471,6809.894666,-10362.883188,-766.095498
3219.383799,7550.100608,-10955.047942,0.000000
3219.384127,8142.265362,-10436.903782,76.609550
3219.384454,7772.162391,-10288.862594,766.095498
3219.384782,8882.471304,-9326.594869,306.438199
3219.385110,9622.677246,-8734.430116,0.000000
3219.385437,9696.697840,-8512.368333,766.095498
3219.385765,10436.903782,-8438.347739,919.314598
3219.386093,11103.089130,-7994.224174,459.657299
3219.386421,11695.253884,-8956.491898,-306.438199
3219.386748,11843.295072,-9622.677246,306.438199
3219.387076,11547.212695,-9474.636058,76.609550
3219.387404,11621.233289,-9474.636058,229.828649
3219.387732,13471.748144,-10658.965565,459.657299
3219.388059,14137.933492,-10362.883188,229.828649
3219.388387,14804.118840,-10584.944971,1225.752797
3219.388715,15322.262999,-9622.677246,2145.067394
3219.389042,15470.304188,-8660.409521,766.095498
3219.389370,14211.954086,-8586.388927,383.047749
3219.389698,13249.686362,-8956.491898,459.657299
3219.390026,13101.645173,-9326.594869,536.266849
3219.390353,12879.583391,-9474.636058,383.047749
3219.390681,13693.809927,-10436.903782,306.438199
3219.391009,12953.603985,-9918.759623,0.000000
3219.391336,13249.686362,-10436.903782,612.876398
3219.391664,12879.583391,-10066.800811,1225.752797
3219.391992,12065.356855,-9474.636058,689.485948
3219.392320,11177.109724,-9770.718434,0.000000
3219.392647,10436.903782,-10436.903782,-612.876398
3219.392975,8808.450710,-9474.636058,-612.876398
3219.393303,8216.285956,-7402.059420,459.657299
3219.393630,7994.224174,-8438.347739,-229.828649
3219.393958,9178.553681,-9992.780217,-612.876398
3219.394286,9178.553681,-10881.027347,-536.266849
3219.394614,9326.594869,-11843.295072,0.000000
3219.394941,8734.430116,-11621.233289,0.000000
3219.395269,7624.121203,-9030.512492,306.438199
3219.395597,8734.430116,-8142.265362,0.000000
3219.395924,8808.450710,-8956.491898,1072.533697
3219.396252,8734.430116,-9770.718434,1378.971896
3219.396580,8290.306550,-10881.027347,1149.143247
3219.396908,7550.100608,-8734.430116,229.828649
3219.397235,7105.977043,-7698.141797,-1072.533697
3219.397563,6069.688724,-9770.718434,-766.095498
3219.397891,5995.668130,-10288.862594,-229.828649
3219.398218,8290.306550,-9400.615463,-1225.752797
3219.398546,9992.780217,-9548.656652,-1225.752797
3219.398874,9474.636058,-10732.986159,153.219100
3219.399202,7179.997637,-9548.656652,1302.362347
3219.399529,5477.523971,-7031.956449,1532.190996
3219.399857,6661.853478,-7105.977043,0.000000
3219.400185,9918.759623,-10140.821405,-1608.800546
3219.400513,9992.780217,-10732.986159,-536.266849
3219.400840,8808.450710,-9770.718434,536.266849
3219.401168,8512.368333,-10584.944971,383.047749
3219.401496,7994.224174,-11769.274478,-766.095498
3219.401823,7031.956449,-10362.883188,-842.705048
3219.402151,5625.565159,-7698.141797,-766.095498
3219.402479,6439.791695,-8216.285956,-1378.971896
3219.402807,7402.059420,-9696.697840,0.000000
3219.403134,7328.038826,-10066.800811,1685.410096
3219.403462,5699.585753,-9844.739029,2834.553343
3219.403790,5699.585753,-8216.285956,1532.190996
3219.404117,4441.235652,-6809.894666,-919.314598
3219.404445,3701.029710,-8364.327145,-1608.800546
3219.404773,5847.626942,-10214.842000,-2451.505594
3219.405101,7698.141797,-9252.574275,-1608.800546
3219.405428,6513.812290,-9622.677246,919.314598
3219.405756,5477.523971,-11251.130318,2145.067394
3219.406084,7550.100608,-10807.006753,229.828649
3219.406411,9252.574275,-9844.739029,-1838.629195
3219.406739,7698.141797,-11695.253884,-306.438199
3219.407067,7920.203579,-10732.986159,-766.095498
3219.407395,9030.512492,-10214.842000,766.095498
3219.407722,6883.915261,-11325.150913,2987.772442
3219.408050,4589.276840,-8660.409521,2221.676944
3219.408378,2516.700203,-7031.956449,229.828649
3219.408705,0.000000,-9326.594869,536.266849
3219.409033,444.123565,-10362.883188,-1149.143247
3219.409361,148.041188,-9178.553681,-1991.848295
3219.409689,-1850.514855,-10807.006753,459.657299
3219.410016,-1480.411884,-9252.574275,536.266849
3219.410344,-444.123565,-8290.306550,-2145.067394
3219.410672,-2442.679609,-10214.842000,-536.266849
3219.411000,-962.267725,-11251.130318,-383.047749
3219.411327,814.226536,-9844.739029,-2604.724693
3219.411655,-1406.391290,-10658.965565,-1149.143247
3219.411983,-2516.700203,-10214.842000,1532.190996
3219.412310,-888.247130,-8660.409521,-229.828649
3219.412638,-2664.741391,-9696.697840,536.266849
3219.412966,-2590.720797,-11251.130318,689.485948
3219.413294,-1258.350101,-10510.924376,-1762.019645
3219.413621,-1924.535449,-9474.636058,76.609550
3219.413949,-370.102971,-9696.697840,1072.533697
3219.414277,-370.102971,-8586.388927,842.705048
3219.414604,-1702.473667,-7846.182985,1915.238745
3219.414932,-1554.432478,-7846.182985,766.095498
3219.415260,-2220.617826,-8586.388927,-612.876398
3219.415588,-2368.659014,-7476.080014,-1149.143247
3219.415915,-1776.494261,-8438.347739,-1455.581446
3219.416243,-2368.659014,-10362.883188,-612.876398
3219.416571,-2368.659014,-10881.027347,-153.219100
3219.416898,-1850.514855,-11177.109724,-995.924147
3219.417226,-1258.350101,-10436.903782,-766.095498
3219.417554,74.020594,-10362.883188,-1608.800546
3219.417882,-592.164754,-10066.800811,-536.266849
3219.418209,-666.185348,-9844.739029,1225.752797
3219.418537,-296.082377,-8808.450710,536.266849
3219.418865,-444.123565,-8882.471304,76.609550
3219.419192,444.123565,-8142.265362,-1302.362347
3219.419520,444.123565,-8808.450710,-1455.581446
3219.419848,-148.041188,-9622.677246,-919.314598
3219.420176,2368.659014,-11103.089130,-2757.943793
3219.420503,3478.967927,-12065.356855,-2451.505594
3219.420831,2886.803174,-11843.295072,-459.657299
3219.421159,3997.112087,-11399.171507,-689.485948
3219.421487,3775.050304,-12213.398043,383.047749
3219.421814,2294.638420,-12435.459826,766.095498
3219.422142,2220.617826,-10955.047942,-766.095498
3219.422470,1110.308913,-9104.533087,-1149.143247
3219.422797,962.267725,-7920.203579,0.000000
3219.423125,0.000000,-8660.409521,383.047749
3219.423453,-1480.411884,-7920.203579,842.705048
3219.423781,-740.205942,-9178.553681,-689.485948
3219.424108,592.164754,-10140.821405,-2834.553343
3219.424436,2072.576638,-9474.636058,-2221.676944
3219.424764,3701.029710,-9770.718434,-766.095498
3219.425091,4367.215058,-10955.047942,2145.067394
3219.425419,4737.318029,-11547.212695,3294.210641
3219.425747,4663.297435,-10881.027347,2068.457845
3219.426075,2294.638420,-10510.924376,1225.752797
3219.426402,740.205942,-9474.636058,153.219100
3219.426730,-666.185348,-7846.182985,-766.095498
3219.427058,-1258.350101,-7846.182985,-689.485948
3219.427385,-1998.556043,-7920.203579,153.219100
3219.427713,-2146.597232,-7920.203579,1532.190996
3219.428041,-518.144159,-7031.956449,536.266849
3219.428369,1332.370696,-7402.059420,0.000000
3219.428696,1480.411884,-8660.409521,689.485948
3219.429024,740.205942,-9696.697840,1608.800546
3219.429352,370.102971,-10658.965565,1762.019645
3219.429679,222.061783,-10066.800811,0.000000
3219.430007,592.164754,-10362.883188,-842.705048
3219.430335,-592.164754,-10881.027347,229.828649
3219.430663,-518.144159,-10436.903782,229.828649
3219.430990,-1480.411884,-10807.006753,-1455.581446
3219.431318,-3034.844362,-11991.336260,-2451.505594
3219.431646,-4219.173869,-10140.821405,-2221.676944
3219.431973,-2664.741391,-7179.997637,-2451.505594
3219.432301,-2590.720797,-7254.018232,-1225.752797
3219.432629,-1776.494261,-7328.038826,1149.143247
3219.432956,962.267725,-8808.450710,306.438199
3219.433284,1184.329507,-10288.862594,306.438199
3219.433612,888.247130,-9622.677246,229.828649
3219.433939,148.041188,-9474.636058,-766.095498
3219.434267,-2738.761985,-11029.068536,-842.705048
3219.434594,-2294.638420,-12509.480420,-2757.943793
3219.434922,-2220.617826,-11251.130318,-3983.696590
3219.435250,-1332.370696,-10510.924376,-3140.991542
3219.435577,0.000000,-11399.171507,-995.924147
3219.435905,962.267725,-10658.965565,536.266849
3219.436233,1406.391290,-9622.677246,1378.971896
3219.436560,1406.391290,-9992.780217,0.000000
3219.436888,296.082377,-6957.935855,306.438199
3219.437216,962.267725,-5329.482782,536.266849
3219.437543,666.185348,-6143.709319,1072.533697
3219.437871,962.267725,-8512.368333,1072.533697
3219.438198,370.102971,-9770.718434,842.705048
3219.438526,296.082377,-11251.130318,-306.438199
3219.438854,0.000000,-10362.883188,-1608.800546
3219.439181,296.082377,-10881.027347,-2068.457845
3219.439509,518.144159,-11399.171507,-1608.800546
3219.439837,2072.576638,-11547.212695,-612.876398
3219.440164,3552.988522,-10807.006753,0.000000
3219.440492,2220.617826,-9400.615463,1915.238745
3219.440820,2072.576638,-8142.265362,3140.991542
3219.441147,1850.514855,-7402.059420,2374.896044
3219.441475,814.226536,-7031.956449,689.485948
3219.441802,888.247130,-7550.100608,-536.266849
3219.442130,1184.329507,-9400.615463,-766.095498
3219.442458,1036.288319,-8586.388927,153.219100
3219.442785,2368.659014,-8586.388927,-919.314598
3219.443113,1998.556043,-11695.253884,-689.485948
3219.443441,2072.576638,-13545.768739,612.876398
3219.443768,3034.844362,-12287.418637,-842.705048
3219.444096,2072.576638,-11251.130318,-1149.143247
3219.444424,1628.453072,-11621.233289,-766.095498
3219.444751,1258.350101,-11177.109724,-766.095498
3219.445079,-1480.411884,-8660.409521,0.000000
3219.445406,-1628.453072,-8660.409521,-306.438199
3219.445734,-1702.473667,-8142.265362,-919.314598
3219.446062,-1776.494261,-7624.121203,0.000000
3219.446389,-1332.370696,-8882.471304,-1149.143247
3219.446717,-1702.473667,-9622.677246,-1302.362347
3219.447045,-296.082377,-10214.842000,-1149.143247
3219.447372,2294.638420,-11325.150913,-1378.971896
3219.447700,1332.370696,-12361.439231,842.705048
3219.448028,1110.308913,-10732.986159,3140.991542
3219.448355,1850.514855,-10214.842000,-459.657299
3219.448683,-296.082377,-10955.047942,-1072.533697
3219.449010,-2590.720797,-10436.903782,-1915.238745
3219.449338,-4145.153275,-8808.450710,-689.485948
3219.449666,-4293.194464,-6069.688724,153.219100
3219.449993,-3256.906145,-5921.647536,-1302.362347
3219.450321,-2294.638420,-7994.224174,-689.485948
3219.450649,-666.185348,-7476.080014,1532.190996
3219.450976,1406.391290,-8734.430116,919.314598
3219.451304,888.247130,-8956.491898,2221.676944
3219.451631,0.000000,-9326.594869,1762.019645
3219.451959,-592.164754,-10214.842000,842.705048
3219.452287,-740.205942,-10807.006753,-229.828649
3219.452614,0.000000,-11251.130318,-766.095498
3219.452942,-814.226536,-11251.130318,-919.314598
3219.453270,-1258.350101,-9696.697840,0.000000
3219.453597,0.000000,-9992.780217,-1378.971896
3219.453925,-148.041188,-9400.615463,-1455.581446
3219.454253,-1110.308913,-9104.533087,-229.828649
3219.454580,-444.123565,-9104.533087,-459.657299
3219.454908,148.041188,-8512.368333,229.828649
3219.455235,1924.535449,-8512.368333,229.828649
3219.455563,1924.535449,-9400.615463,842.705048
3219.455891,962.267725,-11029.068536,2528.115143
3219.456218,2664.741391,-11251.130318,689.485948
3219.456546,2590.720797,-11843.295072,-2068.457845
3219.456874,0.000000,-12435.459826,-1455.581446
3219.457201,-518.144159,-10658.965565,-2451.505594
3219.457529,-444.123565,-10288.862594,-2604.724693
3219.457857,444.123565,-10658.965565,-766.095498
3219.458184,1776.494261,-9918.759623,0.000000
3219.458512,1850.514855,-10214.842000,1762.019645
3219.458839,3034.844362,-10214.842000,2145.067394
3219.459167,3256.906145,-8290.306550,459.657299
3219.459495,1184.329507,-6883.915261,766.095498
3219.459822,0.000000,-7772.162391,2145.067394
3219.460150,-370.102971,-8512.368333,459.657299
3219.460478,0.000000,-8512.368333,-689.485948
3219.460805,666.185348,-8660.409521,-1532.190996
3219.461133,74.020594,-9844.739029,0.000000
3219.461461,740.205942,-10436.903782,306.438199
3219.461788,1406.391290,-10362.883188,-995.924147
3219.462116,1332.370696,-11769.274478,-842.705048
3219.462443,1850.514855,-10140.821405,-1532.190996
3219.462771,1628.453072,-8956.491898,0.000000
3219.463099,-222.061783,-7772.162391,1838.629195
3219.463426,74.020594,-7920.203579,1762.019645
3219.463754,370.102971,-8808.450710,1149.143247
3219.464082,296.082377,-8290.306550,-766.095498
3219.464409,962.267725,-7698.141797,-1532.190996
3219.464737,592.164754,-9548.656652,-1455.581446
3219.465065,0.000000,-10066.800811,229.828649
3219.465392,666.185348,-11325.150913,-1072.533697
3219.465720,-148.041188,-11917.315666,-612.876398
3219.466047,222.061783,-10955.047942,-459.657299
3219.466375,1332.370696,-11251.130318,-153.219100
3219.466703,1036.288319,-12583.501014,1072.533697
3219.467030,370.102971,-11843.295072,0.000000
3219.467358,-444.123565,-9918.759623,-1455.581446
3219.467686,-1998.556043,-8660.409521,-2221.676944
3219.468013,-2516.700203,-8290.306550,-2221.676944
3219.468341,-3108.864956,-6587.832884,76.609550
3219.468668,-2146.597232,-7402.059420,1302.362347
3219.468996,-1702.473667,-9622.677246,0.000000
3219.469324,-1628.453072,-9992.780217,-1378.971896
3219.469651,518.144159,-9474.636058,-1762.019645
3219.469979,1850.514855,-11325.150913,-383.047749
3219.470307,740.205942,-13471.748144,2681.334243
3219.470634,888.247130,-12435.459826,2068.457845
3219.470962,444.123565,-9326.594869,-995.924147
3219.471290,-370.102971,-8512.368333,-2221.676944
3219.471617,-962.267725,-8734.430116,-1838.629195
3219.471945,-1776.494261,-7550.100608,383.047749
3219.472272,-1924.535449,-5773.606348,919.314598
3219.472600,0.000000,-7402.059420,0.000000
3219.472928,444.123565,-8364.327145,459.657299
3219.473255,1998.556043,-8216.285956,1149.143247
3219.473583,3256.906145,-8364.327145,1685.410096
3219.473911,2442.679609,-10214.842000,1225.752797
3219.474238,1332.370696,-12361.439231,612.876398
3219.474566,370.102971,-12065.356855,-612.876398
3219.474894,1184.329507,-10584.944971,-1762.019645
3219.475221,1480.411884,-9252.574275,-1685.410096
3219.475549,148.041188,-10140.821405,0.000000
3219.475876,148.041188,-10881.027347,1072.533697
3219.476204,2220.617826,-9474.636058,-1532.190996
3219.476532,1480.411884,-7328.038826,-1915.238745
3219.476859,0.000000,-8956.491898,-612.876398
3219.477187,-740.205942,-9770.718434,536.266849
3219.477515,592.164754,-8734.430116,612.876398
3219.477842,2960.823768,-9474.636058,-229.828649
3219.478170,1850.514855,-12657.521608,689.485948
3219.478498,1628.453072,-12361.439231,1225.752797
3219.478825,3034.844362,-9770.718434,-995.924147
3219.479153,1776.494261,-10288.862594,-1532.190996
3219.479480,-888.247130,-11621.233289,-1378.971896
3219.479808,-1184.329507,-11399.171507,-2451.505594
3219.480136,-962.267725,-9474.636058,-1685.410096
3219.480463,222.061783,-7550.100608,-1302.362347
3219.480791,888.247130,-8290.306550,229.828649
3219.481119,0.000000,-10140.821405,3677.258390
3219.481446,888.247130,-10584.944971,3217.601092
3219.481774,1998.556043,-9104.533087,-689.485948
3219.482102,0.000000,-7179.997637,-1302.362347
3219.482429,-1332.370696,-7846.182985,-229.828649
3219.482757,-1110.308913,-7698.141797,766.095498
3219.483084,-296.082377,-8660.409521,1608.800546
3219.483412,-1184.329507,-9622.677246,536.266849
3219.483740,-888.247130,-10510.924376,-459.657299
3219.484067,-148.041188,-10214.842000,-995.924147
3219.484395,0.000000,-11029.068536,-1608.800546
3219.484723,-888.247130,-10436.903782,0.000000
3219.485050,-518.144159,-9918.759623,-842.705048
3219.485378,-296.082377,-9918.759623,-383.047749
3219.485705,296.082377,-8586.388927,0.000000
3219.486033,962.267725,-7698.141797,-536.266849
3219.486361,-148.041188,-9030.512492,1532.190996
3219.486688,518.144159,-9326.594869,1455.581446
3219.487016,1184.329507,-10436.903782,-612.876398
3219.487344,-814.226536,-10140.821405,-383.047749
3219.487671,148.041188,-9474.636058,-919.314598
3219.487999,518.144159,-10066.800811,-1378.971896
3219.488327,-296.082377,-12287.418637,153.219100
3219.488654,222.061783,-12287.418637,-536.266849
3219.488982,74.020594,-10362.883188,-1455.581446
3219.489309,-296.082377,-9548.656652,-689.485948
3219.489637,2072.576638,-9178.553681,-153.219100
3219.489965,1702.473667,-10288.862594,612.876398
3219.490292,1480.411884,-9178.553681,229.828649
3219.490620,370.102971,-7920.203579,306.438199
3219.490948,-1480.411884,-7920.203579,76.609550
3219.491275,-1628.453072,-9326.594869,-766.095498
3219.491603,-1184.329507,-8956.491898,-1149.143247
3219.491931,296.082377,-8956.491898,-919.314598
3219.492258,1110.308913,-10510.924376,-995.924147
3219.492586,1184.329507,-12583.501014,689.485948
3219.492913,1036.288319,-10584.944971,1455.581446
3219.493241,1406.391290,-8364.327145,-536.266849
3219.493569,666.185348,-9252.574275,76.609550
3219.493896,518.144159,-9992.780217,-229.828649
3219.494224,1110.308913,-8142.265362,-1072.533697
3219.494552,888.247130,-6513.812290,459.657299
3219.494879,1332.370696,-7328.038826,1455.581446
3219.495207,888.247130,-10066.800811,1838.629195
3219.495535,962.267725,-10288.862594,1915.238745
3219.495862,222.061783,-9104.533087,-383.047749
3219.496190,1554.432478,-9548.656652,-1838.629195
3219.496517,148.041188,-10288.862594,-1302.362347
3219.496845,592.164754,-10214.842000,-306.438199
3219.497173,518.144159,-9252.574275,1072.533697
3219.497500,740.205942,-10436.903782,153.219100
3219.497828,1184.329507,-11769.274478,-612.876398
3219.498156,1036.288319,-10362.883188,-383.047749
3219.498483,1628.453072,-9178.553681,0.000000
3219.498811,2146.597232,-8660.409521,0.000000
3219.499139,-740.205942,-8438.347739,76.609550
3219.499466,-1924.535449,-10288.862594,-153.219100
3219.499794,-962.267725,-10214.842000,-1532.190996
3219.500121,666.185348,-8438.347739,-1838.629195
3219.500449,1406.391290,-10584.944971,-536.266849
3219.500777,1554.432478,-12509.480420,612.876398
3219.501104,1110.308913,-10584.944971,766.095498
3219.501432,1110.308913,-8808.450710,-1072.533697
3219.501760,-814.226536,-10140.821405,-1608.800546
3219.502087,-2220.617826,-10881.027347,-1225.752797
3219.502415,-1554.432478,-9030.512492,-1532.190996
3219.502743,-814.226536,-8882.471304,-1608.800546
3219.503070,296.082377,-10658.965565,-612.876398
3219.503398,444.123565,-11621.233289,1685.410096
3219.503725,666.185348,-10140.821405,1838.629195
3219.504053,666.185348,-8808.450710,-383.047749
3219.504381,-1036.288319,-8438.347739,-1608.800546
3219.504708,-1776.494261,-7994.224174,-1149.143247
3219.505036,-222.061783,-7698.141797,-766.095498
3219.505364,296.082377,-8882.471304,1149.143247
3219.505691,1702.473667,-9844.739029,2757.943793
3219.506019,2220.617826,-9474.636058,2221.676944
3219.506346,666.185348,-11103.089130,1225.752797
3219.506674,518.144159,-11473.192101,-842.705048
3219.507002,-962.267725,-10066.800811,-2298.286494
3219.507329,-2294.638420,-9770.718434,-2221.676944
3219.507657,-1702.473667,-8586.388927,-1991.848295
3219.507985,-1480.411884,-8068.244768,-1072.533697
3219.508312,0.000000,-7698.141797,1072.533697
3219.508640,1258.350101,-8586.388927,1072.533697
3219.508968,1776.494261,-10214.842000,1072.533697
3219.509295,2368.659014,-9400.615463,459.657299
3219.509623,1850.514855,-10066.800811,0.000000
3219.509950,0.000000,-10955.047942,0.000000
3219.510278,370.102971,-10362.883188,-766.095498
3219.510606,1332.370696,-11399.171507,-459.657299
3219.510933,1258.350101,-12065.356855,0.000000
3219.511261,962.267725,-10066.800811,-689.485948
3219.511589,518.144159,-9474.636058,0.000000
3219.511916,74.020594,-9622.677246,306.438199
3219.512244,444.123565,-9918.759623,-612.876398
3219.512572,74.020594,-10140.821405,-459.657299
3219.512899,444.123565,-7105.977043,-612.876398
3219.513227,444.123565,-7179.997637,-306.438199
3219.513554,0.000000,-9992.780217,1455.581446
3219.513882,1406.391290,-12213.398043,919.314598
3219.514210,1776.494261,-11991.336260,-689.485948
3219.514537,2368.659014,-10362.883188,-2145.067394
3219.514865,222.061783,-10214.842000,-1991.848295
3219.515193,-1628.453072,-10436.903782,842.705048
3219.515520,-1110.308913,-8808.450710,919.314598
3219.515848,0.000000,-8882.471304,-1378.971896
3219.516176,-1110.308913,-9326.594869,-766.095498
3219.516503,-962.267725,-8290.306550,0.000000
3219.516831,-592.164754,-7179.997637,0.000000
3219.517158,-370.102971,-7550.100608,1149.143247
3219.517486,592.164754,-9474.636058,766.095498
3219.517814,1924.535449,-9992.780217,76.609550
3219.518141,2368.659014,-9622.677246,76.609550
3219.518469,1998.556043,-9252.574275,229.828649
3219.518797,888.247130,-9548.656652,1072.533697
3219.519124,-296.082377,-9992.780217,612.876398
3219.519452,-1036.288319,-11325.150913,-459.657299
3219.519780,-1554.432478,-10955.047942,-153.219100
3219.520107,-814.226536,-9474.636058,-1149.143247
3219.520435,-962.267725,-9474.636058,-766.095498
3219.520762,-740.205942,-9474.636058,76.609550
3219.521090,0.000000,-10066.800811,0.000000
3219.521418,-296.082377,-9178.553681,383.047749
3219.521745,-1554.432478,-8512.368333,-306.438199
3219.522073,-1406.391290,-9474.636058,-995.924147
3219.522401,-666.185348,-8660.409521,0.000000
3219.522728,962.267725,-9548.656652,612.876398
3219.523056,666.185348,-11325.150913,1378.971896
3219.523383,74.020594,-11843.295072,919.314598
3219.523711,1702.473667,-10807.006753,-383.047749
3219.524039,888.247130,-10510.924376,-2145.067394
3219.524366,-2146.597232,-10510.924376,-842.705048
3219.524694,-1776.494261,-9770.718434,-1149.143247
3219.525022,-740.205942,-8512.368333,-1455.581446
3219.525349,0.000000,-7698.141797,-459.657299
3219.525677,1036.288319,-8364.327145,306.438199
3219.526005,1184.329507,-8882.471304,2374.896044
3219.526332,2146.597232,-9252.574275,2145.067394
3219.526660,1184.329507,-9918.759623,-459.657299
3219.526987,-370.102971,-9104.533087,-1072.533697
3219.527315,0.000000,-7846.182985,-1608.800546
3219.527643,666.185348,-9178.553681,-995.924147
3219.527970,962.267725,-11917.315666,612.876398
3219.528298,2590.720797,-12287.418637,383.047749
3219.528626,3256.906145,-10584.944971,-612.876398
3219.528953,1924.535449,-9622.677246,-306.438199
3219.529281,518.144159,-9992.780217,0.000000
3219.529609,0.000000,-9030.512492,76.609550
3219.529936,370.102971,-9104.533087,-383.047749
3219.530264,0.000000,-8956.491898,-1072.533697
3219.530591,-888.247130,-8586.388927,689.485948
3219.530919,0.000000,-7254.018232,842.705048
3219.531247,296.082377,-8882.471304,612.876398
3219.531574,0.000000,-11547.212695,306.438199
3219.531902,444.123565,-11917.315666,-1762.019645
3219.532230,1332.370696,-11621.233289,-2757.943793
3219.532557,1036.288319,-10510.924376,-1762.019645
3219.532885,666.185348,-9474.636058,-612.876398
3219.533213,888.247130,-10214.842000,1072.533697
3219.533540,1110.308913,-10658.965565,689.485948
3219.533868,2146.597232,-10436.903782,-459.657299
3219.534196,740.205942,-8364.327145,153.219100
3219.534523,0.000000,-7994.224174,383.047749
3219.534851,-814.226536,-9104.533087,229.828649
3219.535179,-1554.432478,-8512.368333,383.047749
3219.535506,-740.205942,-8586.388927,-995.924147
3219.535834,518.144159,-10214.842000,-995.924147
3219.536162,1184.329507,-9696.697840,0.000000
3219.536489,1480.411884,-9844.739029,612.876398
3219.536817,0.000000,-10510.924376,842.705048
3219.537145,-962.267725,-10955.047942,-383.047749
3219.537472,-1110.308913,-10436.903782,-1455.581446
3219.537800,-1332.370696,-9548.656652,-1685.410096
3219.538128,-1702.473667,-8956.491898,-383.047749
3219.538455,-1628.453072,-9178.553681,153.219100
3219.538783,-1036.288319,-9400.615463,229.828649
3219.539111,-222.061783,-9992.780217,-1302.362347
3219.539439,-666.185348,-10214.842000,-995.924147
3219.539766,-296.082377,-8956.491898,229.828649
3219.540094,888.247130,-8142.265362,0.000000
3219.540422,1628.453072,-8586.388927,0.000000
3219.540749,1110.308913,-8882.471304,1072.533697
3219.541077,1110.308913,-10066.800811,1915.238745
3219.541405,814.226536,-10066.800811,1608.800546
3219.541732,1110.308913,-10732.986159,0.000000
3219.542060,-296.082377,-11029.068536,-383.047749
3219.542388,-1924.535449,-10436.903782,-1149.143247
3219.542715,-1776.494261,-10214.842000,-1838.629195
3219.543043,0.000000,-10066.800811,-2911.162892
3219.543371,296.082377,-9918.759623,-459.657299
3219.543698,1332.370696,-9400.615463,1225.752797
3219.544026,1480.411884,-7624.121203,1378.971896
3219.544354,1554.432478,-7772.162391,153.219100
3219.544681,1184.329507,-9474.636058,153.219100
3219.545009,74.020594,-9178.553681,919.314598
3219.545337,592.164754,-8512.368333,1225.752797
3219.545665,1554.432478,-8808.450710,229.828649
3219.545992,1258.350101,-10732.986159,306.438199
3219.546320,1998.556043,-12509.480420,-689.485948
3219.546648,2294.638420,-11843.295072,-1302.362347
3219.546975,1258.350101,-10584.944971,-612.876398
3219.547303,592.164754,-10140.821405,-1072.533697
3219.547631,-296.082377,-8290.306550,-229.828649
3219.547958,740.205942,-8290.306550,-306.438199
3219.548286,1110.308913,-8216.285956,229.828649
3219.548614,370.102971,-8882.471304,1685.410096
3219.548941,666.185348,-9178.553681,1685.410096
3219.549269,74.020594,-8216.285956,0.000000
3219.549597,-148.041188,-8586.388927,-612.876398
3219.549924,148.041188,-9918.759623,-3064.381992
3219.550252,0.000000,-10584.944971,-2298.286494
3219.550580,148.041188,-10658.965565,-995.924147
3219.550908,2368.659014,-10510.924376,-1225.752797
3219.551235,2368.659014,-10140.821405,612.876398
3219.551563,1480.411884,-10881.027347,2145.067394
3219.551891,1184.329507,-11621.233289,1378.971896
3219.552218,-666.185348,-9844.739029,842.705048
3219.552546,-1110.308913,-8808.450710,-919.314598
3219.552874,-2368.659014,-7846.182985,-1608.800546
3219.553201,-3923.091493,-7328.038826,-459.657299
3219.553529,-2368.659014,-8956.491898,-153.219100
3219.553857,-222.061783,-9696.697840,229.828649
3219.554184,296.082377,-9030.512492,76.609550
3219.554512,1184.329507,-10584.944971,76.609550
3219.554840,1554.432478,-10584.944971,0.000000
3219.555167,592.164754,-9474.636058,0.000000
3219.555495,592.164754,-10881.027347,-689.485948
3219.555823,0.000000,-11547.212695,306.438199
3219.556150,592.164754,-10140.821405,153.219100
3219.556478,296.082377,-8660.409521,-689.485948
3219.556806,-1036.288319,-8660.409521,1302.362347
3219.557134,-518.144159,-9548.656652,-689.485948
3219.557461,-666.185348,-9844.739029,-1378.971896
3219.557789,-1554.432478,-8660.409521,-689.485948
3219.558117,0.000000,-7698.141797,-842.705048
3219.558444,222.061783,-7476.080014,229.828649
3219.558772,222.061783,-9326.594869,1915.238745
3219.559100,1406.391290,-10658.965565,459.657299
3219.559427,740.205942,-10955.047942,-459.657299
3219.559755,888.247130,-10140.821405,-1302.362347
3219.560083,370.102971,-10658.965565,-1915.238745
3219.560410,-888.247130,-10658.965565,153.219100
3219.560738,-814.226536,-10955.047942,229.828649
3219.561066,74.020594,-10732.986159,-1455.581446
3219.561393,-370.102971,-9474.636058,-2528.115143
3219.561721,-296.082377,-9178.553681,-2145.067394
3219.562049,222.061783,-8586.388927,-612.876398
3219.562376,1628.453072,-7698.141797,459.657299
3219.562704,2368.659014,-8512.368333,1149.143247
3219.563032,2664.741391,-9252.574275,2451.505594
3219.563360,3034.844362,-9178.553681,1915.238745
3219.563687,2294.638420,-9030.512492,1455.581446
3219.564015,740.205942,-10362.883188,383.047749
3219.564343,0.000000,-11325.150913,-995.924147
3219.564670,-740.205942,-11843.295072,-1915.238745
3219.564998,-518.144159,-11177.109724,-1608.800546
3219.565326,592.164754,-9474.636058,-1762.019645
3219.565653,814.226536,-9844.739029,612.876398
3219.565981,1258.350101,-10066.800811,1915.238745
3219.566309,2368.659014,-9548.656652,612.876398
3219.566636,888.247130,-7476.080014,1072.533697
3219.566964,-592.164754,-6809.894666,995.924147
3219.567292,-1628.453072,-7402.059420,153.219100
3219.567619,-1480.411884,-7698.141797,1455.581446
3219.567947,-370.102971,-8660.409521,459.657299
3219.568275,1332.370696,-11103.089130,153.219100
3219.568602,1258.350101,-12139.377449,0.000000
3219.568930,1184.329507,-10807.006753,-1762.019645
3219.569258,1036.288319,-11621.233289,-1991.848295
3219.569586,444.123565,-11695.253884,-1302.362347
3219.569913,-592.164754,-9474.636058,-612.876398
3219.570241,-888.247130,-8364.327145,-153.219100
3219.570569,740.205942,-8290.306550,0.000000
3219.570896,518.144159,-9326.594869,459.657299
3219.571224,-962.267725,-9770.718434,2298.286494
3219.571552,-740.205942,-9548.656652,842.705048
3219.571879,296.082377,-9622.677246,-2068.457845
3219.572207,0.000000,-9918.759623,-3140.991542
3219.572535,-962.267725,-8364.327145,-1991.848295
3219.572862,-296.082377,-8660.409521,-919.314598
3219.573190,1628.453072,-10584.944971,-229.828649
3219.573518,2220.617826,-12435.459826,306.438199
3219.573845,1924.535449,-11473.192101,1072.533697
3219.574173,2368.659014,-9992.780217,0.000000
3219.574501,-370.102971,-11547.212695,76.609550
3219.574828,-1184.329507,-10288.862594,0.000000
3219.575156,-740.205942,-8512.368333,-1532.190996
3219.575484,-2516.700203,-8068.244768,-766.095498
3219.575812,-2146.597232,-7772.162391,0.000000
3219.576139,-814.226536,-7476.080014,0.000000
3219.576467,-148.041188,-8216.285956,383.047749
3219.576795,888.247130,-9474.636058,306.438199
3219.577122,2220.617826,-10066.800811,153.219100
3219.577450,1036.288319,-9622.677246,689.485948
3219.577778,1036.288319,-9770.718434,153.219100
3219.578105,962.267725,-10881.027347,-612.876398
3219.578433,370.102971,-11103.089130,0.000000
3219.578761,1036.288319,-10732.986159,153.219100
3219.579088,888.247130,-9474.636058,-612.876398
3219.579416,0.000000,-8734.430116,1455.581446
3219.579744,-296.082377,-8290.306550,-153.219100
3219.580071,-518.144159,-8364.327145,-1225.752797
3219.580399,148.041188,-9474.636058,-229.828649
3219.580727,1776.494261,-8660.409521,-612.876398
3219.581055,1702.473667,-8068.244768,766.095498
3219.581382,2368.659014,-10288.862594,2451.505594
3219.581710,1406.391290,-11843.295072,1072.533697
3219.582038,148.041188,-11103.089130,0.000000
3219.582365,0.000000,-10881.027347,-2298.286494
3219.582693,-592.164754,-11473.192101,-2374.896044
3219.583021,-814.226536,-10658.965565,-1302.362347
3219.583348,-592.164754,-10436.903782,-766.095498
3219.583676,0.000000,-9770.718434,-383.047749
3219.584004,1036.288319,-9622.677246,-1225.752797
3219.584331,444.123565,-10658.965565,-842.705048
3219.584659,-296.082377,-9178.553681,76.609550
3219.584987,74.020594,-7624.121203,76.609550
3219.585314,0.000000,-7698.141797,153.219100
3219.585642,518.144159,-8586.388927,842.705048
3219.585970,1184.329507,-10140.821405,1608.800546
3219.586297,666.185348,-10510.924376,2068.457845
3219.586625,444.123565,-10732.986159,1302.362347
3219.586953,-222.061783,-10214.842000,-995.924147
3219.587281,-1998.556043,-10288.862594,-1685.410096
3219.587608,-1554.432478,-9178.553681,-1991.848295
3219.587936,222.061783,-9844.739029,-1532.190996
3219.588264,1110.308913,-10436.903782,229.828649
3219.588591,1036.288319,-10584.944971,1532.190996
3219.588919,740.205942,-8290.306550,2374.896044
3219.589247,0.000000,-6883.915261,229.828649
3219.589574,-666.185348,-8216.285956,-995.924147
3219.589902,-2664.741391,-8660.409521,-766.095498
3219.590230,-2146.597232,-8956.491898,0.000000
3219.590557,888.247130,-8808.450710,0.000000
3219.590885,1554.432478,-9918.759623,153.219100
3219.591213,1110.308913,-11473.192101,76.609550
3219.591540,2516.700203,-12805.562797,153.219100
3219.591868,1258.350101,-11399.171507,-1302.362347
3219.592196,296.082377,-10732.986159,-1685.410096
3219.592523,-666.185348,-9992.780217,-995.924147
3219.592851,-148.041188,-8808.450710,-383.047749
3219.593179,0.000000,-8808.450710,-383.047749
3219.593507,370.102971,-9252.574275,76.609550
3219.593834,0.000000,-9918.759623,1225.752797
3219.594162,888.247130,-10881.027347,0.000000
3219.594490,666.185348,-9178.553681,-1455.581446
3219.594817,0.000000,-9178.553681,-1838.629195
3219.595145,444.123565,-9474.636058,-1685.410096
3219.595473,518.144159,-10584.944971,-229.828649
3219.595800,1332.370696,-10436.903782,153.219100
3219.596128,888.247130,-10140.821405,842.705048
3219.596456,740.205942,-10955.047942,1072.533697
3219.596783,1406.391290,-10955.047942,-306.438199
3219.597111,888.247130,-10214.842000,-1225.752797
3219.597439,444.123565,-9770.718434,-306.438199
3219.597766,1258.350101,-8512.368333,-1225.752797
3219.598094,814.226536,-7105.977043,612.876398
3219.598422,370.102971,-7328.038826,1378.971896
3219.598749,-444.123565,-7994.224174,842.705048
3219.599077,-518.144159,-8512.368333,919.314598
3219.599405,-740.205942,-9178.553681,0.000000
3219.599733,-1110.308913,-9474.636058,-689.485948
3219.600060,-740.205942,-9844.739029,-306.438199
3219.600388,592.164754,-10881.027347,-1302.362347
3219.600716,0.000000,-11769.274478,-459.657299
3219.601043,0.000000,-10807.006753,383.047749
3219.601371,1036.288319,-9474.636058,0.000000
3219.601699,814.226536,-9400.615463,0.000000
3219.602026,888.247130,-10362.883188,-229.828649
3219.602354,518.144159,-10362.883188,-995.924147
3219.602682,444.123565,-8882.471304,76.609550
3219.603009,666.185348,-8882.471304,-383.047749
3219.603337,-814.226536,-8956.491898,0.000000
3219.603665,0.000000,-9770.718434,459.657299
3219.603992,888.247130,-9770.718434,-612.876398
3219.604320,-592.164754,-9992.780217,153.219100
3219.604648,-1110.308913,-10288.862594,229.828649
3219.604975,0.000000,-10510.924376,-2068.457845
3219.605303,-888.247130,-11029.068536,-842.705048
3219.605631,666.185348,-11473.192101,-1455.581446
3219.605959,1406.391290,-11029.068536,-1915.238745
3219.606286,296.082377,-11695.253884,0.000000
3219.606614,1258.350101,-11103.089130,-536.266849
3219.606942,74.020594,-8438.347739,-1378.971896
3219.607269,-1258.350101,-7698.141797,-306.438199
3219.607597,-888.247130,-8808.450710,-383.047749
3219.607925,-666.185348,-7994.224174,0.000000
3219.608252,0.000000,-7698.141797,536.266849
3219.608580,814.226536,-7402.059420,459.657299
3219.608908,1110.308913,-7994.224174,2451.505594
3219.609235,740.205942,-9474.636058,1838.629195
3219.609563,1628.453072,-11473.192101,229.828649
3219.609891,888.247130,-11325.150913,-536.266849
3219.610218,814.226536,-9918.759623,-2145.067394
3219.610546,148.041188,-10214.842000,-1072.533697
3219.610874,74.020594,-9992.780217,0.000000
3219.611201,592.164754,-9622.677246,76.609550
3219.611529,0.000000,-9474.636058,2451.505594
3219.611857,740.205942,-8882.471304,766.095498
3219.612185,1406.391290,-7402.059420,-383.047749
3219.612512,666.185348,-6217.729913,229.828649
3219.612840,-814.226536,-7920.203579,919.314598
3219.613168,-1702.473667,-10807.006753,383.047749
3219.613495,-296.082377,-10140.821405,-383.047749
3219.613823,1998.556043,-10362.883188,-2298.286494
3219.614151,2664.741391,-11843.295072,-1149.143247
3219.614478,1332.370696,-12805.562797,1225.752797
3219.614806,2368.659014,-12213.398043,153.219100
3219.615134,1628.453072,-10955.047942,-1149.143247
3219.615461,-296.082377,-10140.821405,-1762.019645
3219.615789,-1406.391290,-7550.100608,-1915.238745
3219.616117,-1850.514855,-6217.729913,-459.657299
3219.616444,0.000000,-8808.450710,0.000000
3219.616772,370.102971,-10732.986159,153.219100
3219.617100,0.000000,-9030.512492,919.314598
3219.617428,1110.308913,-9252.574275,459.657299
3219.617755,740.205942,-10658.965565,-459.657299
3219.618083,148.041188,-10955.047942,-612.876398
3219.618411,148.041188,-10140.821405,-1915.238745
3219.618738,-296.082377,-10214.842000,-995.924147
3219.619066,666.185348,-10140.821405,229.828649
3219.619394,888.247130,-9770.718434,306.438199
3219.619721,296.082377,-10658.965565,1378.971896
3219.620049,1184.329507,-10955.047942,612.876398
3219.620377,1480.411884,-10214.842000,-1378.971896
3219.620704,-296.082377,-7402.059420,-689.485948
3219.621032,-1702.473667,-6809.894666,229.828649
3219.621360,-1776.494261,-6883.915261,306.438199
3219.621687,-1110.308913,-7698.141797,919.314598
3219.622015,148.041188,-9696.697840,383.047749
3219.622343,-222.061783,-9844.739029,536.266849
3219.622670,-148.041188,-8660.409521,0.000000
3219.622998,518.144159,-9622.677246,-1838.629195
3219.623326,888.247130,-11177.109724,-1608.800546
3219.623654,222.061783,-11473.192101,76.609550
3219.623981,444.123565,-10955.047942,-306.438199
3219.624309,518.144159,-9474.636058,0.000000
3219.624637,1184.329507,-10288.862594,-612.876398
3219.624964,518.144159,-10658.965565,306.438199
3219.625292,148.041188,-9992.780217,229.828649
3219.625620,370.102971,-8956.491898,-1532.190996
3219.625947,222.061783,-8586.388927,-612.876398
3219.626275,74.020594,-8660.409521,-766.095498
3219.626603,666.185348,-7994.224174,-766.095498
3219.626930,740.205942,-9326.594869,153.219100
3219.627258,1258.350101,-10955.047942,229.828649
3219.627586,1480.411884,-10510.924376,459.657299
3219.627913,-888.247130,-11251.130318,995.924147
3219.628241,-518.144159,-12953.603985,-1149.143247
3219.628569,-814.226536,-12139.377449,-2681.334243
3219.628896,592.164754,-10584.944971,-3447.429741
3219.629224,148.041188,-10214.842000,-2604.724693
3219.629552,-666.185348,-10066.800811,383.047749
3219.629880,666.185348,-8290.306550,1225.752797
3219.630207,1554.432478,-7402.059420,1302.362347
3219.630535,888.247130,-7031.956449,1072.533697
3219.630863,666.185348,-7402.059420,1072.533697
3219.631190,0.000000,-7624.121203,1149.143247
3219.631518,74.020594,-7920.203579,1532.190996
3219.631846,740.205942,-8956.491898,919.314598
3219.632173,888.247130,-10732.986159,1455.581446
3219.632501,1998.556043,-12287.418637,766.095498
3219.632828,2812.782580,-12361.439231,-459.657299
3219.633156,1702.473667,-11029.068536,-1762.019645
3219.633484,592.164754,-9622.677246,-995.924147
3219.633811,-592.164754,-8216.285956,-919.314598
3219.634139,-370.102971,-7105.977043,76.609550
3219.634466,74.020594,-6365.771101,536.266849
3219.634794,814.226536,-6513.812290,1838.629195
3219.635122,962.267725,-8734.430116,1685.410096
3219.635449,888.247130,-9844.739029,1072.533697
3219.635777,0.000000,-8882.471304,0.000000
3219.636104,-962.267725,-10658.965565,-919.314598
3219.636432,-814.226536,-12805.562797,-2068.457845
3219.636760,148.041188,-11917.315666,-2604.724693
3219.637087,1998.556043,-11103.089130,-2298.286494
3219.637415,2590.720797,-11325.150913,-995.924147
3219.637742,1702.473667,-12435.459826,1302.362347
3219.638070,1406.391290,-10658.965565,1149.143247
3219.638398,222.061783,-8142.265362,-842.705048
3219.638725,-2146.597232,-7994.224174,-153.219100
3219.639053,-2590.720797,-8512.368333,-689.485948
3219.639381,-2368.659014,-7179.997637,-842.705048
3219.639708,-1110.308913,-8438.347739,153.219100
3219.640036,74.020594,-11325.150913,-229.828649
3219.640363,370.102971,-12139.377449,76.609550
3219.640691,1332.370696,-10955.047942,0.000000
3219.641019,1332.370696,-9696.697840,-1532.190996
3219.641346,0.000000,-9326.594869,-689.485948
3219.641674,0.000000,-8364.327145,0.000000
3219.642001,1036.288319,-9474.636058,-842.705048
3219.642329,222.061783,-9918.759623,1378.971896
3219.642657,1184.329507,-10732.986159,2298.286494
3219.642984,814.226536,-9548.656652,1378.971896
3219.643312,222.061783,-8660.409521,-383.047749
3219.643639,-962.267725,-8586.388927,-1838.629195
3219.643967,-1998.556043,-8142.265362,-1838.629195
3219.644295,-1554.432478,-7698.141797,-536.266849
3219.644622,-518.144159,-8068.244768,-306.438199
3219.644950,-296.082377,-8586.388927,919.314598
3219.645277,740.205942,-9326.594869,536.266849
3219.645605,1628.453072,-10658.965565,76.609550
3219.645933,1110.308913,-11399.171507,0.000000
3219.646260,1332.370696,-11547.212695,-1455.581446
3219.646588,518.144159,-11991.336260,-1072.533697
3219.646916,74.020594,-10881.027347,-919.314598
3219.647243,518.144159,-10584.944971,-1762.019645
3219.647571,370.102971,-11103.089130,-1302.362347
3219.647898,518.144159,-9548.656652,0.000000
3219.648226,1110.308913,-8364.327145,-842.705048
3219.648554,1406.391290,-8438.347739,76.609550
3219.648881,740.205942,-7476.080014,612.876398
3219.649209,962.267725,-8290.306550,383.047749
3219.649536,1110.308913,-9030.512492,459.657299
3219.649864,814.226536,-9770.718434,1302.362347
3219.650192,-666.185348,-10658.965565,842.705048
3219.650519,-518.144159,-12805.562797,-229.828649
3219.650847,74.020594,-12879.583391,-2834.553343
3219.651174,518.144159,-11547.212695,-3983.696590
3219.651502,444.123565,-10214.842000,-2451.505594
3219.651830,74.020594,-9992.780217,-459.657299
3219.652157,74.020594,-9178.553681,1302.362347
3219.652485,1036.288319,-6883.915261,1149.143247
3219.652812,1110.308913,-6513.812290,-689.485948
3219.653140,-222.061783,-7402.059420,995.924147
3219.653468,0.000000,-7179.997637,1302.362347
3219.653795,0.000000,-7031.956449,1149.143247
3219.654123,444.123565,-9696.697840,1072.533697
3219.654450,888.247130,-12213.398043,766.095498
3219.654778,1184.329507,-12435.459826,0.000000
3219.655106,1258.350101,-11843.295072,-1149.143247
3219.655433,1258.350101,-11399.171507,-2911.162892
3219.655761,296.082377,-10140.821405,-1532.190996
3219.656089,-592.164754,-8512.368333,0.000000
3219.656416,-296.082377,-8438.347739,459.657299
3219.656744,-222.061783,-8438.347739,1378.971896
3219.657071,0.000000,-7698.141797,919.314598
3219.657399,-370.102971,-7994.224174,536.266849
3219.657727,74.020594,-9252.574275,0.000000
3219.658054,74.020594,-9844.739029,-995.924147
3219.658382,-1110.308913,-10658.965565,-1149.143247
3219.658709,-2146.597232,-11177.109724,-1915.238745
3219.659037,0.000000,-10066.800811,-2221.676944
3219.659365,1998.556043,-10214.842000,-459.657299
3219.659692,1702.473667,-11177.109724,1149.143247
3219.660020,962.267725,-12065.356855,1532.190996
3219.660347,1184.329507,-10658.965565,229.828649
3219.660675,1184.329507,-8808.450710,-1378.971896
3219.661003,-1036.288319,-8586.388927,-1149.143247
3219.661330,-2738.761985,-8068.244768,229.828649
3219.661658,-2368.659014,-7254.018232,-459.657299
3219.661985,-1924.535449,-8586.388927,-1532.190996
3219.662313,0.000000,-9992.780217,-766.095498
3219.662641,962.267725,-9770.718434,-383.047749
3219.662968,1776.494261,-10288.862594,1608.800546
3219.663296,1850.514855,-10658.965565,229.828649
3219.663624,518.144159,-11177.109724,-1149.143247
3219.663951,0.000000,-9178.553681,-1149.143247
3219.664279,666.185348,-8364.327145,-1225.752797
3219.664606,-370.102971,-9474.636058,153.219100
3219.664934,74.020594,-10881.027347,1838.629195
3219.665262,1184.329507,-11621.233289,536.266849
3219.665589,1036.288319,-10955.047942,-766.095498
3219.665917,666.185348,-8882.471304,-1685.410096
3219.666244,74.020594,-7402.059420,-1608.800546
3219.666572,-888.247130,-7179.997637,306.438199
3219.666900,-222.061783,-8364.327145,1302.362347
3219.667227,1258.350101,-8290.306550,766.095498
3219.667555,222.061783,-7624.121203,1532.190996
3219.667882,888.247130,-9548.656652,689.485948
3219.668210,888.247130,-11843.295072,76.609550
3219.668538,814.226536,-11991.336260,-536.266849
3219.668865,592.164754,-11621.233289,-2451.505594
3219.669193,148.041188,-11473.192101,-2145.067394
3219.669520,74.020594,-10066.800811,-1378.971896
3219.669848,888.247130,-9252.574275,-1302.362347
3219.670176,518.144159,-8586.388927,766.095498
3219.670503,888.247130,-9326.594869,1225.752797
3219.670831,1110.308913,-8216.285956,612.876398
3219.671158,740.205942,-7402.059420,1532.190996
3219.671486,592.164754,-8512.368333,842.705048
3219.671814,0.000000,-9252.574275,306.438199
3219.672141,814.226536,-10214.842000,0.000000
3219.672469,666.185348,-10955.047942,-536.266849
3219.672797,-888.247130,-10584.944971,76.609550
3219.673124,0.000000,-12213.398043,-536.266849
3219.673452,-370.102971,-12213.398043,-2987.772442
3219.673779,0.000000,-9918.759623,-2604.724693
3219.674107,592.164754,-9770.718434,-2221.676944
3219.674435,-444.123565,-11029.068536,76.609550
3219.674762,-296.082377,-8956.491898,2068.457845
3219.675090,1258.350101,-6661.853478,383.047749
3219.675417,518.144159,-6957.935855,0.000000
3219.675745,-444.123565,-9104.533087,153.219100
3219.676073,-444.123565,-9252.574275,-1685.410096
3219.676400,-1258.350101,-7476.080014,-612.876398
3219.676728,0.000000,-9918.759623,0.000000
3219.677055,814.226536,-10807.006753,76.609550
3219.677383,-148.041188,-10362.883188,1225.752797
3219.677711,666.185348,-11621.233289,0.000000
3219.678038,1332.370696,-11177.109724,-1685.410096
3219.678366,0.000000,-9622.677246,-1225.752797
3219.678693,-592.164754,-8142.265362,-766.095498
3219.679021,-1110.308913,-7920.203579,306.438199
3219.679349,-1036.288319,-8438.347739,1225.752797
3219.679676,0.000000,-9178.553681,229.828649
3219.680004,-370.102971,-9474.636058,306.438199
3219.680332,592.164754,-9622.677246,0.000000
3219.680659,888.247130,-8956.491898,-766.095498
3219.680987,-666.185348,-8956.491898,-459.657299
3219.681314,-1480.411884,-11029.068536,-689.485948
3219.681642,74.020594,-11843.295072,-766.095498
3219.681970,2220.617826,-10807.006753,0.000000
3219.682297,2812.782580,-11251.130318,306.438199
3219.682625,2146.597232,-11991.336260,612.876398
3219.682952,2220.617826,-11621.233289,1302.362347
3219.683280,1406.391290,-8808.450710,-153.219100
3219.683608,-1110.308913,-8512.368333,-1225.752797
3219.683935,-2886.803174,-7254.018232,-995.924147
3219.684263,-1258.350101,-6439.791695,-2145.067394
3219.684590,-518.144159,-7994.224174,0.000000
3219.684918,888.247130,-9622.677246,766.095498
3219.685246,1554.432478,-10436.903782,1608.800546
3219.685573,2294.638420,-11547.212695,1532.190996
3219.685901,2368.659014,-11547.212695,-306.438199
3219.686228,1258.350101,-10658.965565,-1685.410096
3219.686556,740.205942,-9252.574275,-1302.362347
3219.686884,0.000000,-9622.677246,-1378.971896
3219.687211,222.061783,-10214.842000,76.609550
3219.687539,518.144159,-10436.903782,0.000000
3219.687866,1184.329507,-9104.533087,153.219100
3219.688194,1110.308913,-9030.512492,0.000000
3219.688522,1036.288319,-9622.677246,-612.876398
3219.688849,-888.247130,-9104.533087,-306.438199
3219.689177,-1258.350101,-7179.997637,612.876398
3219.689505,-444.123565,-8142.265362,-842.705048
3219.689832,-962.267725,-9326.594869,459.657299
3219.690160,-444.123565,-8808.450710,1149.143247
3219.690487,740.205942,-10881.027347,-153.219100
3219.690815,962.267725,-12139.377449,-995.924147
3219.691143,1110.308913,-12213.398043,-1991.848295
3219.691470,666.185348,-11177.109724,-1378.971896
3219.691798,-592.164754,-9548.656652,0.000000
3219.692125,1184.329507,-9844.739029,383.047749
3219.692453,888.247130,-9474.636058,0.000000
3219.692781,0.000000,-9474.636058,1149.143247
3219.693108,296.082377,-8734.430116,1072.533697
3219.693436,222.061783,-7994.224174,995.924147
3219.693763,-296.082377,-7772.162391,1149.143247
3219.694091,-518.144159,-9400.615463,0.000000
3219.694419,-222.061783,-8734.430116,-383.047749
3219.694746,0.000000,-8734.430116,-766.095498
3219.695074,-222.061783,-9400.615463,-229.828649
3219.695401,-666.185348,-9844.739029,536.266849
3219.695729,148.041188,-12065.356855,-919.314598
3219.696057,1110.308913,-11695.253884,-1838.629195
3219.696384,1184.329507,-10807.006753,-919.314598
3219.696712,296.082377,-10288.862594,-306.438199
3219.697039,-592.164754,-10066.800811,612.876398
3219.697367,518.144159,-8438.347739,0.000000
3219.697695,444.123565,-8068.244768,-1302.362347
3219.698022,-888.247130,-8956.491898,-459.657299
3219.698350,-222.061783,-8512.368333,76.609550
3219.698678,1036.288319,-6735.874072,-919.314598
3219.699005,370.102971,-8068.244768,536.266849
3219.699333,1184.329507,-11029.068536,1685.410096
3219.699660,1332.370696,-11991.336260,1149.143247
3219.699988,1628.453072,-12435.459826,536.266849
3219.700316,2590.720797,-12213.398043,-1532.190996
3219.700643,1332.370696,-10955.047942,-1378.971896
3219.700971,0.000000,-9474.636058,0.000000
3219.701298,666.185348,-9844.739029,-1225.752797
3219.701626,74.020594,-9326.594869,-383.047749
3219.701954,-370.102971,-8290.306550,153.219100
3219.702281,-370.102971,-7550.100608,306.438199
3219.702609,222.061783,-8068.244768,1225.752797
3219.702936,1184.329507,-7994.224174,1072.533697
3219.703264,296.082377,-7402.059420,-229.828649
3219.703592,-1480.411884,-9474.636058,919.314598
3219.703919,222.061783,-11251.130318,-842.705048
3219.704247,1628.453072,-10881.027347,-459.657299
3219.704574,1850.514855,-11103.089130,689.485948
3219.704902,2368.659014,-12213.398043,-153.219100
3219.705230,1258.350101,-11251.130318,0.000000
3219.705557,1480.411884,-9474.636058,-306.438199
3219.705885,666.185348,-7994.224174,-1378.971896
3219.706213,-1332.370696,-8438.347739,-612.876398
3219.706540,-1776.494261,-7698.141797,-766.095498
3219.706868,-1628.453072,-8068.244768,-1302.362347
3219.707195,-740.205942,-9326.594869,76.609550
3219.707523,148.041188,-9474.636058,689.485948
3219.707851,296.082377,-10584.944971,2221.676944
3219.708178,814.226536,-11843.295072,995.924147
3219.708506,518.144159,-11621.233289,-2221.676944
3219.708833,74.020594,-10214.842000,-2528.115143
3219.709161,222.061783,-9548.656652,-2298.286494
3219.709489,-740.205942,-9622.677246,-1302.362347
3219.709816,0.000000,-9770.718434,1378.971896
3219.710144,1184.329507,-11251.130318,1302.362347
3219.710471,1036.288319,-11695.253884,536.266849
3219.710799,222.061783,-9252.574275,-383.047749
3219.711127,-666.185348,-7476.080014,-919.314598
3219.711454,-1110.308913,-7846.182985,-459.657299
3219.711782,-1110.308913,-9252.574275,229.828649
3219.712109,-1480.411884,-9474.636058,-459.657299
3219.712437,-740.205942,-8068.244768,0.000000
3219.712765,888.247130,-8216.285956,-383.047749
3219.713092,1184.329507,-9548.656652,0.000000
3219.713420,0.000000,-9844.739029,536.266849
3219.713747,1258.350101,-11621.233289,-459.657299
3219.714075,1332.370696,-11473.192101,-1532.190996
3219.714403,740.205942,-11473.192101,-383.047749
3219.714730,296.082377,-10436.903782,229.828649
3219.715058,0.000000,-8734.430116,459.657299
3219.715386,888.247130,-9030.512492,612.876398
3219.715713,370.102971,-9474.636058,-306.438199
3219.716041,0.000000,-9030.512492,-459.657299
3219.716368,444.123565,-7994.224174,-153.219100
3219.716696,222.061783,-8068.244768,0.000000
3219.717024,-296.082377,-9030.512492,459.657299
3219.717351,814.226536,-10436.903782,459.657299
3219.717679,1184.329507,-10214.842000,-536.266849
3219.718006,2368.659014,-11769.274478,-612.876398
3219.718334,2220.617826,-11769.274478,153.219100
3219.718662,148.041188,-11399.171507,766.095498
3219.718989,-666.185348,-11991.336260,0.000000
3219.719317,-1406.391290,-10807.006753,-2757.943793
3219.719644,-888.247130,-8290.306550,-3677.258390
3219.719972,592.164754,-7698.141797,-2451.505594
3219.720300,592.164754,-8216.285956,536.266849
3219.720627,1406.391290,-8438.347739,2221.676944
3219.720955,2590.720797,-8882.471304,1455.581446
3219.721282,740.205942,-9326.594869,536.266849
3219.721610,0.000000,-10510.924376,842.705048
3219.721938,0.000000,-9474.636058,-919.314598
3219.722265,-814.226536,-9844.739029,-153.219100
3219.722593,0.000000,-10140.821405,0.000000
3219.722921,814.226536,-11917.315666,-153.219100
3219.723248,962.267725,-12213.398043,919.314598
3219.723576,1184.329507,-10362.883188,153.219100
3219.723903,0.000000,-8956.491898,-1072.533697
3219.724231,-1554.432478,-7846.182985,-1149.143247
3219.724559,-1332.370696,-7254.018232,-612.876398
3219.724886,-1258.350101,-7476.080014,0.000000
3219.725214,-592.164754,-8290.306550,1991.848295
3219.725541,296.082377,-10066.800811,2528.115143
3219.725869,740.205942,-10732.986159,2451.505594
3219.726197,1924.535449,-11029.068536,842.705048
3219.726524,2072.576638,-10807.006753,-766.095498
3219.726852,0.000000,-9918.759623,-1149.143247
3219.727179,-1924.535449,-9918.759623,-766.095498
3219.727507,-888.247130,-9622.677246,-1149.143247
3219.727835,1110.308913,-9178.553681,-612.876398
3219.728162,2072.576638,-9844.739029,0.000000
3219.728490,592.164754,-10955.047942,1072.533697
3219.728817,148.041188,-11029.068536,612.876398
3219.729145,370.102971,-8882.471304,-1608.800546
3219.729473,-1258.350101,-7846.182985,-1685.410096
3219.729800,-2960.823768,-7624.121203,-842.705048
3219.730128,-1480.411884,-8956.491898,-995.924147
3219.730456,0.000000,-9474.636058,-766.095498
3219.730783,1850.514855,-10214.842000,383.047749
3219.731111,1702.473667,-10436.903782,306.438199
3219.731438,962.267725,-10362.883188,1072.533697
3219.731766,2072.576638,-10955.047942,-919.314598
3219.732094,1258.350101,-10362.883188,-2451.505594
3219.732421,0.000000,-10584.944971,-1225.752797
3219.732749,0.000000,-10066.800811,-612.876398
3219.733076,518.144159,-9696.697840,919.314598
3219.733404,1258.350101,-8734.430116,995.924147
3219.733732,296.082377,-9474.636058,1302.362347
3219.734059,370.102971,-11029.068536,229.828649
3219.734387,74.020594,-10214.842000,-1149.143247
3219.734715,-518.144159,-8142.265362,-1991.848295
3219.735042,-666.185348,-6883.915261,-1072.533697
3219.735370,370.102971,-8808.450710,306.438199
3219.735697,592.164754,-10510.924376,766.095498
3219.736025,1776.494261,-10658.965565,1149.143247
3219.736353,1776.494261,-10955.047942,689.485948
3219.736680,740.205942,-11769.274478,76.609550
3219.737008,518.144159,-10732.986159,-689.485948
3219.737336,0.000000,-9992.780217,-1072.533697
3219.737663,-888.247130,-8808.450710,-536.266849
3219.737991,-370.102971,-8142.265362,0.000000
3219.738318,148.041188,-7402.059420,-995.924147
3219.738646,1258.350101,-7328.038826,919.314598
3219.738974,2072.576638,-8808.450710,995.924147
3219.739301,814.226536,-9844.739029,383.047749
3219.739629,0.000000,-10214.842000,689.485948
3219.739956,592.164754,-10732.986159,-1072.533697
3219.740284,1332.370696,-10436.903782,-383.047749
3219.740612,1554.432478,-10955.047942,76.609550
3219.740939,740.205942,-10881.027347,0.000000
3219.741267,0.000000,-11325.150913,-459.657299
3219.741595,-1036.288319,-11547.212695,-1915.238745
3219.741922,-1480.411884,-9252.574275,-2834.553343
3219.742250,-592.164754,-7550.100608,-2068.457845
3219.742577,0.000000,-7994.224174,-919.314598
3219.742905,1110.308913,-8956.491898,383.047749
3219.743233,1036.288319,-9030.512492,995.924147
3219.743560,1332.370696,-9474.636058,0.000000
3219.743888,518.144159,-10807.006753,689.485948
3219.744215,222.061783,-10066.800811,383.047749
3219.744543,74.020594,-9326.594869,-612.876398
3219.744871,74.020594,-10510.924376,-536.266849
3219.745198,1036.288319,-11399.171507,0.000000
3219.745526,444.123565,-10214.842000,689.485948
3219.745854,666.185348,-9474.636058,1378.971896
3219.746181,0.000000,-9030.512492,153.219100
3219.746509,-962.267725,-7994.224174,-1532.190996
3219.746836,-1850.514855,-7698.141797,-689.485948
3219.747164,-1258.350101,-8364.327145,-1302.362347
3219.747492,-962.267725,-8586.388927,766.095498
3219.747819,-518.144159,-9474.636058,2068.457845
3219.748147,296.082377,-9474.636058,1149.143247
3219.748475,592.164754,-9844.739029,306.438199
3219.748802,1554.432478,-10066.800811,-536.266849
3219.749130,0.000000,-9548.656652,-1225.752797
3219.749457,-1036.288319,-9252.574275,-919.314598
3219.749785,370.102971,-10066.800811,-1455.581446
3219.750113,888.247130,-11251.130318,-383.047749
3219.750440,1406.391290,-11325.150913,536.266849
3219.750768,518.144159,-10584.944971,0.000000
3219.751095,-296.082377,-9992.780217,0.000000
3219.751423,0.000000,-9696.697840,-1149.143247
3219.751751,-1184.329507,-9696.697840,-1072.533697
3219.752078,-1850.514855,-8956.491898,-1225.752797
3219.752406,148.041188,-8734.430116,-1149.143247
3219.752734,1628.453072,-9474.636058,-766.095498
3219.753061,1998.556043,-10436.903782,1532.190996
3219.753389,1628.453072,-10881.027347,1762.019645
3219.753716,1110.308913,-10584.944971,383.047749
3219.754044,1258.350101,-11177.109724,-1532.190996
3219.754372,888.247130,-10955.047942,-2604.724693
3219.754699,0.000000,-9548.656652,-1225.752797
3219.755027,222.061783,-9770.718434,536.266849
3219.755355,1036.288319,-10214.842000,229.828649
3219.755682,444.123565,-9326.594869,1378.971896
3219.756010,814.226536,-8290.306550,536.266849
3219.756337,0.000000,-7402.059420,459.657299
3219.756665,0.000000,-8438.347739,766.095498
3219.756993,0.000000,-7994.224174,-612.876398
3219.757320,-296.082377,-7698.141797,-229.828649
3219.757648,518.144159,-8808.450710,536.266849
3219.757975,1110.308913,-10658.965565,383.047749
3219.758303,370.102971,-10436.903782,919.314598
3219.758631,1258.350101,-10881.027347,536.266849
3219.758958,1258.350101,-12435.459826,-1455.581446
3219.759286,74.020594,-11769.274478,-919.314598
3219.759614,148.041188,-9770.718434,-612.876398
3219.759941,0.000000,-8364.327145,-459.657299
3219.760269,740.205942,-7550.100608,153.219100
3219.760596,0.000000,-7402.059420,229.828649
3219.760924,0.000000,-8808.450710,919.314598
3219.761252,222.061783,-9178.553681,306.438199
3219.761579,592.164754,-10140.821405,-842.705048
3219.761907,-444.123565,-10140.821405,-459.657299
3219.762235,0.000000,-11177.109724,-229.828649
3219.762562,1258.350101,-12731.542202,-842.705048
3219.762890,666.185348,-11769.274478,306.438199
3219.763217,0.000000,-10140.821405,-919.314598
3219.763545,-740.205942,-9918.759623,-1455.581446
3219.763873,-1332.370696,-10807.006753,-1149.143247
3219.764200,-740.205942,-9770.718434,-1532.190996
3219.764528,-296.082377,-8364.327145,-1378.971896
3219.764855,0.000000,-9400.615463,0.000000
3219.765183,-148.041188,-10214.842000,1225.752797
3219.765511,222.061783,-8808.450710,1608.800546
3219.765838,296.082377,-8142.265362,0.000000
3219.766166,222.061783,-9770.718434,-612.876398
3219.766494,-444.123565,-9548.656652,-536.266849
3219.766821,-740.205942,-8586.388927,0.000000
3219.767149,296.082377,-9178.553681,536.266849
3219.767476,1184.329507,-9030.512492,1149.143247
3219.767804,1554.432478,-9918.759623,1762.019645
3219.768132,1110.308913,-10807.006753,536.266849
3219.768459,370.102971,-10584.944971,153.219100
3219.768787,0.000000,-8660.409521,-1685.410096
3219.769115,-1184.329507,-7994.224174,-1532.190996
3219.769442,-666.185348,-8068.244768,-612.876398
3219.769770,0.000000,-8586.388927,-229.828649
3219.770097,296.082377,-9770.718434,1149.143247
3219.770425,1332.370696,-10436.903782,1225.752797
3219.770753,1850.514855,-9030.512492,-306.438199
3219.771080,1480.411884,-9104.533087,0.000000
3219.771408,592.164754,-10658.965565,-459.657299
3219.771735,0.000000,-10955.047942,-1225.752797
3219.772063,1776.494261,-10584.944971,-1608.800546
3219.772391,1776.494261,-10658.965565,-766.095498
3219.772718,1702.473667,-11399.171507,536.266849
3219.773046,1258.350101,-11991.336260,919.314598
3219.773374,962.267725,-11325.150913,-383.047749
3219.773701,222.061783,-9474.636058,-1991.848295
3219.774029,-592.164754,-9252.574275,-1838.629195
3219.774356,-1850.514855,-7550.100608,-1455.581446
3219.774684,-666.185348,-6587.832884,536.266849
3219.775012,518.144159,-8734.430116,919.314598
3219.775339,1184.329507,-11103.089130,1072.533697
3219.775667,888.247130,-10955.047942,1762.019645
3219.775995,2220.617826,-9770.718434,-383.047749
3219.776322,814.226536,-10362.883188,-842.705048
3219.776650,962.267725,-11325.150913,-919.314598
3219.776977,222.061783,-10066.800811,-1685.410096
3219.777305,-666.185348,-9030.512492,-536.266849
3219.777633,222.061783,-9918.759623,0.000000
3219.777960,74.020594,-9030.512492,995.924147
3219.778288,222.061783,-8068.244768,1838.629195
3219.778615,148.041188,-8068.244768,842.705048
3219.778943,-518.144159,-8956.491898,229.828649
3219.779271,-740.205942,-8438.347739,-612.876398
3219.779598,-740.205942,-6735.874072,-306.438199
3219.779926,-1110.308913,-8068.244768,76.609550
3219.780254,-370.102971,-10066.800811,459.657299
3219.780581,296.082377,-11473.192101,-766.095498
3219.780909,740.205942,-12213.398043,-689.485948
3219.781236,962.267725,-11325.150913,-1608.800546
3219.781564,1258.350101,-11103.089130,-1225.752797
3219.781892,740.205942,-10362.883188,383.047749
3219.782219,148.041188,-10066.800811,0.000000
3219.782547,0.000000,-9326.594869,-536.266849
3219.782875,0.000000,-8586.388927,-536.266849
3219.783202,-370.102971,-8660.409521,-842.705048
3219.783530,-1480.411884,-7994.224174,153.219100
3219.783857,-740.205942,-9104.533087,-306.438199
3219.784185,-1258.350101,-10807.006753,-1225.752797
3219.784513,-592.164754,-11251.130318,-1072.533697
3219.784840,1332.370696,-10955.047942,-2145.067394
3219.785168,1850.514855,-10362.883188,-1072.533697
3219.785495,518.144159,-9474.636058,1302.362347
3219.785823,0.000000,-10288.862594,1455.581446
3219.786151,-962.267725,-11473.192101,0.000000
3219.786478,-296.082377,-9992.780217,-1991.848295
3219.786806,666.185348,-8364.327145,-2374.896044
3219.787134,-296.082377,-9474.636058,229.828649
3219.787461,0.000000,-10510.924376,1915.238745
3219.787789,1406.391290,-9474.636058,0.000000
3219.788116,1406.391290,-8364.327145,-919.314598
3219.788444,74.020594,-8586.388927,0.000000
3219.788772,592.164754,-7772.162391,0.000000
3219.789099,888.247130,-7476.080014,995.924147
3219.789427,814.226536,-9252.574275,1149.143247
3219.789754,518.144159,-10362.883188,1532.190996
3219.790082,666.185348,-11621.233289,1838.629195
3219.790410,2146.597232,-10140.821405,229.828649
3219.790737,666.185348,-9474.636058,-536.266849
3219.791065,0.000000,-9474.636058,-766.095498
3219.791393,-962.267725,-9104.533087,-1225.752797
3219.791720,-518.144159,-9252.574275,-1378.971896
3219.792048,296.082377,-8216.285956,-995.924147
3219.792375,0.000000,-8956.491898,1072.533697
3219.792703,1184.329507,-9252.574275,2681.334243
3219.793031,1554.432478,-8290.306550,1838.629195
3219.793358,1110.308913,-9326.594869,0.000000
3219.793686,814.226536,-11621.233289,-459.657299
3219.794014,-222.061783,-11695.253884,-1532.190996
3219.794341,0.000000,-9770.718434,-995.924147
3219.794669,1406.391290,-9104.533087,-919.314598
3219.794996,1776.494261,-12213.398043,-383.047749
3219.795324,592.164754,-13619.789333,536.266849
3219.795652,666.185348,-10436.903782,-229.828649
3219.795979,1184.329507,-8364.327145,-2068.457845
3219.796307,-148.041188,-8512.368333,-1072.533697
3219.796634,-2146.597232,-9030.512492,0.000000
3219.796962,-2294.638420,-7476.080014,0.000000
3219.797290,-222.061783,-8364.327145,-229.828649
3219.797617,0.000000,-9844.739029,306.438199
3219.797945,1184.329507,-11621.233289,1762.019645
3219.798273,1332.370696,-11473.192101,1685.410096
3219.798600,1110.308913,-11991.336260,-689.485948
3219.798928,74.020594,-10510.924376,-2528.115143
3219.799255,-1480.411884,-9104.533087,-3294.210641
3219.799583,-1554.432478,-7550.100608,-1685.410096
3219.799911,222.061783,-8290.306550,919.314598
3219.800238,740.205942,-9918.759623,2528.115143
3219.800566,222.061783,-10436.903782,2681.334243
3219.800894,518.144159,-10288.862594,1762.019645
3219.801221,740.205942,-7994.224174,-229.828649
3219.801549,-148.041188,-6809.894666,-536.266849
3219.801876,-1258.350101,-7994.224174,306.438199
3219.802204,-962.267725,-9696.697840,-459.657299
3219.802532,-296.082377,-9252.574275,-536.266849
3219.802859,444.123565,-9992.780217,-1225.752797
3219.803187,222.061783,-10140.821405,-1302.362347
3219.803514,74.020594,-9992.780217,76.609550
3219.803842,814.226536,-11399.171507,153.219100
3219.804170,962.267725,-11843.295072,-153.219100
3219.804497,1184.329507,-11029.068536,-919.314598
3219.804825,1110.308913,-8808.450710,-766.095498
3219.805153,296.082377,-9030.512492,536.266849
3219.805480,296.082377,-9992.780217,842.705048
3219.805808,222.061783,-9992.780217,-612.876398
3219.806135,74.020594,-9474.636058,-1685.410096
3219.806463,222.061783,-9326.594869,-2604.724693
3219.806791,740.205942,-9178.553681,-1455.581446
3219.807118,1406.391290,-10066.800811,612.876398
3219.807446,1036.288319,-10436.903782,536.266849
3219.807774,444.123565,-10955.047942,459.657299
3219.808101,2220.617826,-11177.109724,76.609550
3219.808429,2368.659014,-10066.800811,-306.438199
3219.808756,0.000000,-9992.780217,1762.019645
3219.809084,-370.102971,-10510.924376,1072.533697
3219.809412,-1110.308913,-11103.089130,-1532.190996
3219.809739,-1184.329507,-9622.677246,-3370.820191
3219.810067,-592.164754,-7920.203579,-3830.477490
3219.810394,-962.267725,-7624.121203,-995.924147
3219.810722,1036.288319,-8956.491898,1685.410096
3219.811050,1480.411884,-9474.636058,1455.581446
3219.811377,666.185348,-9400.615463,1685.410096
3219.811705,592.164754,-9030.512492,1455.581446
3219.812033,1332.370696,-9622.677246,306.438199
3219.812360,222.061783,-9252.574275,1455.581446
3219.812688,0.000000,-9104.533087,689.485948
3219.813015,-592.164754,-10140.821405,0.000000
3219.813343,222.061783,-10955.047942,-1149.143247
3219.813671,1036.288319,-9918.759623,-1915.238745
3219.813998,296.082377,-9104.533087,-1685.410096
3219.814326,-666.185348,-8142.265362,-153.219100
3219.814654,-444.123565,-8364.327145,-995.924147
3219.814981,-1036.288319,-8734.430116,-153.219100
3219.815309,0.000000,-8734.430116,766.095498
3219.815636,370.102971,-8882.471304,1762.019645
3219.815964,962.267725,-11177.109724,2681.334243
3219.816292,1776.494261,-11029.068536,76.609550
3219.816619,1184.329507,-11103.089130,-1532.190996
3219.816947,-962.267725,-11251.130318,-1608.800546
3219.817274,-814.226536,-11325.150913,-2528.115143
3219.817602,444.123565,-10658.965565,-2681.334243
3219.817930,1258.350101,-9178.553681,-995.924147
3219.818257,1184.329507,-9696.697840,229.828649
3219.818585,666.185348,-11547.212695,1608.800546
3219.818913,888.247130,-10658.965565,1685.410096
3219.819240,-296.082377,-9400.615463,153.219100
3219.819568,-1406.391290,-7698.141797,0.000000
3219.819895,-1628.453072,-8068.244768,-689.485948
3219.820223,-1036.288319,-9474.636058,-1072.533697
3219.820551,148.041188,-10436.903782,-689.485948
3219.820878,1406.391290,-9918.759623,76.609550
3219.821206,962.267725,-10510.924376,842.705048
3219.821534,1332.370696,-11177.109724,0.000000
3219.821861,0.000000,-10140.821405,-1225.752797
3219.822189,0.000000,-9178.553681,-995.924147
3219.822516,296.082377,-7994.224174,-383.047749
3219.822844,740.205942,-8956.491898,-153.219100
3219.823172,222.061783,-9474.636058,2145.067394
3219.823499,814.226536,-9474.636058,2451.505594
3219.823827,1480.411884,-9918.759623,919.314598
3219.824154,592.164754,-8586.388927,-766.095498
3219.824482,-592.164754,-7994.224174,-1762.019645
3219.824810,-1406.391290,-7846.182985,-919.314598
3219.825137,296.082377,-8808.450710,-459.657299
3219.825465,592.164754,-10436.903782,-842.705048
3219.825793,-148.041188,-9844.739029,1072.533697
3219.826120,592.164754,-10288.862594,229.828649
3219.826448,1036.288319,-11103.089130,-536.266849
3219.826775,814.226536,-10732.986159,-229.828649
3219.827103,1036.288319,-10584.944971,-229.828649
3219.827431,1480.411884,-10214.842000,-766.095498
3219.827758,962.267725,-9104.533087,-536.266849
3219.828086,0.000000,-9030.512492,-383.047749
3219.828414,-222.061783,-8956.491898,-536.266849
3219.828741,0.000000,-7920.203579,-919.314598
3219.829069,370.102971,-9326.594869,-1532.190996
3219.829396,518.144159,-10584.944971,-612.876398
3219.829724,592.164754,-10066.800811,766.095498
3219.830052,1332.370696,-10584.944971,1149.143247
3219.830379,740.205942,-11695.253884,1838.629195
3219.830707,0.000000,-11177.109724,766.095498
3219.831034,1184.329507,-10362.883188,-1378.971896
3219.831362,518.144159,-9992.780217,-1378.971896
3219.831690,-1184.329507,-10066.800811,0.000000
3219.832017,-2368.659014,-8956.491898,-1072.533697
3219.832345,-1924.535449,-8142.265362,-1608.800546
3219.832672,-888.247130,-8586.388927,-3140.991542
3219.833000,-592.164754,-8882.471304,-1991.848295
3219.833327,-444.123565,-9252.574275,995.924147
3219.833655,814.226536,-10732.986159,1991.848295
3219.833982,2294.638420,-9992.780217,1838.629195
3219.834310,2368.659014,-10288.862594,842.705048
3219.834637,1110.308913,-10732.986159,0.000000
3219.834965,74.020594,-10436.903782,0.000000
3219.835293,0.000000,-8660.409521,-1991.848295
3219.835620,-518.144159,-8438.347739,-2451.505594
3219.835948,-592.164754,-8808.450710,-383.047749
3219.836275,518.144159,-9548.656652,612.876398
3219.836603,370.102971,-9992.780217,1149.143247
3219.836930,0.000000,-9474.636058,1378.971896
3219.837258,-444.123565,-8586.388927,0.000000
3219.837585,-1184.329507,-8512.368333,-383.047749
3219.837913,-148.041188,-8438.347739,-536.266849
3219.838240,370.102971,-10288.862594,76.609550
3219.838568,888.247130,-10658.965565,1225.752797
3219.838896,1406.391290,-10955.047942,1225.752797
3219.839223,2590.720797,-10658.965565,153.219100
3219.839551,2072.576638,-8438.347739,-995.924147
3219.839878,-592.164754,-9474.636058,-995.924147
3219.840206,-1480.411884,-10658.965565,-1149.143247
3219.840533,-740.205942,-9918.759623,-1532.190996
3219.840861,370.102971,-9622.677246,-842.705048
3219.841188,1702.473667,-9548.656652,842.705048
3219.841516,1480.411884,-10955.047942,2298.286494
3219.841843,1184.329507,-11547.212695,1532.190996
3219.842171,222.061783,-9770.718434,-229.828649
3219.842499,74.020594,-9030.512492,-1915.238745
3219.842826,-296.082377,-7476.080014,-1685.410096
3219.843154,-222.061783,-8142.265362,-153.219100
3219.843481,222.061783,-9252.574275,919.314598
3219.843809,1628.453072,-11621.233289,306.438199
3219.844136,1258.350101,-11843.295072,0.000000
3219.844464,888.247130,-10658.965565,-919.314598
3219.844791,814.226536,-10436.903782,-995.924147
3219.845119,888.247130,-9918.759623,-919.314598
3219.845446,518.144159,-9844.739029,-766.095498
3219.845774,-222.061783,-9326.594869,-919.314598
3219.846101,74.020594,-8808.450710,0.000000
3219.846429,1110.308913,-8956.491898,995.924147
3219.846757,1702.473667,-7994.224174,1378.971896
3219.847084,370.102971,-8734.430116,536.266849
3219.847412,-962.267725,-10288.862594,-229.828649
3219.847739,-1184.329507,-9844.739029,-1149.143247
3219.848067,-814.226536,-9252.574275,-1378.971896
3219.848394,-1184.329507,-8660.409521,-612.876398
3219.848722,-370.102971,-10510.924376,766.095498
3219.849049,370.102971,-11991.336260,0.000000
3219.849377,1406.391290,-11251.130318,-689.485948
3219.849704,888.247130,-9992.780217,-919.314598
3219.850032,592.164754,-8438.347739,-612.876398
3219.850360,296.082377,-8290.306550,459.657299
3219.850687,0.000000,-8364.327145,1149.143247
3219.851015,-518.144159,-8290.306550,383.047749
3219.851342,-296.082377,-9030.512492,0.000000
3219.851670,0.000000,-10066.800811,76.609550
3219.851997,74.020594,-9548.656652,536.266849
3219.852325,962.267725,-10955.047942,0.000000
3219.852652,296.082377,-12361.439231,-459.657299
3219.852980,296.082377,-11325.150913,-229.828649
3219.853307,1776.494261,-9104.533087,-1455.581446
3219.853635,888.247130,-7624.121203,-383.047749
3219.853963,222.061783,-9770.718434,1915.238745
3219.854290,-1184.329507,-10510.924376,612.876398
3219.854618,-2146.597232,-9918.759623,-1991.848295
3219.854945,-1628.453072,-8438.347739,-4596.572988
3219.855273,-962.267725,-8882.471304,-3140.991542
3219.855600,-518.144159,-9844.739029,229.828649
3219.855928,592.164754,-10881.027347,2068.457845
3219.856255,1110.308913,-11251.130318,919.314598
3219.856583,1628.453072,-9918.759623,-306.438199
3219.856910,1776.494261,-9474.636058,-1378.971896
3219.857238,444.123565,-8808.450710,383.047749
3219.857565,518.144159,-7994.224174,1532.190996
3219.857893,-370.102971,-8364.327145,536.266849
3219.858221,0.000000,-9844.739029,229.828649
3219.858548,1406.391290,-10881.027347,-153.219100
3219.858876,1628.453072,-10436.903782,-536.266849
3219.859203,222.061783,-9104.533087,229.828649
3219.859531,222.061783,-8586.388927,-995.924147
3219.859858,-740.205942,-8734.430116,-1149.143247
3219.860186,-740.205942,-9178.553681,-689.485948
3219.860513,518.144159,-8882.471304,383.047749
3219.860841,814.226536,-9030.512492,2374.896044
3219.861168,2146.597232,-9474.636058,2374.896044
3219.861496,2368.659014,-10732.986159,612.876398
3219.861824,1110.308913,-9474.636058,0.000000
3219.862151,0.000000,-8956.491898,-1302.362347
3219.862479,-1184.329507,-9770.718434,-1915.238745
3219.862806,-370.102971,-10066.800811,-1225.752797
3219.863134,518.144159,-9474.636058,-995.924147
3219.863461,0.000000,-11029.068536,306.438199
3219.863789,740.205942,-11991.336260,842.705048
3219.864116,2368.659014,-10066.800811,-766.095498
3219.864444,666.185348,-8216.285956,-229.828649
3219.864771,-444.123565,-7772.162391,0.000000
3219.865099,-1110.308913,-8438.347739,-306.438199
3219.865426,-888.247130,-8956.491898,-459.657299
3219.865754,-518.144159,-9548.656652,-153.219100
3219.866082,666.185348,-11769.274478,229.828649
3219.866409,2072.576638,-11769.274478,1149.143247
3219.866737,1702.473667,-11399.171507,-612.876398
3219.867064,148.041188,-11621.233289,-1378.971896
3219.867392,-444.123565,-10658.965565,-2451.505594
3219.867719,-296.082377,-8956.491898,-3140.991542
3219.868047,-740.205942,-8364.327145,-1532.190996
3219.868374,222.061783,-8142.265362,1302.362347
3219.868702,740.205942,-8438.347739,2451.505594
3219.869029,666.185348,-9252.574275,2451.505594
3219.869357,296.082377,-9474.636058,76.609550
3219.869685,-1406.391290,-9622.677246,-306.438199
3219.870012,-888.247130,-8438.347739,-995.924147
3219.870340,-222.061783,-8364.327145,-1302.362347
3219.870667,-1036.288319,-10807.006753,-842.705048
3219.870995,-222.061783,-11695.253884,-766.095498
3219.871322,740.205942,-10584.944971,-1149.143247
3219.871650,1184.329507,-9844.739029,-919.314598
3219.871977,2072.576638,-9474.636058,0.000000
3219.872305,962.267725,-9548.656652,1149.143247
3219.872632,-296.082377,-9326.594869,1915.238745
3219.872960,-444.123565,-8586.388927,0.000000
3219.873288,-296.082377,-8290.306550,-1608.800546
3219.873615,-296.082377,-8438.347739,0.000000
3219.873943,-444.123565,-8364.327145,842.705048
3219.874270,-444.123565,-10288.862594,0.000000
3219.874598,814.226536,-11695.253884,-1225.752797
3219.874925,1258.350101,-10881.027347,-2145.067394
3219.875253,1036.288319,-10066.800811,-459.657299
3219.875580,2072.576638,-8586.388927,612.876398
3219.875908,1036.288319,-9326.594869,1532.190996
3219.876235,-370.102971,-10955.047942,2145.067394
3219.876563,-1184.329507,-11251.130318,0.000000
3219.876890,-1406.391290,-10362.883188,-3064.381992
3219.877218,-222.061783,-8512.368333,-3140.991542
3219.877546,74.020594,-9030.512492,-2145.067394
3219.877873,-962.267725,-11769.274478,842.705048
3219.878201,1184.329507,-10214.842000,0.000000
3219.878528,1628.453072,-9474.636058,-995.924147
3219.878856,888.247130,-8216.285956,-689.485948
3219.879183,1850.514855,-7920.203579,76.609550
3219.879511,592.164754,-8586.388927,1455.581446
3219.879838,222.061783,-9326.594869,1762.019645
3219.880166,0.000000,-10584.944971,612.876398
3219.880493,370.102971,-10658.965565,153.219100
3219.880821,2072.576638,-10066.800811,76.609550
3219.881149,1998.556043,-10140.821405,-842.705048
3219.881476,296.082377,-10732.986159,-536.266849
3219.881804,-666.185348,-9622.677246,-1149.143247
3219.882131,-1036.288319,-7994.224174,-2374.896044
3219.882459,-1184.329507,-7402.059420,-1302.362347
3219.882786,148.041188,-8290.306550,1608.800546
3219.883114,370.102971,-8142.265362,3370.820191
3219.883441,1406.391290,-9326.594869,2834.553343
3219.883769,1702.473667,-10362.883188,919.314598
3219.884096,0.000000,-10214.842000,-153.219100
3219.884424,-1036.288319,-8660.409521,-536.266849
3219.884751,-740.205942,-9992.780217,-1149.143247
3219.885079,-296.082377,-11621.233289,-1838.629195
3219.885407,1998.556043,-10807.006753,-1991.848295
3219.885734,1184.329507,-11251.130318,76.609550
3219.886062,1332.370696,-12287.418637,1762.019645
3219.886389,2960.823768,-9326.594869,459.657299
3219.886717,814.226536,-7476.080014,459.657299
3219.887044,-2368.659014,-7179.997637,0.000000
3219.887372,-3034.844362,-8290.306550,-1685.410096
3219.887699,-1998.556043,-8290.306550,-1378.971896
3219.888027,370.102971,-9548.656652,-459.657299
3219.888354,888.247130,-11695.253884,1455.581446
3219.888682,1776.494261,-12213.398043,1532.190996
3219.889010,2738.761985,-11843.295072,-995.924147
3219.889337,814.226536,-11621.233289,-2604.724693
3219.889665,-740.205942,-9474.636058,-3753.867940
3219.889992,814.226536,-7402.059420,-2451.505594
3219.890320,0.000000,-9252.574275,1149.143247
3219.890647,296.082377,-10955.047942,2528.115143
3219.890975,592.164754,-10436.903782,1915.238745
3219.891302,0.000000,-9252.574275,1072.533697
3219.891630,-518.144159,-7846.182985,-1225.752797
3219.891957,-444.123565,-8364.327145,-1685.410096
3219.892285,-962.267725,-9104.533087,-1378.971896
3219.892613,0.000000,-8142.265362,-1072.533697
3219.892940,962.267725,-10066.800811,-383.047749
3219.893268,1702.473667,-10807.006753,689.485948
3219.893595,2738.761985,-9548.656652,842.705048
3219.893923,1036.288319,-10584.944971,2298.286494
3219.894250,814.226536,-10584.944971,306.438199
3219.894578,0.000000,-9844.739029,-2068.457845
3219.894905,-1628.453072,-9770.718434,-919.314598
3219.895233,-1110.308913,-8438.347739,-536.266849
3219.895560,-1406.391290,-8068.244768,0.000000
3219.895888,-1110.308913,-9252.574275,0.000000
3219.896215,-592.164754,-8290.306550,-1149.143247
3219.896543,148.041188,-9400.615463,-1915.238745
3219.896871,1110.308913,-10584.944971,-459.657299
3219.897198,2368.659014,-9548.656652,842.705048
3219.897526,1998.556043,-9918.759623,1608.800546
3219.897853,2516.700203,-10955.047942,1225.752797
3219.898181,2146.597232,-10436.903782,306.438199
3219.898508,148.041188,-9992.780217,1302.362347
3219.898836,-518.144159,-9548.656652,766.095498
3219.899163,-2146.597232,-11843.295072,-1225.752797
3219.899491,-2368.659014,-11399.171507,-2757.943793
3219.899818,-1332.370696,-8734.430116,-4673.182538
3219.900146,-1406.391290,-9770.718434,-3370.820191
3219.900474,0.000000,-10288.862594,-919.314598
3219.900801,2220.617826,-8364.327145,0.000000
3219.901129,1480.411884,-9622.677246,842.705048
3219.901456,2516.700203,-10214.842000,1915.238745
3219.901784,2516.700203,-9622.677246,153.219100
3219.902111,296.082377,-9104.533087,842.705048
3219.902439,0.000000,-8586.388927,0.000000
3219.902766,-1110.308913,-9548.656652,0.000000
3219.903094,-222.061783,-11325.150913,153.219100
3219.903421,444.123565,-10362.883188,-1455.581446
3219.903749,888.247130,-10436.903782,-2528.115143
3219.904076,370.102971,-8068.244768,-1225.752797
3219.904404,518.144159,-7920.203579,-766.095498
3219.904732,-444.123565,-7698.141797,919.314598
3219.905059,0.000000,-7031.956449,1302.362347
3219.905387,370.102971,-7920.203579,2298.286494
3219.905714,740.205942,-9622.677246,2528.115143
3219.906042,1850.514855,-9844.739029,2451.505594
3219.906369,1332.370696,-10140.821405,1149.143247
3219.906697,1036.288319,-10658.965565,-536.266849
3219.907024,0.000000,-10288.862594,-2451.505594
3219.907352,-2146.597232,-10362.883188,-2757.943793
3219.907679,-1776.494261,-9474.636058,-2374.896044
3219.908007,592.164754,-10066.800811,-1685.410096
3219.908335,1036.288319,-10807.006753,689.485948
3219.908662,1036.288319,-11399.171507,1685.410096
3219.908990,666.185348,-10732.986159,1455.581446
3219.909317,444.123565,-8734.430116,0.000000
3219.909645,-518.144159,-7994.224174,-689.485948
3219.909972,-1480.411884,-8290.306550,-1532.190996
3219.910300,-1776.494261,-8586.388927,-995.924147
3219.910627,-592.164754,-9844.739029,-306.438199
3219.910955,888.247130,-11399.171507,-536.266849
3219.911282,2072.576638,-11991.336260,-536.266849
3219.911610,2664.741391,-11473.192101,-689.485948
3219.911938,1702.473667,-11399.171507,-689.485948
3219.912265,296.082377,-10584.944971,-1455.581446
3219.912593,74.020594,-9770.718434,-536.266849
3219.912920,-666.185348,-8586.388927,-689.485948
3219.913248,-296.082377,-7105.977043,1149.143247
3219.913575,296.082377,-9178.553681,1608.800546
3219.913903,0.000000,-10214.842000,1455.581446
3219.914230,518.144159,-9252.574275,-612.876398
3219.914558,-370.102971,-9474.636058,-1455.581446
3219.914885,-592.164754,-8364.327145,-1532.190996
3219.915213,1258.350101,-7476.080014,-1455.581446
3219.915540,1406.391290,-9622.677246,766.095498
3219.915868,666.185348,-10214.842000,2451.505594
3219.916196,2146.597232,-11029.068536,1072.533697
3219.916523,2294.638420,-11177.109724,383.047749
3219.916851,1036.288319,-9400.615463,306.438199
3219.917178,-1110.308913,-8734.430116,919.314598
3219.917506,-1924.535449,-7920.203579,0.000000
3219.917833,-1628.453072,-7476.080014,-1915.238745
3219.918161,-1702.473667,-9178.553681,-2757.943793
3219.918488,-1776.494261,-8290.306550,-2145.067394
3219.918816,-222.061783,-8956.491898,-383.047749
3219.919143,666.185348,-10066.800811,0.000000
3219.919471,1110.308913,-10436.903782,-689.485948
3219.919799,1850.514855,-11251.130318,229.828649
3219.920126,1998.556043,-11399.171507,1225.752797
3219.920454,1776.494261,-9770.718434,1302.362347
3219.920781,2220.617826,-10140.821405,459.657299
3219.921109,444.123565,-11325.150913,-153.219100
3219.921436,0.000000,-10881.027347,-1149.143247
3219.921764,-296.082377,-8734.430116,-1225.752797
3219.922091,-1110.308913,-7031.956449,-1532.190996
3219.922419,-1480.411884,-8660.409521,-842.705048
3219.922746,-2516.700203,-11547.212695,-1072.533697
3219.923074,-1628.453072,-11103.089130,-2298.286494
3219.923401,370.102971,-8586.388927,-2757.943793
3219.923729,1702.473667,-10140.821405,-459.657299
3219.924057,2738.761985,-11251.130318,2068.457845
3219.924384,2886.803174,-11843.295072,3294.210641
3219.924712,2368.659014,-11769.274478,2451.505594
3219.925039,1998.556043,-9992.780217,-766.095498
3219.925367,0.000000,-9400.615463,-2068.457845
3219.925694,-1998.556043,-7328.038826,-1455.581446
3219.926022,-2072.576638,-6513.812290,-306.438199
3219.926349,-1554.432478,-8364.327145,0.000000
3219.926677,-222.061783,-9622.677246,306.438199
3219.927004,0.000000,-8882.471304,229.828649
3219.927332,296.082377,-9400.615463,689.485948
3219.927660,888.247130,-8882.471304,1685.410096
3219.927987,518.144159,-8586.388927,919.314598
3219.928315,0.000000,-8586.388927,919.314598
3219.928642,666.185348,-8956.491898,153.219100
3219.928970,1702.473667,-9474.636058,-383.047749
3219.929297,1924.535449,-10362.883188,1378.971896
3219.929625,2072.576638,-11251.130318,1455.581446
3219.929952,1554.432478,-11621.233289,0.000000
3219.930280,1554.432478,-9770.718434,-1378.971896
3219.930607,-1036.288319,-8512.368333,-1378.971896
3219.930935,-2516.700203,-9770.718434,-1072.533697
3219.931263,-1480.411884,-9474.636058,-1915.238745
3219.931590,518.144159,-9622.677246,-995.924147
3219.931918,1258.350101,-10584.944971,0.000000
3219.932245,1184.329507,-10955.047942,1072.533697
3219.932573,2072.576638,-10658.965565,766.095498
3219.932900,1850.514855,-9030.512492,-612.876398
3219.933228,592.164754,-8438.347739,-1225.752797
3219.933555,-370.102971,-9770.718434,-612.876398
3219.933883,-888.247130,-11103.089130,-842.705048
3219.934210,0.000000,-11843.295072,-919.314598
3219.934538,444.123565,-11547.212695,-995.924147
3219.934865,148.041188,-11325.150913,383.047749
3219.935193,222.061783,-11103.089130,229.828649
3219.935521,-222.061783,-9030.512492,-229.828649
3219.935848,-1184.329507,-8068.244768,-1455.581446
3219.936176,-1702.473667,-6809.894666,-1915.238745
3219.936503,-814.226536,-6957.935855,-459.657299
3219.936831,-1110.308913,-7698.141797,1302.362347
3219.937158,-296.082377,-9252.574275,2145.067394
3219.937486,222.061783,-9030.512492,1378.971896
3219.937813,1702.473667,-11399.171507,-1225.752797
3219.938141,1924.535449,-13101.645173,-2451.505594
3219.938468,1554.432478,-11251.130318,-306.438199
3219.938796,1924.535449,-9474.636058,0.000000
3219.939123,666.185348,-9622.677246,306.438199
3219.939451,-814.226536,-9548.656652,689.485948
3219.939778,-1036.288319,-8216.285956,459.657299
3219.940106,-814.226536,-7846.182985,0.000000
3219.940434,0.000000,-7846.182985,229.828649
3219.940761,-518.144159,-8142.265362,-459.657299
3219.941089,-1924.535449,-7994.224174,-612.876398
3219.941416,-666.185348,-9252.574275,-1378.971896
3219.941744,148.041188,-10584.944971,-1608.800546
3219.942071,1258.350101,-11399.171507,229.828649
3219.942399,1924.535449,-12065.356855,536.266849
3219.942726,1702.473667,-12139.377449,689.485948
3219.943054,1554.432478,-11399.171507,153.219100
3219.943381,0.000000,-10510.924376,0.000000
3219.943709,-666.185348,-9030.512492,0.000000
3219.944036,740.205942,-8216.285956,-919.314598
3219.944364,-370.102971,-8068.244768,-1072.533697
3219.944691,-1258.350101,-8660.409521,229.828649
3219.945019,-592.164754,-9548.656652,536.266849
3219.945346,-740.205942,-10658.965565,-1225.752797
3219.945674,370.102971,-9104.533087,-1838.629195
3219.946002,888.247130,-9474.636058,-1225.752797
3219.946329,1702.473667,-11251.130318,536.266849
3219.946657,4219.173869,-13101.645173,766.095498
3219.946984,4293.194464,-11177.109724,536.266849
3219.947312,3108.864956,-9252.574275,1072.533697
3219.947639,1406.391290,-8660.409521,919.314598
3219.947967,444.123565,-8660.409521,536.266849
3219.948294,-1258.350101,-8068.244768,-383.047749
3219.948622,-2442.679609,-8438.347739,-1072.533697
3219.948949,-1850.514855,-9548.656652,-1072.533697
3219.949277,148.041188,-9252.574275,-306.438199
3219.949604,1110.308913,-8734.430116,766.095498
3219.949932,1036.288319,-9844.739029,995.924147
3219.950259,1406.391290,-9252.574275,766.095498
3219.950587,666.185348,-8734.430116,0.000000
3219.950914,444.123565,-8586.388927,153.219100
3219.951242,444.123565,-8956.491898,536.266849
3219.951570,222.061783,-9622.677246,1532.190996
3219.951897,1332.370696,-10362.883188,1149.143247
3219.952225,1480.411884,-11473.192101,842.705048
3219.952552,222.061783,-10584.944971,-842.705048
3219.952880,-1776.494261,-9252.574275,-1608.800546
3219.953207,-3182.885551,-9918.759623,-2068.457845
3219.953535,-2072.576638,-10510.924376,-2834.553343
3219.953862,0.000000,-10362.883188,-1072.533697
3219.954190,0.000000,-9992.780217,995.924147
3219.954517,296.082377,-9030.512492,1455.581446
3219.954845,1406.391290,-9104.533087,1149.143247
3219.955172,1184.329507,-9326.594869,76.609550
3219.955500,-444.123565,-9178.553681,-383.047749
3219.955827,-1850.514855,-9622.677246,-689.485948
3219.956155,-666.185348,-10584.944971,-1762.019645
3219.956482,814.226536,-10362.883188,-1149.143247
3219.956810,1776.494261,-11769.274478,0.000000
3219.957138,1110.308913,-12065.356855,612.876398
3219.957465,814.226536,-11769.274478,536.266849
3219.957793,0.000000,-10066.800811,-766.095498
3219.958120,-518.144159,-7698.141797,-2145.067394
3219.958448,-814.226536,-6809.894666,-1685.410096
3219.958775,-1554.432478,-6661.853478,-459.657299
3219.959103,-962.267725,-8586.388927,1915.238745
3219.959430,296.082377,-10214.842000,1685.410096
3219.959758,666.185348,-10066.800811,0.000000
3219.960085,1480.411884,-9548.656652,-766.095498
3219.960413,2294.638420,-10955.047942,-1838.629195
3219.960740,1554.432478,-12361.439231,-612.876398
3219.961068,1702.473667,-11621.233289,0.000000
3219.961395,1406.391290,-9326.594869,-229.828649
3219.961723,444.123565,-7846.182985,306.438199
3219.962050,296.082377,-7772.162391,1149.143247
3219.962378,-888.247130,-9104.533087,1762.019645
3219.962706,-1554.432478,-8586.388927,536.266849
3219.963033,-2072.576638,-9030.512492,-1838.629195
3219.963361,-2886.803174,-8808.450710,-2834.553343
3219.963688,-1702.473667,-7624.121203,-2834.553343
3219.964016,0.000000,-9918.759623,-919.314598
3219.964343,1850.514855,-12435.459826,0.000000
3219.964671,3701.029710,-13397.727550,842.705048
3219.964998,3701.029710,-11843.295072,229.828649
3219.965326,2664.741391,-9696.697840,0.000000
3219.965653,2072.576638,-8586.388927,1149.143247
3219.965981,518.144159,-9178.553681,1991.848295
3219.966308,0.000000,-10140.821405,766.095498
3219.966636,296.082377,-9252.574275,-1072.533697
3219.966963,0.000000,-7624.121203,-689.485948
3219.967291,0.000000,-9030.512492,76.609550
3219.967618,-1480.411884,-11769.274478,459.657299
3219.967946,-1110.308913,-11029.068536,-2374.896044
3219.968273,148.041188,-8068.244768,-3753.867940
3219.968601,1036.288319,-9178.553681,-2451.505594
3219.968929,1850.514855,-10732.986159,766.095498
3219.969256,4811.338623,-11621.233289,3217.601092
3219.969584,4071.132681,-11177.109724,3294.210641
3219.969911,2664.741391,-9844.739029,919.314598
3219.970239,370.102971,-8882.471304,-1149.143247
3219.970566,-1110.308913,-9252.574275,-1455.581446
3219.970894,-2738.761985,-6809.894666,-1455.581446
3219.971221,-2960.823768,-8956.491898,-612.876398
3219.971549,-1184.329507,-10362.883188,-612.876398
3219.971876,592.164754,-10658.965565,-459.657299
3219.972204,296.082377,-8808.450710,306.438199
3219.972531,74.020594,-7994.224174,1455.581446
3219.972859,1776.494261,-7476.080014,995.924147
3219.973186,518.144159,-8142.265362,612.876398
3219.973514,-148.041188,-9030.512492,0.000000
3219.973841,-74.020594,-10881.027347,919.314598
3219.974169,814.226536,-10658.965565,766.095498
3219.974497,1480.411884,-11029.068536,0.000000
3219.974824,-518.144159,-11695.253884,0.000000
3219.975152,296.082377,-10288.862594,-1762.019645
3219.975479,-1702.473667,-10881.027347,-2451.505594
3219.975807,-2146.597232,-10214.842000,-2145.067394
3219.976134,-814.226536,-8438.347739,-1838.629195
3219.976462,296.082377,-8216.285956,229.828649
3219.976789,0.000000,-8882.471304,2681.334243
3219.977117,-740.205942,-9252.574275,2068.457845
3219.977444,592.164754,-10362.883188,1072.533697
3219.977772,1110.308913,-9104.533087,-1608.800546
3219.978099,-148.041188,-8734.430116,-1072.533697
3219.978427,-666.185348,-10140.821405,0.000000
3219.978754,962.267725,-11769.274478,-1149.143247
3219.979082,1036.288319,-11843.295072,-1302.362347
3219.979409,370.102971,-10658.965565,-919.314598
3219.979737,370.102971,-9622.677246,-766.095498
3219.980065,814.226536,-9030.512492,0.000000
3219.980392,592.164754,-10066.800811,153.219100
3219.980720,-518.144159,-9326.594869,-229.828649
3219.981047,-814.226536,-9178.553681,-306.438199
3219.981375,74.020594,-7846.182985,-612.876398
3219.981702,222.061783,-7105.977043,1225.752797
3219.982030,-444.123565,-9474.636058,1915.238745
3219.982357,740.205942,-10288.862594,536.266849
3219.982685,1406.391290,-10881.027347,-1225.752797
3219.983012,1702.473667,-11029.068536,-2298.286494
3219.983340,2442.679609,-11103.089130,-1302.362347
3219.983667,3034.844362,-9844.739029,536.266849
3219.983995,740.205942,-8586.388927,1685.410096
3219.984322,0.000000,-10140.821405,1149.143247
3219.984650,-814.226536,-9770.718434,536.266849
3219.984977,-1480.411884,-7994.224174,0.000000
3219.985305,-1628.453072,-7994.224174,-306.438199
3219.985633,-1924.535449,-8586.388927,-842.705048
3219.985960,-1628.453072,-9548.656652,-1915.238745
3219.986288,0.000000,-9474.636058,-2834.553343
3219.986615,518.144159,-10658.965565,-2451.505594
3219.986943,2812.782580,-10658.965565,-383.047749
3219.987270,3701.029710,-10066.800811,1225.752797
3219.987598,2368.659014,-10732.986159,2221.676944
3219.987925,2072.576638,-11103.089130,1532.190996
3219.988253,1036.288319,-10288.862594,1149.143247
3219.988580,814.226536,-9326.594869,459.657299
3219.988908,296.082377,-8808.450710,-612.876398
3219.989235,-222.061783,-9326.594869,-612.876398
3219.989563,-592.164754,-9474.636058,-612.876398
3219.989890,-1258.350101,-10066.800811,-1225.752797
3219.990218,-2220.617826,-11325.150913,-1838.629195
3219.990545,-1480.411884,-8290.306550,-3447.429741
3219.990873,0.000000,-8142.265362,-2451.505594
3219.991201,518.144159,-9326.594869,306.438199
3219.991528,2590.720797,-11843.295072,2834.553343
3219.991856,3256.906145,-12657.521608,3370.820191
3219.992183,2664.741391,-10066.800811,1915.238745
3219.992511,1480.411884,-9030.512492,-306.438199
3219.992838,0.000000,-10584.944971,-1149.143247
3219.993166,-1480.411884,-10658.965565,-1915.238745
3219.993493,-2368.659014,-8956.491898,-2298.286494
3219.993821,-2664.741391,-8808.450710,-2681.334243
3219.994148,-518.144159,-8956.491898,-1991.848295
3219.994476,592.164754,-9252.574275,766.095498
3219.994803,740.205942,-8956.491898,2451.505594
3219.995131,148.041188,-8364.327145,2298.286494
3219.995458,-444.123565,-8142.265362,1149.143247
3219.995786,-222.061783,-7846.182985,-153.219100
3219.996113,0.000000,-8364.327145,536.266849
3219.996441,444.123565,-10584.944971,1685.410096
3219.996769,1776.494261,-11843.295072,1302.362347
3219.997096,1850.514855,-12065.356855,-612.876398
3219.997424,1110.308913,-10955.047942,-2451.505594
3219.997751,0.000000,-10214.842000,-2221.676944
3219.998079,-518.144159,-8512.368333,-1455.581446
3219.998406,-592.164754,-9252.574275,-842.705048
3219.998734,0.000000,-9622.677246,229.828649
3219.999061,148.041188,-9474.636058,1532.190996
3219.999389,74.020594,-9844.739029,2298.286494
3219.999716,740.205942,-9178.553681,842.705048
3220.000044,962.267725,-9770.718434,0.000000
3220.000371,814.226536,-9400.615463,-842.705048
3220.000699,-222.061783,-9104.533087,-1072.533697
3220.001026,74.020594,-10140.821405,-1532.190996
3220.001354,1998.556043,-10732.986159,-2068.457845
3220.001681,1480.411884,-11103.089130,-766.095498
3220.002009,518.144159,-10436.903782,1072.533697
3220.002337,666.185348,-10362.883188,766.095498
3220.002664,592.164754,-10658.965565,612.876398
3220.002992,74.020594,-9474.636058,0.000000
3220.003319,-962.267725,-7846.182985,-383.047749
3220.003647,-888.247130,-7550.100608,-383.047749
3220.003974,-1184.329507,-9844.739029,0.000000
3220.004302,0.000000,-9770.718434,-995.924147
3220.004629,-592.164754,-8808.450710,-1838.629195
3220.004957,1258.350101,-9474.636058,-766.095498
3220.005284,1998.556043,-10214.842000,-842.705048
3220.005612,2146.597232,-11843.295072,306.438199
3220.005939,2146.597232,-11325.150913,919.314598
3220.006267,2220.617826,-10362.883188,1225.752797
3220.006594,518.144159,-9252.574275,1378.971896
3220.006922,-1036.288319,-8956.491898,1149.143247
3220.007249,-2146.597232,-8734.430116,1225.752797
3220.007577,-1702.473667,-9178.553681,-383.047749
3220.007905,-2368.659014,-9474.636058,-2298.286494
3220.008232,-2960.823768,-9918.759623,-2145.067394
3220.008560,-1776.494261,-7846.182985,-2374.896044
3220.008887,0.000000,-7254.018232,-1915.238745
3220.009215,740.205942,-10214.842000,459.657299
3220.009542,1850.514855,-10807.006753,1685.410096
3220.009870,2220.617826,-10584.944971,2451.505594
3220.010197,2368.659014,-10140.821405,1455.581446
3220.010525,2368.659014,-10955.047942,1072.533697
3220.010852,1036.288319,-10807.006753,1072.533697
3220.011180,740.205942,-8882.471304,0.000000
3220.011507,-592.164754,-8660.409521,-995.924147
3220.011835,-2072.576638,-9548.656652,-2145.067394
3220.012162,-1110.308913,-8734.430116,-2834.553343
3220.012490,74.020594,-8660.409521,-2221.676944
3220.012817,1036.288319,-9622.677246,-689.485948
3220.013145,1406.391290,-9770.718434,0.000000
3220.013473,296.082377,-9252.574275,1685.410096
3220.013800,1406.391290,-9400.615463,1149.143247
3220.014128,1924.535449,-10955.047942,459.657299
3220.014455,1998.556043,-12139.377449,0.000000
3220.014783,1628.453072,-10807.006753,-842.705048
3220.015110,592.164754,-10658.965565,-1072.533697
3220.015438,-444.123565,-11177.109724,-1838.629195
3220.015765,0.000000,-9770.718434,-2757.943793
3220.016093,-888.247130,-9252.574275,-2145.067394
3220.016420,-1184.329507,-9252.574275,-1072.533697
3220.016748,-888.247130,-8438.347739,-766.095498
3220.017075,-1702.473667,-8290.306550,919.314598
3220.017403,-962.267725,-7920.203579,1072.533697
3220.017730,74.020594,-7550.100608,1915.238745
3220.018058,1702.473667,-9400.615463,2834.553343
3220.018385,1850.514855,-10436.903782,1991.848295
3220.018713,2072.576638,-10807.006753,-229.828649
3220.019040,1184.329507,-10066.800811,-766.095498
3220.019368,518.144159,-8660.409521,-1225.752797
3220.019696,0.000000,-8734.430116,0.000000
3220.020023,-370.102971,-10362.883188,536.266849
3220.020351,-370.102971,-10214.842000,229.828649
3220.020678,-740.205942,-9918.759623,306.438199
3220.021006,0.000000,-8734.430116,-459.657299
3220.021333,666.185348,-6957.935855,-536.266849
3220.021661,-1110.308913,-7994.224174,1072.533697
3220.021988,-2442.679609,-9252.574275,689.485948
3220.022316,-1480.411884,-9770.718434,-1225.752797
3220.022643,222.061783,-9622.677246,-2298.286494
3220.022971,1998.556043,-8882.471304,-1378.971896
3220.023298,1554.432478,-10510.924376,1455.581446
3220.023626,2664.741391,-12879.583391,1838.629195
3220.023953,2146.597232,-12139.377449,689.485948
3220.024281,962.267725,-10732.986159,-1072.533697
3220.024608,-296.082377,-8512.368333,-2451.505594
3220.024936,-1258.350101,-9474.636058,-766.095498
3220.025264,-1480.411884,-10214.842000,536.266849
3220.025591,-444.123565,-10510.924376,0.000000
3220.025919,-444.123565,-11251.130318,-1072.533697
3220.026246,296.082377,-10214.842000,-2145.067394
3220.026574,666.185348,-8068.244768,-2221.676944
3220.026901,0.000000,-8142.265362,0.000000
3220.027229,0.000000,-9178.553681,842.705048
3220.027556,518.144159,-9104.533087,229.828649
3220.027884,1110.308913,-9474.636058,536.266849
3220.028211,2294.638420,-11029.068536,1302.362347
3220.028539,3775.050304,-11621.233289,1838.629195
3220.028866,3256.906145,-10807.006753,1455.581446
3220.029194,1184.329507,-11399.171507,229.828649
3220.029521,-1184.329507,-8882.471304,-1608.800546
3220.029849,-2368.659014,-8290.306550,-1225.752797
3220.030176,-2960.823768,-7476.080014,-1378.971896
3220.030504,-1924.535449,-7105.977043,-1302.362347
3220.030832,-1776.494261,-8142.265362,-383.047749
3220.031159,-296.082377,-9252.574275,0.000000
3220.031487,444.123565,-9622.677246,536.266849
3220.031814,2220.617826,-9548.656652,766.095498
3220.032142,2812.782580,-9622.677246,766.095498
3220.032469,1850.514855,-10732.986159,1225.752797
3220.032797,1332.370696,-11177.109724,995.924147
3220.033124,1480.411884,-10881.027347,0.000000
3220.033452,74.020594,-10288.862594,0.000000
3220.033779,592.164754,-8808.450710,-995.924147
3220.034107,-666.185348,-8586.388927,-1378.971896
3220.034434,-1110.308913,-9548.656652,-459.657299
3220.034762,-666.185348,-9696.697840,-995.924147
3220.035089,-740.205942,-9548.656652,-383.047749
3220.035417,-814.226536,-8808.450710,-612.876398
3220.035744,1258.350101,-8364.327145,-995.924147
3220.036072,1850.514855,-8882.471304,459.657299
3220.036399,2738.761985,-11473.192101,612.876398
3220.036727,1332.370696,-13249.686362,536.266849
3220.037054,1110.308913,-12287.418637,-1302.362347
3220.037382,592.164754,-8586.388927,-3140.991542
3220.037709,0.000000,-9178.553681,-2757.943793
3220.038037,-962.267725,-10807.006753,-766.095498
3220.038364,-1554.432478,-11769.274478,-306.438199
3220.038692,-1776.494261,-10732.986159,-459.657299
3220.039019,-222.061783,-8512.368333,-1608.800546
3220.039347,0.000000,-8290.306550,-1532.190996
3220.039674,-962.267725,-7920.203579,1149.143247
3220.040002,-1258.350101,-8512.368333,1991.848295
3220.040329,-888.247130,-8512.368333,1149.143247
3220.040656,148.041188,-9178.553681,0.000000
3220.040984,1776.494261,-9622.677246,0.000000
3220.041311,2294.638420,-9326.594869,612.876398
3220.041639,2368.659014,-10288.862594,1302.362347
3220.041966,888.247130,-10881.027347,1302.362347
3220.042294,-962.267725,-9770.718434,229.828649
3220.042621,-814.226536,-9252.574275,-1225.752797
3220.042949,0.000000,-8438.347739,-1225.752797
3220.043276,-148.041188,-9622.677246,766.095498
3220.043604,1332.370696,-10066.800811,1378.971896
3220.043931,740.205942,-10066.800811,306.438199
3220.044259,-148.041188,-8956.491898,-383.047749
3220.044586,-1332.370696,-7698.141797,-1455.581446
3220.044914,-1036.288319,-8068.244768,-919.314598
3220.045241,888.247130,-9030.512492,-459.657299
3220.045569,1850.514855,-10066.800811,0.000000
3220.045896,2072.576638,-12657.521608,842.705048
3220.046224,3256.906145,-12509.480420,459.657299
3220.046551,3256.906145,-9178.553681,-306.438199
3220.046879,1850.514855,-9548.656652,-612.876398
3220.047206,-592.164754,-11029.068536,-919.314598
3220.047534,-1036.288319,-10955.047942,-1915.238745
3220.047861,-740.205942,-9992.780217,-2221.676944
3220.048189,-148.041188,-8956.491898,-2451.505594
3220.048516,0.000000,-9178.553681,383.047749
3220.048844,1036.288319,-9770.718434,919.314598
3220.049171,-148.041188,-9992.780217,459.657299
3220.049499,-1258.350101,-10140.821405,-536.266849
3220.049826,-296.082377,-8586.388927,-2145.067394
3220.050154,74.020594,-7698.141797,-1072.533697
3220.050481,1554.432478,-10732.986159,612.876398
3220.050809,2294.638420,-12361.439231,1608.800546
3220.051136,2072.576638,-11769.274478,1225.752797
3220.051464,1332.370696,-10362.883188,-383.047749
3220.051791,1110.308913,-9474.636058,-1685.410096
3220.052119,-1036.288319,-7846.182985,-306.438199
3220.052446,-2146.597232,-8142.265362,919.314598
3220.052774,-2738.761985,-7402.059420,383.047749
3220.053101,-2294.638420,-8216.285956,-919.314598
3220.053429,-1406.391290,-8882.471304,-766.095498
3220.053756,-740.205942,-7624.121203,229.828649
3220.054084,444.123565,-9030.512492,1072.533697
3220.054411,2516.700203,-11103.089130,76.609550
3220.054739,1850.514855,-11473.192101,-612.876398
3220.055066,1110.308913,-10214.842000,-306.438199
3220.055394,814.226536,-8142.265362,0.000000
3220.055721,1406.391290,-9326.594869,919.314598
3220.056049,518.144159,-9992.780217,1072.533697
3220.056376,-370.102971,-9474.636058,0.000000
3220.056704,-2368.659014,-10140.821405,-306.438199
3220.057031,-518.144159,-10436.903782,-1991.848295
3220.057359,666.185348,-10584.944971,-2068.457845
3220.057686,0.000000,-9770.718434,-306.438199
3220.058014,0.000000,-9400.615463,0.000000
3220.058341,1110.308913,-9326.594869,-689.485948
3220.058669,1998.556043,-9474.636058,-919.314598
3220.058996,2294.638420,-10584.944971,306.438199
3220.059324,1776.494261,-12139.377449,1608.800546
3220.059651,2072.576638,-11177.109724,612.876398
3220.059979,1036.288319,-9992.780217,-919.314598
3220.060306,-1480.411884,-11621.233289,-1225.752797
3220.060634,-1702.473667,-10362.883188,-1302.362347
3220.060961,-1036.288319,-9770.718434,-919.314598
3220.061289,-666.185348,-9622.677246,-1072.533697
3220.061616,-222.061783,-9474.636058,-919.314598
3220.061944,-814.226536,-8660.409521,-153.219100
3220.062271,-518.144159,-7402.059420,459.657299
3220.062599,-814.226536,-7031.956449,229.828649
3220.062926,0.000000,-6883.915261,1455.581446
3220.063254,1036.288319,-8364.327145,1455.581446
3220.063581,1480.411884,-9918.759623,1302.362347
3220.063909,1628.453072,-10881.027347,1915.238745
3220.064236,1406.391290,-10436.903782,919.314598
3220.064564,1776.494261,-9104.533087,536.266849
3220.064891,74.020594,-8808.450710,0.000000
3220.065219,-444.123565,-10066.800811,-995.924147
3220.065546,-296.082377,-10288.862594,-1072.533697
3220.065874,0.000000,-9622.677246,-306.438199
3220.066201,814.226536,-8956.491898,0.000000
3220.066529,222.061783,-8734.430116,689.485948
3220.066856,-1036.288319,-8882.471304,919.314598
3220.067184,-2294.638420,-9030.512492,-536.266849
3220.067511,-1184.329507,-10658.965565,-1608.800546
3220.067839,888.247130,-10140.821405,-1991.848295
3220.068166,1480.411884,-9104.533087,153.219100
3220.068494,1554.432478,-11547.212695,2221.676944
3220.068821,3182.885551,-12583.501014,76.609550
3220.069149,1924.535449,-12139.377449,-1608.800546
3220.069476,444.123565,-10288.862594,-2221.676944
3220.069804,0.000000,-8586.388927,-2374.896044
3220.070131,-518.144159,-9252.574275,-766.095498
3220.070459,-370.102971,-9918.759623,76.609550
3220.070786,-1258.350101,-9474.636058,229.828649
3220.071114,-1258.350101,-10140.821405,153.219100
3220.071441,0.000000,-10066.800811,-1378.971896
3220.071769,-444.123565,-8660.409521,-1532.190996
3220.072096,-1480.411884,-8068.244768,-689.485948
3220.072424,-666.185348,-9474.636058,-459.657299
3220.072751,888.247130,-10955.047942,-153.219100
3220.073079,1480.411884,-10510.924376,153.219100
3220.073406,1480.411884,-9252.574275,1455.581446
3220.073734,2368.659014,-9844.739029,1762.019645
3220.074061,1480.411884,-9326.594869,842.705048
3220.074389,-518.144159,-9474.636058,383.047749
3220.074716,-2738.761985,-8808.450710,612.876398
3220.075044,-2368.659014,-8068.244768,-153.219100
3220.075371,-1702.473667,-7846.182985,-919.314598
3220.075699,-1184.329507,-9400.615463,-995.924147
3220.076026,-888.247130,-9548.656652,-612.876398
3220.076354,222.061783,-8586.388927,-919.314598
3220.076681,1628.453072,-9622.677246,-1149.143247
3220.077009,2368.659014,-9992.780217,-459.657299
3220.077336,2738.761985,-10214.842000,995.924147
3220.077664,2738.761985,-10436.903782,1991.848295
3220.077991,2368.659014,-10658.965565,1455.581446
3220.078319,1406.391290,-11621.233289,612.876398
3220.078646,592.164754,-9548.656652,-459.657299
3220.078974,-296.082377,-8882.471304,-1225.752797
3220.079301,-1110.308913,-10510.924376,-1149.143247
3220.079629,0.000000,-11621.233289,-1762.019645
3220.079956,148.041188,-11473.192101,-1685.410096
3220.080284,0.000000,-9400.615463,-1225.752797
3220.080611,444.123565,-7772.162391,-306.438199
3220.080939,2368.659014,-8216.285956,-612.876398
3220.081266,1998.556043,-9992.780217,1455.581446
3220.081594,1406.391290,-11399.171507,2374.896044
3220.081921,1184.329507,-11103.089130,1608.800546
3220.082249,1776.494261,-9918.759623,-459.657299
3220.082576,888.247130,-9474.636058,-1302.362347
3220.082904,-740.205942,-10658.965565,0.000000
3220.083231,-1332.370696,-11251.130318,0.000000
3220.083559,-814.226536,-11621.233289,-842.705048
3220.083886,0.000000,-9474.636058,-2451.505594
3220.084214,296.082377,-6661.853478,-2145.067394
3220.084541,-814.226536,-6365.771101,995.924147
3220.084869,-740.205942,-7624.121203,2528.115143
3220.085196,-370.102971,-7994.224174,2911.162892
3220.085524,-444.123565,-8660.409521,1762.019645
3220.085851,0.000000,-9474.636058,536.266849
3220.086179,1110.308913,-9918.759623,536.266849
3220.086506,1258.350101,-10140.821405,536.266849
3220.086834,1702.473667,-11103.089130,459.657299
3220.087161,814.226536,-10732.986159,76.609550
3220.087489,-444.123565,-9770.718434,-1685.410096
3220.087816,-888.247130,-8882.471304,-1378.971896
3220.088144,148.041188,-8142.265362,-612.876398
3220.088471,444.123565,-8956.491898,383.047749
3220.088799,-1258.350101,-10955.047942,1608.800546
3220.089126,-2220.617826,-10584.944971,1149.143247
3220.089454,-1036.288319,-9696.697840,-995.924147
3220.089781,0.000000,-9844.739029,-1455.581446
3220.090109,444.123565,-10066.800811,-1762.019645
3220.090436,0.000000,-9770.718434,-612.876398
3220.090764,814.226536,-11103.089130,306.438199
3220.091091,2294.638420,-12139.377449,0.000000
3220.091419,2590.720797,-11103.089130,-383.047749
3220.091746,888.247130,-9030.512492,0.000000
3220.092074,222.061783,-9326.594869,229.828649
3220.092401,370.102971,-10584.944971,-612.876398
3220.092729,-518.144159,-11621.233289,-689.485948
3220.093056,-1184.329507,-9622.677246,-842.705048
3220.093384,-1332.370696,-8290.306550,-383.047749
3220.093711,-296.082377,-9326.594869,76.609550
3220.094039,222.061783,-9992.780217,-612.876398
3220.094366,0.000000,-8808.450710,-919.314598
3220.094694,-592.164754,-7772.162391,-612.876398
3220.095021,148.041188,-8512.368333,-536.266849
3220.095349,1998.556043,-8586.388927,0.000000
3220.095676,1924.535449,-9622.677246,919.314598
3220.096004,1776.494261,-10510.924376,1455.581446
3220.096331,1258.350101,-10807.006753,1302.362347
3220.096659,1036.288319,-10362.883188,76.609550
3220.096986,-222.061783,-9474.636058,76.609550
3220.097314,-1850.514855,-8290.306550,1072.533697
3220.097641,-1702.473667,-8660.409521,-689.485948
3220.097969,-1258.350101,-9992.780217,-2298.286494
3220.098296,-1036.288319,-9104.533087,-2068.457845
3220.098624,74.020594,-7254.018232,-2298.286494
3220.098951,1554.432478,-8438.347739,0.000000
3220.099279,3182.885551,-10362.883188,153.219100
3220.099606,2294.638420,-10658.965565,995.924147
3220.099934,2146.597232,-11325.150913,1608.800546
3220.100261,2220.617826,-11399.171507,459.657299
3220.100589,1776.494261,-10955.047942,306.438199
3220.100916,1184.329507,-9992.780217,306.438199
3220.101243,962.267725,-9844.739029,-229.828649
3220.101571,-296.082377,-10807.006753,-1302.362347
3220.101898,-518.144159,-11399.171507,-1685.410096
3220.102226,0.000000,-9548.656652,-2451.505594
3220.102553,0.000000,-8364.327145,-1762.019645
3220.102881,296.082377,-8734.430116,-229.828649
3220.103208,222.061783,-9326.594869,-383.047749
3220.103536,-148.041188,-9844.739029,1685.410096
3220.103863,666.185348,-11325.150913,1915.238745
3220.104191,1036.288319,-9992.780217,842.705048
3220.104518,148.041188,-10362.883188,76.609550
3220.104846,-1110.308913,-10214.842000,-1225.752797
3220.105173,-1036.288319,-9992.780217,-1225.752797
3220.105501,-1924.535449,-9474.636058,-1149.143247
3220.105828,-666.185348,-9548.656652,-1532.190996
3220.106156,148.041188,-8142.265362,-766.095498
3220.106483,592.164754,-8068.244768,153.219100
3220.106811,-148.041188,-8882.471304,1532.190996
3220.107138,-518.144159,-10066.800811,2145.067394
3220.107466,148.041188,-8364.327145,612.876398
3220.107793,-518.144159,-7179.997637,0.000000
3220.108121,-222.061783,-9030.512492,842.705048
3220.108448,1480.411884,-11103.089130,766.095498
3220.108776,1554.432478,-10807.006753,-229.828649
3220.109103,1110.308913,-10288.862594,-1149.143247
3220.109431,1258.350101,-8956.491898,-1532.190996
3220.109758,1184.329507,-8216.285956,0.000000
3220.110086,1184.329507,-9252.574275,612.876398
3220.110413,518.144159,-9844.739029,919.314598
3220.110741,148.041188,-9918.759623,1072.533697
3220.111068,-518.144159,-9770.718434,0.000000
3220.111396,-1184.329507,-9548.656652,-1302.362347
3220.111723,-1776.494261,-9474.636058,-1225.752797
3220.112051,-444.123565,-10288.862594,-1762.019645
3220.112378,0.000000,-11769.274478,-1225.752797
3220.112706,444.123565,-10214.842000,-1149.143247
3220.113033,1924.535449,-8586.388927,0.000000
3220.113361,1850.514855,-9474.636058,1685.410096
3220.113688,2072.576638,-10658.965565,919.314598
3220.114016,1480.411884,-10214.842000,0.000000
3220.114343,444.123565,-9696.697840,306.438199
3220.114671,518.144159,-10584.944971,0.000000
3220.114998,444.123565,-10881.027347,0.000000
3220.115326,0.000000,-9992.780217,842.705048
3220.115653,0.000000,-10288.862594,-919.314598
3220.115981,-222.061783,-10732.986159,-1302.362347
3220.116308,-1258.350101,-8882.471304,-1149.143247
3220.116636,0.000000,-7105.977043,-1225.752797
3220.116963,-222.061783,-6661.853478,76.609550
3220.117291,518.144159,-8216.285956,1072.533697
3220.117618,962.267725,-9326.594869,1149.143247
3220.117946,1406.391290,-10732.986159,919.314598
3220.118273,1628.453072,-11991.336260,76.609550
3220.118601,1406.391290,-10066.800811,0.000000
3220.118928,888.247130,-8660.409521,459.657299
3220.119256,1036.288319,-9104.533087,-306.438199
3220.119583,-1184.329507,-9622.677246,536.266849
3220.119911,-2220.617826,-9400.615463,153.219100
3220.120238,-2146.597232,-7698.141797,-2374.896044
3220.120566,-1702.473667,-7624.121203,-2145.067394
3220.120893,-740.205942,-8882.471304,-536.266849
3220.121221,0.000000,-9548.656652,612.876398
3220.121548,666.185348,-10881.027347,766.095498
3220.121876,2220.617826,-11251.130318,-1762.019645
3220.122203,2072.576638,-11325.150913,-612.876398
3220.122531,1406.391290,-10436.903782,0.000000
3220.122858,1184.329507,-10288.862594,-229.828649
3220.123186,0.000000,-10955.047942,459.657299
3220.123513,370.102971,-10288.862594,-306.438199
3220.123841,222.061783,-7846.182985,-1608.800546
3220.124168,-296.082377,-7920.203579,-459.657299
3220.124496,-740.205942,-10214.842000,459.657299
3220.124823,-518.144159,-11029.068536,0.000000
3220.125151,-222.061783,-10584.944971,-919.314598
3220.125478,444.123565,-9252.574275,-2298.286494
3220.125806,1258.350101,-9474.636058,-1225.752797
3220.126133,1110.308913,-10658.965565,2221.676944
3220.126461,2072.576638,-11325.150913,2374.896044
3220.126788,1554.432478,-10436.903782,76.609550
3220.127116,74.020594,-8956.491898,-1915.238745
3220.127443,-814.226536,-8142.265362,-1915.238745
3220.127771,-888.247130,-8734.430116,153.219100
3220.128098,370.102971,-9030.512492,612.876398
3220.128426,1110.308913,-9548.656652,766.095498
3220.128753,74.020594,-10658.965565,383.047749
3220.129081,148.041188,-9622.677246,-919.314598
3220.129408,444.123565,-8882.471304,-536.266849
3220.129736,0.000000,-8808.450710,689.485948
3220.130063,-518.144159,-8364.327145,842.705048
3220.130391,-370.102971,-8364.327145,536.266849
3220.130718,444.123565,-9474.636058,153.219100
3220.131046,1332.370696,-10510.924376,0.000000
3220.131373,962.267725,-9696.697840,766.095498
3220.131701,370.102971,-8734.430116,0.000000
3220.132028,814.226536,-10066.800811,-919.314598
3220.132356,0.000000,-10881.027347,0.000000
3220.132683,222.061783,-10066.800811,-459.657299
3220.133011,148.041188,-8512.368333,-919.314598
3220.133338,592.164754,-10658.965565,1302.362347
3220.133666,1406.391290,-11251.130318,229.828649
3220.133993,-222.061783,-9252.574275,306.438199
3220.134321,-1480.411884,-9178.553681,-536.266849
3220.134648,-370.102971,-9622.677246,-1991.848295
3220.134976,444.123565,-9474.636058,-1532.190996
3220.135303,444.123565,-8956.491898,76.609550
3220.135631,888.247130,-10214.842000,919.314598
3220.135958,1110.308913,-11695.253884,1302.362347
3220.136286,2220.617826,-10584.944971,-383.047749
3220.136613,1776.494261,-9918.759623,-689.485948
3220.136941,592.164754,-9844.739029,-153.219100
3220.137268,-148.041188,-10732.986159,0.000000
3220.137596,-1184.329507,-10658.965565,-612.876398
3220.137923,-666.185348,-9252.574275,-1838.629195
3220.138251,-370.102971,-8216.285956,-1608.800546
3220.138578,0.000000,-8586.388927,0.000000
3220.138906,74.020594,-8956.491898,995.924147
3220.139233,814.226536,-9474.636058,919.314598
3220.139561,296.082377,-10066.800811,536.266849
3220.139888,-370.102971,-8808.450710,-383.047749
3220.140216,-1332.370696,-7624.121203,-536.266849
3220.140544,370.102971,-9474.636058,-306.438199
3220.140871,1480.411884,-11547.212695,0.000000
3220.141199,740.205942,-11991.336260,383.047749
3220.141526,444.123565,-10584.944971,229.828649
3220.141854,2146.597232,-8734.430116,-1149.143247
3220.142182,814.226536,-7624.121203,-383.047749
3220.142509,-444.123565,-8734.430116,1532.190996
3220.142837,-1776.494261,-8586.388927,842.705048
3220.143165,-1998.556043,-9326.594869,0.000000
3220.143492,-1924.535449,-9104.533087,-2068.457845
3220.143820,-962.267725,-8882.471304,-2451.505594
3220.144147,-296.082377,-9622.677246,-919.314598
3220.144475,666.185348,-10881.027347,-766.095498
3220.144803,1702.473667,-12805.562797,-459.657299
3220.145130,1702.473667,-11103.089130,-919.314598
3220.145458,2072.576638,-9326.594869,-995.924147
3220.145785,1628.453072,-8512.368333,842.705048
3220.146113,666.185348,-9178.553681,1225.752797
3220.146441,370.102971,-11029.068536,1455.581446
3220.146768,592.164754,-10584.944971,0.000000
3220.147096,666.185348,-9474.636058,-1685.410096
3220.147423,296.082377,-8882.471304,-1532.190996
3220.147751,444.123565,-9622.677246,-995.924147
3220.148079,0.000000,-10584.944971,-995.924147
3220.148406,-518.144159,-10510.924376,-766.095498
3220.148734,296.082377,-8882.471304,-689.485948
3220.149062,1110.308913,-7698.141797,0.000000
3220.149389,740.205942,-10288.862594,1149.143247
3220.149717,592.164754,-11177.109724,1072.533697
3220.150044,2072.576638,-11399.171507,-306.438199
3220.150372,1702.473667,-10658.965565,-919.314598
3220.150700,148.041188,-8956.491898,-995.924147
3220.151027,-740.205942,-8216.285956,229.828649
3220.151355,-296.082377,-9474.636058,1302.362347
3220.151682,592.164754,-10732.986159,-689.485948
3220.152010,-592.164754,-9474.636058,-1532.190996
3220.152338,-1924.535449,-6809.894666,-766.095498
3220.152665,-814.226536,-6069.688724,-766.095498
3220.152993,148.041188,-8956.491898,612.876398
3220.153321,518.144159,-9400.615463,1532.190996
3220.153648,1332.370696,-10510.924376,1072.533697
3220.153976,1776.494261,-11251.130318,919.314598
3220.154303,2516.700203,-9252.574275,-1072.533697
3220.154631,2516.700203,-9104.533087,0.000000
3220.154959,1702.473667,-10807.006753,842.705048
3220.155286,592.164754,-11177.109724,383.047749
3220.155614,-1184.329507,-10066.800811,-229.828649
3220.155941,-1036.288319,-8808.450710,-1838.629195
3220.156269,-592.164754,-9178.553681,-1455.581446
3220.156597,-370.102971,-8512.368333,-536.266849
3220.156924,-1406.391290,-8660.409521,383.047749
3220.157252,-1776.494261,-9474.636058,0.000000
3220.157579,148.041188,-10288.862594,-1072.533697
3220.157907,592.164754,-9770.718434,-536.266849
3220.158235,1036.288319,-8956.491898,995.924147
3220.158562,1110.308913,-9992.780217,1915.238745
3220.158890,1406.391290,-11473.192101,919.314598
3220.159218,962.267725,-10732.986159,-1762.019645
3220.159545,74.020594,-9770.718434,-2374.896044
3220.159873,0.000000,-9252.574275,-1532.190996
3220.160200,148.041188,-9992.780217,-459.657299
3220.160528,222.061783,-9918.759623,-459.657299
3220.160856,-1628.453072,-9474.636058,-229.828649
3220.161183,-1480.411884,-10288.862594,766.095498
3220.161511,148.041188,-8586.388927,-306.438199
3220.161838,888.247130,-8364.327145,536.266849
3220.162166,1406.391290,-10140.821405,1225.752797
3220.162494,2146.597232,-10732.986159,689.485948
3220.162821,1332.370696,-10510.924376,-306.438199
3220.163149,666.185348,-9770.718434,-1072.533697
3220.163477,0.000000,-8734.430116,-689.485948
3220.163804,-296.082377,-8438.347739,842.705048
3220.164132,518.144159,-9252.574275,0.000000
3220.164459,0.000000,-11695.253884,229.828649
3220.164787,370.102971,-12213.398043,689.485948
3220.165115,1406.391290,-8956.491898,76.609550
3220.165442,740.205942,-6587.832884,-306.438199
3220.165770,-296.082377,-7920.203579,842.705048
3220.166097,-1628.453072,-9400.615463,1378.971896
3220.166425,-1332.370696,-9400.615463,0.000000
3220.166753,-814.226536,-8216.285956,-1838.629195
3220.167080,-444.123565,-9030.512492,-1991.848295
3220.167408,-814.226536,-9844.739029,-536.266849
3220.167735,74.020594,-10362.883188,306.438199
3220.168063,444.123565,-11399.171507,76.609550
3220.168391,962.267725,-11769.274478,-383.047749
3220.168718,1480.411884,-9844.739029,-689.485948
3220.169046,1554.432478,-8734.430116,229.828649
3220.169374,1258.350101,-10140.821405,1072.533697
3220.169701,962.267725,-11473.192101,612.876398
3220.170029,74.020594,-9918.759623,0.000000
3220.170356,74.020594,-7846.182985,-2221.676944
3220.170684,814.226536,-7179.997637,-2911.162892
3220.171012,592.164754,-9400.615463,-153.219100
3220.171339,-222.061783,-10510.924376,1838.629195
3220.171667,-1110.308913,-11251.130318,1225.752797
3220.171994,-518.144159,-11029.068536,-1302.362347
3220.172322,518.144159,-9252.574275,-3217.601092
3220.172650,1776.494261,-10732.986159,-1532.190996
3220.172977,2146.597232,-13619.789333,1685.410096
3220.173305,3404.947333,-12139.377449,612.876398
3220.173633,2072.576638,-10066.800811,0.000000
3220.173960,222.061783,-8586.388927,-1532.190996
3220.174288,-592.164754,-7920.203579,-1608.800546
3220.174615,-1850.514855,-6883.915261,0.000000
