#time,accel_x,accel_y,accel_z
2481.509996,888.247130,-10362.883188,0.000000
2481.510324,592.164754,-9770.718434,0.000000
2481.510651,592.164754,-9770.718434,153.219100
2481.510979,370.102971,-9548.656652,76.609550
2481.511306,0.000000,-9474.636058,0.000000
2481.511634,-296.082377,-9548.656652,0.000000
2481.511962,0.000000,-9474.636058,0.000000
2481.512289,-518.144159,-9844.739029,0.000000
2481.512617,-296.082377,-9622.677246,-612.876398
2481.512944,74.020594,-9918.759623,-612.876398
2481.513272,222.061783,-10140.821405,-229.828649
2481.513600,518.144159,-9696.697840,0.000000
2481.513927,222.061783,-9400.615463,766.095498
2481.514255,444.123565,-9400.615463,842.705048
2481.514583,0.000000,-9104.533087,0.000000
2481.514910,296.082377,-8956.491898,0.000000
2481.515238,0.000000,-9252.574275,-306.438199
2481.515565,0.000000,-9400.615463,-383.047749
2481.515893,-148.041188,-9474.636058,-459.657299
2481.516221,148.041188,-9474.636058,-995.924147
2481.516548,222.061783,-9622.677246,-459.657299
2481.516876,740.205942,-9918.759623,76.609550
2481.517203,592.164754,-9918.759623,0.000000
2481.517531,814.226536,-10066.800811,0.000000
2481.517859,740.205942,-9770.718434,229.828649
2481.518186,666.185348,-9622.677246,0.000000
2481.518514,518.144159,-9622.677246,153.219100
2481.518841,370.102971,-9696.697840,-383.047749
2481.519169,444.123565,-9400.615463,0.000000
2481.519497,-74.020594,-9474.636058,-995.924147
2481.519824,74.020594,-9770.718434,-842.705048
2481.520152,444.123565,-10214.842000,-1072.533697
2481.520480,518.144159,-10214.842000,-536.266849
2481.520807,666.185348,-10510.924376,0.000000
2481.521135,962.267725,-9696.697840,-153.219100
2481.521462,1036.288319,-10140.821405,229.828649
2481.521790,592.164754,-9548.656652,229.828649
2481.522118,370.102971,-9548.656652,153.219100
2481.522445,74.020594,-9474.636058,229.828649
2481.522773,-296.082377,-9252.574275,0.000000
2481.523100,-296.082377,-9548.656652,-766.095498
2481.523428,-370.102971,-9474.636058,0.000000
2481.523756,0.000000,-9252.574275,0.000000
2481.524083,666.185348,-9252.574275,-153.219100
2481.524411,1998.556043,-9770.718434,383.047749
2481.524738,2960.823768,-9178.553681,306.438199
2481.525066,3849.070898,-8956.491898,766.095498
2481.525394,4441.235652,-8808.450710,766.095498
2481.525721,4959.379811,-9622.677246,-383.047749
2481.526049,4959.379811,-8956.491898,0.000000
2481.526376,5403.503377,-8216.285956,-383.047749
2481.526704,5847.626942,-9474.636058,-306.438199
2481.527032,6957.935855,-10066.800811,-306.438199
2481.527359,7254.018232,-10362.883188,-306.438199
2481.527687,7920.203579,-10288.862594,459.657299
2481.528015,8808.450710,-9770.718434,-459.657299
2481.528342,9696.697840,-9474.636058,-383.047749
2481.528670,9918.759623,-9400.615463,229.828649
2481.528997,10732.986159,-9252.574275,383.047749
2481.529325,11621.233289,-9400.615463,76.609550
2481.529653,10881.027347,-10362.883188,536.266849
2481.529980,9918.759623,-9918.759623,0.000000
2481.530308,9326.594869,-9326.594869,-306.438199
2481.530635,8882.471304,-10288.862594,-1072.533697
2481.530963,8882.471304,-11473.192101,-1149.143247
2481.531291,9104.533087,-11399.171507,-1302.362347
2481.531618,9326.594869,-10510.924376,-306.438199
2481.531946,9400.615463,-9770.718434,383.047749
2481.532273,9548.656652,-8882.471304,689.485948
2481.532601,9104.533087,-8364.327145,76.609550
2481.532929,8660.409521,-7624.121203,1225.752797
2481.533256,9326.594869,-8808.450710,306.438199
2481.533584,9326.594869,-9844.739029,306.438199
2481.533912,8808.450710,-10955.047942,536.266849
2481.534239,6883.915261,-11473.192101,995.924147
2481.534567,4663.297435,-10510.924376,0.000000
2481.534894,3256.906145,-10362.883188,-612.876398
2481.535222,2516.700203,-10732.986159,-766.095498
2481.535550,2220.617826,-9844.739029,0.000000
2481.535877,2886.803174,-9030.512492,995.924147
2481.536205,1998.556043,-8290.306550,1838.629195
2481.536532,888.247130,-8068.244768,1915.238745
2481.536860,296.082377,-7105.977043,1149.143247
2481.537188,-592.164754,-7920.203579,459.657299
2481.537515,-1332.370696,-8956.491898,-153.219100
2481.537843,-518.144159,-9992.780217,-229.828649
2481.538170,-518.144159,-10807.006753,-153.219100
2481.538498,-666.185348,-11251.130318,153.219100
2481.538826,-740.205942,-11473.192101,306.438199
2481.539153,-2368.659014,-11399.171507,612.876398
2481.539481,-4663.297435,-10732.986159,-612.876398
2481.539808,-5329.482782,-9770.718434,-1532.190996
2481.540136,-6217.729913,-7476.080014,-2068.457845
2481.540464,-6735.874072,-7772.162391,-1149.143247
2481.540791,-5995.668130,-7994.224174,-229.828649
2481.541119,-3923.091493,-8068.244768,-459.657299
2481.541447,-1258.350101,-9622.677246,-612.876398
2481.541774,1110.308913,-10732.986159,-1378.971896
2481.542102,2368.659014,-10732.986159,-1991.848295
2481.542429,444.123565,-10658.965565,-383.047749
2481.542757,-666.185348,-12509.480420,-153.219100
2481.543085,-2072.576638,-12953.603985,-689.485948
2481.543412,-2960.823768,-11177.109724,-1455.581446
2481.543740,-2516.700203,-9844.739029,-766.095498
2481.544067,-1554.432478,-9252.574275,-1225.752797
2481.544395,-1480.411884,-9400.615463,-1378.971896
2481.544723,-1702.473667,-7994.224174,-229.828649
2481.545050,-2220.617826,-5847.626942,-459.657299
2481.545378,-1480.411884,-6069.688724,-1455.581446
2481.545705,-962.267725,-7105.977043,-766.095498
2481.546033,1332.370696,-7179.997637,306.438199
2481.546361,4441.235652,-8438.347739,153.219100
2481.546688,7402.059420,-11029.068536,306.438199
2481.547016,7698.141797,-12361.439231,1225.752797
2481.547344,7031.956449,-14063.912898,1838.629195
2481.547671,4959.379811,-13767.830521,919.314598
2481.547999,2664.741391,-12583.501014,-1532.190996
2481.548326,444.123565,-10436.903782,-2604.724693
2481.548654,-962.267725,-8438.347739,-2145.067394
2481.548982,-592.164754,-7105.977043,0.000000
2481.549309,1332.370696,-6291.750507,995.924147
2481.549637,2294.638420,-5847.626942,2068.457845
2481.549964,3404.947333,-6661.853478,2145.067394
2481.550292,4515.256246,-8068.244768,1149.143247
2481.550620,4515.256246,-9030.512492,-383.047749
2481.550947,4219.173869,-9844.739029,-306.438199
2481.551275,4441.235652,-11325.150913,-229.828649
2481.551602,4145.153275,-11917.315666,0.000000
2481.551930,4293.194464,-12805.562797,229.828649
2481.552258,3552.988522,-14211.954086,153.219100
2481.552585,2368.659014,-14063.912898,-536.266849
2481.552913,0.000000,-12139.377449,-1225.752797
2481.553241,-2590.720797,-10436.903782,-1762.019645
2481.553568,-3034.844362,-8660.409521,-1838.629195
2481.553896,-3923.091493,-6439.791695,0.000000
2481.554223,-3182.885551,-5625.565159,1378.971896
2481.554551,-962.267725,-5329.482782,1532.190996
2481.554879,1702.473667,-6661.853478,1838.629195
2481.555206,1924.535449,-8882.471304,2757.943793
2481.555534,1850.514855,-11029.068536,2451.505594
2481.555861,74.020594,-11621.233289,383.047749
2481.556189,-2960.823768,-11843.295072,-1915.238745
2481.556517,-4515.256246,-13249.686362,-3677.258390
2481.556844,-5033.400406,-12213.398043,-4060.306139
2481.557172,-4219.173869,-10510.924376,-3370.820191
2481.557499,-2368.659014,-11177.109724,-1455.581446
2481.557827,-1554.432478,-10807.006753,153.219100
2481.558155,-1480.411884,-9178.553681,1225.752797
2481.558482,-1998.556043,-7698.141797,1225.752797
2481.558810,-2664.741391,-5477.523971,229.828649
2481.559137,-2886.803174,-5255.462188,0.000000
2481.559465,-2738.761985,-5847.626942,612.876398
2481.559793,-962.267725,-7105.977043,1378.971896
2481.560120,518.144159,-8512.368333,2374.896044
2481.560448,1480.411884,-10881.027347,1072.533697
2481.560776,962.267725,-13249.686362,-1838.629195
2481.561103,-444.123565,-13767.830521,-2528.115143
2481.561431,-2072.576638,-12805.562797,-3753.867940
2481.561758,-3182.885551,-11473.192101,-4596.572988
2481.562086,-2442.679609,-9548.656652,-3677.258390
2481.562414,-962.267725,-7031.956449,-689.485948
2481.562741,740.205942,-6809.894666,1608.800546
2481.563069,2960.823768,-7550.100608,3064.381992
2481.563396,4515.256246,-8290.306550,2298.286494
2481.563724,4071.132681,-9400.615463,919.314598
2481.564052,2294.638420,-10288.862594,-306.438199
2481.564379,2220.617826,-10288.862594,-1685.410096
2481.564707,1406.391290,-10510.924376,-1532.190996
2481.565034,1110.308913,-11991.336260,-919.314598
2481.565362,3034.844362,-12139.377449,-995.924147
2481.565690,3478.967927,-11325.150913,0.000000
2481.566017,2960.823768,-11547.212695,612.876398
2481.566345,2960.823768,-12435.459826,0.000000
2481.566673,1776.494261,-11399.171507,-766.095498
2481.567000,-222.061783,-7846.182985,-995.924147
2481.567328,222.061783,-6735.874072,-1149.143247
2481.567655,666.185348,-7105.977043,76.609550
2481.567983,1554.432478,-6883.915261,1685.410096
2481.568311,4219.173869,-8216.285956,2451.505594
2481.568638,4811.338623,-9622.677246,2987.772442
2481.568966,4145.153275,-10955.047942,2451.505594
2481.569293,3552.988522,-12435.459826,536.266849
2481.569621,1554.432478,-11843.295072,-689.485948
2481.569949,-888.247130,-10066.800811,-1455.581446
2481.570276,-1332.370696,-9992.780217,-1378.971896
2481.570604,-1850.514855,-9252.574275,306.438199
2481.570931,-666.185348,-8586.388927,995.924147
2481.571259,518.144159,-8216.285956,1225.752797
2481.571587,222.061783,-9400.615463,1838.629195
2481.571914,-148.041188,-9770.718434,306.438199
2481.572242,-962.267725,-8586.388927,-919.314598
2481.572570,-2368.659014,-7920.203579,-1608.800546
2481.572897,-2442.679609,-8290.306550,-1149.143247
2481.573224,-1258.350101,-8882.471304,-229.828649
2481.573552,222.061783,-9252.574275,842.705048
2481.573879,1998.556043,-10732.986159,1838.629195
2481.574207,2220.617826,-12361.439231,0.000000
2481.574534,222.061783,-13027.624579,-306.438199
2481.574862,-1776.494261,-11917.315666,-1685.410096
2481.575189,-3627.009116,-10584.944971,-2987.772442
2481.575517,-4737.318029,-9400.615463,-2911.162892
2481.575844,-3923.091493,-8438.347739,-1455.581446
2481.576172,-1776.494261,-7254.018232,-383.047749
2481.576499,444.123565,-8068.244768,229.828649
2481.576827,1628.453072,-9622.677246,2221.676944
2481.577154,1036.288319,-10214.842000,1532.190996
2481.577481,-592.164754,-9474.636058,0.000000
2481.577809,-1924.535449,-8660.409521,-2298.286494
2481.578136,-2368.659014,-8956.491898,-3217.601092
2481.578464,-2146.597232,-9548.656652,-2221.676944
2481.578791,-296.082377,-9622.677246,-766.095498
2481.579119,1776.494261,-10066.800811,383.047749
2481.579446,1998.556043,-11695.253884,536.266849
2481.579774,1850.514855,-12435.459826,612.876398
2481.580101,1184.329507,-10955.047942,-612.876398
2481.580429,0.000000,-8438.347739,-1378.971896
2481.580756,-296.082377,-7846.182985,306.438199
2481.581084,0.000000,-7624.121203,612.876398
2481.581411,1258.350101,-7698.141797,2298.286494
2481.581739,2590.720797,-7994.224174,2528.115143
2481.582066,3478.967927,-9252.574275,2298.286494
2481.582393,2442.679609,-11103.089130,1149.143247
2481.582721,740.205942,-11325.150913,0.000000
2481.583048,74.020594,-10584.944971,-2604.724693
2481.583376,-888.247130,-10955.047942,-3447.429741
2481.583703,-1480.411884,-10658.965565,-1838.629195
2481.584031,-370.102971,-9474.636058,0.000000
2481.584358,1332.370696,-9844.739029,1149.143247
2481.584686,3108.864956,-10362.883188,1685.410096
2481.585013,3627.009116,-10362.883188,1685.410096
2481.585341,2664.741391,-9992.780217,766.095498
2481.585668,1406.391290,-8438.347739,612.876398
2481.585996,370.102971,-8438.347739,-766.095498
2481.586323,-296.082377,-9178.553681,-536.266849
2481.586651,0.000000,-9992.780217,229.828649
2481.586978,1628.453072,-9696.697840,229.828649
2481.587305,2664.741391,-10140.821405,612.876398
2481.587633,2516.700203,-12139.377449,1225.752797
2481.587960,1776.494261,-11473.192101,0.000000
2481.588288,222.061783,-10807.006753,-1455.581446
2481.588615,-1628.453072,-9474.636058,-1532.190996
2481.588943,-2368.659014,-8512.368333,-1762.019645
2481.589270,-2220.617826,-7550.100608,-995.924147
2481.589598,-296.082377,-7254.018232,229.828649
2481.589925,1480.411884,-7920.203579,766.095498
2481.590253,1998.556043,-9474.636058,1608.800546
2481.590580,2220.617826,-10658.965565,1762.019645
2481.590908,1258.350101,-10362.883188,0.000000
2481.591235,0.000000,-9844.739029,-1455.581446
2481.591562,-1480.411884,-9770.718434,-1915.238745
2481.591890,-2368.659014,-9474.636058,-612.876398
2481.592217,-1776.494261,-9178.553681,766.095498
2481.592545,-444.123565,-9178.553681,766.095498
2481.592872,-222.061783,-9622.677246,919.314598
2481.593200,-222.061783,-10658.965565,766.095498
2481.593527,-1258.350101,-10436.903782,-459.657299
2481.593855,-2738.761985,-9104.533087,-2068.457845
2481.594182,-3849.070898,-7846.182985,-2987.772442
2481.594510,-3478.967927,-7920.203579,-2451.505594
2481.594837,-2442.679609,-7994.224174,-153.219100
2481.595165,74.020594,-8882.471304,919.314598
2481.595492,2072.576638,-10658.965565,1532.190996
2481.595820,2294.638420,-11621.233289,1532.190996
2481.596147,1480.411884,-11621.233289,306.438199
2481.596474,-222.061783,-10807.006753,-919.314598
2481.596802,-2072.576638,-10140.821405,-2374.896044
2481.597129,-3034.844362,-9770.718434,-2221.676944
2481.597457,-1554.432478,-9622.677246,-1302.362347
2481.597784,-592.164754,-8956.491898,153.219100
2481.598112,1850.514855,-9400.615463,1302.362347
2481.598439,2294.638420,-10214.842000,1762.019645
2481.598767,2146.597232,-10658.965565,1072.533697
2481.599094,1554.432478,-9992.780217,-612.876398
2481.599422,0.000000,-9326.594869,-1532.190996
2481.599749,-592.164754,-8660.409521,-1225.752797
2481.600077,370.102971,-9104.533087,-536.266849
2481.600404,1850.514855,-9326.594869,919.314598
2481.600731,3108.864956,-8956.491898,1455.581446
2481.601059,3849.070898,-10066.800811,1225.752797
2481.601386,3552.988522,-11177.109724,1455.581446
2481.601714,2960.823768,-11843.295072,-536.266849
2481.602041,1776.494261,-9844.739029,-1455.581446
2481.602369,222.061783,-8882.471304,-1378.971896
2481.602696,0.000000,-8808.450710,0.000000
2481.603024,962.267725,-9104.533087,536.266849
2481.603351,2516.700203,-9252.574275,1149.143247
2481.603679,3552.988522,-9178.553681,1762.019645
2481.604006,2886.803174,-10140.821405,1378.971896
2481.604334,1480.411884,-10807.006753,0.000000
2481.604661,0.000000,-10362.883188,-1532.190996
2481.604989,-1110.308913,-9474.636058,-2911.162892
2481.605316,-1776.494261,-9178.553681,-2221.676944
2481.605643,-518.144159,-9326.594869,-766.095498
2481.605971,1110.308913,-9252.574275,1072.533697
2481.606298,2072.576638,-9992.780217,1225.752797
2481.606626,2146.597232,-11103.089130,1378.971896
2481.606953,1036.288319,-11325.150913,0.000000
2481.607281,-962.267725,-10584.944971,-1225.752797
2481.607608,-2442.679609,-8882.471304,-2145.067394
2481.607936,-3108.864956,-8660.409521,-1762.019645
2481.608263,-2590.720797,-8660.409521,-995.924147
2481.608591,-962.267725,-8364.327145,306.438199
2481.608918,444.123565,-8956.491898,919.314598
2481.609246,1110.308913,-10881.027347,919.314598
2481.609573,592.164754,-11843.295072,612.876398
2481.609901,-518.144159,-10214.842000,-536.266849
2481.610228,-2072.576638,-9326.594869,-2068.457845
2481.610555,-2960.823768,-9252.574275,-1608.800546
2481.610883,-1776.494261,-9326.594869,-1225.752797
2481.611210,-1110.308913,-7994.224174,536.266849
2481.611538,740.205942,-9030.512492,1608.800546
2481.611865,2146.597232,-9918.759623,1915.238745
2481.612193,2220.617826,-10362.883188,995.924147
2481.612520,592.164754,-10584.944971,0.000000
2481.612848,-1036.288319,-9474.636058,-842.705048
2481.613175,-1258.350101,-9918.759623,-2911.162892
2481.613503,-2072.576638,-9844.739029,-1532.190996
2481.613830,-1036.288319,-9548.656652,0.000000
2481.614158,1036.288319,-9252.574275,612.876398
2481.614485,1776.494261,-10288.862594,1608.800546
2481.614812,1776.494261,-11103.089130,1608.800546
2481.615140,518.144159,-9918.759623,306.438199
2481.615467,-888.247130,-8660.409521,-995.924147
2481.615795,-2368.659014,-8364.327145,-2298.286494
2481.616122,-1554.432478,-8956.491898,-2145.067394
2481.616450,-962.267725,-8216.285956,-383.047749
2481.616777,1406.391290,-9252.574275,1302.362347
2481.617105,3404.947333,-10066.800811,1608.800546
2481.617432,3627.009116,-11251.130318,1915.238745
2481.617760,2590.720797,-12139.377449,306.438199
2481.618087,1480.411884,-11177.109724,-1378.971896
2481.618415,0.000000,-10214.842000,-2374.896044
2481.618742,-1258.350101,-9622.677246,-1838.629195
2481.619070,-1184.329507,-8660.409521,-689.485948
2481.619397,592.164754,-8068.244768,766.095498
2481.619724,1850.514855,-8364.327145,1378.971896
2481.620052,2442.679609,-10066.800811,2451.505594
2481.620379,1924.535449,-10436.903782,919.314598
2481.620707,444.123565,-9474.636058,-766.095498
2481.621034,0.000000,-8660.409521,-1991.848295
2481.621362,-814.226536,-8660.409521,-1991.848295
2481.621689,222.061783,-9252.574275,-459.657299
2481.622017,2812.782580,-9178.553681,766.095498
2481.622344,4959.379811,-9918.759623,1455.581446
2481.622672,4885.359217,-10658.965565,2068.457845
2481.622999,3627.009116,-11399.171507,919.314598
2481.623327,1480.411884,-11251.130318,-536.266849
2481.623654,-518.144159,-10066.800811,-2221.676944
2481.623982,-2294.638420,-9252.574275,-2374.896044
2481.624309,-2368.659014,-8660.409521,-1378.971896
2481.624636,-1184.329507,-8882.471304,459.657299
2481.624964,888.247130,-8660.409521,1072.533697
2481.625291,1628.453072,-9030.512492,1149.143247
2481.625619,1110.308913,-10807.006753,919.314598
2481.625946,444.123565,-10732.986159,-383.047749
2481.626274,-1184.329507,-9326.594869,-995.924147
2481.626601,-2590.720797,-8734.430116,-1455.581446
2481.626929,-2664.741391,-9992.780217,-1532.190996
2481.627256,-1924.535449,-9474.636058,229.828649
2481.627584,-222.061783,-9474.636058,612.876398
2481.627911,888.247130,-10955.047942,229.828649
2481.628239,1406.391290,-12139.377449,306.438199
2481.628566,518.144159,-11843.295072,-153.219100
2481.628893,-1036.288319,-9844.739029,-459.657299
2481.629221,-1554.432478,-8734.430116,-1225.752797
2481.629548,-2368.659014,-8660.409521,-612.876398
2481.629876,-1702.473667,-8290.306550,459.657299
2481.630203,-148.041188,-7920.203579,1302.362347
2481.630531,1184.329507,-8216.285956,1838.629195
2481.630858,1110.308913,-9918.759623,1302.362347
2481.631186,0.000000,-10584.944971,1225.752797
2481.631513,-1850.514855,-9474.636058,-1302.362347
2481.631841,-2442.679609,-9326.594869,-2834.553343
2481.632168,-1776.494261,-10362.883188,-2911.162892
2481.632496,-814.226536,-9474.636058,-1608.800546
2481.632823,1850.514855,-9252.574275,383.047749
2481.633151,4071.132681,-9622.677246,1991.848295
2481.633478,4219.173869,-10436.903782,2298.286494
2481.633805,4219.173869,-10955.047942,2221.676944
2481.634133,2590.720797,-9992.780217,383.047749
2481.634460,592.164754,-9178.553681,-1532.190996
2481.634788,-222.061783,-9178.553681,-1838.629195
2481.635115,-1480.411884,-9252.574275,-1072.533697
2481.635443,-1554.432478,-9400.615463,536.266849
2481.635770,370.102971,-9400.615463,229.828649
2481.636098,370.102971,-9474.636058,-459.657299
2481.636425,962.267725,-10881.027347,-229.828649
2481.636753,888.247130,-10955.047942,-1532.190996
2481.637080,0.000000,-10066.800811,-1685.410096
2481.637408,-740.205942,-9252.574275,-612.876398
2481.637735,-592.164754,-8586.388927,-612.876398
2481.638063,0.000000,-8882.471304,-306.438199
2481.638390,1628.453072,-9400.615463,919.314598
2481.638717,3330.926739,-10288.862594,306.438199
2481.639045,3330.926739,-11769.274478,229.828649
2481.639372,2072.576638,-11251.130318,76.609550
2481.639700,740.205942,-10288.862594,-766.095498
2481.640027,0.000000,-9770.718434,-1378.971896
2481.640355,-518.144159,-9252.574275,-1225.752797
2481.640682,-296.082377,-8290.306550,306.438199
2481.641010,666.185348,-7920.203579,2145.067394
2481.641337,1628.453072,-7994.224174,1915.238745
2481.641665,1702.473667,-8734.430116,2145.067394
2481.641992,296.082377,-9104.533087,1378.971896
2481.642320,-962.267725,-9474.636058,-612.876398
2481.642647,-1332.370696,-9104.533087,-2221.676944
2481.642974,-1554.432478,-8956.491898,-3217.601092
2481.643302,-962.267725,-9400.615463,-1302.362347
2481.643629,1332.370696,-9622.677246,383.047749
2481.643957,3256.906145,-10214.842000,1149.143247
2481.644284,3404.947333,-11547.212695,1685.410096
2481.644612,3182.885551,-11547.212695,1302.362347
2481.644939,1702.473667,-10807.006753,-229.828649
2481.645267,-518.144159,-9178.553681,-919.314598
2481.645594,-1480.411884,-9400.615463,-1072.533697
2481.645922,-2516.700203,-8808.450710,-536.266849
2481.646249,-2146.597232,-8882.471304,153.219100
2481.646577,-666.185348,-8808.450710,383.047749
2481.646904,296.082377,-9844.739029,0.000000
2481.647232,296.082377,-11177.109724,0.000000
2481.647559,-370.102971,-10732.986159,-536.266849
2481.647886,-1184.329507,-9474.636058,-1991.848295
2481.648214,-1850.514855,-9178.553681,-1991.848295
2481.648541,-1850.514855,-9622.677246,-1149.143247
2481.648869,-666.185348,-10140.821405,0.000000
2481.649196,888.247130,-9992.780217,536.266849
2481.649524,1924.535449,-9992.780217,1608.800546
2481.649851,1924.535449,-10955.047942,919.314598
2481.650179,1110.308913,-11029.068536,612.876398
2481.650506,-296.082377,-10066.800811,0.000000
2481.650834,-1406.391290,-9104.533087,-459.657299
2481.651161,-2072.576638,-8808.450710,-689.485948
2481.651489,-1998.556043,-8216.285956,306.438199
2481.651816,-148.041188,-7920.203579,383.047749
2481.652144,592.164754,-7550.100608,1991.848295
2481.652471,666.185348,-9178.553681,1915.238745
2481.652798,148.041188,-9918.759623,383.047749
2481.653126,-666.185348,-9252.574275,-1455.581446
2481.653453,-1184.329507,-9400.615463,-2757.943793
2481.653781,-740.205942,-10807.006753,-3064.381992
2481.654108,-444.123565,-10955.047942,-2068.457845
2481.654436,2220.617826,-10584.944971,-612.876398
2481.654763,4219.173869,-9770.718434,612.876398
2481.655091,5107.421000,-11177.109724,1225.752797
2481.655418,4737.318029,-11473.192101,1608.800546
2481.655746,3182.885551,-10658.965565,536.266849
2481.656073,1406.391290,-9548.656652,-383.047749
2481.656401,0.000000,-8956.491898,-995.924147
2481.656728,-1258.350101,-8290.306550,306.438199
2481.657055,-1036.288319,-8068.244768,383.047749
2481.657383,222.061783,-8660.409521,0.000000
2481.657710,1184.329507,-9474.636058,-383.047749
2481.658038,962.267725,-11103.089130,-306.438199
2481.658365,518.144159,-11325.150913,-1225.752797
2481.658693,148.041188,-10288.862594,-1762.019645
2481.659020,0.000000,-10066.800811,-1991.848295
2481.659348,-740.205942,-10214.842000,-1302.362347
2481.659675,0.000000,-9474.636058,-153.219100
2481.660003,1406.391290,-9178.553681,1072.533697
2481.660330,2590.720797,-9252.574275,1532.190996
2481.660658,2960.823768,-10584.944971,1685.410096
2481.660985,2220.617826,-11251.130318,919.314598
2481.661313,222.061783,-9474.636058,0.000000
2481.661640,-1258.350101,-8290.306550,-766.095498
2481.661967,-2146.597232,-8956.491898,-1072.533697
2481.662295,-2738.761985,-9104.533087,76.609550
2481.662622,-1258.350101,-8290.306550,1302.362347
2481.662950,222.061783,-8586.388927,1532.190996
2481.663277,888.247130,-9474.636058,1302.362347
2481.663605,0.000000,-10362.883188,1532.190996
2481.663932,-1628.453072,-9252.574275,-689.485948
2481.664260,-2960.823768,-9178.553681,-2451.505594
2481.664587,-3182.885551,-10140.821405,-3447.429741
2481.664915,-2368.659014,-9770.718434,-2451.505594
2481.665242,-370.102971,-8808.450710,-612.876398
2481.665570,2294.638420,-9474.636058,306.438199
2481.665897,4145.153275,-11251.130318,1762.019645
2481.666225,3701.029710,-11917.315666,1455.581446
2481.666552,1702.473667,-10436.903782,1072.533697
2481.666879,74.020594,-9474.636058,-612.876398
2481.667207,-1480.411884,-9178.553681,-1762.019645
2481.667534,-2516.700203,-9178.553681,-995.924147
2481.667862,-1924.535449,-8956.491898,0.000000
2481.668189,-222.061783,-8438.347739,229.828649
2481.668517,296.082377,-8882.471304,459.657299
2481.668844,888.247130,-11473.192101,0.000000
2481.669172,-296.082377,-11547.212695,-1532.190996
2481.669499,-888.247130,-10140.821405,-2834.553343
2481.669827,-1332.370696,-9770.718434,-2911.162892
2481.670154,-1332.370696,-9918.759623,-1072.533697
2481.670482,0.000000,-8586.388927,383.047749
2481.670809,3182.885551,-9178.553681,1685.410096
2481.671136,3775.050304,-9474.636058,2298.286494
2481.671464,3701.029710,-11103.089130,1762.019645
2481.671791,3627.009116,-11177.109724,76.609550
2481.672119,1258.350101,-9992.780217,-536.266849
2481.672446,-296.082377,-8734.430116,-1149.143247
2481.672774,-814.226536,-9030.512492,-1685.410096
2481.673101,-814.226536,-9474.636058,153.219100
2481.673429,222.061783,-8290.306550,1455.581446
2481.673756,2072.576638,-9326.594869,1149.143247
2481.674084,1406.391290,-10214.842000,1378.971896
2481.674411,518.144159,-10436.903782,383.047749
2481.674738,-1184.329507,-9178.553681,-1762.019645
2481.675066,-2294.638420,-9252.574275,-2681.334243
2481.675393,-1850.514855,-8808.450710,-2681.334243
2481.675721,-666.185348,-9696.697840,-2451.505594
2481.676048,888.247130,-9400.615463,-459.657299
2481.676376,3627.009116,-9918.759623,919.314598
2481.676703,5181.441594,-11917.315666,1915.238745
2481.677031,4219.173869,-12213.398043,1991.848295
2481.677358,3256.906145,-11621.233289,-383.047749
2481.677686,1406.391290,-9178.553681,-689.485948
2481.678013,-740.205942,-9474.636058,-1072.533697
2481.678341,-1924.535449,-9178.553681,0.000000
2481.678668,-1332.370696,-8216.285956,459.657299
2481.678996,-740.205942,-7994.224174,689.485948
2481.679323,148.041188,-9178.553681,459.657299
2481.679651,370.102971,-10140.821405,-153.219100
2481.679978,-814.226536,-10658.965565,-1302.362347
2481.680306,-1702.473667,-10214.842000,-2221.676944
2481.680633,-2220.617826,-10214.842000,-3217.601092
2481.680961,-2072.576638,-10214.842000,-2145.067394
2481.681288,-592.164754,-9844.739029,0.000000
2481.681616,1850.514855,-9400.615463,1072.533697
2481.681943,2664.741391,-10214.842000,2145.067394
2481.682271,2516.700203,-10807.006753,1762.019645
2481.682598,1702.473667,-11103.089130,0.000000
2481.682926,-296.082377,-9400.615463,-919.314598
2481.683253,-2368.659014,-7772.162391,-919.314598
2481.683581,-2886.803174,-7772.162391,-766.095498
2481.683908,-2516.700203,-8660.409521,306.438199
2481.684236,-814.226536,-8586.388927,1685.410096
2481.684563,1184.329507,-9400.615463,766.095498
2481.684891,814.226536,-9992.780217,1149.143247
2481.685218,0.000000,-10807.006753,536.266849
2481.685546,-740.205942,-9548.656652,-1302.362347
2481.685873,-1776.494261,-9400.615463,-2834.553343
2481.686201,-1850.514855,-9992.780217,-2451.505594
2481.686528,-518.144159,-9844.739029,-1608.800546
2481.686856,814.226536,-8808.450710,0.000000
2481.687183,2368.659014,-9770.718434,919.314598
2481.687511,3849.070898,-11325.150913,995.924147
2481.687838,3552.988522,-11547.212695,1072.533697
2481.688166,2220.617826,-10955.047942,842.705048
2481.688493,1332.370696,-9622.677246,-766.095498
2481.688821,0.000000,-8364.327145,-766.095498
2481.689148,-518.144159,-8734.430116,306.438199
2481.689476,-370.102971,-8068.244768,459.657299
2481.689803,740.205942,-8512.368333,306.438199
2481.690131,1702.473667,-10214.842000,229.828649
2481.690458,1258.350101,-10881.027347,0.000000
2481.690786,518.144159,-11177.109724,-1685.410096
2481.691113,-666.185348,-10881.027347,-2834.553343
2481.691441,-2220.617826,-9622.677246,-2834.553343
2481.691768,-1406.391290,-9992.780217,-2834.553343
2481.692096,-518.144159,-9474.636058,-536.266849
2481.692423,1628.453072,-9474.636058,1072.533697
2481.692751,3923.091493,-10066.800811,1915.238745
2481.693078,3552.988522,-10214.842000,1915.238745
2481.693406,2294.638420,-10066.800811,1378.971896
2481.693734,814.226536,-8660.409521,-306.438199
2481.694061,-1258.350101,-7698.141797,-842.705048
2481.694389,-2368.659014,-9178.553681,-1072.533697
2481.694716,-1850.514855,-9252.574275,0.000000
2481.695044,-592.164754,-9104.533087,383.047749
2481.695371,740.205942,-9844.739029,689.485948
2481.695699,740.205942,-10510.924376,229.828649
2481.696026,74.020594,-11399.171507,0.000000
2481.696354,-1184.329507,-10214.842000,-1455.581446
2481.696681,-1480.411884,-9030.512492,-2528.115143
2481.697009,-1332.370696,-8956.491898,-2221.676944
2481.697336,-740.205942,-8438.347739,-306.438199
2481.697664,888.247130,-8438.347739,1149.143247
2481.697991,3108.864956,-9252.574275,1455.581446
2481.698319,2960.823768,-9770.718434,1762.019645
2481.698646,2886.803174,-10658.965565,995.924147
2481.698974,2220.617826,-11473.192101,-153.219100
2481.699301,74.020594,-10510.924376,-1149.143247
2481.699629,-1036.288319,-9622.677246,-1225.752797
2481.699956,-1702.473667,-9178.553681,-995.924147
2481.700284,-1036.288319,-8586.388927,0.000000
2481.700611,148.041188,-8734.430116,1378.971896
2481.700939,518.144159,-9474.636058,689.485948
2481.701266,888.247130,-10732.986159,0.000000
2481.701594,-222.061783,-10140.821405,-766.095498
2481.701921,-1480.411884,-9474.636058,-1608.800546
2481.702249,-2368.659014,-9474.636058,-1225.752797
2481.702576,-2220.617826,-9474.636058,-1608.800546
2481.702904,-740.205942,-9696.697840,-383.047749
2481.703231,518.144159,-9400.615463,995.924147
2481.703559,2146.597232,-10362.883188,689.485948
2481.703886,2664.741391,-10807.006753,919.314598
2481.704214,1776.494261,-11103.089130,306.438199
2481.704541,666.185348,-10288.862594,76.609550
2481.704869,-592.164754,-8956.491898,-2451.505594
2481.705196,-1702.473667,-8586.388927,-1225.752797
2481.705524,-1554.432478,-8808.450710,0.000000
2481.705851,-148.041188,-8438.347739,306.438199
2481.706179,1110.308913,-8512.368333,536.266849
2481.706506,1258.350101,-10288.862594,536.266849
2481.706834,962.267725,-11251.130318,-229.828649
2481.707161,148.041188,-10584.944971,-1378.971896
2481.707489,222.061783,-9992.780217,-1991.848295
2481.707816,0.000000,-9992.780217,-2604.724693
2481.708144,0.000000,-9696.697840,-383.047749
2481.708471,1332.370696,-8882.471304,1149.143247
2481.708799,2960.823768,-9030.512492,1915.238745
2481.709126,4367.215058,-10436.903782,1838.629195
2481.709454,3701.029710,-10436.903782,919.314598
2481.709781,2442.679609,-9992.780217,0.000000
2481.710109,1332.370696,-9992.780217,-1225.752797
2481.710436,-518.144159,-9622.677246,-1302.362347
2481.710764,-1184.329507,-9400.615463,-1072.533697
2481.711091,-1184.329507,-8808.450710,0.000000
2481.711419,444.123565,-8586.388927,459.657299
2481.711746,1850.514855,-9326.594869,383.047749
2481.712074,1554.432478,-10881.027347,306.438199
2481.712401,444.123565,-11251.130318,-306.438199
2481.712729,-962.267725,-9548.656652,-1608.800546
2481.713056,-2072.576638,-9178.553681,-1991.848295
2481.713384,-2368.659014,-9474.636058,-1149.143247
2481.713711,-1850.514855,-9178.553681,306.438199
2481.714039,444.123565,-8808.450710,766.095498
2481.714366,1998.556043,-9474.636058,1378.971896
2481.714694,2590.720797,-10807.006753,1072.533697
2481.715021,1850.514855,-11251.130318,383.047749
2481.715349,74.020594,-9622.677246,0.000000
2481.715676,-1184.329507,-8808.450710,-919.314598
2481.716004,-2368.659014,-8956.491898,-1532.190996
2481.716331,-2738.761985,-8586.388927,-459.657299
2481.716659,-962.267725,-8290.306550,-229.828649
2481.716986,518.144159,-8734.430116,-153.219100
2481.717314,740.205942,-11621.233289,0.000000
2481.717641,0.000000,-11325.150913,0.000000
2481.717969,-518.144159,-10584.944971,-1455.581446
2481.718296,-1480.411884,-8882.471304,-1532.190996
2481.718624,-1480.411884,-9548.656652,-1762.019645
2481.718951,-1406.391290,-9030.512492,-689.485948
2481.719279,-666.185348,-8290.306550,1149.143247
2481.719606,1480.411884,-9030.512492,1532.190996
2481.719934,2442.679609,-10214.842000,1378.971896
2481.720261,1702.473667,-10732.986159,689.485948
2481.720589,962.267725,-10807.006753,-459.657299
2481.720916,0.000000,-10140.821405,-1685.410096
2481.721244,-518.144159,-10362.883188,-2298.286494
2481.721571,-962.267725,-10214.842000,-1378.971896
2481.721899,0.000000,-9548.656652,-229.828649
2481.722226,1776.494261,-9474.636058,612.876398
2481.722554,2516.700203,-9696.697840,1072.533697
2481.722881,2442.679609,-10214.842000,1225.752797
2481.723209,2146.597232,-10658.965565,76.609550
2481.723536,148.041188,-9030.512492,-842.705048
2481.723864,-592.164754,-8660.409521,-1378.971896
2481.724191,-1850.514855,-8660.409521,-612.876398
2481.724519,-740.205942,-8586.388927,76.609550
2481.724846,1406.391290,-8660.409521,459.657299
2481.725174,2294.638420,-9474.636058,919.314598
2481.725501,3108.864956,-10288.862594,612.876398
2481.725829,3034.844362,-10807.006753,612.876398
2481.726156,1776.494261,-10140.821405,-383.047749
2481.726484,222.061783,-9474.636058,-995.924147
2481.726811,-666.185348,-9030.512492,-766.095498
2481.727139,-962.267725,-8882.471304,0.000000
2481.727466,370.102971,-9178.553681,919.314598
2481.727794,1110.308913,-9030.512492,76.609550
2481.728121,1850.514855,-10807.006753,306.438199
2481.728449,888.247130,-11251.130318,-1072.533697
2481.728776,0.000000,-10807.006753,-1378.971896
2481.729104,-1036.288319,-9326.594869,-2298.286494
2481.729431,-1110.308913,-9400.615463,-2221.676944
2481.729759,-370.102971,-9252.574275,-919.314598
2481.730086,592.164754,-8586.388927,459.657299
2481.730414,2146.597232,-9400.615463,1608.800546
2481.730741,3034.844362,-10807.006753,1072.533697
2481.731069,2294.638420,-11547.212695,612.876398
2481.731396,666.185348,-11695.253884,-306.438199
2481.731724,-888.247130,-10732.986159,-2068.457845
2481.732051,-2146.597232,-10288.862594,-2834.553343
2481.732379,-2886.803174,-9622.677246,-1685.410096
2481.732706,-1628.453072,-9770.718434,-1302.362347
2481.733034,0.000000,-8216.285956,536.266849
2481.733361,1110.308913,-9178.553681,1608.800546
2481.733689,666.185348,-10214.842000,1991.848295
2481.734016,222.061783,-9918.759623,383.047749
2481.734344,-1480.411884,-8586.388927,-153.219100
2481.734671,-2516.700203,-7476.080014,-995.924147
2481.734999,-2664.741391,-8216.285956,-995.924147
2481.735326,-2368.659014,-8216.285956,76.609550
2481.735654,-222.061783,-9030.512492,689.485948
2481.735981,1924.535449,-10288.862594,612.876398
2481.736309,1998.556043,-11177.109724,383.047749
2481.736636,1702.473667,-11325.150913,0.000000
2481.736964,1036.288319,-10214.842000,-306.438199
2481.737291,-1110.308913,-8882.471304,-1302.362347
2481.737619,-1998.556043,-8586.388927,-612.876398
2481.737946,-1554.432478,-8586.388927,76.609550
2481.738274,222.061783,-7920.203579,689.485948
2481.738601,1776.494261,-8660.409521,919.314598
2481.738929,1776.494261,-9918.759623,1302.362347
2481.739256,1406.391290,-10436.903782,229.828649
2481.739584,0.000000,-9770.718434,-1685.410096
2481.739911,-666.185348,-9918.759623,-3140.991542
2481.740239,-370.102971,-9992.780217,-2681.334243
2481.740566,740.205942,-10436.903782,-1225.752797
2481.740894,2072.576638,-9696.697840,612.876398
2481.741221,3849.070898,-9622.677246,2374.896044
2481.741549,4441.235652,-11473.192101,919.314598
2481.741876,3775.050304,-11843.295072,689.485948
2481.742204,1628.453072,-11399.171507,-612.876398
2481.742531,148.041188,-9918.759623,-2221.676944
2481.742859,-1258.350101,-9474.636058,-2451.505594
2481.743186,-2368.659014,-9400.615463,-1225.752797
2481.743514,-1036.288319,-8808.450710,-306.438199
2481.743841,888.247130,-8586.388927,306.438199
2481.744169,1924.535449,-9622.677246,536.266849
2481.744496,2368.659014,-10658.965565,919.314598
2481.744824,1406.391290,-10436.903782,766.095498
2481.745151,74.020594,-8660.409521,0.000000
2481.745479,-962.267725,-8438.347739,-612.876398
2481.745806,-2220.617826,-8586.388927,0.000000
2481.746134,-1554.432478,-7994.224174,1225.752797
2481.746461,0.000000,-8068.244768,383.047749
2481.746789,1480.411884,-10066.800811,766.095498
2481.747116,2072.576638,-10881.027347,459.657299
2481.747444,1628.453072,-10881.027347,0.000000
2481.747771,-148.041188,-9844.739029,-229.828649
2481.748099,-1036.288319,-9104.533087,-1149.143247
2481.748426,-1702.473667,-8956.491898,-383.047749
2481.748754,-1776.494261,-8660.409521,919.314598
2481.749081,-296.082377,-8290.306550,766.095498
2481.749409,962.267725,-9178.553681,1149.143247
2481.749736,592.164754,-10362.883188,919.314598
2481.750064,-444.123565,-11029.068536,0.000000
2481.750391,-1258.350101,-9992.780217,-1685.410096
2481.750719,-1998.556043,-9548.656652,-3217.601092
2481.751046,-2368.659014,-9474.636058,-3217.601092
2481.751374,-1110.308913,-9918.759623,-1532.190996
2481.751701,666.185348,-9696.697840,0.000000
2481.752029,2664.741391,-10066.800811,1225.752797
2481.752356,3182.885551,-11103.089130,1532.190996
2481.752684,2590.720797,-11177.109724,842.705048
2481.753011,1628.453072,-10066.800811,-459.657299
2481.753339,74.020594,-9474.636058,-1762.019645
2481.753666,-1332.370696,-9696.697840,-1302.362347
2481.753994,-2220.617826,-9622.677246,-919.314598
2481.754321,-1332.370696,-9178.553681,0.000000
2481.754649,74.020594,-9178.553681,229.828649
2481.754976,888.247130,-9622.677246,229.828649
2481.755304,1258.350101,-10288.862594,383.047749
2481.755631,518.144159,-9400.615463,842.705048
2481.755959,-444.123565,-8734.430116,229.828649
2481.756286,-592.164754,-7994.224174,-689.485948
2481.756614,-1184.329507,-8068.244768,0.000000
2481.756941,-666.185348,-8068.244768,766.095498
2481.757269,1480.411884,-7920.203579,919.314598
2481.757596,2738.761985,-9030.512492,995.924147
2481.757924,3330.926739,-10881.027347,306.438199
2481.758251,2886.803174,-10658.965565,76.609550
2481.758579,962.267725,-10140.821405,-383.047749
2481.758906,0.000000,-9622.677246,-1149.143247
2481.759234,-444.123565,-9474.636058,-1072.533697
2481.759561,-666.185348,-9400.615463,-153.219100
2481.759889,222.061783,-8290.306550,383.047749
2481.760216,2146.597232,-8068.244768,1608.800546
2481.760544,1554.432478,-9770.718434,1838.629195
2481.760871,518.144159,-10214.842000,612.876398
2481.761199,-518.144159,-9474.636058,-1608.800546
2481.761526,-1480.411884,-9696.697840,-3140.991542
2481.761854,-1702.473667,-10214.842000,-3447.429741
2481.762181,-518.144159,-10510.924376,-2221.676944
2481.762509,518.144159,-10066.800811,0.000000
2481.762836,2590.720797,-10881.027347,995.924147
2481.763164,3627.009116,-12065.356855,1149.143247
2481.763491,2960.823768,-11695.253884,459.657299
2481.763819,1924.535449,-11251.130318,-1149.143247
2481.764146,0.000000,-10066.800811,-1149.143247
2481.764474,-1110.308913,-8734.430116,-919.314598
2481.764801,-1850.514855,-8364.327145,0.000000
2481.765129,-1406.391290,-8586.388927,995.924147
2481.765456,0.000000,-8290.306550,1072.533697
2481.765784,1110.308913,-9474.636058,612.876398
2481.766111,1110.308913,-10732.986159,919.314598
2481.766439,148.041188,-10436.903782,383.047749
2481.766766,-962.267725,-8660.409521,-536.266849
2481.767094,-2368.659014,-8586.388927,-1149.143247
2481.767421,-2590.720797,-8216.285956,-842.705048
2481.767749,-1480.411884,-8364.327145,153.219100
2481.768076,148.041188,-8586.388927,842.705048
2481.768404,1554.432478,-9326.594869,919.314598
2481.768731,2368.659014,-10288.862594,842.705048
2481.769059,1702.473667,-10214.842000,153.219100
2481.769386,444.123565,-9770.718434,153.219100
2481.769714,0.000000,-9326.594869,-842.705048
2481.770041,-1406.391290,-9622.677246,-1302.362347
2481.770369,-1702.473667,-9252.574275,-229.828649
2481.770696,-740.205942,-9104.533087,689.485948
2481.771024,296.082377,-9178.553681,1072.533697
2481.771351,370.102971,-9918.759623,766.095498
2481.771679,0.000000,-10881.027347,0.000000
2481.772006,-1332.370696,-9992.780217,-1608.800546
2481.772334,-1554.432478,-9474.636058,-3064.381992
2481.772661,-1406.391290,-9844.739029,-3370.820191
2481.772989,-1110.308913,-10066.800811,-2068.457845
2481.773316,814.226536,-9696.697840,0.000000
2481.773644,3256.906145,-10140.821405,76.609550
2481.773971,3552.988522,-11177.109724,1072.533697
2481.774299,4515.256246,-12361.439231,383.047749
2481.774626,3108.864956,-11991.336260,-459.657299
2481.774954,1776.494261,-10436.903782,-919.314598
2481.775281,0.000000,-9474.636058,-995.924147
2481.775609,-1036.288319,-8660.409521,0.000000
2481.775936,-1184.329507,-8216.285956,612.876398
2481.776264,0.000000,-7920.203579,1378.971896
2481.776592,1258.350101,-8586.388927,383.047749
2481.776919,1702.473667,-9770.718434,766.095498
2481.777247,1110.308913,-10066.800811,536.266849
2481.777574,0.000000,-9104.533087,-383.047749
2481.777902,-1184.329507,-8956.491898,-1225.752797
2481.778229,-962.267725,-9178.553681,-1225.752797
2481.778557,-518.144159,-8734.430116,-306.438199
2481.778885,1628.453072,-8734.430116,766.095498
2481.779212,2738.761985,-9844.739029,1302.362347
2481.779540,3182.885551,-10436.903782,1991.848295
2481.779867,2220.617826,-10732.986159,1072.533697
2481.780195,148.041188,-9918.759623,-229.828649
2481.780522,-666.185348,-9178.553681,-1608.800546
2481.780850,-1924.535449,-9030.512492,-2374.896044
2481.781178,-2220.617826,-8438.347739,-383.047749
2481.781505,-740.205942,-9030.512492,766.095498
2481.781833,666.185348,-9104.533087,919.314598
2481.782160,1036.288319,-9918.759623,689.485948
2481.782488,296.082377,-10658.965565,306.438199
2481.782815,-740.205942,-10214.842000,-1378.971896
2481.783143,-1628.453072,-9326.594869,-2987.772442
2481.783471,-1998.556043,-9918.759623,-3294.210641
2481.783798,-1702.473667,-9622.677246,-2528.115143
2481.784126,370.102971,-9992.780217,-536.266849
2481.784453,2442.679609,-10732.986159,459.657299
2481.784781,3404.947333,-12139.377449,919.314598
2481.785108,2590.720797,-11991.336260,459.657299
2481.785436,2220.617826,-11399.171507,-612.876398
2481.785764,148.041188,-9548.656652,-383.047749
2481.786091,-1776.494261,-7920.203579,-689.485948
2481.786419,-2886.803174,-7624.121203,0.000000
2481.786746,-2590.720797,-8068.244768,842.705048
2481.787074,-1480.411884,-7994.224174,612.876398
2481.787402,-592.164754,-8364.327145,229.828649
2481.787729,0.000000,-9474.636058,229.828649
2481.788057,-518.144159,-9844.739029,-383.047749
2481.788384,-666.185348,-9992.780217,-1608.800546
2481.788712,-1406.391290,-9770.718434,-1915.238745
2481.789039,-1110.308913,-9696.697840,-1378.971896
2481.789367,518.144159,-9474.636058,0.000000
2481.789695,2442.679609,-9548.656652,1302.362347
2481.790022,3627.009116,-9622.677246,1991.848295
2481.790350,3849.070898,-9992.780217,1915.238745
2481.790677,2368.659014,-10436.903782,1149.143247
2481.791005,666.185348,-9474.636058,76.609550
2481.791332,-666.185348,-8808.450710,-766.095498
2481.791660,-1924.535449,-8512.368333,-995.924147
2481.791988,-1406.391290,-8512.368333,0.000000
2481.792315,0.000000,-8956.491898,153.219100
2481.792643,1702.473667,-9400.615463,0.000000
2481.792970,2072.576638,-10807.006753,306.438199
2481.793298,1924.535449,-11177.109724,0.000000
2481.793625,444.123565,-10658.965565,-995.924147
2481.793953,-296.082377,-10288.862594,-2298.286494
2481.794281,-370.102971,-9696.697840,-2681.334243
2481.794608,-814.226536,-9548.656652,-1225.752797
2481.794936,962.267725,-9918.759623,0.000000
2481.795263,2886.803174,-10510.924376,459.657299
2481.795591,3775.050304,-11251.130318,306.438199
2481.795918,3330.926739,-12213.398043,612.876398
2481.796246,2368.659014,-11843.295072,383.047749
2481.796574,296.082377,-9104.533087,-383.047749
2481.796901,-1036.288319,-8586.388927,-995.924147
2481.797229,-1702.473667,-7920.203579,-383.047749
2481.797556,-1554.432478,-8364.327145,689.485948
2481.797884,-592.164754,-8364.327145,1225.752797
2481.798212,148.041188,-9326.594869,919.314598
2481.798539,444.123565,-10288.862594,229.828649
2481.798867,-592.164754,-10214.842000,-689.485948
2481.799194,-1850.514855,-9030.512492,-1608.800546
2481.799522,-2368.659014,-9178.553681,-2145.067394
2481.799849,-2516.700203,-9474.636058,-2528.115143
2481.800177,-1332.370696,-9696.697840,-689.485948
2481.800505,444.123565,-9400.615463,1149.143247
2481.800832,2146.597232,-9400.615463,2298.286494
2481.801160,2516.700203,-10140.821405,2451.505594
2481.801487,1776.494261,-10362.883188,1225.752797
2481.801815,-370.102971,-9474.636058,-383.047749
2481.802142,-1628.453072,-8808.450710,-1455.581446
2481.802470,-2812.782580,-8586.388927,-1072.533697
2481.802798,-3034.844362,-9104.533087,-612.876398
2481.803125,-1554.432478,-9030.512492,0.000000
2481.803453,0.000000,-9104.533087,459.657299
2481.803780,888.247130,-10066.800811,-229.828649
2481.804108,1110.308913,-11251.130318,76.609550
2481.804435,222.061783,-10732.986159,-1302.362347
2481.804763,-296.082377,-9548.656652,-1991.848295
2481.805091,-1184.329507,-9696.697840,-2221.676944
2481.805418,-814.226536,-9252.574275,-919.314598
2481.805746,1406.391290,-9030.512492,-383.047749
2481.806073,2960.823768,-10584.944971,689.485948
2481.806401,3478.967927,-11251.130318,1532.190996
2481.806728,3923.091493,-11177.109724,689.485948
2481.807056,2886.803174,-11325.150913,0.000000
2481.807384,1332.370696,-9992.780217,-229.828649
2481.807711,148.041188,-8956.491898,-1149.143247
2481.808039,-666.185348,-9400.615463,-995.924147
2481.808366,-592.164754,-8586.388927,995.924147
2481.808694,666.185348,-7476.080014,1685.410096
2481.809022,1406.391290,-8364.327145,1378.971896
2481.809349,962.267725,-10288.862594,995.924147
2481.809677,0.000000,-10510.924376,-229.828649
2481.810004,-1110.308913,-9252.574275,-2145.067394
2481.810332,-2516.700203,-9178.553681,-3064.381992
2481.810659,-1850.514855,-9844.739029,-2528.115143
2481.810987,-1332.370696,-8882.471304,-383.047749
2481.811315,888.247130,-9474.636058,1072.533697
2481.811642,2960.823768,-10214.842000,1915.238745
2481.811970,3552.988522,-10658.965565,1915.238745
2481.812297,2590.720797,-10658.965565,1225.752797
2481.812625,814.226536,-9548.656652,842.705048
2481.812952,-370.102971,-8142.265362,-536.266849
2481.813280,-1850.514855,-8438.347739,-1608.800546
2481.813608,-2368.659014,-8660.409521,-383.047749
2481.813935,-1628.453072,-8142.265362,76.609550
2481.814263,0.000000,-8956.491898,153.219100
2481.814590,1036.288319,-11251.130318,76.609550
2481.814918,1480.411884,-12287.418637,-306.438199
2481.815245,0.000000,-10881.027347,-1378.971896
2481.815573,-962.267725,-9696.697840,-1991.848295
2481.815901,-1258.350101,-9474.636058,-2911.162892
2481.816228,-814.226536,-9548.656652,-1225.752797
2481.816556,296.082377,-9474.636058,76.609550
2481.816883,2812.782580,-10140.821405,766.095498
2481.817211,3404.947333,-11473.192101,1532.190996
2481.817538,2368.659014,-11991.336260,1225.752797
2481.817866,1480.411884,-10584.944971,0.000000
2481.818194,0.000000,-10066.800811,-1838.629195
2481.818521,-1628.453072,-8734.430116,-1915.238745
2481.818849,-1702.473667,-8660.409521,-1302.362347
2481.819176,-888.247130,-9030.512492,842.705048
2481.819504,0.000000,-7550.100608,1838.629195
2481.819832,1924.535449,-8586.388927,1608.800546
2481.820159,888.247130,-9400.615463,842.705048
2481.820487,-222.061783,-10436.903782,0.000000
2481.820814,-1110.308913,-9474.636058,-1762.019645
2481.821142,-2146.597232,-9400.615463,-2681.334243
2481.821469,-2072.576638,-9844.739029,-2374.896044
2481.821797,-962.267725,-9326.594869,-766.095498
2481.822125,962.267725,-9178.553681,919.314598
2481.822452,2812.782580,-10510.924376,2451.505594
2481.822780,3552.988522,-10807.006753,2298.286494
2481.823107,2516.700203,-10214.842000,689.485948
2481.823435,592.164754,-9474.636058,0.000000
2481.823762,-592.164754,-8216.285956,-689.485948
2481.824090,-1628.453072,-7254.018232,-536.266849
2481.824418,-2442.679609,-7994.224174,0.000000
2481.824745,-666.185348,-8956.491898,459.657299
2481.825073,1406.391290,-9474.636058,0.000000
2481.825400,1998.556043,-10732.986159,-612.876398
2481.825728,1406.391290,-11843.295072,-229.828649
2481.826055,666.185348,-11473.192101,-919.314598
2481.826383,0.000000,-9844.739029,-2145.067394
2481.826711,-666.185348,-9844.739029,-2374.896044
2481.827038,0.000000,-9326.594869,-1532.190996
2481.827366,814.226536,-8660.409521,0.000000
2481.827693,2590.720797,-9696.697840,612.876398
2481.828021,2960.823768,-11029.068536,1302.362347
2481.828348,2738.761985,-11251.130318,1072.533697
2481.828676,2072.576638,-10436.903782,0.000000
2481.829004,-222.061783,-9326.594869,-1072.533697
2481.829331,-740.205942,-8438.347739,-1532.190996
2481.829659,-1850.514855,-8808.450710,-383.047749
2481.829986,-1480.411884,-9474.636058,306.438199
2481.830314,0.000000,-8956.491898,1302.362347
2481.830642,1406.391290,-9400.615463,1225.752797
2481.830969,666.185348,-10362.883188,1072.533697
2481.831297,-296.082377,-10288.862594,842.705048
2481.831624,-1332.370696,-9252.574275,-1532.190996
2481.831952,-2368.659014,-8660.409521,-2528.115143
2481.832279,-2516.700203,-9252.574275,-1991.848295
2481.832607,-1184.329507,-8734.430116,-229.828649
2481.832935,518.144159,-8364.327145,1455.581446
2481.833262,2368.659014,-9474.636058,2298.286494
2481.833590,3404.947333,-10807.006753,1915.238745
2481.833917,2812.782580,-11103.089130,919.314598
2481.834245,1110.308913,-9992.780217,229.828649
2481.834572,-592.164754,-8956.491898,-766.095498
2481.834900,-2146.597232,-8586.388927,-1378.971896
2481.835228,-2664.741391,-8734.430116,-536.266849
2481.835555,-1480.411884,-8290.306550,-153.219100
2481.835883,74.020594,-8512.368333,-229.828649
2481.836210,1258.350101,-10436.903782,76.609550
2481.836538,1554.432478,-11547.212695,-919.314598
2481.836865,1110.308913,-11251.130318,-1532.190996
2481.837193,-592.164754,-9844.739029,-1762.019645
2481.837521,-1628.453072,-9770.718434,-1991.848295
2481.837848,-814.226536,-9918.759623,-1532.190996
2481.838176,740.205942,-9030.512492,229.828649
2481.838503,2072.576638,-9030.512492,229.828649
2481.838831,3182.885551,-11695.253884,1532.190996
2481.839158,2590.720797,-11917.315666,1378.971896
2481.839486,1110.308913,-10214.842000,-383.047749
2481.839814,0.000000,-9770.718434,-2221.676944
2481.840141,-1776.494261,-9622.677246,-2298.286494
2481.840469,-1480.411884,-9252.574275,-919.314598
2481.840796,-370.102971,-8438.347739,766.095498
2481.841124,1184.329507,-8512.368333,1225.752797
2481.841452,1776.494261,-8808.450710,1762.019645
2481.841779,2368.659014,-10214.842000,1149.143247
2481.842107,888.247130,-10066.800811,459.657299
2481.842434,-148.041188,-9178.553681,-1302.362347
2481.842762,0.000000,-9326.594869,-2911.162892
2481.843089,-962.267725,-9400.615463,-1149.143247
2481.843417,-592.164754,-8438.347739,1149.143247
2481.843745,1776.494261,-8586.388927,1455.581446
2481.844072,2960.823768,-9918.759623,2145.067394
2481.844400,3256.906145,-11029.068536,1838.629195
2481.844727,3034.844362,-10658.965565,612.876398
2481.845055,1036.288319,-9844.739029,-229.828649
2481.845382,-222.061783,-8734.430116,153.219100
2481.845710,-962.267725,-8660.409521,-995.924147
2481.846038,-1850.514855,-8586.388927,229.828649
2481.846365,-666.185348,-8586.388927,995.924147
2481.846693,1110.308913,-9178.553681,0.000000
2481.847020,1480.411884,-11103.089130,-229.828649
2481.847348,740.205942,-11695.253884,-612.876398
2481.847675,148.041188,-10510.924376,-1455.581446
2481.848003,-1480.411884,-9474.636058,-2451.505594
2481.848331,-2294.638420,-9918.759623,-1762.019645
2481.848658,-1036.288319,-9992.780217,-995.924147
2481.848986,296.082377,-9178.553681,153.219100
2481.849313,1924.535449,-9178.553681,995.924147
2481.849641,2664.741391,-10066.800811,1072.533697
2481.849968,1850.514855,-10807.006753,1608.800546
2481.850296,518.144159,-10732.986159,153.219100
2481.850624,-1184.329507,-9918.759623,-1685.410096
2481.850951,-2294.638420,-9474.636058,-1991.848295
2481.851279,-2368.659014,-9918.759623,-1685.410096
2481.851606,-1406.391290,-9548.656652,-306.438199
2481.851934,-296.082377,-8882.471304,1072.533697
2481.852262,1184.329507,-9622.677246,689.485948
2481.852589,1702.473667,-11177.109724,0.000000
2481.852917,296.082377,-10214.842000,0.000000
2481.853244,-592.164754,-9178.553681,-1072.533697
2481.853572,-1924.535449,-8586.388927,-1532.190996
2481.853899,-3034.844362,-8216.285956,-766.095498
2481.854227,-1850.514855,-8364.327145,0.000000
2481.854555,-518.144159,-8290.306550,1378.971896
2481.854882,740.205942,-9252.574275,1149.143247
2481.855210,2220.617826,-10732.986159,229.828649
2481.855537,1702.473667,-11473.192101,-459.657299
2481.855865,370.102971,-10436.903782,-1455.581446
2481.856192,-666.185348,-9178.553681,-1608.800546
2481.856520,-666.185348,-8882.471304,-1302.362347
2481.856848,-666.185348,-9474.636058,0.000000
2481.857175,1406.391290,-9548.656652,1455.581446
2481.857503,2294.638420,-9178.553681,1532.190996
2481.857830,2442.679609,-10288.862594,995.924147
2481.858158,2146.597232,-11621.233289,0.000000
2481.858485,518.144159,-10658.965565,-1378.971896
2481.858813,-518.144159,-8956.491898,-1991.848295
2481.859141,-666.185348,-8956.491898,-1838.629195
2481.859468,0.000000,-9622.677246,-1455.581446
2481.859796,962.267725,-8882.471304,766.095498
2481.860123,3256.906145,-8882.471304,1149.143247
2481.860451,3923.091493,-10362.883188,1532.190996
2481.860778,3775.050304,-11325.150913,689.485948
2481.861106,2960.823768,-10807.006753,0.000000
2481.861434,1776.494261,-9400.615463,-1149.143247
2481.861761,444.123565,-9178.553681,-1378.971896
2481.862089,-592.164754,-9770.718434,-766.095498
2481.862416,0.000000,-9992.780217,0.000000
2481.862744,1036.288319,-9474.636058,76.609550
2481.863072,2516.700203,-10214.842000,0.000000
2481.863399,2590.720797,-10732.986159,689.485948
2481.863727,1110.308913,-10214.842000,612.876398
2481.864054,-592.164754,-8660.409521,-689.485948
2481.864382,-962.267725,-8068.244768,-1225.752797
2481.864709,-2072.576638,-7624.121203,-612.876398
2481.865037,-1776.494261,-7772.162391,306.438199
2481.865365,-222.061783,-8586.388927,1302.362347
2481.865692,1110.308913,-9992.780217,1455.581446
2481.866020,888.247130,-10955.047942,459.657299
2481.866347,444.123565,-11843.295072,-612.876398
2481.866675,-1554.432478,-10807.006753,-1915.238745
2481.867002,-2220.617826,-9918.759623,-2451.505594
2481.867330,-3256.906145,-10066.800811,-2068.457845
2481.867658,-2664.741391,-10288.862594,-536.266849
2481.867985,-1110.308913,-8586.388927,689.485948
2481.868313,-148.041188,-8512.368333,1685.410096
2481.868640,222.061783,-9326.594869,1532.190996
2481.868968,0.000000,-10732.986159,536.266849
2481.869295,-1036.288319,-9918.759623,-919.314598
2481.869623,-1924.535449,-8734.430116,-2068.457845
2481.869951,-2146.597232,-9252.574275,-2374.896044
2481.870278,-1480.411884,-9770.718434,-995.924147
2481.870606,148.041188,-9400.615463,459.657299
2481.870933,1776.494261,-9770.718434,1225.752797
2481.871261,2590.720797,-10436.903782,536.266849
2481.871588,2146.597232,-11177.109724,383.047749
2481.871916,1406.391290,-10955.047942,-689.485948
2481.872244,0.000000,-9474.636058,-1149.143247
2481.872571,-1554.432478,-8512.368333,-995.924147
2481.872899,-1776.494261,-9104.533087,-383.047749
2481.873226,-1258.350101,-8660.409521,536.266849
2481.873554,148.041188,-7994.224174,306.438199
2481.873882,1628.453072,-8734.430116,306.438199
2481.874209,1554.432478,-10140.821405,383.047749
2481.874537,1628.453072,-11177.109724,76.609550
2481.874864,1480.411884,-9918.759623,-995.924147
2481.875192,592.164754,-9326.594869,-1608.800546
2481.875520,148.041188,-9104.533087,-1149.143247
2481.875847,1036.288319,-9252.574275,0.000000
2481.876175,1554.432478,-8956.491898,766.095498
2481.876502,2590.720797,-9548.656652,919.314598
2481.876830,2886.803174,-11251.130318,153.219100
2481.877158,2516.700203,-11991.336260,383.047749
2481.877485,962.267725,-11029.068536,-995.924147
2481.877813,-666.185348,-9918.759623,-1685.410096
2481.878141,-1554.432478,-9918.759623,-1532.190996
2481.878468,-1850.514855,-9474.636058,-689.485948
2481.878796,-814.226536,-8586.388927,306.438199
2481.879123,666.185348,-8364.327145,1149.143247
2481.879451,1702.473667,-9696.697840,1225.752797
2481.879779,1332.370696,-10955.047942,689.485948
2481.880106,0.000000,-9992.780217,-153.219100
2481.880434,-1110.308913,-8808.450710,-306.438199
2481.880761,-1184.329507,-8586.388927,-1991.848295
2481.881089,-888.247130,-9474.636058,-1149.143247
2481.881417,370.102971,-10140.821405,383.047749
2481.881744,2368.659014,-9548.656652,689.485948
2481.882072,2886.803174,-9770.718434,1149.143247
2481.882400,2368.659014,-11251.130318,1072.533697
2481.882727,1184.329507,-10066.800811,0.000000
2481.883055,-666.185348,-9030.512492,-612.876398
2481.883382,-1924.535449,-8586.388927,-1149.143247
2481.883710,-2664.741391,-9030.512492,-919.314598
2481.884038,-1924.535449,-8512.368333,0.000000
2481.884365,-592.164754,-8882.471304,383.047749
2481.884693,148.041188,-9030.512492,536.266849
2481.885020,518.144159,-10658.965565,0.000000
2481.885348,592.164754,-10658.965565,-383.047749
2481.885676,-148.041188,-9400.615463,-1455.581446
2481.886003,-1184.329507,-8808.450710,-1455.581446
2481.886331,-1628.453072,-9400.615463,-842.705048
2481.886659,-888.247130,-8808.450710,0.000000
2481.886986,444.123565,-8438.347739,1532.190996
2481.887314,1036.288319,-9548.656652,1072.533697
2481.887641,2220.617826,-11251.130318,306.438199
2481.887969,1628.453072,-11177.109724,0.000000
2481.888297,222.061783,-10140.821405,-1378.971896
2481.888624,-962.267725,-9770.718434,-1991.848295
2481.888952,-1998.556043,-9992.780217,-2374.896044
2481.889279,-1258.350101,-9474.636058,-306.438199
2481.889607,-222.061783,-8882.471304,76.609550
2481.889935,1480.411884,-9474.636058,995.924147
2481.890262,1776.494261,-9992.780217,1225.752797
2481.890590,1406.391290,-10881.027347,919.314598
2481.890918,0.000000,-9918.759623,-383.047749
2481.891245,-444.123565,-8882.471304,-1532.190996
2481.891573,-740.205942,-8808.450710,-2068.457845
2481.891900,-666.185348,-9252.574275,-1378.971896
2481.892228,888.247130,-9104.533087,0.000000
2481.892556,3034.844362,-9696.697840,919.314598
2481.892883,4367.215058,-10510.924376,1378.971896
2481.893211,4367.215058,-11177.109724,1378.971896
2481.893538,3701.029710,-11473.192101,612.876398
2481.893866,1998.556043,-9918.759623,-766.095498
2481.894194,-222.061783,-8142.265362,-536.266849
2481.894521,-1258.350101,-8808.450710,0.000000
2481.894849,-1480.411884,-8364.327145,612.876398
2481.895177,-444.123565,-8290.306550,383.047749
2481.895504,592.164754,-9918.759623,76.609550
2481.895832,1110.308913,-10732.986159,-383.047749
2481.896159,814.226536,-9770.718434,-919.314598
2481.896487,-370.102971,-9252.574275,-1608.800546
2481.896815,-1776.494261,-8660.409521,-995.924147
2481.897142,-1184.329507,-9030.512492,-766.095498
2481.897470,-148.041188,-9104.533087,229.828649
2481.897797,1036.288319,-9178.553681,1302.362347
2481.898125,2812.782580,-10436.903782,995.924147
2481.898453,2960.823768,-11325.150913,842.705048
2481.898780,1406.391290,-11399.171507,76.609550
2481.899108,0.000000,-10658.965565,-1685.410096
2481.899436,-1258.350101,-10214.842000,-2451.505594
2481.899763,-2294.638420,-9474.636058,-2604.724693
2481.900091,-1850.514855,-9696.697840,-1072.533697
2481.900418,-592.164754,-8586.388927,459.657299
2481.900746,1258.350101,-9104.533087,1378.971896
2481.901074,1406.391290,-9474.636058,2298.286494
2481.901401,296.082377,-10214.842000,1149.143247
2481.901729,-740.205942,-9770.718434,0.000000
2481.902056,-1258.350101,-9104.533087,-2298.286494
2481.902384,-2368.659014,-8512.368333,-2528.115143
2481.902712,-2072.576638,-9326.594869,-1455.581446
2481.903039,-814.226536,-9030.512492,153.219100
2481.903367,1702.473667,-9326.594869,689.485948
2481.903695,2886.803174,-11103.089130,536.266849
2481.904022,3182.885551,-11547.212695,536.266849
2481.904350,1998.556043,-10732.986159,306.438199
2481.904677,0.000000,-10066.800811,0.000000
2481.905005,-1406.391290,-9252.574275,-459.657299
2481.905333,-1776.494261,-8142.265362,-383.047749
2481.905660,-2072.576638,-8290.306550,536.266849
2481.905988,-518.144159,-8956.491898,306.438199
2481.906315,222.061783,-9252.574275,383.047749
2481.906643,0.000000,-9474.636058,-383.047749
2481.906971,0.000000,-10436.903782,-1455.581446
2481.907298,-740.205942,-9992.780217,-1532.190996
2481.907626,-1702.473667,-8586.388927,-1608.800546
2481.907954,-1332.370696,-9474.636058,-1762.019645
2481.908281,444.123565,-10140.821405,229.828649
2481.908609,1998.556043,-9474.636058,1225.752797
2481.908936,3552.988522,-10584.944971,1608.800546
2481.909264,3849.070898,-11547.212695,1378.971896
2481.909592,2960.823768,-11769.274478,229.828649
2481.909919,1998.556043,-11473.192101,-766.095498
2481.910247,222.061783,-9474.636058,-2145.067394
2481.910574,-1406.391290,-8734.430116,-1685.410096
2481.910902,-1258.350101,-8438.347739,0.000000
2481.911230,0.000000,-8660.409521,612.876398
2481.911557,1480.411884,-9178.553681,1225.752797
2481.911885,2072.576638,-9400.615463,1532.190996
2481.912213,1702.473667,-10288.862594,766.095498
2481.912540,296.082377,-9844.739029,-383.047749
2481.912868,-666.185348,-9474.636058,-1838.629195
2481.913195,-962.267725,-9178.553681,-1915.238745
2481.913523,-888.247130,-9178.553681,-995.924147
2481.913851,962.267725,-9770.718434,-153.219100
2481.914178,2738.761985,-10362.883188,306.438199
2481.914506,4293.194464,-10807.006753,1378.971896
2481.914834,3478.967927,-11325.150913,1378.971896
2481.915161,2294.638420,-10955.047942,995.924147
2481.915489,814.226536,-9992.780217,-689.485948
2481.915816,-666.185348,-9104.533087,-766.095498
2481.916144,-1850.514855,-8734.430116,0.000000
2481.916472,-1628.453072,-7846.182985,842.705048
2481.916799,-222.061783,-7920.203579,1072.533697
2481.917127,-370.102971,-7772.162391,919.314598
2481.917454,-370.102971,-9696.697840,0.000000
2481.917782,-296.082377,-11029.068536,-1225.752797
2481.918110,-1184.329507,-9918.759623,-2451.505594
2481.918437,-2146.597232,-9474.636058,-2451.505594
2481.918765,-1776.494261,-9400.615463,-1915.238745
2481.919093,-962.267725,-9844.739029,-459.657299
2481.919420,888.247130,-9548.656652,766.095498
2481.919748,2664.741391,-10362.883188,1685.410096
2481.920075,3182.885551,-11325.150913,1378.971896
2481.920403,2442.679609,-11843.295072,536.266849
2481.920731,444.123565,-9992.780217,-383.047749
2481.921058,-1554.432478,-8364.327145,-1608.800546
2481.921386,-2516.700203,-8216.285956,-995.924147
2481.921713,-2738.761985,-8734.430116,-153.219100
2481.922041,-1332.370696,-8734.430116,383.047749
2481.922369,296.082377,-9030.512492,842.705048
2481.922696,222.061783,-9548.656652,536.266849
2481.923024,148.041188,-10881.027347,-459.657299
2481.923352,-1110.308913,-10658.965565,-1455.581446
2481.923679,-1924.535449,-8882.471304,-1915.238745
2481.924007,-1998.556043,-8734.430116,-2451.505594
2481.924334,-740.205942,-9770.718434,-1378.971896
2481.924662,1332.370696,-9770.718434,0.000000
2481.924990,3627.009116,-9770.718434,1302.362347
2481.925317,4441.235652,-11029.068536,1378.971896
2481.925645,4145.153275,-11399.171507,1225.752797
2481.925972,2664.741391,-10881.027347,229.828649
2481.926300,444.123565,-9326.594869,-229.828649
2481.926628,0.000000,-8956.491898,-229.828649
2481.926955,-1184.329507,-8586.388927,689.485948
2481.927283,-518.144159,-8586.388927,1072.533697
2481.927611,0.000000,-7994.224174,1072.533697
2481.927938,370.102971,-8660.409521,536.266849
2481.928266,370.102971,-9252.574275,-229.828649
2481.928593,222.061783,-9770.718434,-995.924147
2481.928921,-518.144159,-9622.677246,-2451.505594
2481.929249,-962.267725,-10140.821405,-2604.724693
2481.929576,-222.061783,-10066.800811,-1302.362347
2481.929904,962.267725,-10140.821405,0.000000
2481.930231,2220.617826,-10066.800811,1455.581446
2481.930559,3256.906145,-10140.821405,1378.971896
2481.930887,3627.009116,-11103.089130,306.438199
2481.931214,2516.700203,-11325.150913,0.000000
2481.931542,1036.288319,-9474.636058,0.000000
2481.931870,-444.123565,-7920.203579,-153.219100
2481.932197,-1776.494261,-8216.285956,-229.828649
2481.932525,-1924.535449,-9326.594869,76.609550
2481.932852,-1258.350101,-8586.388927,229.828649
2481.933180,0.000000,-9326.594869,-689.485948
2481.933508,370.102971,-10288.862594,-459.657299
2481.933835,-296.082377,-10955.047942,-766.095498
2481.934163,-962.267725,-10510.924376,-1455.581446
2481.934490,-1776.494261,-9844.739029,-1915.238745
2481.934818,-1110.308913,-10066.800811,-2374.896044
2481.935146,-1480.411884,-9622.677246,-995.924147
2481.935473,222.061783,-9252.574275,-306.438199
2481.935801,1406.391290,-8956.491898,1072.533697
2481.936129,1776.494261,-10214.842000,1072.533697
2481.936456,2072.576638,-11029.068536,459.657299
2481.936784,1258.350101,-10214.842000,306.438199
2481.937111,370.102971,-9326.594869,153.219100
2481.937439,-962.267725,-9178.553681,0.000000
2481.937767,-1702.473667,-9104.533087,153.219100
2481.938094,-1628.453072,-8882.471304,153.219100
2481.938422,-888.247130,-8808.450710,229.828649
2481.938749,0.000000,-9178.553681,76.609550
2481.939077,296.082377,-10066.800811,0.000000
2481.939405,-222.061783,-9992.780217,-842.705048
2481.939732,-888.247130,-9696.697840,-1991.848295
2481.940060,-1406.391290,-9474.636058,-1915.238745
2481.940388,-1628.453072,-10362.883188,-1302.362347
2481.940715,-592.164754,-9844.739029,-536.266849
2481.941043,1036.288319,-9178.553681,536.266849
2481.941370,2516.700203,-9992.780217,612.876398
2481.941698,3849.070898,-11103.089130,689.485948
2481.942026,3330.926739,-10510.924376,1225.752797
2481.942353,2220.617826,-9696.697840,0.000000
2481.942681,0.000000,-9178.553681,-306.438199
2481.943008,-1110.308913,-8364.327145,-383.047749
2481.943336,-1332.370696,-9104.533087,0.000000
2481.943664,-518.144159,-8882.471304,383.047749
2481.943991,888.247130,-9548.656652,153.219100
2481.944319,1628.453072,-10881.027347,-306.438199
2481.944647,814.226536,-11177.109724,-612.876398
2481.944974,518.144159,-10807.006753,-842.705048
2481.945302,-296.082377,-9770.718434,-1915.238745
2481.945629,-1184.329507,-9474.636058,-2374.896044
2481.945957,-666.185348,-9178.553681,-1378.971896
2481.946285,740.205942,-8216.285956,383.047749
2481.946612,2590.720797,-9400.615463,1225.752797
2481.946940,3923.091493,-10214.842000,1225.752797
2481.947267,3404.947333,-11177.109724,1302.362347
2481.947595,1628.453072,-10436.903782,689.485948
2481.947923,740.205942,-9770.718434,-995.924147
2481.948250,0.000000,-9474.636058,-1608.800546
2481.948578,-1406.391290,-9474.636058,-612.876398
2481.948906,-962.267725,-9474.636058,383.047749
2481.949233,-518.144159,-8068.244768,1149.143247
2481.949561,814.226536,-8586.388927,842.705048
2481.949888,592.164754,-9030.512492,536.266849
2481.950216,0.000000,-9622.677246,-459.657299
2481.950544,-888.247130,-9326.594869,-1608.800546
2481.950871,-1332.370696,-8512.368333,-2604.724693
2481.951199,-1554.432478,-9252.574275,-1915.238745
2481.951526,-1554.432478,-9548.656652,-459.657299
2481.951854,962.267725,-9252.574275,689.485948
2481.952182,2072.576638,-10658.965565,1072.533697
2481.952509,2590.720797,-11843.295072,689.485948
2481.952837,2664.741391,-11991.336260,-153.219100
2481.953165,1480.411884,-10362.883188,-612.876398
2481.953492,0.000000,-9326.594869,-306.438199
2481.953820,-1776.494261,-8660.409521,0.000000
2481.954147,-3108.864956,-7772.162391,306.438199
2481.954475,-2072.576638,-8586.388927,0.000000
2481.954803,-518.144159,-8438.347739,-536.266849
2481.955130,370.102971,-9844.739029,0.000000
2481.955458,592.164754,-10658.965565,153.219100
2481.955786,-296.082377,-10658.965565,-1225.752797
2481.956113,-592.164754,-9770.718434,-2068.457845
2481.956441,-1258.350101,-10066.800811,-2451.505594
2481.956768,-666.185348,-9918.759623,-1225.752797
2481.957096,592.164754,-9178.553681,383.047749
2481.957424,2368.659014,-9252.574275,1302.362347
2481.957751,3701.029710,-10140.821405,1838.629195
2481.958079,2590.720797,-10881.027347,1072.533697
2481.958406,2146.597232,-10807.006753,842.705048
2481.958734,148.041188,-9474.636058,-1149.143247
2481.959062,-1110.308913,-8586.388927,-1608.800546
2481.959389,-2146.597232,-8512.368333,-1302.362347
2481.959717,-1480.411884,-8808.450710,-229.828649
2481.960045,0.000000,-8364.327145,612.876398
2481.960372,2146.597232,-8808.450710,919.314598
2481.960700,2072.576638,-10066.800811,1072.533697
2481.961027,1110.308913,-10140.821405,0.000000
2481.961355,370.102971,-9474.636058,-1149.143247
2481.961683,-814.226536,-9696.697840,-2298.286494
2481.962010,-1776.494261,-9474.636058,-1762.019645
2481.962338,-888.247130,-9252.574275,0.000000
2481.962665,740.205942,-9622.677246,306.438199
2481.962993,1850.514855,-10658.965565,306.438199
2481.963321,2886.803174,-11177.109724,0.000000
2481.963648,2590.720797,-10807.006753,-229.828649
2481.963976,1110.308913,-9918.759623,-612.876398
2481.964304,0.000000,-8882.471304,-612.876398
2481.964631,-1184.329507,-8364.327145,-306.438199
2481.964959,-1702.473667,-8734.430116,612.876398
2481.965286,-222.061783,-8956.491898,842.705048
2481.965614,518.144159,-8808.450710,306.438199
2481.965942,592.164754,-10214.842000,229.828649
2481.966269,740.205942,-11251.130318,-689.485948
2481.966597,296.082377,-11399.171507,-1762.019645
2481.966924,-518.144159,-10436.903782,-2681.334243
2481.967252,-222.061783,-9770.718434,-3140.991542
2481.967580,0.000000,-9178.553681,-995.924147
2481.967907,444.123565,-8956.491898,612.876398
2481.968235,2590.720797,-9252.574275,1915.238745
2481.968563,3775.050304,-9474.636058,1838.629195
2481.968890,3330.926739,-10214.842000,1762.019645
2481.969218,2072.576638,-10436.903782,1608.800546
2481.969545,74.020594,-9178.553681,-383.047749
2481.969873,-1480.411884,-9252.574275,-1378.971896
2481.970201,-2516.700203,-9178.553681,-1608.800546
2481.970528,-1776.494261,-9326.594869,-766.095498
2481.970856,0.000000,-9400.615463,0.000000
2481.971183,444.123565,-9548.656652,919.314598
2481.971511,1184.329507,-10658.965565,1532.190996
2481.971839,-296.082377,-9474.636058,153.219100
2481.972166,-1110.308913,-9474.636058,-1685.410096
2481.972494,-1776.494261,-8808.450710,-1378.971896
2481.972822,-2368.659014,-9474.636058,-1378.971896
2481.973149,-1406.391290,-9474.636058,0.000000
2481.973477,518.144159,-9622.677246,766.095498
2481.973804,1924.535449,-9622.677246,612.876398
2481.974132,1554.432478,-11103.089130,842.705048
2481.974460,1776.494261,-11399.171507,76.609550
2481.974787,444.123565,-9844.739029,-1455.581446
2481.975115,-962.267725,-8956.491898,-1991.848295
2481.975442,-1924.535449,-8734.430116,-1072.533697
2481.975770,-1776.494261,-8734.430116,689.485948
2481.976097,-592.164754,-8364.327145,1455.581446
2481.976425,1258.350101,-8660.409521,536.266849
2481.976752,1258.350101,-10362.883188,-383.047749
2481.977080,962.267725,-10732.986159,-995.924147
2481.977407,0.000000,-10066.800811,-2221.676944
2481.977735,-592.164754,-9474.636058,-2451.505594
2481.978062,-370.102971,-9918.759623,-1991.848295
2481.978390,296.082377,-10066.800811,-919.314598
2481.978717,1776.494261,-10066.800811,1685.410096
2481.979045,3552.988522,-9326.594869,1991.848295
2481.979372,4515.256246,-10140.821405,1608.800546
2481.979700,3256.906145,-10214.842000,1149.143247
2481.980027,1776.494261,-9844.739029,536.266849
2481.980355,888.247130,-9400.615463,-306.438199
2481.980682,-592.164754,-8956.491898,-1302.362347
2481.981010,-1406.391290,-8882.471304,-306.438199
2481.981337,-592.164754,-9178.553681,76.609550
2481.981665,518.144159,-9178.553681,0.000000
2481.981992,1480.411884,-9918.759623,536.266849
2481.982320,1776.494261,-10510.924376,153.219100
2481.982647,888.247130,-10807.006753,0.000000
2481.982975,-74.020594,-9770.718434,-766.095498
2481.983302,-814.226536,-8956.491898,-1072.533697
2481.983630,-1406.391290,-8586.388927,-536.266849
2481.983957,-740.205942,-8734.430116,689.485948
2481.984285,666.185348,-8808.450710,842.705048
2481.984612,1332.370696,-9326.594869,1149.143247
2481.984940,1480.411884,-10066.800811,459.657299
2481.985267,1702.473667,-10807.006753,-842.705048
2481.985595,222.061783,-9696.697840,-1302.362347
2481.985922,-888.247130,-8586.388927,-1532.190996
2481.986250,-1480.411884,-8142.265362,-1072.533697
2481.986577,-1406.391290,-9770.718434,383.047749
2481.986905,-370.102971,-9548.656652,1225.752797
2481.987232,888.247130,-9030.512492,919.314598
2481.987560,370.102971,-10140.821405,306.438199
2481.987887,0.000000,-11917.315666,-766.095498
2481.988215,-888.247130,-10066.800811,-1532.190996
2481.988542,-1850.514855,-8512.368333,-1685.410096
2481.988870,-1924.535449,-9400.615463,-1762.019645
2481.989197,-1110.308913,-9474.636058,-689.485948
2481.989525,-296.082377,-9030.512492,459.657299
2481.989852,1480.411884,-9474.636058,536.266849
2481.990180,2960.823768,-10436.903782,1225.752797
2481.990507,1480.411884,-10214.842000,919.314598
2481.990835,296.082377,-9918.759623,0.000000
2481.991162,0.000000,-9696.697840,-842.705048
2481.991490,-1184.329507,-9548.656652,-1378.971896
2481.991817,-1702.473667,-9844.739029,-1225.752797
2481.992145,-592.164754,-10214.842000,-536.266849
2481.992472,518.144159,-9326.594869,0.000000
2481.992800,1702.473667,-9252.574275,536.266849
2481.993127,1628.453072,-10066.800811,919.314598
2481.993455,888.247130,-10436.903782,229.828649
2481.993782,222.061783,-9252.574275,-689.485948
2481.994110,-222.061783,-8290.306550,-842.705048
2481.994437,-888.247130,-8734.430116,0.000000
2481.994765,-222.061783,-8142.265362,919.314598
2481.995092,1480.411884,-8142.265362,1685.410096
2481.995420,2368.659014,-9030.512492,2068.457845
2481.995747,2294.638420,-10214.842000,689.485948
2481.996075,1998.556043,-11029.068536,-919.314598
2481.996402,1258.350101,-10955.047942,-1685.410096
2481.996730,592.164754,-10436.903782,-2068.457845
2481.997057,0.000000,-9992.780217,-1072.533697
2481.997385,-814.226536,-9030.512492,1072.533697
2481.997712,814.226536,-9178.553681,459.657299
2481.998040,1998.556043,-8956.491898,229.828649
2481.998367,1702.473667,-8956.491898,459.657299
2481.998695,1036.288319,-10066.800811,0.000000
2481.999022,222.061783,-10140.821405,-1225.752797
2481.999350,-1258.350101,-8586.388927,-1838.629195
2481.999677,-814.226536,-8512.368333,-1762.019645
2482.000005,-740.205942,-9918.759623,-1915.238745
2482.000332,0.000000,-10436.903782,0.000000
2482.000660,2220.617826,-10214.842000,536.266849
2482.000987,3256.906145,-11029.068536,306.438199
2482.001315,2590.720797,-12287.418637,153.219100
2482.001642,1776.494261,-11325.150913,0.000000
2482.001970,518.144159,-10066.800811,-612.876398
2482.002297,-888.247130,-9622.677246,-995.924147
2482.002625,-2072.576638,-8734.430116,-306.438199
2482.002952,-1850.514855,-8882.471304,0.000000
2482.003280,-1110.308913,-8882.471304,76.609550
2482.003607,-222.061783,-8734.430116,0.000000
2482.003935,370.102971,-9844.739029,0.000000
2482.004262,0.000000,-10732.986159,153.219100
2482.004590,-1258.350101,-9400.615463,-383.047749
2482.004917,-1184.329507,-8956.491898,-612.876398
2482.005245,-1850.514855,-9030.512492,0.000000
2482.005572,-1554.432478,-9104.533087,612.876398
2482.005900,74.020594,-8956.491898,1072.533697
2482.006227,1036.288319,-9326.594869,1072.533697
2482.006555,1110.308913,-10584.944971,536.266849
2482.006882,1554.432478,-10955.047942,-459.657299
2482.007210,222.061783,-10214.842000,-1149.143247
2482.007537,-814.226536,-9178.553681,-1149.143247
2482.007865,-1110.308913,-9326.594869,-1149.143247
2482.008192,-1036.288319,-9252.574275,0.000000
2482.008520,0.000000,-8512.368333,1455.581446
2482.008847,1628.453072,-8660.409521,1532.190996
2482.009175,1110.308913,-9474.636058,919.314598
2482.009502,666.185348,-10214.842000,459.657299
2482.009830,370.102971,-10140.821405,-1532.190996
2482.010157,0.000000,-9622.677246,-2451.505594
2482.010485,-740.205942,-9844.739029,-2451.505594
2482.010812,444.123565,-9992.780217,-1302.362347
2482.011140,1036.288319,-9474.636058,0.000000
2482.011467,2960.823768,-9918.759623,995.924147
2482.011795,3775.050304,-10955.047942,229.828649
2482.012122,3182.885551,-11843.295072,229.828649
2482.012450,2294.638420,-11547.212695,-153.219100
2482.012777,962.267725,-9844.739029,-689.485948
2482.013105,-666.185348,-9104.533087,-995.924147
2482.013432,-1036.288319,-10066.800811,-459.657299
2482.013760,-1406.391290,-8512.368333,459.657299
2482.014087,-148.041188,-8290.306550,229.828649
2482.014415,888.247130,-9252.574275,0.000000
2482.014742,1702.473667,-10658.965565,-306.438199
2482.015070,1110.308913,-10807.006753,0.000000
2482.015397,0.000000,-9548.656652,0.000000
2482.015725,-592.164754,-8882.471304,-1302.362347
2482.016052,-1110.308913,-8956.491898,-536.266849
2482.016380,-1110.308913,-8808.450710,612.876398
2482.016707,74.020594,-8586.388927,1378.971896
2482.017034,1554.432478,-9548.656652,919.314598
2482.017362,1924.535449,-10510.924376,919.314598
2482.017689,1628.453072,-9992.780217,612.876398
2482.018017,666.185348,-9622.677246,76.609550
2482.018344,-962.267725,-9030.512492,-1532.190996
2482.018672,-1702.473667,-9326.594869,-1149.143247
2482.018999,-1554.432478,-10066.800811,-383.047749
2482.019327,-296.082377,-9474.636058,229.828649
2482.019654,1036.288319,-9252.574275,842.705048
2482.019982,1480.411884,-10732.986159,919.314598
2482.020309,592.164754,-11103.089130,0.000000
2482.020637,0.000000,-9474.636058,-689.485948
2482.020964,-1554.432478,-8438.347739,-2681.334243
2482.021292,-2146.597232,-8808.450710,-2681.334243
2482.021619,-2368.659014,-9474.636058,-1608.800546
2482.021947,-740.205942,-9474.636058,-153.219100
2482.022274,1480.411884,-9474.636058,842.705048
2482.022602,2664.741391,-11251.130318,0.000000
2482.022929,2738.761985,-11843.295072,-306.438199
2482.023257,1776.494261,-11843.295072,-689.485948
2482.023584,814.226536,-11029.068536,-842.705048
2482.023912,-370.102971,-9770.718434,-1455.581446
2482.024239,-1036.288319,-9622.677246,-842.705048
2482.024567,-1110.308913,-9178.553681,76.609550
2482.024894,0.000000,-8586.388927,0.000000
2482.025222,296.082377,-8438.347739,689.485948
2482.025549,444.123565,-10140.821405,0.000000
2482.025877,-296.082377,-9918.759623,-612.876398
2482.026204,-1184.329507,-8808.450710,-1072.533697
2482.026532,-1332.370696,-8364.327145,-1149.143247
2482.026859,-1258.350101,-8364.327145,0.000000
2482.027187,0.000000,-8882.471304,0.000000
2482.027514,1628.453072,-8882.471304,1532.190996
2482.027842,2812.782580,-9474.636058,1455.581446
2482.028169,3256.906145,-10436.903782,842.705048
2482.028497,2590.720797,-11029.068536,459.657299
2482.028824,1628.453072,-10436.903782,-229.828649
2482.029152,148.041188,-9474.636058,-842.705048
2482.029479,-1258.350101,-8956.491898,-1072.533697
2482.029807,-962.267725,-9474.636058,-536.266849
2482.030134,-296.082377,-9326.594869,153.219100
2482.030462,814.226536,-9104.533087,536.266849
2482.030789,1628.453072,-9992.780217,536.266849
2482.031117,1628.453072,-10510.924376,383.047749
2482.031444,666.185348,-9326.594869,-842.705048
2482.031772,-740.205942,-8734.430116,-1378.971896
2482.032099,-518.144159,-9030.512492,-2374.896044
2482.032427,-592.164754,-9622.677246,-1532.190996
2482.032754,0.000000,-9622.677246,-306.438199
2482.033082,1998.556043,-10584.944971,-229.828649
2482.033409,2886.803174,-11695.253884,0.000000
2482.033737,2886.803174,-11991.336260,0.000000
2482.034064,1924.535449,-12065.356855,-612.876398
2482.034392,1110.308913,-10658.965565,-612.876398
2482.034719,0.000000,-9474.636058,-1302.362347
2482.035047,-1406.391290,-8882.471304,229.828649
2482.035374,-1332.370696,-8216.285956,1302.362347
2482.035702,0.000000,-8068.244768,1455.581446
2482.036029,740.205942,-8364.327145,1225.752797
2482.036357,740.205942,-9178.553681,76.609550
2482.036684,148.041188,-9696.697840,-459.657299
2482.037012,-1110.308913,-9326.594869,-995.924147
2482.037339,-2220.617826,-9030.512492,-1685.410096
2482.037667,-2664.741391,-9400.615463,-1072.533697
2482.037994,-2072.576638,-9474.636058,-383.047749
2482.038322,-296.082377,-9326.594869,459.657299
2482.038649,1406.391290,-9178.553681,612.876398
2482.038977,2368.659014,-10214.842000,1149.143247
2482.039304,1924.535449,-10955.047942,919.314598
2482.039632,814.226536,-9844.739029,229.828649
2482.039959,-592.164754,-8512.368333,-689.485948
2482.040287,-1850.514855,-8660.409521,-842.705048
2482.040614,-1924.535449,-9104.533087,0.000000
2482.040942,-666.185348,-9252.574275,153.219100
2482.041269,370.102971,-9770.718434,0.000000
2482.041597,1036.288319,-10436.903782,229.828649
2482.041924,740.205942,-11103.089130,0.000000
2482.042252,-148.041188,-10362.883188,-842.705048
2482.042579,-962.267725,-9252.574275,-2451.505594
2482.042907,-1480.411884,-9104.533087,-2451.505594
2482.043234,-814.226536,-9252.574275,-306.438199
2482.043562,888.247130,-9178.553681,0.000000
2482.043889,2516.700203,-9844.739029,306.438199
2482.044217,3256.906145,-11547.212695,766.095498
2482.044544,2886.803174,-11843.295072,76.609550
2482.044872,2146.597232,-11473.192101,-919.314598
2482.045199,1480.411884,-11103.089130,-1915.238745
2482.045527,444.123565,-10066.800811,-1685.410096
2482.045854,296.082377,-9622.677246,-919.314598
2482.046182,-148.041188,-9326.594869,1532.190996
2482.046509,814.226536,-8364.327145,1838.629195
2482.046837,1776.494261,-8586.388927,1455.581446
2482.047164,1110.308913,-9030.512492,766.095498
2482.047492,592.164754,-9326.594869,229.828649
2482.047819,-518.144159,-7846.182985,229.828649
2482.048147,-1258.350101,-8364.327145,-536.266849
2482.048474,-1628.453072,-8956.491898,-919.314598
2482.048802,-518.144159,-9622.677246,-153.219100
2482.049129,1036.288319,-9474.636058,612.876398
2482.049457,2664.741391,-10214.842000,919.314598
2482.049784,3552.988522,-10881.027347,76.609550
2482.050112,2368.659014,-10362.883188,229.828649
2482.050439,888.247130,-9696.697840,536.266849
2482.050767,-444.123565,-8808.450710,0.000000
2482.051094,-1702.473667,-8586.388927,-229.828649
2482.051422,-1998.556043,-9104.533087,76.609550
2482.051749,-1036.288319,-8956.491898,76.609550
2482.052077,148.041188,-9030.512492,459.657299
2482.052404,518.144159,-10066.800811,153.219100
2482.052732,148.041188,-10881.027347,-229.828649
2482.053059,-148.041188,-10436.903782,-1225.752797
2482.053387,-666.185348,-9474.636058,-2451.505594
2482.053714,-814.226536,-9696.697840,-2451.505594
2482.054042,-518.144159,-10436.903782,-1378.971896
2482.054369,518.144159,-10214.842000,-306.438199
2482.054697,1554.432478,-9622.677246,689.485948
2482.055024,2590.720797,-10807.006753,842.705048
2482.055352,2738.761985,-12139.377449,0.000000
2482.055679,1702.473667,-11769.274478,-766.095498
2482.056007,148.041188,-10510.924376,-1149.143247
2482.056334,-962.267725,-9474.636058,-1378.971896
2482.056662,-1850.514855,-9326.594869,0.000000
2482.056989,-1924.535449,-8438.347739,995.924147
2482.057317,-666.185348,-7846.182985,1838.629195
2482.057644,0.000000,-8290.306550,766.095498
2482.057972,0.000000,-9252.574275,229.828649
2482.058299,-888.247130,-9252.574275,-612.876398
2482.058627,-1628.453072,-8956.491898,-1302.362347
2482.058954,-1998.556043,-8808.450710,-1608.800546
2482.059282,-1554.432478,-9252.574275,-1455.581446
2482.059609,-148.041188,-9696.697840,-459.657299
2482.059937,1776.494261,-9918.759623,919.314598
2482.060264,3478.967927,-10214.842000,1225.752797
2482.060592,3552.988522,-10807.006753,1455.581446
2482.060919,2516.700203,-10510.924376,842.705048
2482.061246,1480.411884,-8956.491898,766.095498
2482.061574,148.041188,-8142.265362,-536.266849
2482.061901,-888.247130,-7624.121203,0.000000
2482.062229,-1184.329507,-8142.265362,153.219100
2482.062556,-518.144159,-9030.512492,995.924147
2482.062884,740.205942,-9178.553681,153.219100
2482.063211,1332.370696,-10140.821405,-612.876398
2482.063539,962.267725,-11029.068536,-766.095498
2482.063866,740.205942,-11547.212695,-2451.505594
2482.064194,296.082377,-10584.944971,-2911.162892
2482.064521,444.123565,-11251.130318,-2451.505594
2482.064849,1036.288319,-10807.006753,-1149.143247
2482.065176,2294.638420,-10066.800811,383.047749
2482.065504,2886.803174,-9622.677246,1378.971896
2482.065831,3478.967927,-10881.027347,306.438199
2482.066159,2442.679609,-11177.109724,-612.876398
2482.066486,1406.391290,-10807.006753,-689.485948
2482.066814,370.102971,-10066.800811,-1455.581446
2482.067141,-962.267725,-9474.636058,-1225.752797
2482.067469,-1628.453072,-9400.615463,0.000000
2482.067796,-1036.288319,-9474.636058,383.047749
2482.068124,0.000000,-9770.718434,1072.533697
2482.068451,888.247130,-9844.739029,229.828649
2482.068779,1258.350101,-9474.636058,383.047749
2482.069106,-444.123565,-9918.759623,0.000000
2482.069434,-1998.556043,-9030.512492,-766.095498
2482.069761,-2516.700203,-8290.306550,-1378.971896
2482.070089,-2960.823768,-8068.244768,-1072.533697
2482.070416,-2072.576638,-8882.471304,153.219100
2482.070744,222.061783,-8956.491898,1072.533697
2482.071071,1924.535449,-9696.697840,1302.362347
2482.071399,1998.556043,-10436.903782,995.924147
2482.071726,1850.514855,-10436.903782,612.876398
2482.072054,814.226536,-9548.656652,229.828649
2482.072381,-740.205942,-8808.450710,0.000000
2482.072709,-1924.535449,-7698.141797,0.000000
2482.073036,-2294.638420,-8142.265362,689.485948
2482.073364,-1628.453072,-9548.656652,0.000000
2482.073691,-370.102971,-9474.636058,229.828649
2482.074019,592.164754,-10288.862594,-612.876398
2482.074346,74.020594,-11177.109724,-1302.362347
2482.074674,0.000000,-11177.109724,-1991.848295
2482.075001,-296.082377,-9844.739029,-2451.505594
2482.075329,-518.144159,-9918.759623,-2068.457845
2482.075656,148.041188,-10288.862594,76.609550
2482.075984,2072.576638,-10288.862594,536.266849
2482.076311,3182.885551,-9696.697840,1225.752797
2482.076639,3404.947333,-10362.883188,995.924147
2482.076966,3478.967927,-11917.315666,0.000000
2482.077294,2516.700203,-11177.109724,-536.266849
2482.077621,1850.514855,-10436.903782,-2681.334243
2482.077949,296.082377,-9400.615463,-1225.752797
2482.078276,-740.205942,-9770.718434,-459.657299
2482.078604,-592.164754,-9622.677246,1072.533697
2482.078931,148.041188,-9030.512492,1072.533697
2482.079259,814.226536,-9400.615463,842.705048
2482.079586,444.123565,-9400.615463,153.219100
2482.079914,0.000000,-9622.677246,-536.266849
2482.080241,-962.267725,-9030.512492,-1072.533697
2482.080569,-1850.514855,-8438.347739,-689.485948
2482.080896,-1332.370696,-8586.388927,-995.924147
2482.081224,-740.205942,-8660.409521,0.000000
2482.081551,814.226536,-9104.533087,689.485948
2482.081879,2664.741391,-9770.718434,1378.971896
2482.082206,3034.844362,-10436.903782,1149.143247
2482.082534,2368.659014,-10732.986159,76.609550
2482.082862,1036.288319,-9770.718434,0.000000
2482.083189,0.000000,-8512.368333,306.438199
2482.083517,-1332.370696,-8734.430116,306.438199
2482.083844,-2072.576638,-8290.306550,536.266849
2482.084172,-1406.391290,-7994.224174,689.485948
2482.084499,-296.082377,-8068.244768,306.438199
2482.084827,148.041188,-10510.924376,-306.438199
2482.085154,-518.144159,-10732.986159,-995.924147
2482.085482,-222.061783,-10881.027347,-1915.238745
2482.085809,-666.185348,-10881.027347,-2451.505594
2482.086137,-592.164754,-11103.089130,-2221.676944
2482.086464,370.102971,-10807.006753,-842.705048
2482.086792,1406.391290,-10807.006753,0.000000
2482.087119,3256.906145,-10807.006753,1378.971896
2482.087447,3108.864956,-11399.171507,919.314598
2482.087774,3108.864956,-11251.130318,459.657299
2482.088102,1702.473667,-10288.862594,-383.047749
2482.088429,-296.082377,-9696.697840,-919.314598
2482.088757,-1776.494261,-9030.512492,-1072.533697
2482.089084,-2368.659014,-7772.162391,0.000000
2482.089412,-2146.597232,-7920.203579,0.000000
2482.089739,-888.247130,-8808.450710,0.000000
2482.090067,592.164754,-9400.615463,0.000000
2482.090394,666.185348,-9178.553681,306.438199
2482.090722,-222.061783,-10214.842000,0.000000
2482.091049,-222.061783,-9696.697840,-1149.143247
2482.091377,-888.247130,-8882.471304,-919.314598
2482.091704,-1332.370696,-8882.471304,-842.705048
2482.092032,-1110.308913,-8808.450710,-689.485948
2482.092359,0.000000,-8512.368333,842.705048
2482.092687,1332.370696,-9548.656652,919.314598
2482.093014,2294.638420,-10510.924376,1072.533697
2482.093342,2664.741391,-10510.924376,766.095498
2482.093669,1184.329507,-9548.656652,459.657299
2482.093997,222.061783,-8734.430116,-766.095498
2482.094324,-888.247130,-7846.182985,153.219100
2482.094652,-1110.308913,-8586.388927,0.000000
2482.094979,-814.226536,-8734.430116,306.438199
2482.095307,444.123565,-8808.450710,0.000000
2482.095634,1258.350101,-9548.656652,-383.047749
2482.095962,592.164754,-10955.047942,-612.876398
2482.096289,370.102971,-10881.027347,-2068.457845
2482.096617,0.000000,-10140.821405,-2834.553343
2482.096944,-222.061783,-10510.924376,-2757.943793
2482.097272,0.000000,-10955.047942,-1455.581446
2482.097599,1258.350101,-10436.903782,0.000000
2482.097927,2516.700203,-9548.656652,995.924147
2482.098255,4219.173869,-10288.862594,1685.410096
2482.098582,3552.988522,-11325.150913,842.705048
2482.098910,2220.617826,-10732.986159,459.657299
2482.099237,592.164754,-9844.739029,-229.828649
2482.099565,-592.164754,-9474.636058,-1302.362347
2482.099892,-1480.411884,-9474.636058,-842.705048
2482.100220,-2146.597232,-8956.491898,306.438199
2482.100547,-592.164754,-8586.388927,536.266849
2482.100875,518.144159,-9104.533087,153.219100
2482.101202,814.226536,-9696.697840,459.657299
2482.101530,666.185348,-10955.047942,0.000000
2482.101857,-444.123565,-9696.697840,0.000000
2482.102185,-1036.288319,-8660.409521,-1149.143247
2482.102512,-1628.453072,-7920.203579,-842.705048
2482.102840,-1554.432478,-7105.977043,1225.752797
2482.103167,0.000000,-7254.018232,1915.238745
2482.103495,2072.576638,-8808.450710,995.924147
2482.103822,2516.700203,-9992.780217,1378.971896
2482.104150,2294.638420,-10732.986159,995.924147
2482.104477,0.000000,-9770.718434,383.047749
2482.104805,-1554.432478,-8956.491898,-306.438199
2482.105132,-2960.823768,-9178.553681,-2068.457845
2482.105460,-2072.576638,-9252.574275,-1608.800546
2482.105787,-1258.350101,-8956.491898,536.266849
2482.106115,148.041188,-8734.430116,766.095498
2482.106442,1332.370696,-10288.862594,459.657299
2482.106770,592.164754,-11547.212695,0.000000
2482.107097,-296.082377,-10955.047942,-1991.848295
2482.107425,-1036.288319,-9326.594869,-3294.210641
2482.107752,-814.226536,-10140.821405,-3447.429741
2482.108080,-222.061783,-10214.842000,-2221.676944
2482.108407,444.123565,-10807.006753,0.000000
2482.108735,2664.741391,-10881.027347,1302.362347
2482.109062,3997.112087,-11621.233289,1225.752797
2482.109390,2812.782580,-11029.068536,306.438199
2482.109717,2072.576638,-11251.130318,-919.314598
2482.110045,148.041188,-9844.739029,-919.314598
2482.110372,-1110.308913,-8438.347739,-1302.362347
2482.110700,-1924.535449,-8882.471304,0.000000
2482.111027,-1480.411884,-9178.553681,919.314598
2482.111355,222.061783,-8808.450710,612.876398
2482.111682,1036.288319,-9696.697840,536.266849
2482.112010,888.247130,-10584.944971,766.095498
2482.112337,1406.391290,-11251.130318,-612.876398
2482.112665,0.000000,-9548.656652,-1455.581446
2482.112992,-814.226536,-8068.244768,-995.924147
2482.113320,-814.226536,-7624.121203,383.047749
2482.113648,444.123565,-7920.203579,1685.410096
2482.113975,1628.453072,-7698.141797,2681.334243
2482.114303,2368.659014,-8290.306550,2221.676944
2482.114630,2590.720797,-9770.718434,612.876398
2482.114958,1776.494261,-10436.903782,459.657299
2482.115285,592.164754,-9770.718434,-229.828649
2482.115613,-518.144159,-8734.430116,-842.705048
2482.115940,-1554.432478,-9400.615463,-842.705048
2482.116268,-518.144159,-9770.718434,-229.828649
2482.116595,666.185348,-9252.574275,0.000000
2482.116923,1406.391290,-9178.553681,1072.533697
2482.117250,2368.659014,-10658.965565,229.828649
2482.117578,1184.329507,-10881.027347,-919.314598
2482.117905,74.020594,-9992.780217,-1685.410096
2482.118233,-1184.329507,-9178.553681,-2298.286494
2482.118560,-1258.350101,-9548.656652,-2604.724693
2482.118888,-592.164754,-10732.986159,-1991.848295
2482.119215,74.020594,-9992.780217,306.438199
2482.119543,2368.659014,-9474.636058,0.000000
2482.119870,3256.906145,-11473.192101,306.438199
2482.120198,2738.761985,-12361.439231,0.000000
2482.120525,1554.432478,-11103.089130,-612.876398
2482.120853,0.000000,-9622.677246,-1762.019645
2482.121180,-1036.288319,-9104.533087,-1072.533697
2482.121508,-2664.741391,-9178.553681,-842.705048
2482.121835,-1850.514855,-9474.636058,919.314598
2482.122163,-666.185348,-9770.718434,306.438199
2482.122490,296.082377,-9844.739029,-306.438199
2482.122818,148.041188,-10140.821405,-612.876398
2482.123145,-592.164754,-9474.636058,-689.485948
2482.123473,-1332.370696,-8808.450710,-306.438199
2482.123800,-814.226536,-8290.306550,-306.438199
2482.124128,-962.267725,-8216.285956,306.438199
2482.124455,-1110.308913,-8068.244768,1225.752797
2482.124783,666.185348,-8438.347739,1762.019645
2482.125110,1036.288319,-8956.491898,1915.238745
2482.125438,814.226536,-9844.739029,1302.362347
2482.125765,444.123565,-10288.862594,-229.828649
2482.126093,-666.185348,-9696.697840,-1608.800546
2482.126420,-1628.453072,-9326.594869,-1378.971896
2482.126748,-1702.473667,-9474.636058,-1149.143247
2482.127075,-1036.288319,-10362.883188,153.219100
2482.127403,296.082377,-9844.739029,842.705048
2482.127730,1258.350101,-8956.491898,1149.143247
2482.128058,1850.514855,-9548.656652,536.266849
2482.128386,1554.432478,-10362.883188,459.657299
2482.128713,1406.391290,-10362.883188,-919.314598
2482.129041,222.061783,-9622.677246,-2221.676944
2482.129368,-666.185348,-9844.739029,-1991.848295
2482.129696,222.061783,-10140.821405,-1149.143247
2482.130023,1184.329507,-9770.718434,-306.438199
2482.130351,2146.597232,-9770.718434,0.000000
2482.130678,3997.112087,-11029.068536,-536.266849
2482.131006,3552.988522,-11917.315666,-612.876398
2482.131333,2516.700203,-11547.212695,-689.485948
2482.131661,1628.453072,-10510.924376,-995.924147
2482.131988,814.226536,-9252.574275,-536.266849
2482.132316,0.000000,-9844.739029,0.000000
2482.132643,-740.205942,-9770.718434,842.705048
2482.132971,148.041188,-9252.574275,0.000000
2482.133298,888.247130,-9178.553681,-842.705048
2482.133626,666.185348,-10140.821405,-919.314598
2482.133953,222.061783,-10584.944971,-612.876398
2482.134281,-296.082377,-9326.594869,-766.095498
2482.134608,-444.123565,-8290.306550,-766.095498
2482.134936,-666.185348,-8438.347739,-383.047749
2482.135263,-962.267725,-8512.368333,842.705048
2482.135591,444.123565,-8142.265362,2145.067394
2482.135918,1184.329507,-8808.450710,1762.019645
2482.136246,1554.432478,-9844.739029,919.314598
2482.136573,740.205942,-10214.842000,-459.657299
2482.136901,-296.082377,-9992.780217,-919.314598
2482.137228,-1480.411884,-9178.553681,-995.924147
2482.137556,-2146.597232,-9770.718434,-766.095498
2482.137883,-1850.514855,-9844.739029,0.000000
2482.138211,-888.247130,-9474.636058,153.219100
2482.138538,0.000000,-8956.491898,842.705048
2482.138866,1184.329507,-9770.718434,766.095498
2482.139193,1258.350101,-10362.883188,689.485948
2482.139521,296.082377,-9918.759623,0.000000
2482.139848,-148.041188,-8956.491898,-766.095498
2482.140176,-1258.350101,-9400.615463,-1532.190996
2482.140503,-2072.576638,-9622.677246,-1072.533697
2482.140831,-1184.329507,-9622.677246,-229.828649
2482.141158,740.205942,-9696.697840,-766.095498
2482.141486,2294.638420,-11177.109724,-919.314598
2482.141813,2516.700203,-11695.253884,-689.485948
2482.142141,2294.638420,-11473.192101,0.000000
2482.142468,1628.453072,-10955.047942,-766.095498
2482.142796,0.000000,-9992.780217,-612.876398
2482.143123,-1480.411884,-9474.636058,0.000000
2482.143451,-1480.411884,-8882.471304,306.438199
2482.143779,-148.041188,-8808.450710,153.219100
2482.144106,296.082377,-8808.450710,229.828649
2482.144434,1110.308913,-9770.718434,612.876398
2482.144761,592.164754,-9622.677246,-306.438199
2482.145089,74.020594,-9548.656652,-1378.971896
2482.145416,-814.226536,-9030.512492,-1838.629195
2482.145744,-1480.411884,-8512.368333,-1455.581446
2482.146071,-1036.288319,-8438.347739,76.609550
2482.146399,962.267725,-8586.388927,1378.971896
2482.146726,2738.761985,-9844.739029,842.705048
2482.147054,2590.720797,-9992.780217,1072.533697
2482.147381,2516.700203,-11325.150913,459.657299
2482.147709,1110.308913,-10955.047942,-459.657299
2482.148036,0.000000,-10066.800811,-1532.190996
2482.148364,-1332.370696,-9104.533087,-1838.629195
2482.148691,-1554.432478,-9178.553681,0.000000
2482.149019,-1036.288319,-8956.491898,306.438199
2482.149346,740.205942,-9400.615463,536.266849
2482.149674,1480.411884,-9918.759623,612.876398
2482.150001,1184.329507,-10807.006753,229.828649
2482.150329,518.144159,-9844.739029,-842.705048
2482.150656,-370.102971,-8882.471304,-1532.190996
2482.150984,-740.205942,-9400.615463,-1608.800546
2482.151311,-518.144159,-9326.594869,383.047749
2482.151639,740.205942,-9178.553681,536.266849
2482.151966,1184.329507,-9104.533087,612.876398
2482.152294,2516.700203,-10955.047942,0.000000
2482.152621,3034.844362,-11917.315666,-229.828649
2482.152949,2146.597232,-11547.212695,-383.047749
2482.153276,740.205942,-10510.924376,-536.266849
2482.153604,74.020594,-10140.821405,-919.314598
2482.153931,-962.267725,-9104.533087,153.219100
2482.154259,-1332.370696,-9474.636058,306.438199
2482.154586,-444.123565,-9178.553681,689.485948
2482.154914,740.205942,-8808.450710,153.219100
2482.155241,592.164754,-9474.636058,0.000000
2482.155569,0.000000,-10510.924376,-1149.143247
2482.155896,-888.247130,-9474.636058,-306.438199
2482.156224,-1480.411884,-8660.409521,-1915.238745
2482.156551,-2146.597232,-8882.471304,-1072.533697
2482.156879,-1480.411884,-9178.553681,-383.047749
2482.157206,296.082377,-9252.574275,459.657299
2482.157534,1554.432478,-9770.718434,842.705048
2482.157861,2220.617826,-10584.944971,0.000000
2482.158189,2072.576638,-11103.089130,76.609550
2482.158516,444.123565,-10214.842000,-1072.533697
2482.158844,-1184.329507,-8882.471304,-1225.752797
2482.159172,-1924.535449,-9104.533087,-1532.190996
2482.159499,-2220.617826,-9400.615463,-383.047749
2482.159827,-1110.308913,-8808.450710,689.485948
2482.160154,0.000000,-9178.553681,919.314598
2482.160482,1554.432478,-10362.883188,612.876398
2482.160809,1184.329507,-10881.027347,76.609550
2482.161137,666.185348,-10436.903782,-995.924147
2482.161464,-370.102971,-9770.718434,-1455.581446
2482.161792,-1110.308913,-9474.636058,-1608.800546
2482.162119,-1480.411884,-8808.450710,-1149.143247
2482.162447,0.000000,-9178.553681,0.000000
2482.162774,2220.617826,-10140.821405,-306.438199
2482.163102,3627.009116,-9992.780217,995.924147
2482.163429,2664.741391,-10436.903782,536.266849
2482.163757,2590.720797,-11473.192101,76.609550
2482.164084,1998.556043,-10510.924376,-612.876398
2482.164412,962.267725,-9622.677246,-842.705048
2482.164739,-1110.308913,-8660.409521,0.000000
2482.165067,-666.185348,-9400.615463,995.924147
2482.165394,148.041188,-8956.491898,536.266849
2482.165722,1258.350101,-9400.615463,919.314598
2482.166049,1110.308913,-9696.697840,306.438199
2482.166377,444.123565,-9844.739029,-383.047749
2482.166704,-592.164754,-9400.615463,-1149.143247
2482.167032,-1184.329507,-8956.491898,-2374.896044
2482.167359,-1480.411884,-8734.430116,-1762.019645
2482.167687,-962.267725,-8956.491898,229.828649
2482.168014,1036.288319,-9474.636058,1072.533697
2482.168342,2220.617826,-10362.883188,995.924147
2482.168669,2664.741391,-11103.089130,689.485948
2482.168997,2442.679609,-11177.109724,0.000000
2482.169324,1036.288319,-10584.944971,-1532.190996
2482.169652,-518.144159,-9474.636058,-766.095498
2482.169979,-1776.494261,-8808.450710,-1608.800546
2482.170307,-1332.370696,-9104.533087,0.000000
2482.170634,-518.144159,-8956.491898,842.705048
2482.170962,370.102971,-9326.594869,766.095498
2482.171289,1184.329507,-10362.883188,536.266849
2482.171617,962.267725,-11103.089130,536.266849
2482.171944,0.000000,-9918.759623,-842.705048
2482.172272,-1406.391290,-9030.512492,-766.095498
2482.172599,-1924.535449,-9030.512492,-1685.410096
2482.172927,-2368.659014,-9474.636058,-1149.143247
2482.173254,-888.247130,-9326.594869,-229.828649
2482.173582,740.205942,-9474.636058,0.000000
2482.173909,2072.576638,-10214.842000,306.438199
2482.174237,2220.617826,-10955.047942,689.485948
2482.174565,1850.514855,-10658.965565,229.828649
2482.174892,740.205942,-10658.965565,-612.876398
2482.175220,-518.144159,-9474.636058,-842.705048
2482.175547,-1110.308913,-9178.553681,0.000000
2482.175875,-888.247130,-9326.594869,612.876398
2482.176202,0.000000,-9252.574275,919.314598
2482.176530,814.226536,-8364.327145,229.828649
2482.176857,296.082377,-9104.533087,383.047749
2482.177185,-148.041188,-9696.697840,-229.828649
2482.177512,-1184.329507,-9178.553681,-995.924147
2482.177840,-2072.576638,-8438.347739,-1991.848295
2482.178167,-2220.617826,-8660.409521,-1302.362347
2482.178495,-962.267725,-9252.574275,76.609550
2482.178822,1036.288319,-9696.697840,1225.752797
2482.179150,2294.638420,-10066.800811,1302.362347
2482.179477,3256.906145,-11843.295072,689.485948
2482.179805,2738.761985,-11695.253884,0.000000
2482.180132,1628.453072,-10510.924376,-689.485948
2482.180460,0.000000,-9178.553681,-995.924147
2482.180787,-814.226536,-8956.491898,-689.485948
2482.181115,-1110.308913,-9474.636058,229.828649
2482.181442,-222.061783,-8882.471304,1072.533697
2482.181770,814.226536,-9400.615463,536.266849
2482.182097,1406.391290,-9474.636058,0.000000
2482.182425,1036.288319,-10955.047942,-459.657299
2482.182752,0.000000,-10658.965565,-842.705048
2482.183080,-222.061783,-9474.636058,-1532.190996
2482.183407,-296.082377,-8956.491898,-1991.848295
2482.183735,296.082377,-9696.697840,-919.314598
2482.184062,1184.329507,-10066.800811,229.828649
2482.184390,2886.803174,-9918.759623,995.924147
2482.184717,3478.967927,-9844.739029,919.314598
2482.185045,3034.844362,-11325.150913,229.828649
2482.185372,2220.617826,-10807.006753,-306.438199
2482.185700,740.205942,-9474.636058,-229.828649
2482.186027,518.144159,-9474.636058,-766.095498
2482.186355,-1258.350101,-9326.594869,383.047749
2482.186682,-1258.350101,-8808.450710,1072.533697
2482.187010,-592.164754,-8216.285956,1378.971896
2482.187337,0.000000,-8364.327145,689.485948
2482.187665,666.185348,-9178.553681,229.828649
2482.187992,370.102971,-9992.780217,-919.314598
2482.188320,-1184.329507,-8734.430116,-612.876398
2482.188647,-1850.514855,-8808.450710,-1225.752797
2482.188975,-1480.411884,-9474.636058,-1149.143247
2482.189302,-1184.329507,-10214.842000,-229.828649
2482.189630,148.041188,-10584.944971,306.438199
2482.189957,1628.453072,-9992.780217,919.314598
2482.190285,2294.638420,-11325.150913,0.000000
2482.190612,1554.432478,-11769.274478,-383.047749
2482.190939,962.267725,-9918.759623,-306.438199
2482.191267,-518.144159,-8438.347739,76.609550
2482.191594,-1702.473667,-8512.368333,229.828649
2482.191922,-2146.597232,-8660.409521,536.266849
2482.192249,-1628.453072,-8216.285956,842.705048
2482.192577,-518.144159,-8660.409521,-306.438199
2482.192904,222.061783,-9918.759623,-383.047749
2482.193232,74.020594,-11029.068536,-153.219100
2482.193559,-518.144159,-10807.006753,-1072.533697
2482.193887,-592.164754,-9992.780217,-2068.457845
2482.194214,-296.082377,-9918.759623,-2374.896044
2482.194542,-222.061783,-10066.800811,-1072.533697
2482.194869,1184.329507,-9696.697840,383.047749
2482.195197,2664.741391,-9178.553681,995.924147
2482.195524,3256.906145,-9622.677246,1608.800546
2482.195852,3034.844362,-10732.986159,995.924147
2482.196179,1776.494261,-10362.883188,306.438199
2482.196507,444.123565,-9400.615463,-229.828649
2482.196834,222.061783,-9030.512492,-459.657299
2482.197162,-1184.329507,-9252.574275,689.485948
2482.197489,-1406.391290,-8882.471304,842.705048
2482.197817,-296.082377,-8734.430116,76.609550
2482.198144,1036.288319,-9178.553681,0.000000
2482.198472,888.247130,-9548.656652,0.000000
2482.198799,370.102971,-9918.759623,-612.876398
2482.199127,0.000000,-9474.636058,-995.924147
2482.199454,-1110.308913,-9104.533087,-1302.362347
2482.199782,-592.164754,-9474.636058,-1149.143247
2482.200109,0.000000,-9770.718434,-612.876398
2482.200437,888.247130,-9844.739029,919.314598
2482.200764,2368.659014,-11103.089130,76.609550
2482.201092,2960.823768,-11325.150913,-153.219100
2482.201419,2368.659014,-10807.006753,0.000000
2482.201747,1776.494261,-9622.677246,229.828649
2482.202074,0.000000,-8438.347739,0.000000
2482.202402,-1480.411884,-8586.388927,536.266849
2482.202729,-1924.535449,-9252.574275,153.219100
2482.203057,-1924.535449,-8660.409521,0.000000
2482.203384,-444.123565,-8808.450710,-383.047749
2482.203712,-296.082377,-9770.718434,-689.485948
2482.204039,-666.185348,-10140.821405,-536.266849
2482.204367,-740.205942,-9992.780217,-1072.533697
2482.204694,-518.144159,-10214.842000,-2145.067394
2482.205022,-666.185348,-9844.739029,-1915.238745
2482.205349,-148.041188,-9844.739029,-1378.971896
2482.205677,814.226536,-9992.780217,0.000000
2482.206004,2368.659014,-9474.636058,689.485948
2482.206332,3182.885551,-9696.697840,1762.019645
2482.206659,3034.844362,-10584.944971,1915.238745
2482.206987,2072.576638,-10066.800811,766.095498
2482.207314,666.185348,-9474.636058,0.000000
2482.207642,-370.102971,-9326.594869,-306.438199
2482.207969,-2368.659014,-8808.450710,-689.485948
2482.208297,-2368.659014,-9178.553681,0.000000
2482.208624,-1480.411884,-9030.512492,76.609550
2482.208952,-370.102971,-9104.533087,-153.219100
2482.209279,888.247130,-9918.759623,-612.876398
2482.209607,222.061783,-10288.862594,-612.876398
2482.209934,-222.061783,-9844.739029,-995.924147
2482.210262,-962.267725,-8882.471304,-995.924147
2482.210589,-1110.308913,-9326.594869,-919.314598
2482.210917,-1036.288319,-9252.574275,536.266849
2482.211244,962.267725,-9548.656652,229.828649
2482.211572,2146.597232,-9770.718434,689.485948
2482.211899,2812.782580,-11695.253884,0.000000
2482.212227,3182.885551,-11621.233289,0.000000
2482.212554,1702.473667,-10362.883188,0.000000
2482.212882,-222.061783,-8956.491898,76.609550
2482.213209,-1036.288319,-8808.450710,-306.438199
2482.213537,-1110.308913,-8734.430116,76.609550
2482.213864,-444.123565,-9178.553681,612.876398
2482.214192,-370.102971,-8882.471304,766.095498
2482.214519,148.041188,-9548.656652,306.438199
2482.214847,222.061783,-10584.944971,-689.485948
2482.215174,-1110.308913,-10584.944971,-1608.800546
2482.215502,-962.267725,-10140.821405,-2145.067394
2482.215829,-814.226536,-9696.697840,-2374.896044
2482.216157,148.041188,-10510.924376,-1378.971896
2482.216484,1332.370696,-9992.780217,153.219100
2482.216812,3034.844362,-9548.656652,1608.800546
2482.217139,3701.029710,-9622.677246,1762.019645
2482.217467,3182.885551,-10658.965565,1532.190996
2482.217794,2072.576638,-10658.965565,153.219100
2482.218122,740.205942,-9178.553681,0.000000
2482.218449,-1036.288319,-8216.285956,-842.705048
2482.218777,-2220.617826,-8586.388927,-229.828649
2482.219104,-2146.597232,-9326.594869,229.828649
2482.219432,-1332.370696,-9030.512492,0.000000
2482.219759,0.000000,-9326.594869,-383.047749
2482.220087,1554.432478,-10140.821405,-1378.971896
2482.220414,518.144159,-10362.883188,-766.095498
2482.220742,148.041188,-8956.491898,-689.485948
2482.221069,-740.205942,-8660.409521,-766.095498
2482.221397,-740.205942,-9326.594869,-612.876398
2482.221724,-592.164754,-9400.615463,229.828649
2482.222052,740.205942,-9252.574275,919.314598
2482.222379,2442.679609,-9474.636058,995.924147
2482.222707,2886.803174,-11325.150913,-153.219100
2482.223034,2886.803174,-11695.253884,-536.266849
2482.223362,1480.411884,-10214.842000,-383.047749
2482.223689,148.041188,-8882.471304,0.000000
2482.224017,-814.226536,-9474.636058,0.000000
2482.224344,-888.247130,-9474.636058,229.828649
2482.224672,-296.082377,-9400.615463,229.828649
2482.224999,-222.061783,-9104.533087,383.047749
2482.225327,222.061783,-9326.594869,689.485948
2482.225654,-222.061783,-10362.883188,-612.876398
2482.225982,-1332.370696,-9992.780217,-1302.362347
2482.226309,-1036.288319,-9474.636058,-2681.334243
2482.226637,-962.267725,-9030.512492,-2681.334243
2482.226964,-666.185348,-9844.739029,-995.924147
2482.227292,666.185348,-9030.512492,0.000000
2482.227619,2886.803174,-8808.450710,1302.362347
2482.227947,3330.926739,-10510.924376,1915.238745
2482.228274,2960.823768,-10807.006753,1915.238745
2482.228602,2368.659014,-9770.718434,919.314598
2482.228929,888.247130,-9178.553681,0.000000
2482.229257,-888.247130,-8364.327145,612.876398
2482.229584,-1332.370696,-9474.636058,-536.266849
2482.229912,-2442.679609,-9104.533087,459.657299
2482.230239,-1480.411884,-9030.512492,-229.828649
2482.230567,370.102971,-9474.636058,-995.924147
2482.230894,740.205942,-10214.842000,-766.095498
2482.231222,1036.288319,-10510.924376,0.000000
2482.231549,444.123565,-9326.594869,76.609550
2482.231877,0.000000,-8808.450710,-383.047749
2482.232204,-1406.391290,-9548.656652,-536.266849
2482.232532,-962.267725,-9474.636058,0.000000
2482.232859,148.041188,-8956.491898,0.000000
2482.233186,1258.350101,-10140.821405,0.000000
2482.233514,1998.556043,-11177.109724,-766.095498
2482.233841,2220.617826,-10881.027347,-1302.362347
2482.234169,1110.308913,-10066.800811,-229.828649
2482.234496,0.000000,-8660.409521,-689.485948
2482.234824,-1332.370696,-9326.594869,-689.485948
2482.235151,-1480.411884,-9918.759623,0.000000
2482.235479,-962.267725,-9178.553681,459.657299
2482.235806,222.061783,-9400.615463,459.657299
2482.236134,962.267725,-10584.944971,919.314598
2482.236461,1036.288319,-11251.130318,0.000000
2482.236789,-518.144159,-9474.636058,-1072.533697
2482.237116,-1258.350101,-9696.697840,-2528.115143
2482.237444,-1332.370696,-9252.574275,-2681.334243
2482.237771,-444.123565,-9770.718434,-1762.019645
2482.238099,592.164754,-9992.780217,-153.219100
2482.238426,2886.803174,-9252.574275,995.924147
2482.238754,4589.276840,-10066.800811,2451.505594
2482.239081,4515.256246,-11177.109724,1455.581446
2482.239409,2664.741391,-10584.944971,689.485948
2482.239736,1184.329507,-9474.636058,229.828649
2482.240064,-1110.308913,-8734.430116,-229.828649
2482.240391,-2664.741391,-8364.327145,-383.047749
2482.240719,-2516.700203,-8734.430116,-995.924147
2482.241046,-1628.453072,-8438.347739,-306.438199
2482.241374,74.020594,-9770.718434,-995.924147
2482.241701,1110.308913,-10881.027347,-766.095498
2482.242029,1184.329507,-11325.150913,-995.924147
2482.242356,296.082377,-9548.656652,-689.485948
2482.242684,-592.164754,-8068.244768,-1072.533697
2482.243011,-888.247130,-8956.491898,0.000000
2482.243339,-888.247130,-8808.450710,689.485948
2482.243666,740.205942,-8438.347739,612.876398
2482.243994,1406.391290,-9696.697840,689.485948
2482.244321,2368.659014,-10955.047942,229.828649
2482.244649,2294.638420,-10955.047942,-536.266849
2482.244976,666.185348,-10066.800811,-766.095498
2482.245304,-444.123565,-9474.636058,-919.314598
2482.245631,-1480.411884,-8808.450710,-1455.581446
2482.245959,-1850.514855,-9104.533087,-459.657299
2482.246286,-962.267725,-8734.430116,919.314598
2482.246614,888.247130,-9326.594869,1225.752797
2482.246941,1258.350101,-10066.800811,919.314598
2482.247269,888.247130,-11251.130318,76.609550
2482.247596,518.144159,-9918.759623,-1838.629195
2482.247924,-518.144159,-9474.636058,-2451.505594
2482.248251,-962.267725,-9770.718434,-2451.505594
2482.248579,-740.205942,-9474.636058,-1072.533697
2482.248906,222.061783,-9400.615463,459.657299
2482.249234,2442.679609,-10066.800811,766.095498
2482.249561,3478.967927,-10881.027347,1072.533697
2482.249889,3478.967927,-10807.006753,1302.362347
2482.250216,2664.741391,-10288.862594,383.047749
2482.250544,888.247130,-9030.512492,153.219100
2482.250871,-370.102971,-8586.388927,-536.266849
2482.251199,-1702.473667,-8290.306550,-306.438199
2482.251526,-1628.453072,-8512.368333,0.000000
2482.251854,-222.061783,-9030.512492,-153.219100
2482.252181,1184.329507,-9622.677246,-919.314598
2482.252509,888.247130,-10955.047942,-612.876398
2482.252836,666.185348,-11177.109724,-919.314598
2482.253164,-148.041188,-10066.800811,-842.705048
2482.253491,-962.267725,-9400.615463,-766.095498
2482.253819,-1036.288319,-9400.615463,-153.219100
2482.254146,-814.226536,-8882.471304,842.705048
2482.254474,0.000000,-8216.285956,1302.362347
2482.254801,444.123565,-9474.636058,1378.971896
2482.255129,1332.370696,-9770.718434,536.266849
2482.255456,1480.411884,-9992.780217,-229.828649
2482.255784,74.020594,-9252.574275,-689.485948
2482.256111,-518.144159,-9622.677246,-842.705048
2482.256439,-962.267725,-9992.780217,-1302.362347
2482.256766,-962.267725,-10214.842000,-536.266849
2482.257094,-666.185348,-9844.739029,536.266849
2482.257421,1110.308913,-10214.842000,612.876398
2482.257749,888.247130,-10658.965565,0.000000
2482.258076,740.205942,-11103.089130,-536.266849
2482.258404,-296.082377,-10362.883188,-1455.581446
2482.258731,-814.226536,-8956.491898,-1991.848295
2482.259059,-1036.288319,-8660.409521,-1762.019645
2482.259386,-888.247130,-8660.409521,-1302.362347
2482.259714,148.041188,-9030.512492,536.266849
2482.260041,1258.350101,-9252.574275,995.924147
2482.260369,2368.659014,-10288.862594,459.657299
2482.260696,2368.659014,-10955.047942,0.000000
2482.261024,2072.576638,-11177.109724,-229.828649
2482.261351,888.247130,-10066.800811,-383.047749
2482.261679,-74.020594,-9252.574275,-306.438199
2482.262006,-370.102971,-10214.842000,-459.657299
2482.262334,-814.226536,-9622.677246,229.828649
2482.262661,-444.123565,-8364.327145,383.047749
2482.262989,518.144159,-8808.450710,-536.266849
2482.263316,1110.308913,-10140.821405,-383.047749
2482.263644,1258.350101,-10140.821405,-689.485948
2482.263971,222.061783,-8956.491898,0.000000
2482.264299,-592.164754,-8586.388927,229.828649
2482.264626,-666.185348,-8660.409521,0.000000
2482.264954,-370.102971,-8882.471304,766.095498
2482.265281,370.102971,-8808.450710,1149.143247
2482.265609,2072.576638,-9400.615463,842.705048
2482.265936,2738.761985,-10066.800811,0.000000
2482.266264,1924.535449,-10140.821405,0.000000
2482.266591,444.123565,-10436.903782,-1378.971896
2482.266919,-592.164754,-9992.780217,-1225.752797
2482.267246,-1776.494261,-9400.615463,-1455.581446
2482.267574,-962.267725,-9918.759623,-1072.533697
2482.267901,-148.041188,-9844.739029,306.438199
2482.268229,962.267725,-9622.677246,766.095498
2482.268556,1406.391290,-9622.677246,1072.533697
2482.268884,1332.370696,-10584.944971,76.609550
2482.269211,-888.247130,-9696.697840,-919.314598
2482.269539,-962.267725,-8512.368333,-1685.410096
2482.269866,-1036.288319,-8438.347739,-1915.238745
2482.270194,-1036.288319,-9622.677246,-536.266849
2482.270521,-740.205942,-9992.780217,766.095498
2482.270849,592.164754,-9918.759623,842.705048
2482.271176,1480.411884,-10436.903782,76.609550
2482.271504,2220.617826,-11399.171507,-1225.752797
2482.271831,1776.494261,-11399.171507,-1225.752797
2482.272159,1184.329507,-10436.903782,-842.705048
2482.272486,592.164754,-9696.697840,-459.657299
2482.272814,0.000000,-9326.594869,76.609550
2482.273141,-592.164754,-9178.553681,2528.115143
2482.273469,0.000000,-8660.409521,1378.971896
2482.273796,518.144159,-8216.285956,-306.438199
2482.274124,814.226536,-9474.636058,-1225.752797
2482.274451,666.185348,-10510.924376,-995.924147
2482.274779,0.000000,-9326.594869,-229.828649
2482.275106,-518.144159,-9252.574275,306.438199
2482.275433,-888.247130,-8956.491898,0.000000
2482.275761,-740.205942,-9104.533087,0.000000
2482.276088,0.000000,-9178.553681,153.219100
2482.276416,1258.350101,-9548.656652,76.609550
2482.276743,1998.556043,-10584.944971,229.828649
2482.277071,2220.617826,-10362.883188,0.000000
2482.277398,592.164754,-9400.615463,76.609550
2482.277726,-296.082377,-9770.718434,-229.828649
2482.278053,-740.205942,-9030.512492,-689.485948
2482.278381,-1480.411884,-9178.553681,-536.266849
2482.278708,-1036.288319,-9474.636058,76.609550
2482.279036,296.082377,-9474.636058,153.219100
2482.279363,1406.391290,-10066.800811,306.438199
2482.279691,1184.329507,-10881.027347,459.657299
2482.280018,592.164754,-9992.780217,0.000000
2482.280345,0.000000,-9474.636058,-1149.143247
2482.280673,-740.205942,-9252.574275,-1762.019645
2482.281000,-888.247130,-9104.533087,-842.705048
2482.281328,-222.061783,-9178.553681,536.266849
2482.281655,962.267725,-9178.553681,1072.533697
2482.281983,2072.576638,-10510.924376,689.485948
2482.282310,1776.494261,-11769.274478,-536.266849
2482.282638,740.205942,-11251.130318,-1455.581446
2482.282965,1036.288319,-10732.986159,-1302.362347
2482.283293,296.082377,-10214.842000,-1072.533697
2482.283620,-444.123565,-9992.780217,0.000000
2482.283947,-592.164754,-9474.636058,1149.143247
2482.284275,-592.164754,-8660.409521,1225.752797
2482.284602,666.185348,-8956.491898,229.828649
2482.284930,814.226536,-9400.615463,-612.876398
2482.285257,444.123565,-9696.697840,-919.314598
2482.285585,-518.144159,-9696.697840,-689.485948
2482.285912,-1406.391290,-9252.574275,-612.876398
2482.286240,-1776.494261,-9548.656652,-689.485948
2482.286567,-1480.411884,-9548.656652,153.219100
2482.286895,-518.144159,-8808.450710,842.705048
2482.287222,1628.453072,-9918.759623,0.000000
2482.287549,2442.679609,-10362.883188,536.266849
2482.287877,2368.659014,-9992.780217,383.047749
2482.288204,1480.411884,-9696.697840,612.876398
2482.288532,592.164754,-9178.553681,153.219100
2482.288859,-592.164754,-8734.430116,229.828649
2482.289187,-1110.308913,-9030.512492,-536.266849
2482.289514,-962.267725,-8734.430116,0.000000
2482.289842,740.205942,-9770.718434,0.000000
2482.290169,1554.432478,-10510.924376,-306.438199
2482.290497,1850.514855,-10955.047942,-229.828649
2482.290824,1258.350101,-10584.944971,-536.266849
2482.291151,962.267725,-9770.718434,-1225.752797
2482.291479,518.144159,-9104.533087,-1685.410096
2482.291806,-518.144159,-9030.512492,-766.095498
2482.292134,74.020594,-8660.409521,383.047749
2482.292461,1480.411884,-9104.533087,306.438199
2482.292789,2220.617826,-10140.821405,459.657299
2482.293116,2294.638420,-11769.274478,-383.047749
2482.293444,1702.473667,-11325.150913,-995.924147
2482.293771,1332.370696,-10436.903782,-1072.533697
2482.294099,148.041188,-10362.883188,-2068.457845
2482.294426,-518.144159,-9474.636058,-383.047749
2482.294753,-518.144159,-9918.759623,766.095498
2482.295081,0.000000,-9104.533087,1149.143247
2482.295408,740.205942,-9030.512492,306.438199
2482.295736,814.226536,-9548.656652,-229.828649
2482.296063,0.000000,-9770.718434,153.219100
2482.296391,-888.247130,-9104.533087,-459.657299
2482.296718,-1184.329507,-9474.636058,-1072.533697
2482.297046,-1850.514855,-9474.636058,-1302.362347
2482.297373,-2146.597232,-9474.636058,-153.219100
2482.297700,-962.267725,-8882.471304,306.438199
2482.298028,814.226536,-9326.594869,76.609550
2482.298355,2516.700203,-11177.109724,459.657299
2482.298683,2368.659014,-10510.924376,842.705048
2482.299010,962.267725,-9474.636058,766.095498
2482.299338,-518.144159,-8438.347739,536.266849
2482.299665,-1258.350101,-8290.306550,0.000000
2482.299993,-2220.617826,-8734.430116,153.219100
2482.300320,-1628.453072,-8882.471304,0.000000
2482.300648,0.000000,-9326.594869,-383.047749
2482.300975,740.205942,-9992.780217,0.000000
2482.301302,518.144159,-10140.821405,306.438199
2482.301630,0.000000,-9992.780217,0.000000
2482.301957,-666.185348,-8734.430116,-919.314598
2482.302285,-1258.350101,-8660.409521,-1991.848295
2482.302612,-962.267725,-9326.594869,-1455.581446
2482.302940,0.000000,-8956.491898,306.438199
2482.303267,1702.473667,-9178.553681,1608.800546
2482.303595,2590.720797,-10658.965565,1072.533697
2482.303922,2294.638420,-11695.253884,0.000000
2482.304250,1480.411884,-11325.150913,-1302.362347
2482.304577,814.226536,-10584.944971,-2298.286494
2482.304904,148.041188,-10584.944971,-2604.724693
2482.305232,0.000000,-10362.883188,-1225.752797
2482.305559,0.000000,-9844.739029,766.095498
2482.305887,222.061783,-8660.409521,1915.238745
2482.306214,1406.391290,-9104.533087,995.924147
2482.306542,1554.432478,-9844.739029,153.219100
2482.306869,814.226536,-10140.821405,-536.266849
2482.307197,0.000000,-9030.512492,-536.266849
2482.307524,-444.123565,-8956.491898,-689.485948
2482.307852,-1554.432478,-9326.594869,-383.047749
2482.308179,-1924.535449,-9400.615463,-766.095498
2482.308506,-888.247130,-9030.512492,0.000000
2482.308834,814.226536,-9992.780217,-536.266849
2482.309161,2294.638420,-11177.109724,-689.485948
2482.309489,2072.576638,-11251.130318,0.000000
2482.309816,1332.370696,-10584.944971,1072.533697
2482.310144,518.144159,-8586.388927,995.924147
2482.310471,-148.041188,-8438.347739,153.219100
2482.310799,-1850.514855,-8364.327145,842.705048
2482.311126,-1036.288319,-8364.327145,689.485948
2482.311454,74.020594,-8956.491898,-229.828649
2482.311781,518.144159,-9770.718434,76.609550
2482.312108,0.000000,-9992.780217,536.266849
2482.312436,0.000000,-9178.553681,-153.219100
2482.312763,-222.061783,-8512.368333,-1302.362347
2482.313091,-888.247130,-9030.512492,-1838.629195
2482.313418,-370.102971,-9548.656652,-1302.362347
2482.313746,666.185348,-9252.574275,0.000000
2482.314073,2146.597232,-9400.615463,1149.143247
2482.314401,3256.906145,-10584.944971,1149.143247
2482.314728,2738.761985,-11029.068536,612.876398
2482.315056,2072.576638,-11103.089130,-459.657299
