#time,accel_x,accel_y,accel_z
3316.802206,592.164754,-9474.636058,459.657299
3316.802534,296.082377,-9326.594869,306.438199
3316.802862,148.041188,-9326.594869,76.609550
3316.803189,222.061783,-9178.553681,0.000000
3316.803517,0.000000,-8734.430116,-459.657299
3316.803845,0.000000,-9104.533087,0.000000
3316.804173,0.000000,-9474.636058,-383.047749
3316.804501,222.061783,-9548.656652,-536.266849
3316.804828,444.123565,-9918.759623,-536.266849
3316.805156,814.226536,-10288.862594,-689.485948
3316.805484,592.164754,-9770.718434,-459.657299
3316.805812,1036.288319,-9622.677246,0.000000
3316.806139,740.205942,-9474.636058,-306.438199
3316.806467,518.144159,-9770.718434,0.000000
3316.806795,296.082377,-9474.636058,-459.657299
3316.807123,74.020594,-9622.677246,-383.047749
3316.807451,0.000000,-9844.739029,-536.266849
3316.807778,0.000000,-9548.656652,-689.485948
3316.808106,370.102971,-10066.800811,-459.657299
3316.808434,148.041188,-10510.924376,-612.876398
3316.808762,370.102971,-10732.986159,-689.485948
3316.809089,518.144159,-10584.944971,-306.438199
3316.809417,814.226536,-10362.883188,0.000000
3316.809745,222.061783,-9622.677246,153.219100
3316.810073,592.164754,-9548.656652,-306.438199
3316.810401,222.061783,-8808.450710,0.000000
3316.810728,0.000000,-8512.368333,-306.438199
3316.811056,-148.041188,-9252.574275,-229.828649
3316.811384,-296.082377,-9326.594869,-383.047749
3316.811712,-222.061783,-9400.615463,-612.876398
3316.812040,74.020594,-9696.697840,-459.657299
3316.812367,444.123565,-9400.615463,153.219100
3316.812695,666.185348,-9548.656652,76.609550
3316.813023,888.247130,-9326.594869,0.000000
3316.813351,444.123565,-9474.636058,383.047749
3316.813678,74.020594,-9252.574275,229.828649
3316.814006,74.020594,-9252.574275,229.828649
3316.814334,148.041188,-9474.636058,459.657299
3316.814662,0.000000,-8734.430116,153.219100
3316.814990,296.082377,-9104.533087,-766.095498
3316.815317,74.020594,-9252.574275,-306.438199
3316.815645,148.041188,-9918.759623,-612.876398
3316.815973,370.102971,-10288.862594,-612.876398
3316.816301,814.226536,-10288.862594,-459.657299
3316.816628,1036.288319,-9918.759623,0.000000
3316.816956,1332.370696,-10214.842000,76.609550
3316.817284,518.144159,-9992.780217,76.609550
3316.817612,148.041188,-9770.718434,-306.438199
3316.817940,370.102971,-9622.677246,0.000000
3316.818267,0.000000,-9548.656652,-536.266849
3316.818595,0.000000,-9844.739029,-536.266849
3316.818923,222.061783,-9622.677246,-689.485948
3316.819251,148.041188,-10288.862594,0.000000
3316.819578,148.041188,-10066.800811,-842.705048
3316.819906,666.185348,-10140.821405,-306.438199
3316.820234,444.123565,-10362.883188,0.000000
3316.820562,444.123565,-9918.759623,0.000000
3316.820890,296.082377,-9696.697840,0.000000
3316.821217,518.144159,-9770.718434,153.219100
3316.821545,222.061783,-8956.491898,153.219100
3316.821873,0.000000,-8586.388927,229.828649
3316.822201,-222.061783,-8882.471304,-306.438199
3316.822529,0.000000,-9400.615463,-229.828649
3316.822856,0.000000,-9252.574275,-459.657299
3316.823184,222.061783,-9622.677246,-383.047749
3316.823512,444.123565,-9474.636058,-306.438199
3316.823840,1184.329507,-9030.512492,0.000000
3316.824167,1702.473667,-8808.450710,306.438199
3316.824495,2368.659014,-8734.430116,459.657299
3316.824823,2960.823768,-8586.388927,383.047749
3316.825151,3404.947333,-8586.388927,229.828649
3316.825479,3997.112087,-9178.553681,76.609550
3316.825806,4959.379811,-9252.574275,-229.828649
3316.826134,5699.585753,-9400.615463,-306.438199
3316.826462,6069.688724,-9548.656652,-766.095498
3316.826790,7772.162391,-10066.800811,-842.705048
3316.827117,7920.203579,-11029.068536,-306.438199
3316.827445,7846.182985,-11399.171507,76.609550
3316.827773,8808.450710,-10140.821405,0.000000
3316.828101,9770.718434,-9474.636058,0.000000
3316.828429,9770.718434,-8808.450710,76.609550
3316.828756,10658.965565,-9326.594869,0.000000
3316.829084,11325.150913,-9030.512492,842.705048
3316.829412,11695.253884,-9548.656652,76.609550
3316.829740,11769.274478,-10288.862594,-153.219100
3316.830067,11103.089130,-9770.718434,-689.485948
3316.830395,11103.089130,-9178.553681,-306.438199
3316.830723,12361.439231,-9474.636058,-842.705048
3316.831051,13767.830521,-11103.089130,-766.095498
3316.831379,14878.139434,-10955.047942,229.828649
3316.831706,15618.345376,-10140.821405,1685.410096
3316.832034,15840.407159,-9030.512492,1302.362347
3316.832362,14730.098246,-8438.347739,1149.143247
3316.832690,13841.851115,-8660.409521,1685.410096
3316.833018,13249.686362,-8438.347739,612.876398
3316.833345,13471.748144,-9252.574275,383.047749
3316.833673,13619.789333,-9918.759623,766.095498
3316.834001,13693.809927,-9548.656652,689.485948
3316.834329,12879.583391,-9548.656652,1072.533697
3316.834656,12435.459826,-9474.636058,1225.752797
3316.834984,12361.439231,-9474.636058,459.657299
3316.835312,11769.274478,-10214.842000,229.828649
3316.835640,11621.233289,-10288.862594,0.000000
3316.835968,9992.780217,-9400.615463,0.000000
3316.836295,7772.162391,-8142.265362,842.705048
3316.836623,7328.038826,-7402.059420,536.266849
3316.836951,7994.224174,-7920.203579,0.000000
3316.837279,8660.409521,-10066.800811,-919.314598
3316.837606,8808.450710,-11029.068536,0.000000
3316.837934,8290.306550,-11029.068536,-766.095498
3316.838262,8438.347739,-9696.697840,-153.219100
3316.838590,7994.224174,-8586.388927,0.000000
3316.838918,8364.327145,-9474.636058,459.657299
3316.839245,9252.574275,-10955.047942,536.266849
3316.839573,9104.533087,-11769.274478,689.485948
3316.839901,8734.430116,-9548.656652,-383.047749
3316.840229,7179.997637,-7698.141797,-689.485948
3316.840556,5255.462188,-9252.574275,-306.438199
3316.840884,5181.441594,-10955.047942,0.000000
3316.841212,6661.853478,-9622.677246,-1455.581446
3316.841540,8364.327145,-9104.533087,-2145.067394
3316.841868,9178.553681,-10066.800811,-919.314598
3316.842195,7328.038826,-9696.697840,1378.971896
3316.842523,5995.668130,-7328.038826,1455.581446
3316.842851,7402.059420,-8290.306550,766.095498
3316.843179,10584.944971,-11251.130318,-1608.800546
3316.843506,11695.253884,-11325.150913,-612.876398
3316.843834,11251.130318,-9400.615463,689.485948
3316.844162,10658.965565,-9400.615463,1072.533697
3316.844490,9474.636058,-10584.944971,995.924147
3316.844818,7698.141797,-8956.491898,76.609550
3316.845145,6661.853478,-6365.771101,-306.438199
3316.845473,8290.306550,-7031.956449,-842.705048
3316.845801,10658.965565,-9400.615463,-689.485948
3316.846129,11177.109724,-9844.739029,1532.190996
3316.846457,10955.047942,-9178.553681,2911.162892
3316.846784,11547.212695,-7476.080014,1991.848295
3316.847112,11029.068536,-7550.100608,459.657299
3316.847440,11177.109724,-8808.450710,76.609550
3316.847768,12953.603985,-9696.697840,-995.924147
3316.848095,13767.830521,-10066.800811,-842.705048
3316.848423,11621.233289,-11399.171507,919.314598
3316.848751,9474.636058,-10955.047942,2374.896044
3316.849079,9474.636058,-9474.636058,1302.362347
3316.849407,8808.450710,-10214.842000,-842.705048
3316.849734,7105.977043,-11843.295072,-1685.410096
3316.850062,7476.080014,-10732.986159,-1915.238745
3316.850390,6883.915261,-9696.697840,0.000000
3316.850718,6217.729913,-8438.347739,2451.505594
3316.851045,5033.400406,-6661.853478,1225.752797
3316.851373,1998.556043,-8586.388927,842.705048
3316.851701,1184.329507,-9548.656652,0.000000
3316.852029,4811.338623,-8660.409521,-2911.162892
3316.852357,5033.400406,-10955.047942,-2757.943793
3316.852684,5329.482782,-11843.295072,76.609550
3316.853012,7031.956449,-11991.336260,383.047749
3316.853340,6513.812290,-13027.624579,0.000000
3316.853668,6809.894666,-13619.789333,0.000000
3316.853995,5403.503377,-11695.253884,-153.219100
3316.854323,3108.864956,-9918.759623,153.219100
3316.854651,666.185348,-8882.471304,612.876398
3316.854979,-1554.432478,-9474.636058,1225.752797
3316.855307,-3997.112087,-7105.977043,919.314598
3316.855634,-6217.729913,-7179.997637,689.485948
3316.855962,-7031.956449,-8364.327145,-229.828649
3316.856290,-4293.194464,-5847.626942,-1149.143247
3316.856618,-3478.967927,-6809.894666,0.000000
3316.856946,-2516.700203,-10362.883188,0.000000
3316.857273,-3627.009116,-9844.739029,1685.410096
3316.857601,-2960.823768,-8808.450710,229.828649
3316.857929,-2886.803174,-7994.224174,-995.924147
3316.858257,-3330.926739,-11843.295072,-612.876398
3316.858584,-2368.659014,-10140.821405,-1072.533697
3316.858912,-2368.659014,-8882.471304,-1149.143247
3316.859240,-1924.535449,-9622.677246,0.000000
3316.859568,-148.041188,-10658.965565,76.609550
3316.859896,-1036.288319,-10436.903782,153.219100
3316.860223,-2886.803174,-7105.977043,76.609550
3316.860551,-3256.906145,-7254.018232,-689.485948
3316.860879,-2590.720797,-8956.491898,-2145.067394
3316.861207,-2368.659014,-7846.182985,-689.485948
3316.861534,222.061783,-8734.430116,0.000000
3316.861862,2294.638420,-8956.491898,-153.219100
3316.862190,2442.679609,-11991.336260,536.266849
3316.862518,3108.864956,-12361.439231,-689.485948
3316.862846,3478.967927,-10955.047942,-3217.601092
3316.863173,2886.803174,-11325.150913,-2757.943793
3316.863501,2664.741391,-11399.171507,-1149.143247
3316.863829,2664.741391,-11991.336260,0.000000
3316.864157,2294.638420,-9844.739029,229.828649
3316.864484,1332.370696,-9400.615463,306.438199
3316.864812,2146.597232,-10140.821405,-229.828649
3316.865140,1036.288319,-9252.574275,0.000000
3316.865468,888.247130,-8364.327145,919.314598
3316.865796,1036.288319,-6661.853478,-612.876398
3316.866123,-296.082377,-8956.491898,-229.828649
3316.866451,222.061783,-8586.388927,383.047749
3316.866779,2516.700203,-9178.553681,-1838.629195
3316.867107,3701.029710,-12879.583391,-1302.362347
3316.867434,3701.029710,-12953.603985,229.828649
3316.867762,5847.626942,-11843.295072,229.828649
3316.868090,4811.338623,-11029.068536,153.219100
3316.868418,3701.029710,-11843.295072,766.095498
3316.868746,2516.700203,-10214.842000,1072.533697
3316.869073,1406.391290,-7031.956449,1149.143247
3316.869401,0.000000,-7328.038826,2221.676944
3316.869729,592.164754,-6809.894666,2145.067394
3316.870057,-296.082377,-6587.832884,3370.820191
3316.870385,-592.164754,-7179.997637,2374.896044
3316.870712,444.123565,-8734.430116,766.095498
3316.871040,-962.267725,-9104.533087,0.000000
3316.871367,-1776.494261,-8438.347739,-306.438199
3316.871695,148.041188,-10658.965565,-995.924147
3316.872022,2516.700203,-9844.739029,-2681.334243
3316.872350,370.102971,-12731.542202,306.438199
3316.872678,-592.164754,-13323.706956,2757.943793
3316.873005,888.247130,-10658.965565,153.219100
3316.873333,-1110.308913,-10214.842000,-459.657299
3316.873660,-2738.761985,-9992.780217,-766.095498
3316.873988,-4145.153275,-10362.883188,-1072.533697
3316.874315,-4737.318029,-8882.471304,-2068.457845
3316.874643,-5329.482782,-6883.915261,-2451.505594
3316.874970,-3923.091493,-6735.874072,-2451.505594
3316.875298,-3182.885551,-7105.977043,-689.485948
3316.875625,-1776.494261,-9474.636058,1532.190996
3316.875953,1110.308913,-9770.718434,-153.219100
3316.876281,1776.494261,-11251.130318,-842.705048
3316.876608,1628.453072,-12287.418637,-383.047749
3316.876936,1110.308913,-11029.068536,-612.876398
3316.877263,0.000000,-11991.336260,-1762.019645
3316.877591,-2072.576638,-12879.583391,-1915.238745
3316.877918,-2294.638420,-11843.295072,-1991.848295
3316.878246,0.000000,-9326.594869,-2528.115143
3316.878573,222.061783,-8438.347739,-1149.143247
3316.878901,-1184.329507,-8364.327145,1455.581446
3316.879228,-296.082377,-7550.100608,919.314598
3316.879556,-370.102971,-8068.244768,306.438199
3316.879884,222.061783,-6809.894666,-766.095498
3316.880211,814.226536,-6439.791695,-536.266849
3316.880539,518.144159,-9474.636058,1762.019645
3316.880866,2294.638420,-10658.965565,1532.190996
3316.881194,3701.029710,-10881.027347,-842.705048
3316.881521,3108.864956,-10955.047942,-2221.676944
3316.881849,1036.288319,-13101.645173,-919.314598
3316.882176,74.020594,-11695.253884,-689.485948
3316.882504,592.164754,-8438.347739,-2068.457845
3316.882831,814.226536,-11325.150913,-842.705048
3316.883159,2368.659014,-9696.697840,-919.314598
3316.883486,3182.885551,-7698.141797,1149.143247
3316.883814,2368.659014,-7846.182985,1915.238745
3316.884142,2516.700203,-7994.224174,3524.039291
3316.884469,4145.153275,-7772.162391,1608.800546
3316.884797,3256.906145,-7031.956449,689.485948
3316.885124,814.226536,-9622.677246,1685.410096
3316.885452,74.020594,-10140.821405,0.000000
3316.885779,370.102971,-10955.047942,-2298.286494
3316.886107,1184.329507,-12583.501014,-2911.162892
3316.886434,1924.535449,-13323.706956,-3370.820191
3316.886762,518.144159,-13323.706956,0.000000
3316.887089,222.061783,-12213.398043,1991.848295
3316.887417,1628.453072,-11177.109724,-995.924147
3316.887745,1036.288319,-8216.285956,-2145.067394
3316.888072,-666.185348,-7402.059420,459.657299
3316.888400,-1628.453072,-6809.894666,1991.848295
3316.888727,-1184.329507,-5551.544565,2298.286494
3316.889055,-1554.432478,-6217.729913,919.314598
3316.889382,-370.102971,-8364.327145,612.876398
3316.889710,592.164754,-9918.759623,689.485948
3316.890037,370.102971,-10807.006753,0.000000
3316.890365,296.082377,-11695.253884,-842.705048
3316.890692,-148.041188,-11917.315666,-1991.848295
3316.891020,-1036.288319,-10807.006753,-2451.505594
3316.891348,-814.226536,-11251.130318,-612.876398
3316.891675,-74.020594,-7846.182985,229.828649
3316.892003,-1924.535449,-8068.244768,919.314598
3316.892330,-3923.091493,-10288.862594,1838.629195
3316.892658,-1628.453072,-8216.285956,-1455.581446
3316.892985,-1776.494261,-6957.935855,-1915.238745
3316.893313,-2812.782580,-8290.306550,383.047749
3316.893640,-2960.823768,-9104.533087,919.314598
3316.893968,-1480.411884,-8734.430116,-536.266849
3316.894295,-1184.329507,-9474.636058,-1915.238745
3316.894623,-666.185348,-11325.150913,-1838.629195
3316.894951,-1258.350101,-10140.821405,-1072.533697
3316.895278,-1406.391290,-10955.047942,842.705048
3316.895606,518.144159,-11029.068536,-229.828649
3316.895933,666.185348,-10510.924376,-1225.752797
3316.896261,-962.267725,-11769.274478,76.609550
3316.896588,0.000000,-11769.274478,0.000000
3316.896916,1480.411884,-9474.636058,-1762.019645
3316.897243,518.144159,-8808.450710,-1302.362347
3316.897571,-296.082377,-9622.677246,-153.219100
3316.897898,518.144159,-8512.368333,229.828649
3316.898226,1184.329507,-7254.018232,0.000000
3316.898553,888.247130,-8364.327145,919.314598
3316.898881,1480.411884,-9474.636058,612.876398
3316.899209,2886.803174,-10140.821405,0.000000
3316.899536,3404.947333,-11029.068536,306.438199
3316.899864,2886.803174,-12213.398043,459.657299
3316.900191,1850.514855,-10807.006753,306.438199
3316.900519,1406.391290,-8956.491898,-536.266849
3316.900846,740.205942,-10658.965565,-689.485948
3316.901174,-444.123565,-10066.800811,-612.876398
3316.901501,-444.123565,-8364.327145,229.828649
3316.901829,444.123565,-7698.141797,0.000000
3316.902156,1406.391290,-7031.956449,-1455.581446
3316.902484,1258.350101,-8660.409521,995.924147
3316.902812,2072.576638,-9622.677246,2068.457845
3316.903139,3256.906145,-9178.553681,766.095498
3316.903467,3404.947333,-9326.594869,-842.705048
3316.903794,2072.576638,-10436.903782,-766.095498
3316.904122,1480.411884,-11325.150913,842.705048
3316.904449,1628.453072,-9622.677246,-383.047749
3316.904777,-296.082377,-10881.027347,459.657299
3316.905104,-2442.679609,-12361.439231,-459.657299
3316.905432,-2368.659014,-10140.821405,-3064.381992
3316.905759,-1554.432478,-9252.574275,-3370.820191
3316.906087,-666.185348,-9474.636058,-1915.238745
3316.906415,296.082377,-9844.739029,153.219100
3316.906742,666.185348,-8808.450710,2987.772442
3316.907070,1110.308913,-8216.285956,2145.067394
3316.907397,1776.494261,-9400.615463,0.000000
3316.907725,-444.123565,-9326.594869,-459.657299
3316.908052,-1480.411884,-9326.594869,0.000000
3316.908380,-814.226536,-9178.553681,-919.314598
3316.908707,-1628.453072,-9474.636058,-766.095498
3316.909035,-2368.659014,-11399.171507,0.000000
3316.909362,-740.205942,-11547.212695,459.657299
3316.909690,1110.308913,-10436.903782,-919.314598
3316.910018,518.144159,-9696.697840,-842.705048
3316.910345,-1628.453072,-9622.677246,766.095498
3316.910673,-2072.576638,-7328.038826,612.876398
3316.911000,-1628.453072,-6883.915261,689.485948
3316.911328,0.000000,-6291.750507,689.485948
3316.911655,-296.082377,-6217.729913,1072.533697
3316.911983,-1702.473667,-10732.986159,1915.238745
3316.912310,-1332.370696,-12139.377449,153.219100
3316.912638,1702.473667,-11473.192101,-2757.943793
3316.912965,1850.514855,-10732.986159,-2298.286494
3316.913293,444.123565,-12287.418637,306.438199
3316.913620,74.020594,-11547.212695,1608.800546
3316.913948,-370.102971,-9252.574275,153.219100
3316.914276,-1702.473667,-8512.368333,-1762.019645
3316.914603,-2072.576638,-8290.306550,-2145.067394
3316.914931,-2442.679609,-8586.388927,-229.828649
3316.915258,-888.247130,-8660.409521,842.705048
3316.915586,1850.514855,-9178.553681,0.000000
3316.915913,2886.803174,-10288.862594,-842.705048
3316.916241,3849.070898,-11251.130318,-1072.533697
3316.916568,4145.153275,-11843.295072,-229.828649
3316.916896,3034.844362,-11325.150913,-459.657299
3316.917223,1776.494261,-11177.109724,0.000000
3316.917551,1110.308913,-10362.883188,0.000000
3316.917879,2072.576638,-9030.512492,-995.924147
3316.918206,666.185348,-9844.739029,459.657299
3316.918534,0.000000,-9770.718434,919.314598
3316.918861,1258.350101,-9770.718434,-612.876398
3316.919189,2294.638420,-8586.388927,-2298.286494
3316.919516,2220.617826,-10362.883188,-1149.143247
3316.919844,1554.432478,-11177.109724,1532.190996
3316.920171,1628.453072,-7402.059420,995.924147
3316.920499,2072.576638,-8068.244768,-306.438199
3316.920826,1776.494261,-10732.986159,-612.876398
3316.921154,814.226536,-9844.739029,842.705048
3316.921482,-518.144159,-8660.409521,1838.629195
3316.921809,-888.247130,-8438.347739,153.219100
3316.922137,148.041188,-9992.780217,-2451.505594
3316.922464,666.185348,-10658.965565,-2987.772442
3316.922792,0.000000,-9622.677246,-306.438199
3316.923119,592.164754,-8882.471304,76.609550
3316.923447,444.123565,-7772.162391,76.609550
3316.923774,518.144159,-9844.739029,1072.533697
3316.924102,740.205942,-8808.450710,1149.143247
3316.924429,-592.164754,-9030.512492,1991.848295
3316.924757,-2294.638420,-9770.718434,1072.533697
3316.925085,-1628.453072,-11103.089130,-995.924147
3316.925412,-1184.329507,-8290.306550,-3830.477490
3316.925740,-296.082377,-8660.409521,-3677.258390
3316.926067,-962.267725,-12287.418637,1302.362347
3316.926395,0.000000,-12287.418637,1762.019645
3316.926722,0.000000,-10584.944971,-383.047749
3316.927050,-740.205942,-10658.965565,-2221.676944
3316.927377,-2072.576638,-10362.883188,-2221.676944
3316.927705,-2072.576638,-9474.636058,-995.924147
3316.928032,-1332.370696,-8586.388927,76.609550
3316.928360,0.000000,-9030.512492,0.000000
3316.928687,1258.350101,-9474.636058,229.828649
3316.929015,1332.370696,-9474.636058,1532.190996
3316.929343,1480.411884,-10214.842000,1991.848295
3316.929670,962.267725,-9326.594869,153.219100
3316.929998,-814.226536,-8586.388927,-1378.971896
3316.930325,-814.226536,-9474.636058,-1072.533697
3316.930653,518.144159,-9474.636058,0.000000
3316.930980,1628.453072,-8438.347739,612.876398
3316.931308,148.041188,-9178.553681,2298.286494
3316.931635,0.000000,-10288.862594,766.095498
3316.931963,1480.411884,-9622.677246,-1072.533697
3316.932290,2294.638420,-10214.842000,-1685.410096
3316.932618,2590.720797,-9474.636058,153.219100
3316.932946,1480.411884,-9104.533087,1915.238745
3316.933273,1184.329507,-9178.553681,2068.457845
3316.933601,518.144159,-6883.915261,229.828649
3316.933928,148.041188,-9326.594869,-383.047749
3316.934256,-2146.597232,-10066.800811,-612.876398
3316.934583,-2146.597232,-9178.553681,-2145.067394
3316.934911,666.185348,-8438.347739,-2298.286494
3316.935238,2072.576638,-10436.903782,-1685.410096
3316.935566,2146.597232,-12879.583391,1072.533697
3316.935893,3552.988522,-10807.006753,1149.143247
3316.936221,3997.112087,-9992.780217,76.609550
3316.936549,2812.782580,-12731.542202,-229.828649
3316.936876,1036.288319,-10584.944971,-306.438199
3316.937204,370.102971,-8512.368333,-689.485948
3316.937531,-370.102971,-8068.244768,-766.095498
3316.937859,592.164754,-10140.821405,-1072.533697
3316.938186,444.123565,-10436.903782,-612.876398
3316.938514,148.041188,-9696.697840,-229.828649
3316.938841,1406.391290,-9474.636058,-536.266849
3316.939169,1628.453072,-9992.780217,-1149.143247
3316.939496,1406.391290,-11769.274478,229.828649
3316.939824,814.226536,-10955.047942,459.657299
3316.940151,444.123565,-9104.533087,-612.876398
3316.940479,-814.226536,-8882.471304,-842.705048
3316.940807,-2220.617826,-10140.821405,153.219100
3316.941134,-1924.535449,-8956.491898,-536.266849
3316.941462,-2220.617826,-7031.956449,-1072.533697
3316.941789,-1924.535449,-8438.347739,0.000000
3316.942117,-1110.308913,-9622.677246,-919.314598
3316.942444,-1628.453072,-9326.594869,-689.485948
3316.942772,-814.226536,-8290.306550,0.000000
3316.943099,1702.473667,-8734.430116,0.000000
3316.943427,1406.391290,-9992.780217,1685.410096
3316.943754,-814.226536,-10140.821405,3064.381992
3316.944082,-888.247130,-10510.924376,919.314598
3316.944410,0.000000,-10584.944971,-1838.629195
3316.944737,-1036.288319,-8660.409521,-3064.381992
3316.945065,-1036.288319,-9770.718434,-1685.410096
3316.945392,-1776.494261,-9400.615463,-459.657299
3316.945720,-1998.556043,-11399.171507,536.266849
3316.946047,0.000000,-9326.594869,-1072.533697
3316.946375,1480.411884,-9030.512492,-2451.505594
3316.946702,-222.061783,-10807.006753,0.000000
3316.947030,-666.185348,-9252.574275,612.876398
3316.947357,444.123565,-8808.450710,-306.438199
3316.947685,1924.535449,-10214.842000,-2221.676944
3316.948013,1776.494261,-11473.192101,0.000000
3316.948340,1332.370696,-10140.821405,1685.410096
3316.948668,962.267725,-9400.615463,919.314598
3316.948995,444.123565,-10881.027347,229.828649
3316.949323,0.000000,-10510.924376,-1915.238745
3316.949650,0.000000,-9548.656652,-2298.286494
3316.949978,0.000000,-10436.903782,-1149.143247
3316.950305,1332.370696,-9178.553681,536.266849
3316.950633,2368.659014,-7402.059420,1225.752797
3316.950960,2072.576638,-8512.368333,1608.800546
3316.951288,296.082377,-10881.027347,1149.143247
3316.951616,0.000000,-9622.677246,0.000000
3316.951943,1480.411884,-8142.265362,-1072.533697
3316.952271,2516.700203,-9474.636058,-612.876398
3316.952598,2442.679609,-10658.965565,1149.143247
3316.952926,2220.617826,-11177.109724,1991.848295
3316.953253,1850.514855,-10362.883188,612.876398
3316.953581,1628.453072,-9474.636058,-766.095498
3316.953908,370.102971,-9622.677246,-459.657299
3316.954236,-1332.370696,-7994.224174,459.657299
3316.954563,-1702.473667,-8586.388927,1225.752797
3316.954891,-1628.453072,-8364.327145,-536.266849
3316.955218,-814.226536,-8808.450710,-842.705048
3316.955546,0.000000,-8660.409521,-766.095498
3316.955874,370.102971,-8660.409521,-383.047749
3316.956201,296.082377,-10510.924376,0.000000
3316.956529,592.164754,-11695.253884,-842.705048
3316.956856,740.205942,-10658.965565,-1762.019645
3316.957184,1036.288319,-9992.780217,-1302.362347
3316.957511,1184.329507,-11695.253884,-153.219100
3316.957839,370.102971,-11843.295072,919.314598
3316.958166,222.061783,-10584.944971,153.219100
3316.958494,148.041188,-9770.718434,-1072.533697
3316.958821,-518.144159,-9326.594869,-1302.362347
3316.959149,-814.226536,-8882.471304,76.609550
3316.959477,-518.144159,-8956.491898,306.438199
3316.959804,-370.102971,-9400.615463,0.000000
3316.960132,1110.308913,-10362.883188,-919.314598
3316.960459,222.061783,-9622.677246,-1072.533697
3316.960787,-444.123565,-9030.512492,76.609550
3316.961114,-1184.329507,-9474.636058,0.000000
3316.961442,-2220.617826,-10955.047942,153.219100
3316.961769,-1554.432478,-10066.800811,-995.924147
3316.962097,-962.267725,-9622.677246,-2145.067394
3316.962424,-1258.350101,-9104.533087,-1302.362347
3316.962752,-1406.391290,-9252.574275,459.657299
3316.963080,0.000000,-8142.265362,459.657299
3316.963407,592.164754,-7846.182985,459.657299
3316.963735,0.000000,-9992.780217,766.095498
3316.964062,-962.267725,-8734.430116,76.609550
3316.964390,-518.144159,-6809.894666,-459.657299
3316.964717,222.061783,-8068.244768,-612.876398
3316.965045,1406.391290,-10436.903782,306.438199
3316.965372,444.123565,-11695.253884,2374.896044
3316.965700,1332.370696,-10584.944971,689.485948
3316.966027,1406.391290,-9548.656652,-1838.629195
3316.966355,1480.411884,-11029.068536,-2145.067394
3316.966683,-666.185348,-9844.739029,-1225.752797
3316.967010,-1036.288319,-9178.553681,0.000000
3316.967338,-814.226536,-7920.203579,-995.924147
3316.967665,-592.164754,-9252.574275,-536.266849
3316.967993,1036.288319,-10584.944971,536.266849
3316.968320,2664.741391,-9474.636058,-229.828649
3316.968648,2294.638420,-10807.006753,-153.219100
3316.968975,1184.329507,-11029.068536,-153.219100
3316.969303,1036.288319,-10436.903782,-459.657299
3316.969630,1702.473667,-9548.656652,-919.314598
3316.969958,2368.659014,-8438.347739,-612.876398
3316.970285,2442.679609,-8660.409521,766.095498
3316.970613,814.226536,-10214.842000,1991.848295
3316.970941,-592.164754,-11769.274478,919.314598
3316.971268,0.000000,-10658.965565,-1685.410096
3316.971596,-296.082377,-8956.491898,-2374.896044
3316.971923,0.000000,-10214.842000,-995.924147
3316.972251,1184.329507,-10288.862594,0.000000
3316.972578,2886.803174,-9474.636058,766.095498
3316.972906,3330.926739,-8956.491898,995.924147
3316.973233,2146.597232,-8808.450710,2145.067394
3316.973561,-222.061783,-7698.141797,2298.286494
3316.973888,-1554.432478,-7402.059420,536.266849
3316.974216,-1702.473667,-8808.450710,0.000000
3316.974544,-2368.659014,-9474.636058,-1762.019645
3316.974871,-1036.288319,-10436.903782,-2221.676944
3316.975199,0.000000,-10362.883188,-1302.362347
3316.975526,370.102971,-10584.944971,-459.657299
3316.975854,1776.494261,-11621.233289,0.000000
3316.976181,1110.308913,-10066.800811,153.219100
3316.976509,370.102971,-8956.491898,-306.438199
3316.976836,148.041188,-8956.491898,-919.314598
3316.977164,0.000000,-9770.718434,536.266849
3316.977491,444.123565,-9474.636058,1685.410096
3316.977819,740.205942,-8438.347739,536.266849
3316.978147,-296.082377,-9992.780217,0.000000
3316.978474,-1036.288319,-9844.739029,-1302.362347
3316.978802,148.041188,-10732.986159,-2451.505594
3316.979129,740.205942,-10140.821405,-2681.334243
3316.979457,666.185348,-10288.862594,-1149.143247
3316.979784,370.102971,-11325.150913,612.876398
3316.980112,518.144159,-10288.862594,842.705048
3316.980439,74.020594,-9178.553681,76.609550
3316.980767,-888.247130,-8734.430116,-536.266849
3316.981094,-1924.535449,-9400.615463,-612.876398
3316.981422,-2072.576638,-9622.677246,-536.266849
3316.981750,-1184.329507,-8586.388927,-1762.019645
3316.982077,-740.205942,-9474.636058,-1532.190996
3316.982405,74.020594,-9770.718434,-1149.143247
3316.982732,592.164754,-8882.471304,229.828649
3316.983060,518.144159,-9030.512492,612.876398
3316.983387,-518.144159,-11177.109724,612.876398
3316.983715,-740.205942,-10881.027347,-612.876398
3316.984042,370.102971,-8290.306550,-1685.410096
3316.984370,1554.432478,-9400.615463,-306.438199
3316.984697,1036.288319,-10214.842000,2451.505594
3316.985025,666.185348,-10510.924376,3140.991542
3316.985353,1998.556043,-8808.450710,995.924147
3316.985680,1702.473667,-9030.512492,-2451.505594
3316.986008,0.000000,-9548.656652,-1378.971896
3316.986335,-1332.370696,-7550.100608,-766.095498
3316.986663,-1554.432478,-8586.388927,229.828649
3316.986990,0.000000,-10214.842000,-689.485948
3316.987318,1110.308913,-9770.718434,-536.266849
3316.987645,1554.432478,-10881.027347,995.924147
3316.987973,1850.514855,-10658.965565,689.485948
3316.988300,3108.864956,-10288.862594,536.266849
3316.988628,2516.700203,-10066.800811,0.000000
3316.988956,1406.391290,-10658.965565,0.000000
3316.989283,518.144159,-8882.471304,0.000000
3316.989611,1036.288319,-7994.224174,995.924147
3316.989938,1036.288319,-8438.347739,1149.143247
3316.990266,222.061783,-8586.388927,153.219100
3316.990593,-2072.576638,-10510.924376,-383.047749
3316.990921,-1480.411884,-11843.295072,-1378.971896
3316.991248,592.164754,-10732.986159,-2528.115143
3316.991576,1998.556043,-9844.739029,-2374.896044
3316.991903,1998.556043,-10214.842000,153.219100
3316.992231,2368.659014,-9844.739029,1378.971896
3316.992559,2220.617826,-9178.553681,1072.533697
3316.992886,888.247130,-9844.739029,1455.581446
3316.993214,74.020594,-9696.697840,153.219100
3316.993541,-296.082377,-7698.141797,-919.314598
3316.993869,-1850.514855,-8882.471304,76.609550
3316.994196,-2072.576638,-10362.883188,0.000000
3316.994524,-1110.308913,-10288.862594,-459.657299
3316.994851,666.185348,-10214.842000,-1838.629195
3316.995179,888.247130,-8808.450710,-2221.676944
3316.995506,0.000000,-9400.615463,459.657299
3316.995834,-962.267725,-9844.739029,1455.581446
3316.996162,0.000000,-8586.388927,306.438199
3316.996489,0.000000,-7550.100608,-1608.800546
3316.996817,296.082377,-9252.574275,-689.485948
3316.997144,-666.185348,-11695.253884,1838.629195
3316.997472,148.041188,-11251.130318,612.876398
3316.997799,296.082377,-10066.800811,-1685.410096
3316.998127,0.000000,-11103.089130,-2757.943793
3316.998454,222.061783,-10658.965565,-1915.238745
3316.998782,814.226536,-9400.615463,-383.047749
3316.999109,666.185348,-8734.430116,1455.581446
3316.999437,1036.288319,-8586.388927,1302.362347
3316.999765,740.205942,-9474.636058,842.705048
3317.000092,444.123565,-10214.842000,1225.752797
3317.000420,-296.082377,-9178.553681,0.000000
3317.000747,-814.226536,-9326.594869,-1072.533697
3317.001075,-592.164754,-10955.047942,-2374.896044
3317.001402,-222.061783,-10732.986159,-1608.800546
3317.001730,0.000000,-10510.924376,-1149.143247
3317.002057,74.020594,-9178.553681,-919.314598
3317.002385,222.061783,-10362.883188,229.828649
3317.002712,740.205942,-10584.944971,76.609550
3317.003040,0.000000,-7698.141797,689.485948
3317.003368,-740.205942,-8142.265362,1685.410096
3317.003695,-1110.308913,-9844.739029,459.657299
3317.004023,-222.061783,-8734.430116,-306.438199
3317.004350,1628.453072,-7550.100608,-612.876398
3317.004678,2812.782580,-8956.491898,0.000000
3317.005005,1036.288319,-11399.171507,1991.848295
3317.005333,592.164754,-10362.883188,1685.410096
3317.005660,296.082377,-9400.615463,-1149.143247
3317.005988,592.164754,-9770.718434,-2221.676944
3317.006315,-666.185348,-10140.821405,-1225.752797
3317.006643,-1480.411884,-9400.615463,229.828649
3317.006971,518.144159,-9548.656652,0.000000
3317.007298,2590.720797,-10658.965565,-766.095498
3317.007626,666.185348,-9474.636058,0.000000
3317.007953,888.247130,-9548.656652,995.924147
3317.008281,814.226536,-8808.450710,612.876398
3317.008608,666.185348,-8512.368333,-612.876398
3317.008936,444.123565,-8586.388927,-1072.533697
3317.009263,666.185348,-10214.842000,-766.095498
3317.009591,1036.288319,-10732.986159,1149.143247
3317.009918,2368.659014,-8142.265362,689.485948
3317.010246,1628.453072,-9696.697840,536.266849
3317.010574,0.000000,-11843.295072,76.609550
3317.010901,-888.247130,-11177.109724,-1685.410096
3317.011229,370.102971,-10881.027347,-2451.505594
3317.011556,0.000000,-9252.574275,-1302.362347
3317.011884,0.000000,-9474.636058,0.000000
3317.012211,74.020594,-10436.903782,919.314598
3317.012539,0.000000,-9400.615463,-153.219100
3317.012866,222.061783,-8956.491898,-1072.533697
3317.013194,-370.102971,-9622.677246,-612.876398
3317.013521,0.000000,-9696.697840,0.000000
3317.013849,814.226536,-8290.306550,-229.828649
3317.014177,592.164754,-9030.512492,995.924147
3317.014504,-296.082377,-10140.821405,1378.971896
3317.014832,-296.082377,-10436.903782,766.095498
3317.015159,0.000000,-9252.574275,-995.924147
3317.015487,-814.226536,-8734.430116,-2068.457845
3317.015814,-1480.411884,-9918.759623,-536.266849
3317.016142,-1332.370696,-9844.739029,-306.438199
3317.016469,296.082377,-8734.430116,-766.095498
3317.016797,1850.514855,-8660.409521,-995.924147
3317.017124,888.247130,-10510.924376,766.095498
3317.017452,592.164754,-10955.047942,2145.067394
3317.017780,962.267725,-9474.636058,0.000000
3317.018107,0.000000,-8882.471304,-1302.362347
3317.018435,0.000000,-9030.512492,-1225.752797
3317.018762,148.041188,-9474.636058,-536.266849
3317.019090,74.020594,-9918.759623,1072.533697
3317.019417,148.041188,-8882.471304,459.657299
3317.019745,518.144159,-9326.594869,-1225.752797
3317.020072,888.247130,-11029.068536,-2145.067394
3317.020400,1332.370696,-10510.924376,-1378.971896
3317.020727,888.247130,-9992.780217,0.000000
3317.021055,-888.247130,-11621.233289,689.485948
3317.021383,-296.082377,-11177.109724,-766.095498
3317.021710,0.000000,-8290.306550,-2451.505594
3317.022038,-592.164754,-9474.636058,-229.828649
3317.022365,-222.061783,-11029.068536,229.828649
3317.022693,-962.267725,-8956.491898,1149.143247
3317.023020,-518.144159,-8216.285956,76.609550
3317.023348,0.000000,-10807.006753,-1378.971896
3317.023675,0.000000,-11769.274478,-689.485948
3317.024003,666.185348,-8660.409521,-842.705048
3317.024330,1332.370696,-7476.080014,0.000000
3317.024658,2294.638420,-10732.986159,383.047749
3317.024986,1110.308913,-11399.171507,2834.553343
3317.025313,1998.556043,-9622.677246,2604.724693
3317.025641,814.226536,-8290.306550,76.609550
3317.025968,-740.205942,-9400.615463,-1838.629195
3317.026296,-1258.350101,-8216.285956,-1225.752797
3317.026623,-1332.370696,-7105.977043,0.000000
3317.026951,-222.061783,-8808.450710,229.828649
3317.027278,444.123565,-9992.780217,612.876398
3317.027606,74.020594,-9474.636058,1072.533697
3317.027933,1554.432478,-9918.759623,-459.657299
3317.028261,1258.350101,-10732.986159,-306.438199
3317.028589,592.164754,-10288.862594,229.828649
3317.028916,370.102971,-9548.656652,-229.828649
3317.029244,1258.350101,-9252.574275,0.000000
3317.029571,2812.782580,-8216.285956,153.219100
3317.029899,2516.700203,-7846.182985,1225.752797
3317.030226,148.041188,-10510.924376,1991.848295
3317.030554,-1924.535449,-11103.089130,-229.828649
3317.030881,-666.185348,-9474.636058,-3753.867940
3317.031209,0.000000,-10362.883188,-3907.087040
3317.031536,296.082377,-11547.212695,-1532.190996
3317.031864,666.185348,-10140.821405,766.095498
3317.032192,1554.432478,-11177.109724,1149.143247
3317.032519,1924.535449,-11325.150913,0.000000
3317.032847,1776.494261,-9548.656652,-1378.971896
3317.033174,296.082377,-9622.677246,383.047749
3317.033502,222.061783,-7994.224174,842.705048
3317.033829,-592.164754,-8586.388927,1532.190996
3317.034157,-296.082377,-8734.430116,306.438199
3317.034484,-1036.288319,-10214.842000,-153.219100
3317.034812,-1110.308913,-10140.821405,-459.657299
3317.035139,-962.267725,-8808.450710,-1915.238745
3317.035467,-1702.473667,-10658.965565,-1302.362347
3317.035795,0.000000,-10658.965565,-1762.019645
3317.036122,1258.350101,-9326.594869,-1915.238745
3317.036450,962.267725,-9326.594869,1302.362347
3317.036777,666.185348,-8956.491898,2221.676944
3317.037105,0.000000,-9918.759623,2145.067394
3317.037432,0.000000,-8808.450710,612.876398
3317.037760,-296.082377,-8956.491898,-1455.581446
3317.038087,-740.205942,-9474.636058,-1762.019645
3317.038415,-296.082377,-9770.718434,-842.705048
3317.038742,814.226536,-9770.718434,-383.047749
3317.039070,1998.556043,-9400.615463,0.000000
3317.039398,814.226536,-9696.697840,76.609550
3317.039725,1184.329507,-9696.697840,306.438199
3317.040053,296.082377,-9918.759623,536.266849
3317.040380,1184.329507,-10140.821405,-153.219100
3317.040708,1184.329507,-9844.739029,0.000000
3317.041035,518.144159,-9992.780217,-306.438199
3317.041363,-740.205942,-9326.594869,-1378.971896
3317.041690,-1036.288319,-10436.903782,-766.095498
3317.042018,740.205942,-10214.842000,-1915.238745
3317.042345,370.102971,-9770.718434,-1915.238745
3317.042673,-1184.329507,-9770.718434,1149.143247
3317.043001,-1406.391290,-8882.471304,536.266849
3317.043328,-1480.411884,-9992.780217,-383.047749
3317.043656,0.000000,-10658.965565,-1149.143247
3317.043983,1480.411884,-9474.636058,-1532.190996
3317.044311,1480.411884,-11029.068536,76.609550
3317.044638,592.164754,-10807.006753,2068.457845
3317.044966,1850.514855,-10288.862594,766.095498
3317.045293,2664.741391,-8586.388927,-612.876398
3317.045621,0.000000,-9400.615463,-459.657299
3317.045948,-1628.453072,-8808.450710,306.438199
3317.046276,-888.247130,-7402.059420,-689.485948
3317.046604,-666.185348,-8808.450710,229.828649
3317.046931,-962.267725,-9030.512492,995.924147
3317.047259,296.082377,-9252.574275,2145.067394
3317.047586,2220.617826,-9844.739029,0.000000
3317.047914,1554.432478,-11029.068536,0.000000
3317.048241,962.267725,-9622.677246,-536.266849
3317.048569,1406.391290,-8290.306550,-1225.752797
3317.048896,1480.411884,-9252.574275,0.000000
3317.049224,2072.576638,-7624.121203,842.705048
3317.049551,1628.453072,-7550.100608,1762.019645
3317.049879,370.102971,-8882.471304,2374.896044
3317.050207,-444.123565,-11547.212695,76.609550
3317.050534,-740.205942,-11917.315666,-2298.286494
3317.050862,222.061783,-10658.965565,-3677.258390
3317.051189,740.205942,-11029.068536,-2068.457845
3317.051517,1702.473667,-9622.677246,-612.876398
3317.051844,2072.576638,-8512.368333,766.095498
3317.052172,1480.411884,-10584.944971,2145.067394
3317.052499,518.144159,-8734.430116,919.314598
3317.052827,-296.082377,-9992.780217,229.828649
3317.053154,-740.205942,-8734.430116,-766.095498
3317.053482,-1184.329507,-7920.203579,-1455.581446
3317.053810,-444.123565,-10955.047942,-1072.533697
3317.054137,-518.144159,-11177.109724,0.000000
3317.054465,666.185348,-11917.315666,0.000000
3317.054792,1702.473667,-10436.903782,-2528.115143
3317.055120,370.102971,-10140.821405,-1915.238745
3317.055447,-148.041188,-10436.903782,229.828649
3317.055775,-666.185348,-7772.162391,536.266849
3317.056102,0.000000,-7698.141797,766.095498
3317.056430,814.226536,-9474.636058,306.438199
3317.056757,0.000000,-10658.965565,1608.800546
3317.057085,-814.226536,-10362.883188,1149.143247
3317.057413,74.020594,-9696.697840,-1225.752797
3317.057740,296.082377,-9548.656652,-2681.334243
3317.058068,814.226536,-10288.862594,-1532.190996
3317.058395,1480.411884,-10066.800811,229.828649
3317.058723,1184.329507,-9178.553681,1455.581446
3317.059050,296.082377,-8660.409521,2068.457845
3317.059378,1036.288319,-9030.512492,612.876398
3317.059705,-296.082377,-9770.718434,153.219100
3317.060033,-962.267725,-9770.718434,153.219100
3317.060360,-888.247130,-8660.409521,-536.266849
3317.060688,-592.164754,-9696.697840,-1532.190996
3317.061016,592.164754,-9918.759623,-2221.676944
3317.061343,518.144159,-9622.677246,-306.438199
3317.061671,1110.308913,-10584.944971,842.705048
3317.061998,518.144159,-8660.409521,459.657299
3317.062326,-370.102971,-9400.615463,919.314598
3317.062653,-1110.308913,-9696.697840,383.047749
3317.062981,-888.247130,-9770.718434,-612.876398
3317.063308,0.000000,-9918.759623,-1072.533697
3317.063636,1332.370696,-10362.883188,-1915.238745
3317.063963,2146.597232,-10955.047942,-1915.238745
3317.064291,2368.659014,-10732.986159,536.266849
3317.064619,2146.597232,-10732.986159,1685.410096
3317.064946,2738.761985,-10584.944971,76.609550
3317.065274,222.061783,-9474.636058,-995.924147
3317.065601,-1850.514855,-8882.471304,-1149.143247
3317.065929,-1480.411884,-6957.935855,-689.485948
3317.066256,-222.061783,-9326.594869,-229.828649
3317.066584,-1184.329507,-10140.821405,919.314598
3317.066911,74.020594,-9918.759623,842.705048
3317.067239,2368.659014,-9770.718434,-1149.143247
3317.067566,2442.679609,-11547.212695,-1455.581446
3317.067894,1258.350101,-10881.027347,-1072.533697
3317.068222,222.061783,-7254.018232,306.438199
3317.068549,0.000000,-7476.080014,153.219100
3317.068877,1702.473667,-9474.636058,383.047749
3317.069204,1776.494261,-8216.285956,1532.190996
3317.069532,0.000000,-9326.594869,2528.115143
3317.069859,-1924.535449,-11473.192101,459.657299
3317.070187,-222.061783,-10881.027347,-2834.553343
3317.070514,0.000000,-9326.594869,-3907.087040
3317.070842,592.164754,-10436.903782,-1378.971896
3317.071170,518.144159,-10955.047942,1072.533697
3317.071498,0.000000,-8660.409521,1532.190996
3317.071825,592.164754,-8364.327145,383.047749
3317.072153,222.061783,-9918.759623,-612.876398
3317.072481,-962.267725,-10214.842000,229.828649
3317.072809,-814.226536,-8956.491898,0.000000
3317.073136,-666.185348,-9030.512492,-229.828649
3317.073464,1554.432478,-9844.739029,-1378.971896
3317.073792,1406.391290,-10288.862594,-459.657299
3317.074119,888.247130,-11029.068536,1838.629195
3317.074447,592.164754,-9474.636058,0.000000
3317.074775,-814.226536,-9474.636058,-1302.362347
3317.075103,-1332.370696,-9918.759623,-1915.238745
3317.075430,-1110.308913,-8808.450710,-1991.848295
3317.075758,-518.144159,-9400.615463,-153.219100
3317.076086,222.061783,-9992.780217,995.924147
3317.076414,888.247130,-10807.006753,612.876398
3317.076741,2368.659014,-11473.192101,-383.047749
3317.077069,1258.350101,-10288.862594,-229.828649
3317.077397,1258.350101,-9622.677246,-459.657299
3317.077725,-444.123565,-7624.121203,306.438199
3317.078052,518.144159,-9178.553681,0.000000
3317.078380,1110.308913,-9474.636058,153.219100
3317.078708,148.041188,-8956.491898,1378.971896
3317.079036,-370.102971,-9178.553681,919.314598
3317.079363,0.000000,-9918.759623,-383.047749
3317.079691,1036.288319,-10807.006753,-1149.143247
3317.080019,1406.391290,-9992.780217,-1762.019645
3317.080347,888.247130,-9548.656652,0.000000
3317.080674,1332.370696,-9474.636058,0.000000
3317.081002,666.185348,-9400.615463,-536.266849
3317.081330,740.205942,-9770.718434,536.266849
3317.081657,814.226536,-9474.636058,536.266849
3317.081985,-888.247130,-8512.368333,1685.410096
3317.082313,-2664.741391,-9252.574275,1455.581446
3317.082641,-1702.473667,-9696.697840,-1762.019645
3317.082968,0.000000,-9918.759623,-3064.381992
3317.083296,1480.411884,-9622.677246,-2221.676944
3317.083624,1998.556043,-9918.759623,229.828649
3317.083952,1480.411884,-10362.883188,2145.067394
3317.084279,1702.473667,-10658.965565,1838.629195
3317.084607,2442.679609,-11399.171507,0.000000
3317.084935,444.123565,-10732.986159,-306.438199
3317.085263,-1258.350101,-9178.553681,229.828649
3317.085590,-2516.700203,-6883.915261,-842.705048
3317.085918,-1776.494261,-8438.347739,-1225.752797
3317.086246,-1184.329507,-9474.636058,-689.485948
3317.086574,222.061783,-10140.821405,1532.190996
3317.086901,1480.411884,-10362.883188,919.314598
3317.087229,1628.453072,-10584.944971,-766.095498
3317.087557,518.144159,-10658.965565,-612.876398
3317.087884,0.000000,-8438.347739,-919.314598
3317.088212,222.061783,-9030.512492,-153.219100
3317.088540,1184.329507,-10140.821405,612.876398
3317.088868,1998.556043,-8438.347739,2298.286494
3317.089195,1480.411884,-7920.203579,2145.067394
3317.089523,0.000000,-9548.656652,229.828649
3317.089851,-2368.659014,-11029.068536,-766.095498
3317.090179,-1480.411884,-10066.800811,-2681.334243
3317.090506,-592.164754,-9178.553681,-3447.429741
3317.090834,296.082377,-10584.944971,-2451.505594
3317.091162,74.020594,-9474.636058,919.314598
3317.091490,666.185348,-9770.718434,1762.019645
3317.091817,1258.350101,-10584.944971,995.924147
3317.092145,518.144159,-10288.862594,0.000000
3317.092473,222.061783,-8956.491898,-919.314598
3317.092801,-222.061783,-8142.265362,-842.705048
3317.093128,444.123565,-9252.574275,842.705048
3317.093456,148.041188,-8956.491898,0.000000
3317.093784,-666.185348,-11251.130318,842.705048
3317.094111,-444.123565,-11325.150913,-689.485948
3317.094439,-518.144159,-9622.677246,-2221.676944
3317.094767,-370.102971,-10362.883188,-2298.286494
3317.095095,-888.247130,-10881.027347,-1455.581446
3317.095422,518.144159,-8882.471304,-919.314598
3317.095750,2368.659014,-8290.306550,0.000000
3317.096078,1850.514855,-10584.944971,2374.896044
3317.096406,1850.514855,-10584.944971,2451.505594
3317.096733,592.164754,-9474.636058,536.266849
3317.097061,222.061783,-9770.718434,-383.047749
3317.097389,-592.164754,-8734.430116,-1225.752797
3317.097717,0.000000,-8956.491898,0.000000
3317.098044,0.000000,-9474.636058,76.609550
3317.098372,-222.061783,-10066.800811,459.657299
3317.098700,1998.556043,-10807.006753,-612.876398
3317.099028,2072.576638,-10066.800811,-536.266849
3317.099355,1332.370696,-10658.965565,1378.971896
3317.099683,1110.308913,-7994.224174,536.266849
3317.100011,-444.123565,-9548.656652,306.438199
3317.100338,-666.185348,-9918.759623,153.219100
3317.100666,-222.061783,-9104.533087,-2068.457845
3317.100994,148.041188,-9400.615463,-842.705048
3317.101322,0.000000,-9696.697840,153.219100
3317.101649,-1184.329507,-9696.697840,306.438199
3317.101977,-1702.473667,-9622.677246,-306.438199
3317.102305,0.000000,-10214.842000,-1532.190996
3317.102633,666.185348,-9844.739029,-1072.533697
3317.102960,962.267725,-8882.471304,-612.876398
3317.103288,740.205942,-9178.553681,1149.143247
3317.103616,1332.370696,-9918.759623,2221.676944
3317.103944,1628.453072,-10658.965565,1455.581446
3317.104271,1110.308913,-10436.903782,0.000000
3317.104599,-962.267725,-9622.677246,-383.047749
3317.104927,-148.041188,-7772.162391,-2068.457845
3317.105255,0.000000,-7772.162391,-2681.334243
3317.105582,-1406.391290,-10436.903782,0.000000
3317.105910,-1554.432478,-9918.759623,1072.533697
3317.106238,-444.123565,-9622.677246,766.095498
3317.106566,1702.473667,-10362.883188,0.000000
3317.106893,1258.350101,-11251.130318,-1685.410096
3317.107221,148.041188,-10807.006753,0.000000
3317.107549,74.020594,-9030.512492,0.000000
3317.107876,444.123565,-9474.636058,-842.705048
3317.108204,2146.597232,-8808.450710,76.609550
3317.108532,1924.535449,-7846.182985,2145.067394
3317.108860,962.267725,-8660.409521,3370.820191
3317.109187,-518.144159,-9474.636058,383.047749
3317.109515,-2738.761985,-10732.986159,-1608.800546
3317.109843,-888.247130,-11029.068536,-4213.525239
3317.110171,370.102971,-10362.883188,-3140.991542
3317.110498,1110.308913,-11029.068536,383.047749
3317.110826,370.102971,-9844.739029,2298.286494
3317.111154,2072.576638,-9252.574275,1455.581446
3317.111482,3478.967927,-9400.615463,-919.314598
3317.111809,1554.432478,-10288.862594,-306.438199
3317.112137,-1924.535449,-7920.203579,1532.190996
3317.112465,-1850.514855,-5699.585753,153.219100
3317.112793,-518.144159,-8512.368333,-459.657299
3317.113120,444.123565,-11029.068536,-1225.752797
3317.113448,-296.082377,-11843.295072,459.657299
3317.113776,-148.041188,-11251.130318,766.095498
3317.114103,888.247130,-9696.697840,-2757.943793
3317.114431,1776.494261,-10140.821405,-2451.505594
3317.114759,222.061783,-9548.656652,-842.705048
3317.115087,296.082377,-8808.450710,1302.362347
3317.115414,1554.432478,-9030.512492,1455.581446
3317.115742,1036.288319,-9030.512492,919.314598
3317.116070,-148.041188,-11029.068536,1302.362347
3317.116398,-444.123565,-11103.089130,0.000000
3317.116725,-1480.411884,-8956.491898,-1991.848295
3317.117053,-370.102971,-9474.636058,-2374.896044
3317.117381,740.205942,-9918.759623,-2528.115143
3317.117709,2294.638420,-11843.295072,-612.876398
3317.118036,1332.370696,-10066.800811,1378.971896
3317.118364,1776.494261,-9178.553681,689.485948
3317.118692,1036.288319,-9326.594869,459.657299
3317.119020,518.144159,-9992.780217,153.219100
3317.119347,814.226536,-9104.533087,-612.876398
3317.119675,148.041188,-9252.574275,0.000000
3317.120003,74.020594,-11473.192101,-306.438199
3317.120330,0.000000,-10362.883188,-1149.143247
3317.120658,296.082377,-8512.368333,0.000000
3317.120986,0.000000,-8882.471304,-919.314598
3317.121314,-518.144159,-10584.944971,383.047749
3317.121641,-148.041188,-9770.718434,689.485948
3317.121969,296.082377,-7772.162391,76.609550
3317.122297,814.226536,-8290.306550,689.485948
3317.122625,814.226536,-9474.636058,1838.629195
3317.122952,-296.082377,-8660.409521,1915.238745
3317.123280,-2368.659014,-9178.553681,1532.190996
3317.123608,-1702.473667,-9326.594869,-1838.629195
3317.123936,-740.205942,-10807.006753,-3753.867940
3317.124263,-370.102971,-10955.047942,-2221.676944
3317.124591,1036.288319,-10140.821405,-536.266849
3317.124919,666.185348,-10658.965565,-383.047749
3317.125247,-740.205942,-11843.295072,1378.971896
3317.125574,148.041188,-11177.109724,0.000000
3317.125902,296.082377,-8882.471304,-1685.410096
3317.126230,-666.185348,-9474.636058,-612.876398
3317.126557,-1776.494261,-8956.491898,229.828649
3317.126885,-592.164754,-7698.141797,-306.438199
3317.127213,1332.370696,-8290.306550,76.609550
3317.127541,1628.453072,-11029.068536,1532.190996
3317.127868,1628.453072,-10140.821405,1378.971896
3317.128196,370.102971,-8956.491898,0.000000
3317.128524,-296.082377,-10436.903782,-1149.143247
3317.128852,222.061783,-10510.924376,-2298.286494
3317.129179,148.041188,-9696.697840,-766.095498
3317.129507,518.144159,-9770.718434,1149.143247
3317.129835,814.226536,-9844.739029,1685.410096
3317.130163,3775.050304,-9474.636058,689.485948
3317.130490,2738.761985,-7402.059420,689.485948
3317.130818,0.000000,-8364.327145,919.314598
3317.131146,-2886.803174,-9548.656652,0.000000
3317.131474,-2368.659014,-9770.718434,-1149.143247
3317.131801,74.020594,-8586.388927,-1762.019645
3317.132129,2442.679609,-9474.636058,-2298.286494
3317.132457,2072.576638,-11251.130318,1991.848295
3317.132784,1998.556043,-11991.336260,2834.553343
3317.133112,1924.535449,-10807.006753,229.828649
3317.133440,1702.473667,-9548.656652,-2451.505594
3317.133768,-592.164754,-7846.182985,-1915.238745
3317.134095,-1480.411884,-7846.182985,-306.438199
3317.134423,-1480.411884,-7920.203579,612.876398
3317.134751,148.041188,-9622.677246,76.609550
3317.135079,740.205942,-10658.965565,383.047749
3317.135406,1998.556043,-11991.336260,383.047749
3317.135734,888.247130,-11991.336260,229.828649
3317.136062,0.000000,-10732.986159,-1532.190996
3317.136390,74.020594,-8290.306550,-2681.334243
3317.136717,74.020594,-8586.388927,-2834.553343
3317.137045,888.247130,-9548.656652,-306.438199
3317.137373,1554.432478,-9918.759623,1762.019645
3317.137701,222.061783,-9992.780217,2681.334243
3317.138028,1184.329507,-10732.986159,0.000000
3317.138356,814.226536,-11621.233289,-1991.848295
3317.138684,740.205942,-10881.027347,-1378.971896
3317.139012,444.123565,-8734.430116,-1455.581446
3317.139339,-518.144159,-8438.347739,-153.219100
3317.139667,592.164754,-9474.636058,-995.924147
3317.139995,888.247130,-10288.862594,-383.047749
3317.140322,518.144159,-9474.636058,1072.533697
3317.140650,-518.144159,-9178.553681,1072.533697
3317.140978,-1184.329507,-8956.491898,153.219100
3317.141306,-518.144159,-8734.430116,-459.657299
3317.141633,-1110.308913,-8512.368333,-1149.143247
3317.141961,-1110.308913,-9622.677246,766.095498
3317.142289,-148.041188,-10066.800811,842.705048
3317.142617,370.102971,-8956.491898,-383.047749
3317.142944,148.041188,-9844.739029,-153.219100
3317.143272,-370.102971,-11177.109724,-306.438199
3317.143600,-444.123565,-11177.109724,-76.609550
3317.143928,-1184.329507,-7846.182985,-306.438199
3317.144255,0.000000,-7550.100608,-1072.533697
3317.144583,74.020594,-10140.821405,766.095498
3317.144911,0.000000,-11177.109724,2298.286494
3317.145239,74.020594,-9844.739029,1991.848295
3317.145566,296.082377,-8660.409521,-612.876398
3317.145894,740.205942,-9844.739029,-2298.286494
3317.146222,-296.082377,-9696.697840,-1302.362347
3317.146549,0.000000,-8734.430116,-229.828649
3317.146877,148.041188,-9326.594869,-306.438199
3317.147205,0.000000,-10288.862594,306.438199
3317.147533,888.247130,-10658.965565,153.219100
3317.147860,1258.350101,-10140.821405,-306.438199
3317.148188,1554.432478,-11103.089130,383.047749
3317.148516,518.144159,-9992.780217,229.828649
3317.148844,518.144159,-9474.636058,-766.095498
3317.149171,1702.473667,-8660.409521,-1532.190996
3317.149499,2220.617826,-8290.306550,-536.266849
3317.149827,1480.411884,-9474.636058,1915.238745
3317.150155,-222.061783,-9770.718434,1838.629195
3317.150482,-1036.288319,-9400.615463,76.609550
3317.150810,962.267725,-9622.677246,-2528.115143
3317.151138,1480.411884,-11695.253884,-1378.971896
3317.151466,1110.308913,-11399.171507,1149.143247
3317.151793,518.144159,-9104.533087,1608.800546
3317.152121,1776.494261,-8216.285956,0.000000
3317.152449,2368.659014,-9474.636058,-1072.533697
3317.152776,0.000000,-10214.842000,766.095498
3317.153104,-1184.329507,-8512.368333,306.438199
3317.153432,-1628.453072,-7031.956449,-459.657299
3317.153760,-370.102971,-8956.491898,-1378.971896
3317.154087,0.000000,-10288.862594,-995.924147
3317.154415,0.000000,-12287.418637,1685.410096
3317.154743,1702.473667,-10362.883188,842.705048
3317.155071,1628.453072,-10362.883188,-1225.752797
3317.155398,1850.514855,-11029.068536,-1991.848295
3317.155726,740.205942,-8734.430116,-1072.533697
3317.156054,0.000000,-8216.285956,919.314598
3317.156382,0.000000,-8216.285956,1072.533697
3317.156709,-666.185348,-9770.718434,76.609550
3317.157037,-296.082377,-9992.780217,-689.485948
3317.157365,-370.102971,-10140.821405,-1149.143247
3317.157693,0.000000,-10732.986159,0.000000
3317.158020,74.020594,-10510.924376,-1378.971896
3317.158348,74.020594,-9252.574275,-1685.410096
3317.158676,592.164754,-9474.636058,-1762.019645
3317.159003,1036.288319,-11029.068536,-229.828649
3317.159331,1110.308913,-10807.006753,1378.971896
3317.159659,222.061783,-9844.739029,612.876398
3317.159987,-962.267725,-9622.677246,76.609550
3317.160314,-666.185348,-9548.656652,-842.705048
3317.160642,-1036.288319,-9696.697840,306.438199
3317.160970,-370.102971,-9548.656652,0.000000
3317.161298,-370.102971,-9178.553681,-536.266849
3317.161625,-222.061783,-9178.553681,-306.438199
3317.161953,814.226536,-8734.430116,-919.314598
3317.162281,370.102971,-9548.656652,766.095498
3317.162609,-888.247130,-9252.574275,1838.629195
3317.162936,-1110.308913,-10436.903782,0.000000
3317.163264,-814.226536,-10140.821405,-1072.533697
3317.163592,0.000000,-8290.306550,-1608.800546
3317.163920,1332.370696,-8660.409521,-383.047749
3317.164247,370.102971,-11029.068536,2681.334243
3317.164575,-222.061783,-10436.903782,2374.896044
3317.164903,2146.597232,-8586.388927,-1225.752797
3317.165231,962.267725,-9474.636058,-2681.334243
3317.165558,0.000000,-10436.903782,-842.705048
3317.165886,-1110.308913,-8364.327145,-306.438199
3317.166214,-296.082377,-8290.306550,0.000000
3317.166541,1110.308913,-9326.594869,76.609550
3317.166869,1036.288319,-9770.718434,1072.533697
3317.167197,1702.473667,-10140.821405,1608.800546
3317.167525,1036.288319,-10510.924376,76.609550
3317.167852,1406.391290,-9474.636058,-1532.190996
3317.168180,1406.391290,-9030.512492,-2451.505594
3317.168508,148.041188,-10288.862594,-766.095498
3317.168836,1332.370696,-9030.512492,0.000000
3317.169163,1850.514855,-8290.306550,76.609550
3317.169491,1110.308913,-11769.274478,1149.143247
3317.169819,74.020594,-12213.398043,-306.438199
3317.170147,518.144159,-11029.068536,-1915.238745
3317.170474,1258.350101,-10140.821405,-1991.848295
3317.170802,666.185348,-10288.862594,-919.314598
3317.171130,1554.432478,-10362.883188,0.000000
3317.171458,1850.514855,-8512.368333,459.657299
3317.171785,2146.597232,-8734.430116,766.095498
3317.172113,962.267725,-9696.697840,919.314598
3317.172441,-2220.617826,-9696.697840,689.485948
3317.172768,-2072.576638,-7994.224174,-1225.752797
3317.173096,-1406.391290,-8068.244768,-2451.505594
3317.173423,-222.061783,-10066.800811,-1378.971896
3317.173751,74.020594,-11177.109724,76.609550
3317.174079,1480.411884,-9918.759623,459.657299
3317.174406,3478.967927,-10584.944971,0.000000
3317.174734,2146.597232,-10807.006753,0.000000
3317.175062,518.144159,-8956.491898,1149.143247
3317.175389,-1998.556043,-6513.812290,306.438199
3317.175717,-1554.432478,-7105.977043,0.000000
3317.176044,-1184.329507,-8808.450710,-229.828649
3317.176372,-1184.329507,-10510.924376,-536.266849
3317.176700,0.000000,-10955.047942,536.266849
3317.177027,0.000000,-10510.924376,0.000000
3317.177355,1036.288319,-10436.903782,-1225.752797
3317.177682,1480.411884,-10362.883188,-2145.067394
3317.178010,740.205942,-9622.677246,-612.876398
3317.178338,666.185348,-9622.677246,-383.047749
3317.178665,0.000000,-10584.944971,919.314598
3317.178993,-222.061783,-9844.739029,459.657299
3317.179320,-1036.288319,-9178.553681,-459.657299
3317.179648,-1184.329507,-10214.842000,-612.876398
3317.179976,-1036.288319,-9548.656652,-766.095498
3317.180303,-1036.288319,-9992.780217,-2987.772442
3317.180631,0.000000,-9474.636058,-2374.896044
3317.180959,814.226536,-9992.780217,-1302.362347
3317.181286,1628.453072,-10288.862594,1762.019645
3317.181614,74.020594,-8882.471304,1838.629195
3317.181941,-2368.659014,-8586.388927,1991.848295
3317.182269,-1332.370696,-9770.718434,0.000000
3317.182597,-1184.329507,-9918.759623,-2757.943793
3317.182924,-296.082377,-9548.656652,-1685.410096
3317.183252,962.267725,-9030.512492,-1915.238745
3317.183579,1628.453072,-9844.739029,612.876398
3317.183907,2442.679609,-11399.171507,1685.410096
3317.184235,1406.391290,-10658.965565,1149.143247
3317.184562,1702.473667,-9770.718434,229.828649
3317.184890,148.041188,-8364.327145,-612.876398
3317.185217,-296.082377,-8956.491898,-1302.362347
3317.185545,-962.267725,-8068.244768,459.657299
3317.185873,0.000000,-7994.224174,1302.362347
3317.186200,888.247130,-9030.512492,1915.238745
3317.186528,518.144159,-10288.862594,1302.362347
3317.186856,2368.659014,-9770.718434,-153.219100
3317.187183,1998.556043,-8586.388927,-1762.019645
3317.187511,1110.308913,-10732.986159,0.000000
3317.187838,888.247130,-10807.006753,0.000000
3317.188166,74.020594,-9030.512492,0.000000
3317.188494,2368.659014,-8142.265362,0.000000
3317.188821,2072.576638,-9474.636058,0.000000
3317.189149,518.144159,-12731.542202,1455.581446
3317.189476,-370.102971,-10362.883188,76.609550
3317.189804,666.185348,-8882.471304,-2068.457845
3317.190132,1554.432478,-8586.388927,-2987.772442
3317.190459,962.267725,-9992.780217,-842.705048
3317.190787,592.164754,-10288.862594,1762.019645
3317.191114,296.082377,-9326.594869,1685.410096
3317.191442,592.164754,-8882.471304,-306.438199
3317.191770,444.123565,-11473.192101,-1302.362347
3317.192097,-2294.638420,-10288.862594,-1072.533697
3317.192425,-592.164754,-9474.636058,-536.266849
3317.192753,-1184.329507,-9548.656652,-1915.238745
3317.193080,0.000000,-10584.944971,-1608.800546
3317.193408,1480.411884,-10732.986159,-1072.533697
3317.193735,1998.556043,-11103.089130,842.705048
3317.194063,1406.391290,-10214.842000,2145.067394
3317.194391,222.061783,-9992.780217,1225.752797
3317.194718,-1258.350101,-9326.594869,-459.657299
3317.195046,-1776.494261,-7846.182985,-995.924147
3317.195373,-1702.473667,-7179.997637,0.000000
3317.195701,-814.226536,-9326.594869,689.485948
3317.196029,-740.205942,-10288.862594,995.924147
3317.196356,1406.391290,-9252.574275,-229.828649
3317.196684,666.185348,-8808.450710,-995.924147
3317.197012,888.247130,-9400.615463,459.657299
3317.197339,74.020594,-9252.574275,995.924147
3317.197667,-222.061783,-8808.450710,995.924147
3317.197994,0.000000,-9252.574275,153.219100
3317.198322,-518.144159,-9918.759623,-766.095498
3317.198650,-518.144159,-9400.615463,-842.705048
3317.198977,-1554.432478,-9622.677246,306.438199
3317.199305,-222.061783,-10362.883188,-1532.190996
3317.199632,888.247130,-9918.759623,-2298.286494
3317.199960,518.144159,-9844.739029,-1378.971896
3317.200288,1036.288319,-10807.006753,459.657299
3317.200615,814.226536,-9992.780217,1225.752797
3317.200943,666.185348,-8660.409521,2451.505594
3317.201270,814.226536,-9696.697840,306.438199
3317.201598,-666.185348,-9400.615463,-459.657299
3317.201926,-1850.514855,-10658.965565,-306.438199
3317.202253,-2146.597232,-10066.800811,-2451.505594
3317.202581,0.000000,-9770.718434,-3830.477490
3317.202909,888.247130,-10140.821405,-3294.210641
3317.203236,2294.638420,-11325.150913,-1149.143247
3317.203564,1554.432478,-10584.944971,2451.505594
3317.203891,1258.350101,-9844.739029,2145.067394
3317.204219,2294.638420,-9918.759623,995.924147
3317.204547,1480.411884,-9770.718434,0.000000
3317.204874,-222.061783,-9696.697840,229.828649
3317.205202,-1406.391290,-7994.224174,-995.924147
3317.205529,-962.267725,-7772.162391,-1378.971896
3317.205857,666.185348,-9400.615463,-1378.971896
3317.206185,666.185348,-9474.636058,229.828649
3317.206512,1406.391290,-9770.718434,1685.410096
3317.206840,2220.617826,-9548.656652,153.219100
3317.207167,1258.350101,-11251.130318,229.828649
3317.207495,444.123565,-10807.006753,229.828649
3317.207823,222.061783,-7105.977043,536.266849
3317.208150,666.185348,-7328.038826,536.266849
3317.208478,962.267725,-8290.306550,536.266849
3317.208806,222.061783,-9844.739029,0.000000
3317.209133,-296.082377,-11399.171507,-383.047749
3317.209461,740.205942,-10658.965565,-1532.190996
3317.209788,1480.411884,-10214.842000,-1378.971896
3317.210116,-592.164754,-9326.594869,-612.876398
3317.210444,518.144159,-10584.944971,1225.752797
3317.210771,962.267725,-10214.842000,689.485948
3317.211099,2294.638420,-9400.615463,0.000000
3317.211426,1406.391290,-10807.006753,459.657299
3317.211754,0.000000,-9252.574275,0.000000
3317.212082,-518.144159,-8142.265362,-689.485948
3317.212409,-962.267725,-9030.512492,-766.095498
3317.212737,-444.123565,-9548.656652,-1225.752797
3317.213064,-1184.329507,-10362.883188,-459.657299
3317.213392,-1184.329507,-9474.636058,0.000000
3317.213720,222.061783,-10510.924376,-383.047749
3317.214047,222.061783,-11399.171507,-766.095498
3317.214375,0.000000,-11103.089130,-306.438199
3317.214703,-814.226536,-10140.821405,-689.485948
3317.215030,74.020594,-8734.430116,-995.924147
3317.215358,1258.350101,-9326.594869,-1072.533697
3317.215685,370.102971,-10214.842000,612.876398
3317.216013,1184.329507,-10140.821405,1302.362347
3317.216341,148.041188,-8956.491898,766.095498
3317.216668,-518.144159,-8808.450710,842.705048
3317.216996,-370.102971,-9252.574275,612.876398
3317.217323,-222.061783,-8216.285956,-383.047749
3317.217651,222.061783,-10066.800811,0.000000
3317.217979,-370.102971,-11399.171507,-306.438199
3317.218306,444.123565,-11177.109724,-1072.533697
3317.218634,1184.329507,-9252.574275,-1838.629195
3317.218962,740.205942,-9770.718434,-689.485948
3317.219289,0.000000,-9918.759623,0.000000
3317.219617,-1258.350101,-9178.553681,383.047749
3317.219944,592.164754,-9178.553681,766.095498
3317.220272,-296.082377,-7846.182985,-229.828649
3317.220600,-1110.308913,-8956.491898,1149.143247
3317.220927,296.082377,-10362.883188,536.266849
3317.221255,-296.082377,-9400.615463,-306.438199
3317.221582,-222.061783,-10066.800811,-1072.533697
3317.221910,0.000000,-10140.821405,-1991.848295
3317.222238,518.144159,-10362.883188,-2374.896044
3317.222565,888.247130,-9770.718434,-1532.190996
3317.222893,1332.370696,-9548.656652,0.000000
3317.223220,1554.432478,-11251.130318,2757.943793
3317.223548,1776.494261,-11843.295072,1685.410096
3317.223876,1998.556043,-9474.636058,842.705048
3317.224203,-296.082377,-9474.636058,-536.266849
3317.224531,-1628.453072,-9326.594869,-2451.505594
3317.224859,-666.185348,-8586.388927,-3753.867940
3317.225186,-296.082377,-9030.512492,-2451.505594
3317.225514,740.205942,-9474.636058,0.000000
3317.225841,0.000000,-9326.594869,2068.457845
3317.226169,2072.576638,-9326.594869,2911.162892
3317.226497,2812.782580,-9252.574275,1072.533697
3317.226824,1702.473667,-9622.677246,459.657299
3317.227152,148.041188,-9474.636058,0.000000
3317.227479,-1258.350101,-8734.430116,-1225.752797
3317.227807,888.247130,-7920.203579,-1991.848295
3317.228135,2220.617826,-8290.306550,-1608.800546
3317.228462,1036.288319,-9844.739029,1608.800546
3317.228790,592.164754,-11843.295072,1302.362347
3317.229117,-962.267725,-11251.130318,-1149.143247
3317.229445,0.000000,-10881.027347,-1991.848295
3317.229773,518.144159,-8660.409521,-1762.019645
3317.230100,740.205942,-8586.388927,306.438199
3317.230428,-518.144159,-8586.388927,2374.896044
3317.230756,814.226536,-9326.594869,1149.143247
3317.231083,2220.617826,-10436.903782,-383.047749
3317.231411,0.000000,-9770.718434,-1149.143247
3317.231738,-1258.350101,-9326.594869,-612.876398
3317.232066,-2738.761985,-8364.327145,-383.047749
3317.232394,-814.226536,-9696.697840,-1225.752797
3317.232721,370.102971,-11473.192101,-1685.410096
3317.233049,74.020594,-11177.109724,0.000000
3317.233376,888.247130,-9918.759623,612.876398
3317.233704,444.123565,-10510.924376,76.609550
3317.234032,1110.308913,-10732.986159,-1225.752797
3317.234359,444.123565,-9030.512492,-2451.505594
3317.234687,-666.185348,-8512.368333,-383.047749
3317.235014,296.082377,-9474.636058,995.924147
3317.235342,814.226536,-9326.594869,612.876398
3317.235670,814.226536,-9030.512492,1225.752797
3317.235997,0.000000,-9474.636058,0.000000
3317.236325,-740.205942,-10066.800811,-766.095498
3317.236653,0.000000,-9992.780217,-995.924147
3317.236980,148.041188,-9030.512492,-1532.190996
3317.237308,1998.556043,-10140.821405,-1149.143247
3317.237635,2072.576638,-11251.130318,0.000000
3317.237963,2368.659014,-10658.965565,2221.676944
3317.238291,1036.288319,-9178.553681,536.266849
3317.238618,-962.267725,-8364.327145,0.000000
3317.238946,-962.267725,-9030.512492,-995.924147
3317.239273,-1258.350101,-9400.615463,-995.924147
3317.239601,-296.082377,-9474.636058,-229.828649
3317.239929,-1628.453072,-9326.594869,-459.657299
3317.240256,962.267725,-10066.800811,-306.438199
3317.240584,2072.576638,-9326.594869,-612.876398
3317.240912,444.123565,-11029.068536,995.924147
3317.241239,-592.164754,-10214.842000,1915.238745
3317.241567,-1702.473667,-8586.388927,-1608.800546
3317.241894,-296.082377,-9474.636058,-3064.381992
3317.242222,814.226536,-9992.780217,-3370.820191
3317.242550,1110.308913,-10214.842000,919.314598
3317.242877,740.205942,-11177.109724,3447.429741
3317.243205,518.144159,-10807.006753,995.924147
3317.243532,1480.411884,-10288.862594,-1991.848295
3317.243860,222.061783,-9178.553681,-2911.162892
3317.244188,-740.205942,-9326.594869,-842.705048
3317.244515,-740.205942,-8364.327145,76.609550
3317.244843,-1110.308913,-7105.977043,-306.438199
3317.245170,148.041188,-8586.388927,1149.143247
3317.245498,518.144159,-9918.759623,2145.067394
3317.245826,2442.679609,-11325.150913,1991.848295
3317.246153,1406.391290,-11769.274478,1378.971896
3317.246481,370.102971,-9770.718434,-995.924147
3317.246809,1406.391290,-8068.244768,-3677.258390
3317.247136,444.123565,-8956.491898,-1378.971896
3317.247464,1702.473667,-9918.759623,1762.019645
3317.247791,1110.308913,-8364.327145,2145.067394
3317.248119,888.247130,-9770.718434,1608.800546
3317.248447,296.082377,-12065.356855,-689.485948
3317.248774,-1258.350101,-10510.924376,-1225.752797
3317.249102,0.000000,-8956.491898,-1225.752797
3317.249429,222.061783,-9548.656652,-1072.533697
3317.249757,222.061783,-8586.388927,76.609550
3317.250085,1110.308913,-8660.409521,0.000000
3317.250412,1110.308913,-9030.512492,919.314598
3317.250740,2220.617826,-10214.842000,919.314598
3317.251067,444.123565,-9992.780217,0.000000
3317.251395,-666.185348,-9770.718434,-459.657299
3317.251723,-1406.391290,-9178.553681,-1072.533697
3317.252050,74.020594,-9770.718434,-306.438199
3317.252378,222.061783,-12065.356855,842.705048
3317.252706,74.020594,-10955.047942,-229.828649
3317.253033,814.226536,-8882.471304,-2221.676944
3317.253361,-518.144159,-9474.636058,-2068.457845
3317.253688,-444.123565,-9992.780217,-612.876398
3317.254016,-888.247130,-8142.265362,0.000000
3317.254344,-740.205942,-7105.977043,0.000000
3317.254671,-370.102971,-9622.677246,306.438199
3317.254999,296.082377,-11621.233289,1149.143247
3317.255326,1332.370696,-10362.883188,306.438199
3317.255654,296.082377,-10732.986159,-306.438199
3317.255982,370.102971,-10214.842000,-536.266849
3317.256309,1036.288319,-8216.285956,-1991.848295
3317.256637,962.267725,-8734.430116,-689.485948
3317.256964,1110.308913,-9474.636058,919.314598
3317.257292,0.000000,-9844.739029,1838.629195
3317.257620,222.061783,-10436.903782,1455.581446
3317.257947,148.041188,-10140.821405,-383.047749
3317.258275,0.000000,-9178.553681,-995.924147
3317.258603,-444.123565,-9474.636058,0.000000
3317.258930,-2072.576638,-10510.924376,-306.438199
3317.259258,-592.164754,-9252.574275,-1685.410096
3317.259585,814.226536,-9252.574275,-1455.581446
3317.259913,1554.432478,-8882.471304,1149.143247
3317.260241,592.164754,-9030.512492,2987.772442
3317.260568,-1776.494261,-9474.636058,2145.067394
3317.260896,-1776.494261,-10362.883188,0.000000
3317.261223,-1110.308913,-9770.718434,-3217.601092
3317.261551,518.144159,-9252.574275,-3524.039291
3317.261879,222.061783,-9326.594869,-1072.533697
3317.262206,888.247130,-11177.109724,1455.581446
3317.262534,2812.782580,-11547.212695,919.314598
3317.262862,1776.494261,-10807.006753,-229.828649
3317.263189,1406.391290,-10362.883188,153.219100
3317.263517,0.000000,-8660.409521,0.000000
3317.263844,-1628.453072,-7846.182985,0.000000
3317.264172,-1924.535449,-7920.203579,0.000000
3317.264500,-1110.308913,-8364.327145,-919.314598
3317.264827,296.082377,-10658.965565,153.219100
3317.265155,1406.391290,-11843.295072,383.047749
3317.265482,1998.556043,-10140.821405,-1072.533697
3317.265810,2738.761985,-10510.924376,-2068.457845
3317.266138,1406.391290,-10510.924376,-1608.800546
3317.266465,148.041188,-9178.553681,459.657299
3317.266793,-148.041188,-6809.894666,1532.190996
3317.267120,2294.638420,-7550.100608,1302.362347
3317.267448,2368.659014,-9252.574275,1302.362347
3317.267776,74.020594,-12509.480420,1455.581446
3317.268103,-1258.350101,-11917.315666,-1225.752797
3317.268431,-666.185348,-9474.636058,-3447.429741
3317.268759,1406.391290,-8956.491898,-3830.477490
3317.269086,592.164754,-10362.883188,-1608.800546
3317.269414,148.041188,-10881.027347,2145.067394
3317.269741,1258.350101,-9030.512492,2298.286494
3317.270069,1702.473667,-9104.533087,1532.190996
3317.270397,444.123565,-10214.842000,0.000000
3317.270724,-666.185348,-7698.141797,229.828649
3317.271052,-370.102971,-7402.059420,383.047749
3317.271379,-518.144159,-9844.739029,153.219100
3317.271707,1184.329507,-10955.047942,-1378.971896
3317.272035,2590.720797,-9474.636058,-612.876398
3317.272362,1110.308913,-11251.130318,306.438199
3317.272690,222.061783,-10955.047942,1225.752797
3317.273017,-1110.308913,-10214.842000,-306.438199
3317.273345,-2146.597232,-7920.203579,-2298.286494
3317.273673,-2072.576638,-8438.347739,-2757.943793
3317.274000,-2146.597232,-8586.388927,-766.095498
3317.274328,-222.061783,-9770.718434,1225.752797
3317.274655,0.000000,-11325.150913,1838.629195
3317.274983,2146.597232,-10584.944971,-383.047749
3317.275310,1406.391290,-10140.821405,-2068.457845
3317.275638,814.226536,-10732.986159,-766.095498
3317.275966,444.123565,-9178.553681,0.000000
3317.276293,-518.144159,-8956.491898,0.000000
3317.276621,1036.288319,-9622.677246,612.876398
3317.276948,962.267725,-9474.636058,995.924147
3317.277276,814.226536,-10732.986159,919.314598
3317.277603,-592.164754,-10955.047942,995.924147
3317.277931,0.000000,-9252.574275,-1225.752797
3317.278259,1036.288319,-9178.553681,-2987.772442
3317.278586,-370.102971,-10362.883188,-2145.067394
3317.278914,-518.144159,-10732.986159,689.485948
3317.279241,-814.226536,-8882.471304,1915.238745
3317.279569,222.061783,-7772.162391,842.705048
3317.279896,1258.350101,-9030.512492,-766.095498
3317.280224,-1110.308913,-10955.047942,689.485948
3317.280551,-2294.638420,-9400.615463,1149.143247
3317.280879,-2664.741391,-9326.594869,-1608.800546
3317.281207,-444.123565,-7920.203579,-4366.744339
3317.281534,1850.514855,-9548.656652,-4903.011187
3317.281862,1480.411884,-11843.295072,842.705048
3317.282189,2960.823768,-10881.027347,3677.258390
3317.282517,2960.823768,-9326.594869,1608.800546
3317.282844,2146.597232,-10214.842000,459.657299
3317.283172,0.000000,-9474.636058,0.000000
3317.283499,-1850.514855,-7846.182985,229.828649
3317.283827,-1332.370696,-7846.182985,0.000000
3317.284155,-2368.659014,-7254.018232,-1685.410096
3317.284482,-222.061783,-9400.615463,-2145.067394
3317.284810,888.247130,-10510.924376,0.000000
3317.285137,2960.823768,-11843.295072,1302.362347
3317.285465,3182.885551,-11325.150913,1608.800546
3317.285792,1850.514855,-10066.800811,229.828649
3317.286120,370.102971,-7920.203579,-689.485948
3317.286448,-296.082377,-7920.203579,-1149.143247
3317.286775,222.061783,-9178.553681,1149.143247
3317.287103,740.205942,-9474.636058,2221.676944
3317.287430,1480.411884,-9252.574275,383.047749
3317.287758,74.020594,-11843.295072,-995.924147
3317.288085,-1702.473667,-10732.986159,-1762.019645
3317.288413,222.061783,-10066.800811,-2374.896044
3317.288740,666.185348,-10436.903782,-2221.676944
3317.289068,74.020594,-9918.759623,0.000000
3317.289396,-592.164754,-10288.862594,2068.457845
3317.289723,1258.350101,-9844.739029,1838.629195
3317.290051,2368.659014,-11325.150913,842.705048
3317.290378,-148.041188,-9548.656652,153.219100
3317.290706,-1258.350101,-7105.977043,-1302.362347
3317.291033,0.000000,-7624.121203,-1685.410096
3317.291361,1110.308913,-9992.780217,-1225.752797
3317.291688,1110.308913,-11473.192101,842.705048
3317.292016,370.102971,-11399.171507,1838.629195
3317.292344,888.247130,-9844.739029,919.314598
3317.292671,814.226536,-10214.842000,-612.876398
3317.292999,-592.164754,-9474.636058,-459.657299
3317.293326,-1924.535449,-9548.656652,-766.095498
3317.293654,-2146.597232,-7846.182985,-1762.019645
3317.293981,148.041188,-7698.141797,-2221.676944
3317.294309,444.123565,-9622.677246,-306.438199
3317.294637,740.205942,-11103.089130,1915.238745
3317.294964,888.247130,-10362.883188,1915.238745
3317.295292,814.226536,-9400.615463,-612.876398
3317.295619,1258.350101,-9992.780217,-2451.505594
3317.295947,74.020594,-9696.697840,-1378.971896
3317.296274,666.185348,-10288.862594,1072.533697
3317.296602,518.144159,-9844.739029,1072.533697
3317.296929,666.185348,-9474.636058,0.000000
3317.297257,1850.514855,-9326.594869,-1302.362347
3317.297585,888.247130,-9844.739029,-919.314598
3317.297912,0.000000,-9178.553681,766.095498
3317.298240,-666.185348,-8586.388927,-536.266849
3317.298567,-518.144159,-10584.944971,-1225.752797
3317.298895,-592.164754,-11177.109724,-1378.971896
3317.299222,0.000000,-10732.986159,-383.047749
3317.299550,1110.308913,-10288.862594,0.000000
3317.299877,296.082377,-9696.697840,-536.266849
3317.300205,-370.102971,-8956.491898,0.000000
3317.300533,-518.144159,-9992.780217,-1225.752797
3317.300860,-962.267725,-10362.883188,-1149.143247
3317.301188,0.000000,-9622.677246,-842.705048
3317.301515,444.123565,-8956.491898,-383.047749
3317.301843,1702.473667,-9844.739029,1072.533697
3317.302170,2072.576638,-9844.739029,1608.800546
3317.302498,1628.453072,-10066.800811,1225.752797
3317.302826,222.061783,-10658.965565,842.705048
3317.303153,-888.247130,-8956.491898,-1149.143247
3317.303481,0.000000,-8586.388927,-2681.334243
3317.303808,-962.267725,-8808.450710,-1378.971896
3317.304136,-592.164754,-8216.285956,459.657299
3317.304463,-444.123565,-7624.121203,1685.410096
3317.304791,444.123565,-9326.594869,1915.238745
3317.305118,2072.576638,-10881.027347,229.828649
3317.305446,222.061783,-10807.006753,76.609550
3317.305774,74.020594,-8808.450710,0.000000
3317.306101,-962.267725,-8438.347739,-995.924147
3317.306429,370.102971,-8660.409521,-689.485948
3317.306756,2220.617826,-8882.471304,-459.657299
3317.307084,2442.679609,-9474.636058,1685.410096
3317.307411,2516.700203,-10436.903782,2374.896044
3317.307739,-814.226536,-11843.295072,1072.533697
3317.308066,-1406.391290,-10214.842000,-1378.971896
3317.308394,-370.102971,-9548.656652,-3064.381992
3317.308722,518.144159,-10362.883188,-2451.505594
3317.309049,0.000000,-10881.027347,536.266849
3317.309377,518.144159,-10362.883188,842.705048
3317.309704,2294.638420,-9918.759623,-689.485948
3317.310032,1776.494261,-11325.150913,-1225.752797
3317.310359,74.020594,-10140.821405,-229.828649
3317.310687,-1628.453072,-7698.141797,-306.438199
3317.311015,-666.185348,-7920.203579,-995.924147
3317.311342,1332.370696,-11473.192101,-1072.533697
3317.311670,2146.597232,-11917.315666,766.095498
3317.311997,814.226536,-10658.965565,4136.915689
3317.312325,1036.288319,-9696.697840,1532.190996
3317.312652,518.144159,-9770.718434,-1225.752797
3317.312980,-1554.432478,-9696.697840,-2834.553343
3317.313307,-3108.864956,-6661.853478,-2834.553343
3317.313635,-1776.494261,-7476.080014,-2298.286494
3317.313963,-1554.432478,-9030.512492,612.876398
3317.314290,-592.164754,-11029.068536,1455.581446
3317.314618,-296.082377,-10140.821405,689.485948
3317.314945,1332.370696,-10807.006753,-306.438199
3317.315273,1480.411884,-12139.377449,0.000000
3317.315600,0.000000,-9474.636058,-459.657299
3317.315928,1110.308913,-6809.894666,-1378.971896
3317.316255,1702.473667,-8956.491898,-459.657299
3317.316583,296.082377,-10066.800811,1608.800546
3317.316911,370.102971,-10140.821405,1608.800546
3317.317238,-518.144159,-9104.533087,919.314598
3317.317566,222.061783,-9178.553681,-1378.971896
3317.317893,74.020594,-9844.739029,-1762.019645
3317.318221,148.041188,-11917.315666,-1225.752797
3317.318548,0.000000,-11177.109724,-612.876398
3317.318876,592.164754,-9030.512492,-1149.143247
3317.319204,1258.350101,-9104.533087,-1378.971896
3317.319531,2072.576638,-11177.109724,-612.876398
3317.319859,444.123565,-10066.800811,1455.581446
3317.320186,-1184.329507,-9326.594869,1455.581446
3317.320514,-1776.494261,-9326.594869,-459.657299
3317.320841,-370.102971,-9844.739029,-3294.210641
3317.321169,148.041188,-8808.450710,-2451.505594
3317.321496,-74.020594,-9474.636058,153.219100
3317.321824,814.226536,-11325.150913,1608.800546
3317.322152,3404.947333,-11103.089130,0.000000
3317.322479,2516.700203,-10288.862594,-842.705048
3317.322807,814.226536,-9030.512492,842.705048
3317.323134,740.205942,-7994.224174,1149.143247
3317.323462,-444.123565,-7920.203579,689.485948
3317.323789,-222.061783,-8216.285956,306.438199
3317.324117,-814.226536,-7402.059420,-383.047749
3317.324444,0.000000,-9178.553681,919.314598
3317.324772,740.205942,-11177.109724,1455.581446
3317.325100,666.185348,-10584.944971,0.000000
3317.325427,1406.391290,-9178.553681,-1302.362347
3317.325755,814.226536,-9030.512492,-1762.019645
3317.326082,666.185348,-9770.718434,306.438199
3317.326410,1628.453072,-9030.512492,1838.629195
3317.326737,2590.720797,-7105.977043,1455.581446
3317.327065,2368.659014,-8808.450710,1685.410096
3317.327393,-592.164754,-10584.944971,1072.533697
3317.327720,-740.205942,-10436.903782,229.828649
3317.328048,-740.205942,-9696.697840,-1915.238745
3317.328375,592.164754,-10140.821405,-2298.286494
3317.328703,592.164754,-11177.109724,-2374.896044
3317.329030,-222.061783,-10807.006753,-229.828649
3317.329358,1480.411884,-10362.883188,1072.533697
3317.329685,74.020594,-10214.842000,536.266849
3317.330013,-222.061783,-9326.594869,0.000000
3317.330341,-1110.308913,-8808.450710,-612.876398
3317.330668,-592.164754,-8882.471304,-612.876398
3317.330996,0.000000,-10881.027347,383.047749
3317.331323,148.041188,-11473.192101,229.828649
3317.331651,1036.288319,-10140.821405,153.219100
3317.331978,1110.308913,-9474.636058,-612.876398
3317.332306,-592.164754,-9918.759623,-612.876398
3317.332633,-2294.638420,-9844.739029,0.000000
3317.332961,-2960.823768,-8068.244768,-1685.410096
3317.333289,-1406.391290,-8586.388927,-2451.505594
3317.333616,-1850.514855,-9622.677246,-306.438199
3317.333944,-1110.308913,-9992.780217,1378.971896
3317.334271,-740.205942,-9548.656652,919.314598
3317.334599,888.247130,-10436.903782,-995.924147
3317.334926,2590.720797,-9992.780217,-2528.115143
3317.335254,1924.535449,-8956.491898,-1072.533697
3317.335582,1406.391290,-8586.388927,1455.581446
3317.335909,1184.329507,-9474.636058,1378.971896
3317.336237,148.041188,-9474.636058,459.657299
3317.336564,296.082377,-8882.471304,-919.314598
3317.336892,444.123565,-10066.800811,-459.657299
3317.337219,592.164754,-9770.718434,76.609550
3317.337547,0.000000,-9770.718434,-459.657299
3317.337874,296.082377,-10362.883188,-919.314598
3317.338202,1998.556043,-11621.233289,-1608.800546
3317.338530,2072.576638,-10066.800811,-229.828649
3317.338857,814.226536,-8882.471304,842.705048
3317.339185,370.102971,-8586.388927,459.657299
3317.339512,0.000000,-7994.224174,-689.485948
3317.339840,-1776.494261,-9548.656652,-766.095498
3317.340167,-2220.617826,-11991.336260,-459.657299
3317.340495,-222.061783,-12361.439231,-1685.410096
3317.340822,1406.391290,-10066.800811,-3064.381992
3317.341150,2664.741391,-9252.574275,-2374.896044
3317.341478,2886.803174,-10436.903782,153.219100
3317.341805,3849.070898,-10510.924376,2451.505594
3317.342133,2516.700203,-10066.800811,3217.601092
3317.342460,148.041188,-8734.430116,2221.676944
3317.342788,0.000000,-8438.347739,0.000000
3317.343115,-962.267725,-7402.059420,-1378.971896
3317.343443,-962.267725,-8512.368333,842.705048
3317.343771,-1998.556043,-8956.491898,306.438199
3317.344098,-814.226536,-9030.512492,-919.314598
3317.344426,1924.535449,-10584.944971,-995.924147
3317.344753,1998.556043,-10658.965565,-1149.143247
3317.345081,1776.494261,-9548.656652,1532.190996
3317.345408,-370.102971,-8512.368333,2298.286494
3317.345736,0.000000,-7698.141797,76.609550
3317.346063,370.102971,-7328.038826,-459.657299
3317.346391,1406.391290,-7994.224174,0.000000
3317.346719,740.205942,-10510.924376,1991.848295
3317.347046,-888.247130,-11917.315666,1532.190996
3317.347374,370.102971,-10066.800811,-1838.629195
3317.347701,962.267725,-10140.821405,-3600.648841
3317.348029,740.205942,-10140.821405,-1225.752797
3317.348356,0.000000,-10436.903782,842.705048
3317.348684,-1258.350101,-9696.697840,1455.581446
3317.349011,666.185348,-9622.677246,-689.485948
3317.349339,74.020594,-10066.800811,-1302.362347
3317.349667,-1480.411884,-11103.089130,459.657299
3317.349994,-1480.411884,-9252.574275,0.000000
3317.350322,-296.082377,-8956.491898,-995.924147
3317.350649,2072.576638,-11103.089130,-2068.457845
3317.350977,1110.308913,-11547.212695,-1378.971896
3317.351304,74.020594,-10214.842000,1225.752797
3317.351632,592.164754,-10288.862594,1072.533697
3317.351960,-1480.411884,-10436.903782,766.095498
3317.352287,-1480.411884,-10066.800811,-766.095498
3317.352615,-1998.556043,-8142.265362,-2221.676944
3317.352942,-888.247130,-8956.491898,-842.705048
3317.353270,-1850.514855,-9178.553681,0.000000
3317.353597,-444.123565,-9030.512492,-536.266849
3317.353925,962.267725,-9474.636058,-766.095498
3317.354252,592.164754,-9178.553681,-229.828649
3317.354580,1258.350101,-9104.533087,1455.581446
3317.354908,592.164754,-9474.636058,1072.533697
3317.355235,1850.514855,-8142.265362,536.266849
3317.355563,2294.638420,-9918.759623,383.047749
3317.355890,1184.329507,-10362.883188,1455.581446
3317.356218,1258.350101,-9918.759623,1455.581446
3317.356545,0.000000,-9252.574275,0.000000
3317.356873,1628.453072,-8660.409521,-2221.676944
3317.357200,962.267725,-9178.553681,-2298.286494
3317.357528,1332.370696,-10066.800811,-1149.143247
3317.357856,1258.350101,-10658.965565,1455.581446
3317.358183,518.144159,-10584.944971,1072.533697
3317.358511,1702.473667,-9622.677246,0.000000
3317.358838,1036.288319,-9326.594869,-1685.410096
3317.359166,222.061783,-9918.759623,-153.219100
3317.359493,-1110.308913,-9622.677246,153.219100
3317.359821,-1406.391290,-10066.800811,-1225.752797
3317.360149,962.267725,-11769.274478,-2451.505594
3317.360476,888.247130,-9548.656652,-3370.820191
3317.360804,1554.432478,-9178.553681,-1072.533697
3317.361131,1036.288319,-11177.109724,1532.190996
3317.361459,2072.576638,-11177.109724,1838.629195
3317.361786,2146.597232,-10732.986159,766.095498
3317.362114,-444.123565,-9474.636058,536.266849
3317.362441,-740.205942,-9918.759623,1072.533697
3317.362769,-518.144159,-8882.471304,-1378.971896
3317.363097,-444.123565,-8068.244768,-2221.676944
3317.363424,-888.247130,-9326.594869,-1838.629195
3317.363752,-1110.308913,-9030.512492,76.609550
3317.364079,2442.679609,-10066.800811,1685.410096
3317.364407,1924.535449,-9918.759623,612.876398
3317.364734,888.247130,-9400.615463,2451.505594
3317.365062,-1110.308913,-8956.491898,1455.581446
3317.365389,-518.144159,-8660.409521,689.485948
3317.365717,0.000000,-8068.244768,-229.828649
3317.366045,-962.267725,-7254.018232,-1072.533697
3317.366372,-444.123565,-9400.615463,0.000000
3317.366700,-962.267725,-10881.027347,153.219100
3317.367027,1036.288319,-10214.842000,-919.314598
3317.367355,222.061783,-10510.924376,-383.047749
3317.367682,-370.102971,-9326.594869,306.438199
3317.368010,-222.061783,-10066.800811,919.314598
3317.368338,-444.123565,-9548.656652,612.876398
3317.368665,666.185348,-9252.574275,0.000000
3317.368993,-962.267725,-9474.636058,76.609550
3317.369320,-1480.411884,-9326.594869,-153.219100
3317.369648,-444.123565,-9474.636058,-2221.676944
3317.369975,222.061783,-9104.533087,-2834.553343
3317.370303,1406.391290,-11177.109724,-1378.971896
3317.370630,888.247130,-12139.377449,306.438199
3317.370958,1406.391290,-9992.780217,1225.752797
3317.371286,1924.535449,-9918.759623,306.438199
3317.371613,0.000000,-9622.677246,1838.629195
3317.371941,-1258.350101,-10362.883188,1302.362347
3317.372268,-2960.823768,-9030.512492,-1762.019645
3317.372596,-1554.432478,-7846.182985,-3983.696590
3317.372923,-1258.350101,-9326.594869,-3983.696590
3317.373251,222.061783,-10732.986159,-1225.752797
3317.373578,1258.350101,-10288.862594,1149.143247
3317.373906,1776.494261,-11103.089130,1225.752797
3317.374234,2590.720797,-11547.212695,1225.752797
3317.374561,2886.803174,-11547.212695,842.705048
3317.374889,2072.576638,-9474.636058,1608.800546
3317.375216,814.226536,-7179.997637,1072.533697
3317.375532,-296.082377,-7105.977043,612.876398
3317.375860,2960.823768,-9400.615463,0.000000
3317.376188,1702.473667,-9548.656652,-995.924147
3317.376515,1110.308913,-9548.656652,153.219100
3317.376843,-296.082377,-9474.636058,0.000000
3317.377171,222.061783,-9400.615463,-995.924147
3317.377499,1850.514855,-11251.130318,-995.924147
3317.377826,74.020594,-10658.965565,995.924147
3317.378154,370.102971,-9400.615463,2145.067394
3317.378482,1406.391290,-9622.677246,76.609550
3317.378809,2220.617826,-11177.109724,-1302.362347
3317.379137,962.267725,-9696.697840,-1532.190996
3317.379465,-1036.288319,-7846.182985,-766.095498
3317.379793,0.000000,-8512.368333,-536.266849
3317.380120,0.000000,-8660.409521,-1378.971896
3317.380448,-518.144159,-8882.471304,153.219100
3317.380776,592.164754,-10140.821405,1378.971896
3317.381103,2146.597232,-9400.615463,1762.019645
3317.381431,1480.411884,-11473.192101,1455.581446
3317.381759,-2294.638420,-11177.109724,-229.828649
3317.382087,-2368.659014,-9622.677246,-2834.553343
3317.382414,-296.082377,-7994.224174,-5439.278036
3317.382742,2220.617826,-11177.109724,-3217.601092
3317.383070,-222.061783,-12361.439231,1915.238745
3317.383397,148.041188,-10955.047942,2757.943793
3317.383725,740.205942,-9770.718434,1225.752797
3317.384053,0.000000,-9400.615463,-1685.410096
3317.384381,-1480.411884,-9770.718434,-1225.752797
3317.384708,-3256.906145,-9252.574275,229.828649
3317.385036,-1776.494261,-7179.997637,-842.705048
3317.385364,222.061783,-8734.430116,-2757.943793
3317.385692,592.164754,-10362.883188,-766.095498
3317.386019,2960.823768,-10807.006753,1838.629195
3317.386347,1998.556043,-10066.800811,2528.115143
3317.386675,592.164754,-8956.491898,1685.410096
3317.387002,0.000000,-8882.471304,-612.876398
3317.387330,-1184.329507,-8364.327145,0.000000
3317.387658,-666.185348,-8216.285956,1072.533697
3317.387986,-1332.370696,-8808.450710,995.924147
3317.388313,0.000000,-9696.697840,0.000000
3317.388641,0.000000,-10807.006753,-2528.115143
3317.388969,0.000000,-11399.171507,-2757.943793
3317.389296,962.267725,-10362.883188,-2145.067394
3317.389624,1702.473667,-8216.285956,-612.876398
3317.389952,2072.576638,-9622.677246,2298.286494
3317.390280,3182.885551,-10362.883188,2298.286494
3317.390607,2146.597232,-8882.471304,2834.553343
3317.390935,814.226536,-9696.697840,2451.505594
3317.391263,-2146.597232,-8956.491898,229.828649
3317.391590,-1110.308913,-9844.739029,-2068.457845
3317.391918,-1702.473667,-9104.533087,-4136.915689
3317.392246,-814.226536,-9400.615463,-2911.162892
3317.392574,-518.144159,-10510.924376,-1378.971896
3317.392901,814.226536,-10436.903782,0.000000
3317.393229,2590.720797,-11029.068536,0.000000
3317.393557,2368.659014,-10955.047942,459.657299
3317.393885,2886.803174,-10881.027347,2068.457845
3317.394212,814.226536,-9622.677246,2145.067394
3317.394540,1406.391290,-7402.059420,-842.705048
3317.394868,2072.576638,-9252.574275,-1455.581446
3317.395195,814.226536,-9696.697840,-459.657299
3317.395523,888.247130,-10288.862594,459.657299
3317.395851,-1036.288319,-9696.697840,0.000000
3317.396179,666.185348,-10510.924376,-1915.238745
3317.396506,740.205942,-10140.821405,-2451.505594
3317.396834,592.164754,-9696.697840,536.266849
3317.397162,666.185348,-11251.130318,2374.896044
3317.397489,1036.288319,-10066.800811,1072.533697
3317.397817,1332.370696,-8660.409521,-612.876398
3317.398145,592.164754,-8290.306550,-2145.067394
3317.398473,-666.185348,-8808.450710,0.000000
3317.398800,-1406.391290,-8512.368333,612.876398
3317.399128,-1406.391290,-8882.471304,229.828649
3317.399456,-814.226536,-10658.965565,-1378.971896
3317.399783,-740.205942,-9474.636058,-2221.676944
3317.400111,74.020594,-9474.636058,-306.438199
3317.400439,370.102971,-10658.965565,1378.971896
3317.400767,2072.576638,-9474.636058,383.047749
3317.401094,1776.494261,-9030.512492,76.609550
3317.401422,-666.185348,-9400.615463,1302.362347
3317.401750,-592.164754,-10214.842000,919.314598
3317.402077,74.020594,-9474.636058,-383.047749
3317.402405,-666.185348,-8734.430116,-1302.362347
3317.402733,-1332.370696,-9696.697840,-995.924147
3317.403061,-1702.473667,-9474.636058,0.000000
3317.403388,-888.247130,-10658.965565,0.000000
3317.403716,-1554.432478,-11843.295072,-766.095498
3317.404044,-1554.432478,-9474.636058,-1685.410096
3317.404372,-1110.308913,-9104.533087,-2757.943793
3317.404699,-444.123565,-10066.800811,-459.657299
3317.405027,148.041188,-9474.636058,1225.752797
3317.405355,0.000000,-8734.430116,1991.848295
3317.405682,2368.659014,-10436.903782,1455.581446
3317.406010,2368.659014,-9474.636058,536.266849
3317.406338,1258.350101,-9252.574275,1072.533697
3317.406666,-370.102971,-9696.697840,612.876398
3317.406993,-962.267725,-9844.739029,-1072.533697
3317.407321,370.102971,-9474.636058,-2604.724693
3317.407649,666.185348,-9178.553681,-1685.410096
3317.407976,1036.288319,-9992.780217,1072.533697
3317.408304,962.267725,-10362.883188,1608.800546
3317.408632,296.082377,-9474.636058,153.219100
3317.408960,962.267725,-9770.718434,-1149.143247
3317.409287,1480.411884,-8956.491898,-1149.143247
3317.409615,2368.659014,-9770.718434,612.876398
3317.409943,1850.514855,-9622.677246,1915.238745
3317.410270,1110.308913,-8068.244768,2145.067394
3317.410598,2146.597232,-9474.636058,-842.705048
3317.410926,444.123565,-10510.924376,-153.219100
3317.411254,-740.205942,-10510.924376,0.000000
3317.411581,-2072.576638,-7920.203579,-1532.190996
3317.411909,-1258.350101,-9178.553681,-2451.505594
3317.412237,-444.123565,-10732.986159,-2374.896044
3317.412564,0.000000,-9474.636058,612.876398
3317.412892,1480.411884,-9696.697840,1532.190996
3317.413220,1480.411884,-11177.109724,995.924147
3317.413548,2220.617826,-11695.253884,-229.828649
3317.413875,1850.514855,-10066.800811,-1991.848295
3317.414203,74.020594,-8660.409521,-766.095498
3317.414531,592.164754,-9030.512492,306.438199
3317.414859,-370.102971,-9844.739029,612.876398
3317.415186,666.185348,-10362.883188,0.000000
3317.415514,296.082377,-9844.739029,-1608.800546
3317.415842,370.102971,-10658.965565,-766.095498
3317.416169,666.185348,-10881.027347,0.000000
3317.416497,1036.288319,-9400.615463,-612.876398
3317.416825,2294.638420,-9400.615463,-689.485948
3317.417153,1110.308913,-10807.006753,76.609550
3317.417480,592.164754,-9918.759623,1149.143247
3317.417808,-370.102971,-8882.471304,383.047749
3317.418136,-962.267725,-8882.471304,-383.047749
3317.418463,-962.267725,-8882.471304,-766.095498
3317.418791,-1554.432478,-9400.615463,-689.485948
3317.419119,-1184.329507,-9474.636058,0.000000
3317.419447,0.000000,-10436.903782,-1762.019645
3317.419774,0.000000,-9622.677246,-1762.019645
3317.420102,148.041188,-8956.491898,-612.876398
3317.420430,1406.391290,-8438.347739,153.219100
3317.420757,1406.391290,-8808.450710,1838.629195
3317.421085,-1110.308913,-10066.800811,2911.162892
3317.421413,-814.226536,-10658.965565,2221.676944
3317.421741,148.041188,-9178.553681,-2374.896044
3317.422068,-518.144159,-8956.491898,-1915.238745
3317.422396,-962.267725,-10214.842000,-919.314598
3317.422724,-1554.432478,-11029.068536,153.219100
3317.423051,592.164754,-10436.903782,-919.314598
3317.423379,962.267725,-10436.903782,-1608.800546
3317.423707,148.041188,-10807.006753,0.000000
3317.424035,74.020594,-9548.656652,612.876398
3317.424362,-666.185348,-9104.533087,459.657299
3317.424690,-962.267725,-7772.162391,-229.828649
3317.425018,-740.205942,-9030.512492,-766.095498
3317.425346,1036.288319,-10955.047942,0.000000
3317.425673,1480.411884,-11621.233289,229.828649
3317.426001,1036.288319,-9104.533087,-536.266849
3317.426329,1406.391290,-9178.553681,-1149.143247
3317.426656,666.185348,-10807.006753,-995.924147
3317.426984,666.185348,-9918.759623,229.828649
3317.427312,-444.123565,-8290.306550,689.485948
3317.427640,592.164754,-9252.574275,919.314598
3317.427967,1554.432478,-9918.759623,229.828649
3317.428295,1110.308913,-9770.718434,0.000000
3317.428623,0.000000,-9400.615463,536.266849
3317.428950,444.123565,-9326.594869,-995.924147
3317.429278,2960.823768,-9548.656652,-2374.896044
3317.429606,2590.720797,-10955.047942,-1915.238745
3317.429934,888.247130,-10288.862594,1915.238745
3317.430261,666.185348,-9400.615463,2604.724693
3317.430589,-148.041188,-8808.450710,1608.800546
3317.430917,-444.123565,-9992.780217,-766.095498
3317.431244,-1554.432478,-8438.347739,-2451.505594
3317.431572,-1850.514855,-7698.141797,-1685.410096
3317.431900,-1850.514855,-9474.636058,-689.485948
3317.432228,-518.144159,-10214.842000,-995.924147
3317.432555,1924.535449,-9696.697840,-1455.581446
3317.432883,1998.556043,-11177.109724,-536.266849
3317.433211,1406.391290,-11177.109724,1302.362347
3317.433538,1406.391290,-10658.965565,766.095498
3317.433866,1924.535449,-9770.718434,76.609550
3317.434194,1702.473667,-9326.594869,-383.047749
3317.434522,0.000000,-9030.512492,229.828649
3317.434849,0.000000,-9844.739029,1072.533697
3317.435177,-296.082377,-10066.800811,153.219100
3317.435505,222.061783,-9548.656652,-1225.752797
3317.435833,888.247130,-9918.759623,-1685.410096
3317.436160,592.164754,-10288.862594,-766.095498
3317.436488,814.226536,-10955.047942,612.876398
3317.436816,0.000000,-10955.047942,306.438199
3317.437143,444.123565,-9474.636058,0.000000
3317.437471,-814.226536,-7698.141797,-383.047749
3317.437799,-1924.535449,-9400.615463,-153.219100
3317.438127,-1480.411884,-10807.006753,459.657299
3317.438454,-888.247130,-10510.924376,-766.095498
3317.438782,74.020594,-8808.450710,-1991.848295
3317.439110,0.000000,-9400.615463,-1532.190996
3317.439437,222.061783,-10214.842000,153.219100
3317.439765,666.185348,-9104.533087,1608.800546
3317.440093,1184.329507,-8808.450710,919.314598
3317.440421,888.247130,-8660.409521,383.047749
3317.440748,-1110.308913,-9400.615463,1455.581446
3317.441076,-1332.370696,-10510.924376,2221.676944
3317.441404,148.041188,-10214.842000,76.609550
3317.441731,296.082377,-9548.656652,-1915.238745
3317.442059,666.185348,-8216.285956,-2374.896044
3317.442387,-222.061783,-9474.636058,-842.705048
3317.442715,370.102971,-10436.903782,1225.752797
3317.443042,0.000000,-9622.677246,766.095498
3317.443370,-740.205942,-9622.677246,459.657299
3317.443698,-1184.329507,-9770.718434,-612.876398
3317.444025,-1036.288319,-9178.553681,-842.705048
3317.444353,-444.123565,-9400.615463,-919.314598
3317.444681,-592.164754,-9770.718434,0.000000
3317.445009,1702.473667,-10140.821405,-919.314598
3317.445336,2960.823768,-10362.883188,-1532.190996
3317.445664,2072.576638,-9252.574275,76.609550
3317.445992,1332.370696,-9992.780217,1838.629195
3317.446320,296.082377,-9770.718434,1378.971896
3317.446647,1036.288319,-9030.512492,0.000000
3317.446975,296.082377,-9252.574275,-459.657299
3317.447303,-1036.288319,-9844.739029,-306.438199
3317.447630,-444.123565,-11251.130318,-306.438199
3317.447958,814.226536,-11547.212695,-1838.629195
3317.448286,2368.659014,-10362.883188,-3447.429741
3317.448614,1998.556043,-10140.821405,-1991.848295
3317.448941,2368.659014,-10584.944971,-383.047749
3317.449269,1554.432478,-9918.759623,1838.629195
3317.449597,592.164754,-8734.430116,2604.724693
3317.449924,296.082377,-8438.347739,2221.676944
3317.450252,-740.205942,-9326.594869,1915.238745
3317.450580,-1332.370696,-9326.594869,919.314598
3317.450908,-2220.617826,-8734.430116,-1915.238745
3317.451235,-1924.535449,-8438.347739,-3064.381992
3317.451563,0.000000,-9030.512492,-3447.429741
3317.451891,-518.144159,-9178.553681,-1532.190996
3317.452218,222.061783,-10288.862594,766.095498
3317.452546,1332.370696,-11251.130318,1378.971896
3317.452874,1480.411884,-11251.130318,1149.143247
3317.453202,1702.473667,-9770.718434,536.266849
3317.453529,1554.432478,-8734.430116,306.438199
3317.453857,592.164754,-9548.656652,995.924147
3317.454185,-222.061783,-9252.574275,536.266849
3317.454512,0.000000,-8660.409521,-1762.019645
3317.454840,296.082377,-8734.430116,-2987.772442
3317.455168,222.061783,-9474.636058,-1991.848295
3317.455496,0.000000,-10732.986159,0.000000
3317.455823,518.144159,-11917.315666,995.924147
3317.456151,1480.411884,-11769.274478,306.438199
3317.456479,666.185348,-9770.718434,-306.438199
3317.456807,-222.061783,-8734.430116,0.000000
3317.457134,-888.247130,-9400.615463,0.000000
3317.457462,-518.144159,-9992.780217,-689.485948
3317.457790,0.000000,-9548.656652,-1762.019645
3317.458117,-518.144159,-8512.368333,-2145.067394
3317.458445,0.000000,-9400.615463,-842.705048
3317.458773,-444.123565,-9252.574275,229.828649
3317.459101,-1036.288319,-10362.883188,919.314598
3317.459428,296.082377,-9178.553681,153.219100
3317.459756,1628.453072,-8512.368333,-1225.752797
3317.460084,740.205942,-11399.171507,1225.752797
3317.460411,-592.164754,-10881.027347,2604.724693
3317.460739,-592.164754,-8216.285956,612.876398
3317.461067,1184.329507,-8142.265362,-2451.505594
3317.461395,148.041188,-9252.574275,-2451.505594
3317.461722,-1184.329507,-9696.697840,153.219100
3317.462050,-1850.514855,-8586.388927,1838.629195
3317.462378,518.144159,-9918.759623,459.657299
3317.462705,1850.514855,-10140.821405,-766.095498
3317.463033,0.000000,-9474.636058,0.000000
3317.463361,-1184.329507,-10658.965565,1991.848295
3317.463689,-962.267725,-9400.615463,-229.828649
3317.464016,1554.432478,-8364.327145,-2757.943793
3317.464344,1850.514855,-8808.450710,-1915.238745
3317.464672,2368.659014,-9918.759623,842.705048
3317.464999,2442.679609,-9474.636058,2374.896044
3317.465327,1258.350101,-9844.739029,2834.553343
3317.465655,1776.494261,-10214.842000,1302.362347
3317.465983,370.102971,-8808.450710,-995.924147
3317.466310,-444.123565,-9178.553681,0.000000
3317.466638,-1184.329507,-10362.883188,-612.876398
3317.466966,-222.061783,-11103.089130,-1685.410096
3317.467294,1702.473667,-10288.862594,-2451.505594
3317.467621,1406.391290,-10881.027347,-2528.115143
3317.467949,1332.370696,-10140.821405,-536.266849
3317.468277,518.144159,-8808.450710,383.047749
3317.468604,962.267725,-9474.636058,1072.533697
3317.468932,2294.638420,-9474.636058,0.000000
3317.469260,740.205942,-9400.615463,842.705048
3317.469588,0.000000,-10658.965565,2374.896044
3317.469915,-518.144159,-9918.759623,766.095498
3317.470243,-370.102971,-10584.944971,-1762.019645
3317.470571,-1110.308913,-8734.430116,-4290.134789
3317.470898,-1406.391290,-8586.388927,-3524.039291
3317.471226,-1406.391290,-9030.512492,-842.705048
3317.471554,-888.247130,-9918.759623,1072.533697
3317.471882,1554.432478,-10955.047942,1762.019645
3317.472209,2220.617826,-9474.636058,612.876398
3317.472537,1184.329507,-9474.636058,1685.410096
3317.472865,0.000000,-10436.903782,2528.115143
3317.473192,0.000000,-8586.388927,0.000000
3317.473520,1110.308913,-8438.347739,-2528.115143
3317.473848,-370.102971,-8808.450710,-2604.724693
3317.474175,0.000000,-9252.574275,-612.876398
3317.474503,-518.144159,-9326.594869,1149.143247
3317.474831,444.123565,-9918.759623,1225.752797
3317.475158,1184.329507,-9696.697840,-612.876398
3317.475486,-222.061783,-10362.883188,0.000000
3317.475814,814.226536,-11991.336260,689.485948
3317.476141,1184.329507,-10732.986159,76.609550
3317.476469,1110.308913,-9474.636058,-1149.143247
3317.476797,-148.041188,-8660.409521,-1378.971896
3317.477124,-592.164754,-8660.409521,-2604.724693
3317.477452,-1184.329507,-9104.533087,-1225.752797
3317.477780,-2072.576638,-10436.903782,-306.438199
3317.478107,-1110.308913,-10510.924376,-459.657299
3317.478435,-370.102971,-9696.697840,-1378.971896
3317.478763,-222.061783,-10066.800811,0.000000
3317.479090,1258.350101,-10436.903782,1302.362347
3317.479418,1628.453072,-10362.883188,842.705048
3317.479746,1480.411884,-10732.986159,766.095498
3317.480073,1480.411884,-10362.883188,-612.876398
3317.480401,296.082377,-8142.265362,-995.924147
3317.480729,518.144159,-8438.347739,0.000000
3317.481056,-814.226536,-9548.656652,1149.143247
3317.481384,-222.061783,-9918.759623,1455.581446
3317.481711,-666.185348,-10584.944971,153.219100
3317.482039,296.082377,-10214.842000,-766.095498
3317.482367,148.041188,-10881.027347,-919.314598
3317.482694,-370.102971,-9474.636058,-919.314598
3317.483022,666.185348,-7698.141797,-1378.971896
3317.483350,222.061783,-7476.080014,-1302.362347
3317.483677,74.020594,-9030.512492,766.095498
3317.484005,0.000000,-9622.677246,1991.848295
3317.484333,1628.453072,-9326.594869,1302.362347
3317.484660,2516.700203,-9844.739029,229.828649
3317.484988,0.000000,-10362.883188,612.876398
3317.485316,518.144159,-10140.821405,229.828649
3317.485643,148.041188,-8660.409521,-1302.362347
3317.485971,592.164754,-9696.697840,-2374.896044
3317.486299,518.144159,-10732.986159,-1991.848295
3317.486626,0.000000,-9326.594869,383.047749
3317.486954,1776.494261,-9474.636058,842.705048
3317.487282,1480.411884,-10362.883188,153.219100
3317.487609,1554.432478,-10658.965565,459.657299
3317.487937,666.185348,-9474.636058,0.000000
3317.488265,962.267725,-9326.594869,-153.219100
3317.488592,1110.308913,-10732.986159,-612.876398
3317.488920,0.000000,-11399.171507,76.609550
3317.489247,1110.308913,-10066.800811,-766.095498
3317.489575,1184.329507,-9844.739029,-612.876398
3317.489903,222.061783,-9252.574275,-459.657299
3317.490230,-1036.288319,-9178.553681,612.876398
3317.490558,-2442.679609,-9474.636058,383.047749
3317.490886,-888.247130,-8882.471304,-1302.362347
3317.491213,-1554.432478,-8290.306550,-1608.800546
3317.491541,-1480.411884,-9400.615463,76.609550
3317.491869,-1702.473667,-10510.924376,919.314598
3317.492196,1554.432478,-10955.047942,-459.657299
3317.492524,1924.535449,-9252.574275,-1149.143247
3317.492852,0.000000,-9622.677246,306.438199
3317.493179,1332.370696,-9548.656652,383.047749
3317.493507,296.082377,-8290.306550,536.266849
3317.493835,-666.185348,-9104.533087,919.314598
3317.494162,962.267725,-9474.636058,536.266849
3317.494490,0.000000,-9548.656652,153.219100
3317.494818,74.020594,-9474.636058,536.266849
3317.495145,-740.205942,-9696.697840,-306.438199
3317.495473,1184.329507,-10140.821405,-1532.190996
3317.495801,1554.432478,-10510.924376,-1378.971896
3317.496128,1554.432478,-9844.739029,-612.876398
3317.496456,888.247130,-8586.388927,306.438199
3317.496783,-1702.473667,-9252.574275,1225.752797
3317.497111,222.061783,-10807.006753,536.266849
3317.497439,222.061783,-10510.924376,-2145.067394
3317.497766,-518.144159,-10436.903782,-1149.143247
3317.498094,-444.123565,-11103.089130,-536.266849
3317.498422,-148.041188,-10140.821405,-1532.190996
3317.498749,1924.535449,-8734.430116,-2757.943793
3317.499077,1332.370696,-9844.739029,-766.095498
3317.499405,814.226536,-10584.944971,1302.362347
3317.499732,0.000000,-10436.903782,2068.457845
3317.500060,-444.123565,-9474.636058,153.219100
3317.500388,1110.308913,-7920.203579,-1915.238745
3317.500715,0.000000,-10066.800811,-766.095498
3317.501043,0.000000,-12361.439231,1762.019645
3317.501371,-888.247130,-10807.006753,919.314598
3317.501698,518.144159,-8882.471304,-2068.457845
3317.502026,296.082377,-7254.018232,-2834.553343
3317.502354,74.020594,-8808.450710,306.438199
3317.502681,148.041188,-8512.368333,1685.410096
3317.503009,-666.185348,-8882.471304,2298.286494
3317.503337,-444.123565,-8660.409521,995.924147
3317.503664,1258.350101,-8956.491898,-766.095498
3317.503992,1480.411884,-9918.759623,153.219100
3317.504319,1110.308913,-10066.800811,1072.533697
3317.504647,74.020594,-9474.636058,-459.657299
3317.504975,2590.720797,-9770.718434,-2068.457845
3317.505302,1998.556043,-8438.347739,-2068.457845
3317.505630,1480.411884,-8068.244768,0.000000
3317.505958,-148.041188,-8882.471304,2145.067394
3317.506285,-1184.329507,-10881.027347,2834.553343
3317.506613,740.205942,-10362.883188,-919.314598
3317.506941,518.144159,-10288.862594,-2068.457845
3317.507268,0.000000,-10658.965565,-306.438199
3317.507596,-222.061783,-10362.883188,-153.219100
3317.507924,1036.288319,-10955.047942,-1378.971896
3317.508251,2220.617826,-10066.800811,-2604.724693
3317.508579,444.123565,-9104.533087,-842.705048
3317.508907,666.185348,-9400.615463,536.266849
3317.509234,444.123565,-9770.718434,1838.629195
3317.509562,1480.411884,-11029.068536,2451.505594
3317.509890,2442.679609,-9474.636058,153.219100
3317.510217,-222.061783,-9992.780217,995.924147
3317.510545,-888.247130,-11251.130318,536.266849
3317.510873,-1480.411884,-9252.574275,-1532.190996
3317.511200,-1110.308913,-8956.491898,-2221.676944
3317.511528,-1702.473667,-8586.388927,-4136.915689
3317.511855,-2516.700203,-8438.347739,-2145.067394
3317.512183,-1776.494261,-9474.636058,612.876398
3317.512511,-370.102971,-9474.636058,1685.410096
3317.512838,2516.700203,-11251.130318,1685.410096
3317.513166,2664.741391,-9252.574275,1072.533697
3317.513494,1184.329507,-10288.862594,1762.019645
3317.513821,666.185348,-11325.150913,612.876398
3317.514149,1998.556043,-9104.533087,-1685.410096
3317.514477,1036.288319,-8882.471304,-2451.505594
3317.514804,0.000000,-9030.512492,-1608.800546
3317.515132,-962.267725,-9030.512492,1072.533697
3317.515460,-1480.411884,-8808.450710,1838.629195
3317.515787,74.020594,-9844.739029,1608.800546
3317.516115,1258.350101,-9770.718434,-459.657299
3317.516443,370.102971,-9622.677246,0.000000
3317.516770,518.144159,-11843.295072,1685.410096
3317.517098,1036.288319,-10140.821405,-919.314598
3317.517426,814.226536,-9326.594869,-2681.334243
3317.517753,-666.185348,-9992.780217,-2221.676944
3317.518081,-814.226536,-9548.656652,-1608.800546
3317.518409,-222.061783,-8956.491898,0.000000
3317.518736,-1480.411884,-8216.285956,459.657299
3317.519064,-1036.288319,-10214.842000,995.924147
3317.519391,-518.144159,-9474.636058,-842.705048
3317.519719,592.164754,-9474.636058,-1225.752797
3317.520047,1110.308913,-11695.253884,-766.095498
3317.520374,1850.514855,-10214.842000,-842.705048
3317.520702,1924.535449,-10807.006753,-306.438199
3317.521030,1850.514855,-8882.471304,-1378.971896
3317.521357,1258.350101,-9622.677246,0.000000
3317.521685,-222.061783,-10362.883188,1532.190996
3317.522013,-666.185348,-10140.821405,1302.362347
3317.522340,222.061783,-9252.574275,-612.876398
3317.522668,-1110.308913,-7031.956449,-919.314598
3317.522996,-370.102971,-11769.274478,0.000000
3317.523323,-666.185348,-11399.171507,689.485948
3317.523651,1554.432478,-9474.636058,-2221.676944
3317.523979,1776.494261,-10066.800811,-1991.848295
3317.524306,962.267725,-9770.718434,-459.657299
3317.524634,888.247130,-8364.327145,1991.848295
3317.524962,0.000000,-6365.771101,3447.429741
3317.525289,740.205942,-5921.647536,2451.505594
3317.525617,1184.329507,-8586.388927,459.657299
3317.525945,-1332.370696,-10288.862594,1149.143247
3317.526272,-1110.308913,-9992.780217,-306.438199
3317.526600,222.061783,-10362.883188,-2987.772442
3317.526927,1480.411884,-11843.295072,-3140.991542
3317.527255,1332.370696,-9622.677246,-2681.334243
3317.527583,518.144159,-9696.697840,0.000000
3317.527910,1628.453072,-10066.800811,1608.800546
3317.528238,1554.432478,-9400.615463,1685.410096
3317.528566,1184.329507,-8734.430116,1455.581446
3317.528893,74.020594,-7698.141797,1225.752797
3317.529221,0.000000,-9400.615463,1149.143247
3317.529549,0.000000,-9918.759623,0.000000
3317.529876,-518.144159,-10288.862594,-1225.752797
3317.530204,1850.514855,-12065.356855,-2451.505594
3317.530532,3034.844362,-11621.233289,-2451.505594
3317.530859,1850.514855,-10288.862594,-306.438199
3317.531187,-888.247130,-9844.739029,1685.410096
3317.531515,-1702.473667,-9622.677246,1302.362347
3317.531842,-1998.556043,-8734.430116,919.314598
3317.532170,-2664.741391,-7994.224174,-383.047749
3317.532498,-1628.453072,-8956.491898,-306.438199
3317.532825,-1850.514855,-10510.924376,-919.314598
3317.533153,-444.123565,-10584.944971,-2451.505594
3317.533481,666.185348,-10214.842000,-3140.991542
3317.533808,1702.473667,-10658.965565,-1378.971896
3317.534136,2368.659014,-10362.883188,383.047749
3317.534463,1184.329507,-9548.656652,1762.019645
3317.534791,1406.391290,-8956.491898,1149.143247
3317.535119,1628.453072,-8364.327145,1532.190996
3317.535446,814.226536,-8734.430116,2451.505594
3317.535774,0.000000,-8808.450710,2145.067394
3317.536102,-962.267725,-9030.512492,76.609550
3317.536429,-444.123565,-9104.533087,-2681.334243
3317.536757,222.061783,-10066.800811,-4213.525239
3317.537085,0.000000,-10955.047942,-2298.286494
3317.537412,666.185348,-11177.109724,76.609550
3317.537740,740.205942,-11621.233289,1302.362347
3317.538068,2886.803174,-9474.636058,0.000000
3317.538395,666.185348,-7994.224174,1072.533697
3317.538723,-1480.411884,-10584.944971,2681.334243
3317.539051,-2220.617826,-10584.944971,536.266849
3317.539378,-1480.411884,-8512.368333,-2987.772442
3317.539706,-370.102971,-7476.080014,-4290.134789
3317.540034,-740.205942,-9104.533087,-2451.505594
3317.540361,592.164754,-10881.027347,995.924147
3317.540689,1554.432478,-10658.965565,1685.410096
3317.541017,1258.350101,-10732.986159,689.485948
3317.541344,1406.391290,-9474.636058,-1225.752797
3317.541672,-592.164754,-8438.347739,-459.657299
3317.541999,-1702.473667,-8512.368333,612.876398
3317.542327,-1924.535449,-8882.471304,229.828649
3317.542655,-666.185348,-10955.047942,-842.705048
3317.542982,1850.514855,-11103.089130,-1685.410096
3317.543310,2812.782580,-9992.780217,-1302.362347
3317.543638,1628.453072,-9992.780217,0.000000
3317.543965,-666.185348,-10362.883188,1762.019645
3317.544293,222.061783,-8882.471304,536.266849
3317.544621,74.020594,-7254.018232,-1072.533697
3317.544948,-296.082377,-9104.533087,842.705048
3317.545276,444.123565,-9622.677246,1685.410096
3317.545604,0.000000,-10436.903782,1149.143247
3317.545931,814.226536,-10288.862594,-1072.533697
3317.546259,2220.617826,-10140.821405,-3677.258390
3317.546587,740.205942,-9622.677246,-1838.629195
3317.546914,0.000000,-8142.265362,229.828649
3317.547242,-222.061783,-8216.285956,1072.533697
3317.547570,1110.308913,-9548.656652,689.485948
3317.547897,740.205942,-10807.006753,1378.971896
3317.548225,222.061783,-11177.109724,995.924147
3317.548553,-148.041188,-9770.718434,-229.828649
3317.548880,-444.123565,-10066.800811,-1455.581446
3317.549208,1480.411884,-9918.759623,-2681.334243
3317.549535,1332.370696,-8290.306550,-1455.581446
3317.549863,2368.659014,-10362.883188,1302.362347
3317.550191,2516.700203,-9770.718434,2528.115143
3317.550518,2368.659014,-10214.842000,2145.067394
3317.550846,2072.576638,-8882.471304,1378.971896
3317.551174,-1628.453072,-8734.430116,1225.752797
3317.551501,-3108.864956,-9918.759623,919.314598
3317.551829,-4145.153275,-9400.615463,-1838.629195
3317.552157,-1924.535449,-9326.594869,-4673.182538
3317.552484,0.000000,-9474.636058,-4749.792088
3317.552812,74.020594,-11177.109724,-1608.800546
3317.553140,1036.288319,-10955.047942,842.705048
3317.553467,1776.494261,-9548.656652,919.314598
3317.553795,3108.864956,-9178.553681,842.705048
3317.554123,1998.556043,-8882.471304,1762.019645
3317.554450,1406.391290,-9548.656652,2604.724693
3317.554778,962.267725,-9844.739029,2145.067394
3317.555106,518.144159,-9770.718434,0.000000
3317.555433,2072.576638,-9178.553681,-2604.724693
3317.555761,-148.041188,-9326.594869,-2221.676944
3317.556089,-1850.514855,-10288.862594,-229.828649
3317.556416,-1554.432478,-8956.491898,-1225.752797
3317.556744,-962.267725,-11103.089130,-1608.800546
3317.557071,1850.514855,-11473.192101,-2068.457845
3317.557399,1258.350101,-11103.089130,459.657299
3317.557727,888.247130,-9770.718434,2451.505594
3317.558054,-518.144159,-8808.450710,1378.971896
3317.558382,74.020594,-9844.739029,-995.924147
3317.558710,592.164754,-6735.874072,-2987.772442
3317.559037,-2368.659014,-8734.430116,-612.876398
3317.559365,-3404.947333,-10807.006753,1302.362347
3317.559693,-1850.514855,-8660.409521,-1532.190996
3317.560020,74.020594,-9104.533087,-2757.943793
3317.560348,888.247130,-9918.759623,-1608.800546
3317.560676,74.020594,-11029.068536,2068.457845
3317.561003,1776.494261,-10066.800811,2451.505594
3317.561331,2294.638420,-9622.677246,0.000000
3317.561659,2072.576638,-10214.842000,-2145.067394
3317.561986,148.041188,-8808.450710,-1225.752797
3317.562314,-2294.638420,-9326.594869,2451.505594
3317.562642,-666.185348,-7105.977043,1455.581446
3317.562969,148.041188,-7920.203579,-842.705048
3317.563297,0.000000,-11621.233289,-689.485948
3317.563625,0.000000,-11325.150913,-995.924147
3317.563952,370.102971,-10955.047942,0.000000
3317.564280,1332.370696,-10140.821405,0.000000
3317.564607,814.226536,-10214.842000,76.609550
3317.564935,222.061783,-7846.182985,-459.657299
3317.565263,0.000000,-7179.997637,1225.752797
3317.565590,2072.576638,-8882.471304,2068.457845
3317.565918,2516.700203,-9104.533087,919.314598
3317.566246,-370.102971,-10066.800811,1149.143247
3317.566573,-814.226536,-9400.615463,-689.485948
3317.566901,-148.041188,-10214.842000,-1302.362347
3317.567229,518.144159,-11029.068536,-1685.410096
3317.567556,74.020594,-10584.944971,-1072.533697
3317.567884,222.061783,-11325.150913,-536.266849
3317.568212,1628.453072,-10881.027347,-919.314598
3317.568539,1702.473667,-11251.130318,612.876398
3317.568867,1850.514855,-7476.080014,306.438199
3317.569195,296.082377,-7105.977043,1838.629195
3317.569522,296.082377,-10288.862594,2374.896044
3317.569850,1998.556043,-9696.697840,995.924147
3317.570178,740.205942,-9252.574275,1149.143247
3317.570505,444.123565,-10510.924376,689.485948
3317.570833,-888.247130,-10807.006753,0.000000
3317.571161,-2220.617826,-9622.677246,-1378.971896
3317.571488,-3034.844362,-7624.121203,-2681.334243
3317.571816,-2590.720797,-9400.615463,-2911.162892
3317.572143,-1480.411884,-8586.388927,-1762.019645
3317.572471,-814.226536,-9474.636058,459.657299
3317.572799,1110.308913,-10955.047942,1685.410096
3317.573126,2590.720797,-10436.903782,2145.067394
3317.573454,2368.659014,-11251.130318,76.609550
3317.573782,888.247130,-8956.491898,-383.047749
3317.574109,1110.308913,-8734.430116,-919.314598
3317.574437,1184.329507,-8882.471304,-1149.143247
3317.574765,814.226536,-10288.862594,153.219100
3317.575092,0.000000,-10140.821405,612.876398
3317.575420,-592.164754,-9104.533087,0.000000
3317.575748,-592.164754,-10658.965565,-612.876398
3317.576075,296.082377,-9252.574275,-689.485948
3317.576403,888.247130,-10288.862594,-842.705048
3317.576730,2072.576638,-11473.192101,-383.047749
3317.577058,1924.535449,-12953.603985,-689.485948
3317.577386,370.102971,-10584.944971,-1149.143247
3317.577713,74.020594,-6809.894666,-1991.848295
3317.578041,-888.247130,-9548.656652,-229.828649
3317.578369,-740.205942,-8660.409521,153.219100
3317.578696,-1850.514855,-7920.203579,-306.438199
3317.579024,-2220.617826,-9104.533087,306.438199
3317.579352,-1184.329507,-9474.636058,-229.828649
3317.579679,-296.082377,-12139.377449,-153.219100
3317.580007,518.144159,-9844.739029,-1225.752797
3317.580334,222.061783,-8882.471304,-2221.676944
3317.580662,1702.473667,-9178.553681,-1378.971896
3317.580990,1406.391290,-10066.800811,919.314598
3317.581317,1258.350101,-10214.842000,2834.553343
3317.581645,1628.453072,-7994.224174,1532.190996
3317.581973,0.000000,-9548.656652,1455.581446
3317.582300,-296.082377,-8882.471304,0.000000
3317.582628,-296.082377,-7698.141797,-2757.943793
3317.582956,-1998.556043,-10214.842000,-1072.533697
3317.583283,-1480.411884,-11399.171507,-766.095498
3317.583611,740.205942,-11177.109724,-842.705048
3317.583938,2812.782580,-9252.574275,-1378.971896
3317.584266,1554.432478,-9918.759623,536.266849
3317.584594,518.144159,-9030.512492,1532.190996
3317.584921,222.061783,-7402.059420,1915.238745
3317.585249,1924.535449,-8808.450710,536.266849
3317.585577,3256.906145,-8364.327145,-612.876398
3317.585904,1332.370696,-10140.821405,1378.971896
3317.586232,148.041188,-9696.697840,1149.143247
3317.586559,-296.082377,-12065.356855,-995.924147
3317.586887,444.123565,-11399.171507,-3983.696590
3317.587215,1110.308913,-10807.006753,-3753.867940
3317.587542,-296.082377,-11621.233289,-459.657299
3317.587870,814.226536,-8586.388927,76.609550
3317.588198,518.144159,-10288.862594,2145.067394
3317.588525,962.267725,-9844.739029,1991.848295
3317.588853,370.102971,-6661.853478,306.438199
3317.589181,-518.144159,-9252.574275,306.438199
3317.589508,-444.123565,-9622.677246,-459.657299
3317.589836,148.041188,-9400.615463,-1225.752797
3317.590163,666.185348,-9400.615463,-995.924147
3317.590491,148.041188,-10362.883188,459.657299
3317.590819,-814.226536,-11103.089130,1302.362347
3317.591146,-1406.391290,-8882.471304,0.000000
3317.591474,-1998.556043,-8956.491898,-842.705048
3317.591802,-740.205942,-7402.059420,-2298.286494
3317.592129,-1702.473667,-7920.203579,-383.047749
3317.592457,-2072.576638,-11029.068536,1302.362347
3317.592785,1406.391290,-10214.842000,76.609550
3317.593112,2516.700203,-10807.006753,-1685.410096
3317.593440,1258.350101,-10362.883188,-995.924147
3317.593767,0.000000,-9992.780217,383.047749
3317.594095,0.000000,-7402.059420,1378.971896
3317.594423,1406.391290,-9252.574275,1455.581446
3317.594750,1258.350101,-10288.862594,229.828649
3317.595078,296.082377,-8364.327145,612.876398
3317.595406,-1332.370696,-9918.759623,1762.019645
3317.595733,-888.247130,-10658.965565,-459.657299
3317.596061,814.226536,-10362.883188,-2451.505594
3317.596388,2146.597232,-9918.759623,-3830.477490
3317.596716,1924.535449,-12065.356855,-2068.457845
3317.597044,1110.308913,-11991.336260,0.000000
3317.597371,962.267725,-8734.430116,0.000000
3317.597699,-444.123565,-9622.677246,612.876398
3317.598027,-814.226536,-9622.677246,-612.876398
3317.598354,-2368.659014,-7846.182985,-153.219100
3317.598682,-814.226536,-9400.615463,229.828649
3317.599010,74.020594,-9030.512492,-306.438199
3317.599337,148.041188,-11843.295072,-842.705048
3317.599665,1332.370696,-10066.800811,-1532.190996
3317.599992,1776.494261,-9400.615463,-1378.971896
3317.600320,1776.494261,-9030.512492,-536.266849
3317.600648,518.144159,-8660.409521,1455.581446
3317.600975,296.082377,-9252.574275,2834.553343
3317.601303,1924.535449,-7994.224174,1149.143247
3317.601631,1110.308913,-10510.924376,1532.190996
3317.601958,296.082377,-11843.295072,1225.752797
3317.602286,-444.123565,-9252.574275,-1149.143247
3317.602613,-592.164754,-7031.956449,-3600.648841
3317.602941,296.082377,-8142.265362,-3600.648841
3317.603269,-518.144159,-10214.842000,-689.485948
3317.603596,0.000000,-8734.430116,1302.362347
3317.603924,370.102971,-9178.553681,1991.848295
3317.604252,444.123565,-10288.862594,1149.143247
3317.604579,962.267725,-9400.615463,76.609550
3317.604907,222.061783,-9474.636058,612.876398
3317.605235,666.185348,-9326.594869,229.828649
3317.605562,1406.391290,-10140.821405,-536.266849
3317.605890,1628.453072,-8956.491898,-1149.143247
3317.606217,0.000000,-10140.821405,-689.485948
3317.606545,-740.205942,-11621.233289,-536.266849
3317.606873,0.000000,-10732.986159,-919.314598
3317.607200,-1036.288319,-10955.047942,0.000000
3317.607528,-370.102971,-9474.636058,76.609550
3317.607856,0.000000,-9770.718434,153.219100
3317.608183,222.061783,-10658.965565,842.705048
3317.608511,-222.061783,-10066.800811,153.219100
3317.608839,1036.288319,-9770.718434,-1915.238745
3317.609166,1110.308913,-8290.306550,-3064.381992
