#time,accel_x,accel_y,accel_z
2964.488227,296.082377,-9474.636058,306.438199
2964.488555,222.061783,-9474.636058,153.219100
2964.488882,0.000000,-9696.697840,-229.828649
2964.489210,-444.123565,-9770.718434,-612.876398
2964.489537,0.000000,-9992.780217,-229.828649
2964.489864,0.000000,-10214.842000,-383.047749
2964.490192,296.082377,-9844.739029,0.000000
2964.490519,888.247130,-9844.739029,0.000000
2964.490847,370.102971,-9326.594869,76.609550
2964.491174,814.226536,-8956.491898,459.657299
2964.491501,666.185348,-9252.574275,383.047749
2964.491829,518.144159,-9104.533087,229.828649
2964.492156,0.000000,-8734.430116,153.219100
2964.492484,0.000000,-9252.574275,0.000000
2964.492811,74.020594,-9474.636058,153.219100
2964.493138,222.061783,-9548.656652,-229.828649
2964.493466,0.000000,-9178.553681,-459.657299
2964.493793,370.102971,-9918.759623,-306.438199
2964.494121,518.144159,-9992.780217,76.609550
2964.494448,888.247130,-9992.780217,229.828649
2964.494775,592.164754,-9696.697840,306.438199
2964.495103,592.164754,-9548.656652,383.047749
2964.495430,444.123565,-9326.594869,76.609550
2964.495758,592.164754,-9548.656652,-459.657299
2964.496085,74.020594,-9474.636058,-459.657299
2964.496412,0.000000,-9770.718434,-766.095498
2964.496740,0.000000,-9770.718434,-1149.143247
2964.497067,0.000000,-10066.800811,-689.485948
2964.497395,444.123565,-10288.862594,-612.876398
2964.497722,518.144159,-9918.759623,-306.438199
2964.498049,888.247130,-10362.883188,-383.047749
2964.498377,962.267725,-10362.883188,-383.047749
2964.498704,592.164754,-9992.780217,0.000000
2964.499032,370.102971,-9918.759623,0.000000
2964.499359,74.020594,-9474.636058,-612.876398
2964.499686,0.000000,-9400.615463,-383.047749
2964.500014,-370.102971,-9326.594869,0.000000
2964.500341,-296.082377,-9474.636058,0.000000
2964.500669,0.000000,-9548.656652,-383.047749
2964.500996,74.020594,-9992.780217,0.000000
2964.501323,296.082377,-9992.780217,-229.828649
2964.501651,370.102971,-9992.780217,76.609550
2964.501978,592.164754,-10214.842000,536.266849
2964.502306,888.247130,-9474.636058,536.266849
2964.502633,962.267725,-8956.491898,612.876398
2964.502960,296.082377,-8882.471304,153.219100
2964.503288,148.041188,-8882.471304,229.828649
2964.503615,0.000000,-8956.491898,0.000000
2964.503943,148.041188,-9400.615463,-383.047749
2964.504270,370.102971,-9104.533087,-383.047749
2964.504597,148.041188,-9474.636058,-383.047749
2964.504925,518.144159,-9992.780217,-689.485948
2964.505252,592.164754,-9918.759623,0.000000
2964.505580,888.247130,-9992.780217,76.609550
2964.505907,888.247130,-10066.800811,0.000000
2964.506234,518.144159,-9770.718434,0.000000
2964.506562,370.102971,-9548.656652,0.000000
2964.506889,296.082377,-9326.594869,0.000000
2964.507217,222.061783,-9252.574275,0.000000
2964.507544,74.020594,-9622.677246,-383.047749
2964.507871,0.000000,-9844.739029,-612.876398
2964.508199,0.000000,-9992.780217,-1072.533697
2964.508526,74.020594,-10288.862594,-919.314598
2964.508854,370.102971,-10066.800811,-612.876398
2964.509181,666.185348,-10140.821405,-383.047749
2964.509508,962.267725,-9918.759623,-766.095498
2964.509836,1702.473667,-9474.636058,-76.609550
2964.510163,2072.576638,-9474.636058,0.000000
2964.510491,2812.782580,-8956.491898,153.219100
2964.510818,3256.906145,-8364.327145,0.000000
2964.511145,3997.112087,-8512.368333,-229.828649
2964.511473,4885.359217,-9326.594869,0.000000
2964.511800,5403.503377,-9252.574275,-229.828649
2964.512128,6883.915261,-9548.656652,-459.657299
2964.512455,7550.100608,-10288.862594,0.000000
2964.512782,8808.450710,-10362.883188,76.609550
2964.513110,8734.430116,-10436.903782,766.095498
2964.513437,8734.430116,-10214.842000,1225.752797
2964.513765,8660.409521,-9252.574275,383.047749
2964.514092,9178.553681,-8586.388927,0.000000
2964.514419,9474.636058,-8808.450710,-306.438199
2964.514747,9770.718434,-8438.347739,153.219100
2964.515074,10510.924376,-8586.388927,0.000000
2964.515402,10807.006753,-9474.636058,0.000000
2964.515729,10362.883188,-10140.821405,383.047749
2964.516056,10066.800811,-9474.636058,229.828649
2964.516384,10658.965565,-8808.450710,-306.438199
2964.516711,11843.295072,-9400.615463,-306.438199
2964.517039,13323.706956,-10658.965565,0.000000
2964.517366,14211.954086,-10881.027347,689.485948
2964.517693,15174.221811,-9548.656652,919.314598
2964.518021,15026.180623,-8364.327145,76.609550
2964.518348,13249.686362,-9474.636058,229.828649
2964.518676,12509.480420,-9326.594869,229.828649
2964.519003,12065.356855,-9252.574275,-536.266849
2964.519330,12953.603985,-10584.944971,-689.485948
2964.519658,13545.768739,-11399.171507,153.219100
2964.519985,13249.686362,-9992.780217,1455.581446
2964.520313,12361.439231,-8808.450710,1685.410096
2964.520640,12065.356855,-9252.574275,1225.752797
2964.520967,11547.212695,-9696.697840,0.000000
2964.521295,9696.697840,-9474.636058,0.000000
2964.521622,9474.636058,-9104.533087,-612.876398
2964.521950,8364.327145,-8660.409521,-383.047749
2964.522277,7476.080014,-8290.306550,0.000000
2964.522604,8142.265362,-8808.450710,306.438199
2964.522932,8512.368333,-9548.656652,-306.438199
2964.523259,9770.718434,-11473.192101,-612.876398
2964.523587,9104.533087,-11769.274478,306.438199
2964.523914,8142.265362,-11251.130318,689.485948
2964.524241,5921.647536,-9696.697840,1149.143247
2964.524569,4663.297435,-8734.430116,612.876398
2964.524896,4589.276840,-8068.244768,0.000000
2964.525224,3849.070898,-9770.718434,-383.047749
2964.525551,3034.844362,-10955.047942,76.609550
2964.525878,2442.679609,-8956.491898,0.000000
2964.526206,1628.453072,-8068.244768,-612.876398
2964.526533,0.000000,-9104.533087,-766.095498
2964.526861,0.000000,-10510.924376,-1149.143247
2964.527188,1258.350101,-10362.883188,-1915.238745
2964.527515,2664.741391,-9548.656652,-2068.457845
2964.527843,4367.215058,-8142.265362,-689.485948
2964.528170,3849.070898,-8956.491898,919.314598
2964.528498,1554.432478,-9474.636058,2834.553343
2964.528825,1258.350101,-10288.862594,2298.286494
2964.529152,3034.844362,-9548.656652,-1225.752797
2964.529480,4441.235652,-9622.677246,-2374.896044
2964.529807,2886.803174,-10510.924376,-1302.362347
2964.530135,296.082377,-10584.944971,536.266849
2964.530462,-592.164754,-9178.553681,536.266849
2964.530789,148.041188,-9030.512492,-1149.143247
2964.531117,222.061783,-10362.883188,-1378.971896
2964.531444,-518.144159,-9474.636058,0.000000
2964.531772,148.041188,-8290.306550,1072.533697
2964.532099,2146.597232,-10288.862594,612.876398
2964.532426,1776.494261,-10807.006753,-459.657299
2964.532754,-592.164754,-9326.594869,0.000000
2964.533081,-1554.432478,-6883.915261,-459.657299
2964.533409,-222.061783,-7254.018232,-1838.629195
2964.533736,1702.473667,-10436.903782,-2451.505594
2964.534063,1776.494261,-11547.212695,-689.485948
2964.534391,666.185348,-9400.615463,919.314598
2964.534718,1332.370696,-9178.553681,-306.438199
2964.535046,2368.659014,-11843.295072,-612.876398
2964.535373,3182.885551,-12139.377449,-306.438199
2964.535700,3701.029710,-9770.718434,-383.047749
2964.536028,3701.029710,-7772.162391,0.000000
2964.536355,4441.235652,-9474.636058,306.438199
2964.536683,3108.864956,-10362.883188,1838.629195
2964.537010,1480.411884,-8734.430116,2451.505594
2964.537337,1850.514855,-7105.977043,229.828649
2964.537665,2368.659014,-8142.265362,-2451.505594
2964.537992,592.164754,-10881.027347,-1225.752797
2964.538320,1110.308913,-11103.089130,1072.533697
2964.538647,2812.782580,-9178.553681,-306.438199
2964.538974,2072.576638,-10807.006753,-766.095498
2964.539302,148.041188,-12731.542202,612.876398
2964.539629,-148.041188,-11103.089130,383.047749
2964.539957,740.205942,-9474.636058,-919.314598
2964.540284,592.164754,-10066.800811,-1685.410096
2964.540611,-1998.556043,-10807.006753,-306.438199
2964.540939,-2368.659014,-9326.594869,1302.362347
2964.541266,-518.144159,-8068.244768,383.047749
2964.541594,592.164754,-7920.203579,-536.266849
2964.541921,-2294.638420,-9326.594869,-612.876398
2964.542248,-2812.782580,-9992.780217,383.047749
2964.542576,222.061783,-8956.491898,-689.485948
2964.542903,1998.556043,-9104.533087,-842.705048
2964.543231,-370.102971,-10362.883188,1608.800546
2964.543558,-1110.308913,-10658.965565,3447.429741
2964.543885,1480.411884,-10436.903782,919.314598
2964.544213,296.082377,-11325.150913,-1455.581446
2964.544540,-3552.988522,-11843.295072,-536.266849
2964.544868,-4145.153275,-9252.574275,0.000000
2964.545195,-1924.535449,-7105.977043,-1149.143247
2964.545522,-1332.370696,-8512.368333,-2298.286494
2964.545850,-2812.782580,-9474.636058,-612.876398
2964.546177,-2368.659014,-8364.327145,1685.410096
2964.546505,-222.061783,-7105.977043,-459.657299
2964.546832,592.164754,-8068.244768,-1378.971896
2964.547159,-1850.514855,-9622.677246,536.266849
2964.547487,-1332.370696,-9474.636058,1838.629195
2964.547814,1628.453072,-8734.430116,-306.438199
2964.548142,1628.453072,-10436.903782,-1532.190996
2964.548469,-888.247130,-11917.315666,0.000000
2964.548796,0.000000,-10955.047942,459.657299
2964.549124,1924.535449,-10362.883188,-1915.238745
2964.549451,666.185348,-11917.315666,-2757.943793
2964.549779,-962.267725,-11473.192101,-1915.238745
2964.550106,-518.144159,-9474.636058,-766.095498
2964.550433,1332.370696,-8882.471304,-766.095498
2964.550761,2368.659014,-9400.615463,-842.705048
2964.551088,518.144159,-9178.553681,459.657299
2964.551416,518.144159,-8808.450710,1072.533697
2964.551743,1776.494261,-9104.533087,0.000000
2964.552070,2294.638420,-10140.821405,-995.924147
2964.552398,444.123565,-11251.130318,229.828649
2964.552725,0.000000,-10362.883188,459.657299
2964.553053,2590.720797,-9474.636058,-1302.362347
2964.553380,2886.803174,-11251.130318,-1532.190996
2964.553707,1406.391290,-11769.274478,612.876398
2964.554035,1628.453072,-9474.636058,1991.848295
2964.554362,2812.782580,-8438.347739,383.047749
2964.554690,2368.659014,-9622.677246,-459.657299
2964.555017,0.000000,-10288.862594,0.000000
2964.555344,-740.205942,-7772.162391,459.657299
2964.555672,1110.308913,-7105.977043,0.000000
2964.555999,2072.576638,-9326.594869,-919.314598
2964.556327,1036.288319,-10362.883188,842.705048
2964.556654,592.164754,-9326.594869,2221.676944
2964.556982,2146.597232,-9548.656652,919.314598
2964.557310,888.247130,-11325.150913,0.000000
2964.557637,-1850.514855,-10955.047942,919.314598
2964.557965,-1332.370696,-7624.121203,689.485948
2964.558293,444.123565,-7476.080014,-1149.143247
2964.558620,444.123565,-9622.677246,-919.314598
2964.558948,-444.123565,-9992.780217,1149.143247
2964.559276,0.000000,-8290.306550,995.924147
2964.559603,1258.350101,-8290.306550,-689.485948
2964.559931,148.041188,-11251.130318,-2604.724693
2964.560259,-1554.432478,-11251.130318,-1838.629195
2964.560587,-888.247130,-10436.903782,-689.485948
2964.560914,1036.288319,-10140.821405,-1455.581446
2964.561242,666.185348,-11325.150913,-995.924147
2964.561570,-1258.350101,-11547.212695,459.657299
2964.561897,-814.226536,-10066.800811,459.657299
2964.562225,-370.102971,-9844.739029,-1608.800546
2964.562553,-1924.535449,-9548.656652,-1378.971896
2964.562880,-4145.153275,-8364.327145,-842.705048
2964.563208,-3330.926739,-6365.771101,-612.876398
2964.563536,-518.144159,-7328.038826,-1762.019645
2964.563863,370.102971,-10510.924376,-919.314598
2964.564191,740.205942,-11621.233289,1225.752797
2964.564519,2368.659014,-10288.862594,1455.581446
2964.564846,3478.967927,-9770.718434,-612.876398
2964.565174,1776.494261,-10732.986159,-1762.019645
2964.565502,-1406.391290,-11769.274478,0.000000
2964.565829,-1480.411884,-10288.862594,612.876398
2964.566157,0.000000,-8882.471304,-995.924147
2964.566485,-740.205942,-8290.306550,-842.705048
2964.566812,-1702.473667,-8216.285956,383.047749
2964.567140,-1332.370696,-9030.512492,1225.752797
2964.567468,370.102971,-8808.450710,383.047749
2964.567796,0.000000,-9178.553681,-536.266849
2964.568123,-1184.329507,-8512.368333,459.657299
2964.568451,518.144159,-6957.935855,76.609550
2964.568779,2664.741391,-7402.059420,-766.095498
2964.569106,2590.720797,-10140.821405,1608.800546
2964.569434,2072.576638,-11547.212695,1762.019645
2964.569762,3923.091493,-10658.965565,1225.752797
2964.570089,4737.318029,-11029.068536,-1532.190996
2964.570417,1776.494261,-12139.377449,-1915.238745
2964.570745,-1184.329507,-12213.398043,0.000000
2964.571072,-592.164754,-9844.739029,76.609550
2964.571400,296.082377,-8364.327145,-2374.896044
2964.571728,-666.185348,-8956.491898,-1378.971896
2964.572055,-888.247130,-9104.533087,1685.410096
2964.572383,1406.391290,-8364.327145,2604.724693
2964.572711,2590.720797,-9178.553681,1225.752797
2964.573038,296.082377,-10807.006753,612.876398
2964.573366,-1702.473667,-9548.656652,459.657299
2964.573694,148.041188,-7402.059420,-1838.629195
2964.574021,1776.494261,-8734.430116,-2987.772442
2964.574349,1036.288319,-12361.439231,-1149.143247
2964.574677,592.164754,-12435.459826,842.705048
2964.575005,2220.617826,-11103.089130,229.828649
2964.575332,1776.494261,-11991.336260,-1762.019645
2964.575660,-1110.308913,-12213.398043,-1378.971896
2964.575988,-2590.720797,-9992.780217,0.000000
2964.576315,-1480.411884,-7179.997637,-383.047749
2964.576643,296.082377,-7254.018232,-842.705048
2964.576971,0.000000,-8142.265362,1608.800546
2964.577298,-888.247130,-6883.915261,3677.258390
2964.577626,-148.041188,-7105.977043,2834.553343
2964.577954,518.144159,-9474.636058,76.609550
2964.578281,-1406.391290,-10955.047942,-2451.505594
2964.578609,-3552.988522,-8956.491898,-1302.362347
2964.578937,-740.205942,-8512.368333,-2451.505594
2964.579264,1258.350101,-11029.068536,-2604.724693
2964.579592,814.226536,-13175.665768,0.000000
2964.579920,666.185348,-11621.233289,2221.676944
2964.580247,1480.411884,-9622.677246,842.705048
2964.580575,1332.370696,-10288.862594,-2528.115143
2964.580903,-2072.576638,-9326.594869,-1378.971896
2964.581230,-3627.009116,-7328.038826,459.657299
2964.581558,-1480.411884,-6365.771101,536.266849
2964.581886,370.102971,-7105.977043,0.000000
2964.582214,-370.102971,-8586.388927,153.219100
2964.582541,-592.164754,-9622.677246,1302.362347
2964.582869,1332.370696,-10955.047942,0.000000
2964.583197,1184.329507,-11177.109724,-1225.752797
2964.583524,-888.247130,-11325.150913,-1225.752797
2964.583852,-962.267725,-9844.739029,0.000000
2964.584180,1554.432478,-9844.739029,-689.485948
2964.584507,2516.700203,-11547.212695,-1225.752797
2964.584835,962.267725,-11991.336260,766.095498
2964.585163,518.144159,-9844.739029,1762.019645
2964.585490,1406.391290,-8142.265362,-229.828649
2964.585818,222.061783,-9400.615463,-1838.629195
2964.586146,-2664.741391,-9770.718434,-536.266849
2964.586473,-2294.638420,-8808.450710,153.219100
2964.586801,1258.350101,-7772.162391,-919.314598
2964.587129,1924.535449,-7994.224174,-1149.143247
2964.587456,666.185348,-8734.430116,153.219100
2964.587784,518.144159,-9474.636058,1608.800546
2964.588112,1554.432478,-10140.821405,689.485948
2964.588439,1998.556043,-10955.047942,-919.314598
2964.588767,444.123565,-10288.862594,-689.485948
2964.589095,222.061783,-8734.430116,0.000000
2964.589423,2220.617826,-9178.553681,-536.266849
2964.589750,2220.617826,-12213.398043,153.219100
2964.590078,222.061783,-11621.233289,689.485948
2964.590406,1110.308913,-8808.450710,536.266849
2964.590733,1184.329507,-7920.203579,-1225.752797
2964.591061,370.102971,-10066.800811,-1608.800546
2964.591389,-1480.411884,-9622.677246,-229.828649
2964.591716,-148.041188,-8142.265362,383.047749
2964.592044,1406.391290,-7624.121203,-383.047749
2964.592372,2294.638420,-9770.718434,-1838.629195
2964.592699,592.164754,-10066.800811,0.000000
2964.593027,740.205942,-10584.944971,0.000000
2964.593355,1924.535449,-11769.274478,-1378.971896
2964.593682,444.123565,-11251.130318,-1915.238745
2964.594010,-1480.411884,-10066.800811,-842.705048
2964.594338,-592.164754,-9326.594869,153.219100
2964.594665,1258.350101,-10066.800811,-459.657299
2964.594993,1332.370696,-11399.171507,0.000000
2964.595321,-888.247130,-10066.800811,842.705048
2964.595648,-370.102971,-7846.182985,459.657299
2964.595976,740.205942,-7476.080014,-919.314598
2964.596304,0.000000,-9918.759623,-536.266849
2964.596632,-1702.473667,-10732.986159,919.314598
2964.596959,814.226536,-9770.718434,306.438199
2964.597287,2886.803174,-9326.594869,-383.047749
2964.597615,1776.494261,-9104.533087,-1838.629195
2964.597942,-1480.411884,-9770.718434,-229.828649
2964.598270,-1924.535449,-10510.924376,842.705048
2964.598598,-370.102971,-9770.718434,0.000000
2964.598925,-1110.308913,-8660.409521,459.657299
2964.599253,-2738.761985,-7254.018232,536.266849
2964.599581,-1628.453072,-6883.915261,536.266849
2964.599908,-296.082377,-8956.491898,-306.438199
2964.600236,-1036.288319,-11473.192101,76.609550
2964.600564,-1258.350101,-10584.944971,842.705048
2964.600891,1332.370696,-8216.285956,-766.095498
2964.601219,1480.411884,-9252.574275,-1915.238745
2964.601547,888.247130,-13545.768739,0.000000
2964.601874,0.000000,-12287.418637,536.266849
2964.602202,1702.473667,-10288.862594,-536.266849
2964.602530,3108.864956,-9622.677246,-1915.238745
2964.602857,1628.453072,-9178.553681,-1225.752797
2964.603185,-444.123565,-8956.491898,1378.971896
2964.603513,296.082377,-9178.553681,1149.143247
2964.603841,74.020594,-8216.285956,-306.438199
2964.604168,-2368.659014,-8586.388927,-1455.581446
2964.604496,-2886.803174,-8364.327145,76.609550
2964.604824,-296.082377,-7698.141797,0.000000
2964.605151,2368.659014,-9474.636058,-1072.533697
2964.605479,1628.453072,-12805.562797,689.485948
2964.605807,1628.453072,-12213.398043,919.314598
2964.606134,2220.617826,-8956.491898,-689.485948
2964.606462,2812.782580,-10214.842000,-1991.848295
2964.606790,888.247130,-12805.562797,-1532.190996
2964.607117,-666.185348,-11547.212695,-383.047749
2964.607445,592.164754,-8438.347739,-229.828649
2964.607773,2294.638420,-8438.347739,-842.705048
2964.608100,1184.329507,-8808.450710,0.000000
2964.608428,-740.205942,-8364.327145,1762.019645
2964.608756,-444.123565,-7920.203579,1302.362347
2964.609083,1184.329507,-8068.244768,-536.266849
2964.609411,-370.102971,-8142.265362,0.000000
2964.609739,-1628.453072,-7624.121203,1608.800546
2964.610066,1184.329507,-7328.038826,1225.752797
2964.610394,2146.597232,-9918.759623,0.000000
2964.610722,814.226536,-13101.645173,842.705048
2964.611050,0.000000,-11621.233289,459.657299
2964.611377,1332.370696,-9992.780217,-1838.629195
2964.611705,1480.411884,-12065.356855,-3064.381992
2964.612033,-444.123565,-13323.706956,-1915.238745
2964.612360,-1776.494261,-10362.883188,0.000000
2964.612688,-666.185348,-8142.265362,-76.609550
2964.613016,444.123565,-7550.100608,-1225.752797
2964.613343,-444.123565,-7920.203579,0.000000
2964.613671,-1924.535449,-8660.409521,2528.115143
2964.613999,-296.082377,-7476.080014,2604.724693
2964.614326,888.247130,-7698.141797,0.000000
2964.614654,74.020594,-9400.615463,0.000000
2964.614982,-1480.411884,-9104.533087,-766.095498
2964.615309,-370.102971,-8808.450710,-766.095498
2964.615637,1258.350101,-12139.377449,-1762.019645
2964.615965,666.185348,-13619.789333,-1302.362347
2964.616292,740.205942,-11695.253884,-842.705048
2964.616620,1998.556043,-11177.109724,-1302.362347
2964.616948,1184.329507,-12953.603985,-1302.362347
2964.617275,-518.144159,-11621.233289,-383.047749
2964.617603,-1628.453072,-8956.491898,459.657299
2964.617931,-592.164754,-6735.874072,459.657299
2964.618259,1554.432478,-7179.997637,0.000000
2964.618586,-518.144159,-7698.141797,1838.629195
2964.618914,-2516.700203,-7624.121203,2987.772442
2964.619242,-518.144159,-7550.100608,1149.143247
2964.619569,740.205942,-8290.306550,-2068.457845
2964.619897,-2072.576638,-8808.450710,-1608.800546
2964.620225,-1776.494261,-8808.450710,-919.314598
2964.620552,1554.432478,-9844.739029,-1302.362347
2964.620880,3330.926739,-12731.542202,-919.314598
2964.621208,2886.803174,-13175.665768,689.485948
2964.621535,3627.009116,-10807.006753,2451.505594
2964.621863,3404.947333,-9474.636058,0.000000
2964.622191,2220.617826,-11547.212695,0.000000
2964.622518,-1036.288319,-11177.109724,-459.657299
2964.622846,-2072.576638,-8216.285956,-229.828649
2964.623174,-222.061783,-6291.750507,-383.047749
2964.623501,222.061783,-7328.038826,-1225.752797
2964.623829,-814.226536,-8290.306550,842.705048
2964.624157,-370.102971,-8216.285956,1915.238745
2964.624484,1258.350101,-8882.471304,0.000000
2964.624812,1776.494261,-11103.089130,-2451.505594
2964.625140,-518.144159,-10436.903782,-1302.362347
2964.625468,296.082377,-9252.574275,-842.705048
2964.625795,2294.638420,-10732.986159,-766.095498
2964.626123,2590.720797,-13545.768739,0.000000
2964.626451,1628.453072,-13323.706956,153.219100
2964.626778,1110.308913,-10066.800811,76.609550
2964.627106,1332.370696,-9992.780217,-1608.800546
2964.627434,222.061783,-11843.295072,-2221.676944
2964.627761,-2664.741391,-10510.924376,-612.876398
2964.628089,-2590.720797,-7328.038826,0.000000
2964.628417,444.123565,-6069.688724,-383.047749
2964.628744,1850.514855,-7476.080014,0.000000
2964.629072,1184.329507,-9622.677246,2298.286494
2964.629400,2072.576638,-9696.697840,3140.991542
2964.629727,3330.926739,-9252.574275,995.924147
2964.630055,1998.556043,-9622.677246,-1532.190996
2964.630383,-1628.453072,-9992.780217,-1532.190996
2964.630710,-2886.803174,-9696.697840,-1072.533697
2964.631038,-1406.391290,-9474.636058,-1149.143247
2964.631366,-518.144159,-9696.697840,-919.314598
2964.631693,-814.226536,-10807.006753,76.609550
2964.632021,-518.144159,-9326.594869,689.485948
2964.632349,222.061783,-9548.656652,0.000000
2964.632677,-962.267725,-11177.109724,-229.828649
2964.633004,-2442.679609,-10362.883188,0.000000
2964.633332,-1110.308913,-6587.832884,76.609550
2964.633660,1406.391290,-6661.853478,-689.485948
2964.633987,1702.473667,-9252.574275,-306.438199
2964.634315,1036.288319,-10955.047942,1149.143247
2964.634643,1628.453072,-11029.068536,1378.971896
2964.634970,2146.597232,-10436.903782,-536.266849
2964.635298,740.205942,-10066.800811,-2298.286494
2964.635626,-2368.659014,-8882.471304,-383.047749
2964.635953,-1628.453072,-9030.512492,0.000000
2964.636281,444.123565,-9474.636058,-1685.410096
2964.636609,-740.205942,-10362.883188,-459.657299
2964.636936,-1776.494261,-9992.780217,1838.629195
2964.637264,888.247130,-8734.430116,842.705048
2964.637592,1850.514855,-10510.924376,-689.485948
2964.637919,0.000000,-13027.624579,-842.705048
2964.638247,-1110.308913,-10955.047942,-689.485948
2964.638575,222.061783,-8586.388927,-1915.238745
2964.638902,1184.329507,-8364.327145,-2068.457845
2964.639230,740.205942,-9474.636058,-1072.533697
2964.639558,0.000000,-10362.883188,1378.971896
2964.639886,1406.391290,-10214.842000,2145.067394
2964.640213,2812.782580,-9474.636058,229.828649
2964.640541,518.144159,-9326.594869,-842.705048
2964.640869,-2294.638420,-9030.512492,1302.362347
2964.641196,-962.267725,-7179.997637,153.219100
2964.641524,592.164754,-7772.162391,-842.705048
2964.641852,74.020594,-9918.759623,0.000000
2964.642179,148.041188,-9400.615463,2298.286494
2964.642507,2146.597232,-8438.347739,229.828649
2964.642835,2146.597232,-11029.068536,-995.924147
2964.643162,0.000000,-13767.830521,-229.828649
2964.643490,-1184.329507,-11399.171507,-689.485948
2964.643818,370.102971,-9104.533087,-2374.896044
2964.644145,2294.638420,-9844.739029,-2757.943793
2964.644473,2072.576638,-10436.903782,-1149.143247
2964.644801,666.185348,-9622.677246,1915.238745
2964.645128,740.205942,-9030.512492,3217.601092
2964.645456,962.267725,-8142.265362,0.000000
2964.645784,-814.226536,-8512.368333,-766.095498
2964.646111,-2886.803174,-7476.080014,689.485948
2964.646439,-962.267725,-6735.874072,306.438199
2964.646767,1258.350101,-8586.388927,-766.095498
2964.647095,1258.350101,-11177.109724,459.657299
2964.647422,1110.308913,-10881.027347,612.876398
2964.647750,2146.597232,-10362.883188,-995.924147
2964.648078,1924.535449,-12953.603985,-1838.629195
2964.648405,222.061783,-13989.892304,-1685.410096
2964.648733,-888.247130,-11029.068536,-1838.629195
2964.649061,0.000000,-9030.512492,-1608.800546
2964.649388,1184.329507,-9622.677246,-995.924147
2964.649716,74.020594,-9474.636058,0.000000
2964.650044,-1554.432478,-8882.471304,1762.019645
2964.650371,148.041188,-7920.203579,1532.190996
2964.650699,1332.370696,-7698.141797,0.000000
2964.651027,-1184.329507,-8068.244768,995.924147
2964.651354,-2590.720797,-7254.018232,2374.896044
2964.651682,0.000000,-6883.915261,0.000000
2964.652010,1184.329507,-9474.636058,-1762.019645
2964.652337,0.000000,-11843.295072,-459.657299
2964.652665,-592.164754,-10807.006753,459.657299
2964.652993,962.267725,-10881.027347,-1072.533697
2964.653320,1184.329507,-13175.665768,-2528.115143
2964.653648,-296.082377,-13471.748144,-2451.505594
2964.653976,-1110.308913,-9844.739029,-995.924147
2964.654304,1258.350101,-9030.512492,-459.657299
2964.654631,2368.659014,-9252.574275,153.219100
2964.654959,888.247130,-9104.533087,1762.019645
2964.655287,-1184.329507,-7550.100608,2757.943793
2964.655614,0.000000,-6809.894666,1225.752797
2964.655942,592.164754,-7179.997637,-306.438199
2964.656270,-2368.659014,-8586.388927,0.000000
2964.656597,-1998.556043,-8290.306550,76.609550
2964.656925,222.061783,-8586.388927,-842.705048
2964.657253,1480.411884,-12139.377449,-2221.676944
2964.657580,1036.288319,-13989.892304,-1378.971896
2964.657908,1480.411884,-11769.274478,-919.314598
2964.658236,2738.761985,-11991.336260,-1225.752797
2964.658563,2368.659014,-13841.851115,-919.314598
2964.658891,444.123565,-12435.459826,0.000000
2964.659218,-222.061783,-8734.430116,76.609550
2964.659546,444.123565,-7698.141797,153.219100
2964.659873,1332.370696,-7994.224174,-306.438199
2964.660201,-962.267725,-7698.141797,1302.362347
2964.660528,-2146.597232,-6661.853478,2451.505594
2964.660856,148.041188,-6143.709319,766.095498
2964.661184,962.267725,-8956.491898,-383.047749
2964.661511,444.123565,-10732.986159,0.000000
2964.661839,814.226536,-9474.636058,1149.143247
2964.662166,3627.009116,-9474.636058,-612.876398
2964.662494,4441.235652,-12731.542202,-1149.143247
2964.662821,2146.597232,-13249.686362,229.828649
2964.663149,1110.308913,-10436.903782,612.876398
2964.663476,666.185348,-9622.677246,-612.876398
2964.663804,-888.247130,-10881.027347,-2068.457845
2964.664131,-3182.885551,-9622.677246,-1378.971896
2964.664459,-3034.844362,-7550.100608,-995.924147
2964.664787,-666.185348,-7402.059420,-1149.143247
2964.665114,74.020594,-9474.636058,0.000000
2964.665442,-518.144159,-8586.388927,1838.629195
2964.665769,74.020594,-7328.038826,1838.629195
2964.666097,2664.741391,-8068.244768,-459.657299
2964.666424,2072.576638,-10955.047942,-383.047749
2964.666752,0.000000,-11325.150913,689.485948
2964.667079,1406.391290,-9770.718434,306.438199
2964.667407,2960.823768,-10362.883188,-919.314598
2964.667735,1850.514855,-11843.295072,-689.485948
2964.668062,-518.144159,-11399.171507,536.266849
2964.668390,-888.247130,-9548.656652,-689.485948
2964.668717,-962.267725,-10214.842000,-1915.238745
2964.669045,-2812.782580,-10658.965565,-1762.019645
2964.669372,-3330.926739,-8956.491898,-383.047749
2964.669700,-592.164754,-7105.977043,459.657299
2964.670027,1258.350101,-8216.285956,612.876398
2964.670355,1332.370696,-10214.842000,1378.971896
2964.670683,518.144159,-9326.594869,2145.067394
2964.671010,222.061783,-7476.080014,536.266849
2964.671338,1332.370696,-9474.636058,-1762.019645
2964.671665,-296.082377,-11251.130318,-1915.238745
2964.671993,-2072.576638,-10362.883188,0.000000
2964.672320,0.000000,-9400.615463,-536.266849
2964.672648,2590.720797,-10732.986159,-1378.971896
2964.672975,2368.659014,-12213.398043,-689.485948
2964.673303,222.061783,-11251.130318,1762.019645
2964.673630,0.000000,-9474.636058,842.705048
2964.673958,444.123565,-8734.430116,-1302.362347
2964.674286,-740.205942,-8882.471304,-1225.752797
2964.674613,-2294.638420,-7698.141797,153.219100
2964.674941,-148.041188,-7328.038826,1149.143247
2964.675268,1998.556043,-9622.677246,76.609550
2964.675596,888.247130,-11177.109724,-153.219100
2964.675923,-370.102971,-10658.965565,0.000000
2964.676251,370.102971,-10214.842000,-1608.800546
2964.676578,1184.329507,-11029.068536,-2374.896044
2964.676906,814.226536,-11695.253884,-1915.238745
2964.677234,-518.144159,-9992.780217,0.000000
2964.677561,592.164754,-8660.409521,842.705048
2964.677889,1998.556043,-8216.285956,842.705048
2964.678216,1110.308913,-9252.574275,1225.752797
2964.678544,-592.164754,-9696.697840,2221.676944
2964.678871,296.082377,-9400.615463,919.314598
2964.679199,1110.308913,-8808.450710,-2221.676944
2964.679526,74.020594,-10140.821405,-1532.190996
2964.679854,-740.205942,-10140.821405,-842.705048
2964.680181,1110.308913,-10436.903782,-612.876398
2964.680509,2664.741391,-10881.027347,-919.314598
2964.680837,2294.638420,-11695.253884,-689.485948
2964.681164,666.185348,-10362.883188,76.609550
2964.681492,888.247130,-8956.491898,0.000000
2964.681819,1258.350101,-9326.594869,0.000000
2964.682147,-666.185348,-9252.574275,-383.047749
2964.682474,-2368.659014,-8142.265362,612.876398
2964.682802,-1110.308913,-6735.874072,383.047749
2964.683129,1480.411884,-7772.162391,-536.266849
2964.683457,740.205942,-10658.965565,383.047749
2964.683785,-222.061783,-10658.965565,1685.410096
2964.684112,1554.432478,-8956.491898,536.266849
2964.684440,2664.741391,-10288.862594,-1532.190996
2964.684767,296.082377,-11843.295072,-919.314598
2964.685095,-888.247130,-10066.800811,0.000000
2964.685422,222.061783,-9326.594869,-612.876398
2964.685750,962.267725,-10510.924376,-1762.019645
2964.686077,-444.123565,-10140.821405,-1302.362347
2964.686405,-1258.350101,-8808.450710,383.047749
2964.686732,0.000000,-9548.656652,306.438199
2964.687060,1850.514855,-10510.924376,-689.485948
2964.687388,-296.082377,-9622.677246,0.000000
2964.687715,-2294.638420,-7624.121203,1302.362347
2964.688043,296.082377,-7476.080014,842.705048
2964.688370,1776.494261,-9178.553681,0.000000
2964.688698,-888.247130,-11695.253884,1302.362347
2964.689025,-888.247130,-11029.068536,1149.143247
2964.689353,592.164754,-9770.718434,-1838.629195
2964.689680,1332.370696,-11399.171507,-3600.648841
2964.690008,-296.082377,-12657.521608,-2451.505594
2964.690336,-1258.350101,-11177.109724,-995.924147
2964.690663,74.020594,-10214.842000,-383.047749
2964.690991,2368.659014,-10362.883188,-919.314598
2964.691318,962.267725,-8438.347739,-229.828649
2964.691646,-666.185348,-7624.121203,1685.410096
2964.691973,148.041188,-7994.224174,1991.848295
2964.692301,888.247130,-8734.430116,383.047749
2964.692628,-1406.391290,-8142.265362,612.876398
2964.692956,-2072.576638,-7105.977043,1608.800546
2964.693283,74.020594,-6957.935855,229.828649
2964.693611,1850.514855,-10584.944971,-612.876398
2964.693939,592.164754,-12805.562797,0.000000
2964.694266,1110.308913,-11991.336260,-153.219100
2964.694594,3108.864956,-10955.047942,-2145.067394
2964.694921,3627.009116,-11917.315666,-2068.457845
2964.695249,1702.473667,-11917.315666,0.000000
2964.695576,444.123565,-10436.903782,1762.019645
2964.695904,1924.535449,-9770.718434,306.438199
2964.696231,2072.576638,-8956.491898,-1302.362347
2964.696559,-814.226536,-7105.977043,0.000000
2964.696887,-2220.617826,-6661.853478,1455.581446
2964.697214,-1110.308913,-7920.203579,1072.533697
2964.697542,-1258.350101,-8364.327145,-383.047749
2964.697869,-2812.782580,-8808.450710,-919.314598
2964.698197,-1480.411884,-8142.265362,-1455.581446
2964.698524,1258.350101,-9178.553681,-2145.067394
2964.698852,2368.659014,-12509.480420,-1302.362347
2964.699179,1480.411884,-14063.912898,766.095498
2964.699507,2812.782580,-12361.439231,1072.533697
2964.699835,4885.359217,-10584.944971,153.219100
2964.700162,2960.823768,-10955.047942,-995.924147
2964.700490,-1480.411884,-9178.553681,1302.362347
2964.700817,-2664.741391,-8808.450710,919.314598
2964.701145,-2738.761985,-7698.141797,-383.047749
2964.701472,-2368.659014,-7550.100608,-1455.581446
2964.701800,-2294.638420,-7031.956449,-536.266849
2964.702127,-1258.350101,-8068.244768,1915.238745
2964.702455,370.102971,-8956.491898,1685.410096
2964.702782,740.205942,-11029.068536,-536.266849
2964.703110,-1850.514855,-10066.800811,76.609550
2964.703438,-222.061783,-7624.121203,-383.047749
2964.703765,2072.576638,-8808.450710,-1225.752797
2964.704093,1480.411884,-12139.377449,0.000000
2964.704420,1036.288319,-12879.583391,1072.533697
2964.704748,2146.597232,-11473.192101,383.047749
2964.705075,2590.720797,-11399.171507,-1378.971896
2964.705403,-370.102971,-12139.377449,-1915.238745
2964.705730,-2960.823768,-9696.697840,-919.314598
2964.706058,-2738.761985,-7920.203579,-612.876398
2964.706386,0.000000,-8290.306550,-1149.143247
2964.706713,666.185348,-7328.038826,-612.876398
2964.707041,-444.123565,-5699.585753,2068.457845
2964.707368,518.144159,-6217.729913,3294.210641
2964.707696,1480.411884,-9622.677246,842.705048
2964.708023,-222.061783,-11547.212695,-995.924147
2964.708351,-1924.535449,-10288.862594,-1608.800546
2964.708678,-222.061783,-9252.574275,-2451.505594
2964.709006,2442.679609,-11843.295072,-2298.286494
2964.709333,2368.659014,-13989.892304,-1685.410096
2964.709661,1184.329507,-12805.562797,842.705048
2964.709989,1480.411884,-10584.944971,306.438199
2964.710316,1480.411884,-9992.780217,-919.314598
2964.710644,0.000000,-9992.780217,-995.924147
2964.710971,-2516.700203,-7624.121203,1302.362347
2964.711299,-666.185348,-6069.688724,1685.410096
2964.711626,2590.720797,-6661.853478,1072.533697
2964.711954,2294.638420,-7994.224174,1532.190996
2964.712281,148.041188,-7328.038826,1762.019645
2964.712609,1554.432478,-8660.409521,1225.752797
2964.712937,2146.597232,-10510.924376,-1302.362347
2964.713264,518.144159,-12879.583391,-2374.896044
2964.713592,-444.123565,-11473.192101,-1532.190996
2964.713919,1480.411884,-9104.533087,-459.657299
2964.714247,3552.988522,-11177.109724,-919.314598
2964.714574,1628.453072,-13249.686362,842.705048
2964.714902,0.000000,-10881.027347,2068.457845
2964.715229,888.247130,-7920.203579,766.095498
2964.715557,518.144159,-7994.224174,-1532.190996
2964.715884,-1924.535449,-9326.594869,-1838.629195
2964.716212,-3108.864956,-7846.182985,306.438199
2964.716540,-1036.288319,-6957.935855,0.000000
2964.716867,1332.370696,-8290.306550,-766.095498
2964.717195,1776.494261,-9992.780217,-689.485948
2964.717522,666.185348,-9992.780217,-306.438199
2964.717850,1850.514855,-11695.253884,-229.828649
2964.718177,2368.659014,-12065.356855,-1685.410096
2964.718505,444.123565,-11325.150913,-689.485948
2964.718832,-2146.597232,-9178.553681,1915.238745
2964.719160,-518.144159,-8660.409521,459.657299
2964.719488,0.000000,-10288.862594,-1608.800546
2964.719815,-1776.494261,-11547.212695,-689.485948
2964.720143,-2886.803174,-9030.512492,-459.657299
2964.720470,-962.267725,-7476.080014,-842.705048
2964.720798,0.000000,-7920.203579,-1532.190996
2964.721125,-1110.308913,-9992.780217,-689.485948
2964.721453,-1480.411884,-10436.903782,1455.581446
2964.721780,296.082377,-8882.471304,689.485948
2964.722108,2368.659014,-9474.636058,-1455.581446
2964.722435,1776.494261,-10214.842000,-1608.800546
2964.722763,370.102971,-10288.862594,229.828649
2964.723091,814.226536,-9622.677246,536.266849
2964.723418,2146.597232,-11399.171507,0.000000
2964.723746,148.041188,-10214.842000,-766.095498
2964.724073,-1110.308913,-7179.997637,459.657299
2964.724401,0.000000,-7179.997637,76.609550
2964.724728,444.123565,-10436.903782,-383.047749
2964.725056,-666.185348,-10732.986159,76.609550
2964.725383,-1702.473667,-8364.327145,919.314598
2964.725711,1110.308913,-7476.080014,76.609550
2964.726039,2294.638420,-9474.636058,0.000000
2964.726366,0.000000,-11843.295072,612.876398
2964.726694,-1258.350101,-10658.965565,842.705048
2964.727021,888.247130,-9400.615463,-1685.410096
2964.727349,2442.679609,-9696.697840,-2451.505594
2964.727676,962.267725,-9474.636058,-1532.190996
2964.728004,-370.102971,-9400.615463,1532.190996
2964.728331,1702.473667,-10362.883188,1532.190996
2964.728659,2886.803174,-10955.047942,-306.438199
2964.728987,1184.329507,-9918.759623,76.609550
2964.729314,222.061783,-7624.121203,995.924147
2964.729642,1924.535449,-7772.162391,153.219100
2964.729969,2220.617826,-10732.986159,612.876398
2964.730297,-370.102971,-11177.109724,306.438199
2964.730624,-1554.432478,-7698.141797,383.047749
2964.730952,370.102971,-8438.347739,-1225.752797
2964.731279,962.267725,-12509.480420,-2681.334243
2964.731607,-1184.329507,-13767.830521,-2068.457845
2964.731934,-1184.329507,-10955.047942,-1302.362347
2964.732262,1110.308913,-9178.553681,-1685.410096
2964.732590,2294.638420,-9696.697840,-1225.752797
2964.732917,962.267725,-9030.512492,689.485948
2964.733245,-444.123565,-8216.285956,2987.772442
2964.733572,1110.308913,-7772.162391,1838.629195
2964.733900,444.123565,-8068.244768,153.219100
2964.734227,-2664.741391,-7994.224174,842.705048
2964.734555,-2072.576638,-8068.244768,1149.143247
2964.734882,0.000000,-8216.285956,-153.219100
2964.735210,222.061783,-11843.295072,-995.924147
2964.735538,-666.185348,-13101.645173,-766.095498
2964.735865,222.061783,-10584.944971,-1149.143247
2964.736193,2368.659014,-9992.780217,-1072.533697
2964.736520,1776.494261,-12213.398043,-612.876398
2964.736848,-1036.288319,-12435.459826,766.095498
2964.737175,-1480.411884,-9252.574275,536.266849
2964.737503,1258.350101,-8512.368333,-766.095498
2964.737830,1036.288319,-8438.347739,-1302.362347
2964.738158,-1480.411884,-8586.388927,689.485948
2964.738485,-1554.432478,-8290.306550,2145.067394
2964.738813,74.020594,-8438.347739,612.876398
2964.739141,-518.144159,-9252.574275,-1608.800546
2964.739468,-1776.494261,-8586.388927,-459.657299
2964.739796,-1110.308913,-7328.038826,383.047749
2964.740123,1406.391290,-9400.615463,-689.485948
2964.740451,1258.350101,-13101.645173,-766.095498
2964.740778,74.020594,-12509.480420,459.657299
2964.741106,1554.432478,-9992.780217,153.219100
2964.741433,3775.050304,-11843.295072,-1302.362347
2964.741761,2072.576638,-12953.603985,-1608.800546
2964.742089,-1332.370696,-11251.130318,-612.876398
2964.742416,-888.247130,-10066.800811,-383.047749
2964.742744,888.247130,-8956.491898,-1455.581446
2964.743071,444.123565,-7476.080014,-1685.410096
2964.743399,-2368.659014,-7105.977043,1149.143247
2964.743726,-1850.514855,-7698.141797,1225.752797
2964.744054,1036.288319,-8808.450710,536.266849
2964.744381,1776.494261,-9622.677246,-536.266849
2964.744709,-444.123565,-7624.121203,689.485948
2964.745036,740.205942,-7254.018232,459.657299
2964.745364,3256.906145,-10658.965565,-919.314598
2964.745692,2220.617826,-13323.706956,-536.266849
2964.746019,814.226536,-12065.356855,459.657299
2964.746347,2368.659014,-9548.656652,0.000000
2964.746674,3182.885551,-11769.274478,-1532.190996
2964.747002,962.267725,-13545.768739,-1378.971896
2964.747329,-1628.453072,-11251.130318,76.609550
2964.747657,-518.144159,-8290.306550,1072.533697
2964.747984,222.061783,-7105.977043,-383.047749
2964.748312,-74.020594,-6439.791695,0.000000
2964.748640,-2738.761985,-5921.647536,1762.019645
2964.748967,-962.267725,-6587.832884,1915.238745
2964.749295,1850.514855,-7920.203579,0.000000
2964.749622,888.247130,-9474.636058,-995.924147
2964.749950,518.144159,-10214.842000,383.047749
2964.750277,2590.720797,-10436.903782,0.000000
2964.750605,3997.112087,-13027.624579,-1149.143247
2964.750932,1480.411884,-14211.954086,-612.876398
2964.751260,222.061783,-11547.212695,689.485948
2964.751587,1036.288319,-9918.759623,229.828649
2964.751915,222.061783,-10584.944971,-459.657299
2964.752243,-1850.514855,-11103.089130,-689.485948
2964.752570,-3182.885551,-8808.450710,76.609550
2964.752898,-2516.700203,-5921.647536,689.485948
2964.753225,-222.061783,-6217.729913,-995.924147
2964.753553,-814.226536,-7105.977043,-536.266849
2964.753880,-2442.679609,-7476.080014,1685.410096
2964.754208,-222.061783,-8882.471304,995.924147
2964.754535,2590.720797,-11177.109724,-1378.971896
2964.754863,1184.329507,-11399.171507,-1685.410096
2964.755191,222.061783,-10510.924376,229.828649
2964.755518,2368.659014,-11325.150913,-612.876398
2964.755846,2590.720797,-12435.459826,-1302.362347
2964.756173,814.226536,-13027.624579,0.000000
2964.756501,-296.082377,-9770.718434,383.047749
2964.756828,444.123565,-8586.388927,-459.657299
2964.757156,222.061783,-10214.842000,-1378.971896
2964.757483,-3627.009116,-9918.759623,-383.047749
2964.757811,-4071.132681,-8142.265362,842.705048
2964.758139,-296.082377,-7031.956449,153.219100
2964.758466,1776.494261,-7624.121203,-1302.362347
2964.758794,296.082377,-9252.574275,229.828649
2964.759121,-370.102971,-9474.636058,1838.629195
2964.759449,1924.535449,-10362.883188,842.705048
2964.759776,2368.659014,-10658.965565,-1532.190996
2964.760104,148.041188,-10436.903782,-1608.800546
2964.760432,-370.102971,-8808.450710,0.000000
2964.760759,1184.329507,-10140.821405,-306.438199
2964.761087,2738.761985,-12731.542202,-689.485948
2964.761415,1924.535449,-12287.418637,-383.047749
2964.761742,1554.432478,-9696.697840,1532.190996
2964.762070,2072.576638,-8660.409521,766.095498
2964.762397,2442.679609,-10436.903782,-689.485948
2964.762725,-1258.350101,-10214.842000,0.000000
2964.763053,-2442.679609,-8364.327145,1225.752797
2964.763380,740.205942,-7031.956449,306.438199
2964.763708,2294.638420,-8216.285956,-459.657299
2964.764036,222.061783,-8734.430116,229.828649
2964.764363,-444.123565,-10658.965565,1149.143247
2964.764691,1702.473667,-10955.047942,-842.705048
2964.765019,2442.679609,-10584.944971,-2451.505594
2964.765346,296.082377,-10584.944971,-842.705048
2964.765674,-518.144159,-8364.327145,1302.362347
2964.766002,1332.370696,-8438.347739,995.924147
2964.766329,1406.391290,-10288.862594,689.485948
2964.766657,-1406.391290,-9474.636058,1225.752797
2964.766985,-1332.370696,-7624.121203,1685.410096
2964.767312,1406.391290,-8956.491898,-229.828649
2964.767640,518.144159,-11547.212695,-1302.362347
2964.767967,-2368.659014,-11843.295072,-766.095498
2964.768295,-1776.494261,-9474.636058,-612.876398
2964.768623,518.144159,-8290.306550,-1532.190996
2964.768950,888.247130,-9622.677246,-1838.629195
2964.769278,-888.247130,-10807.006753,-383.047749
2964.769606,-740.205942,-10807.006753,536.266849
2964.769933,1406.391290,-10584.944971,-306.438199
2964.770261,1184.329507,-10362.883188,-1608.800546
2964.770589,-2072.576638,-9326.594869,76.609550
2964.770916,-2294.638420,-7328.038826,766.095498
2964.771244,0.000000,-8512.368333,-536.266849
2964.771572,296.082377,-10436.903782,-1149.143247
2964.771899,-518.144159,-9770.718434,-842.705048
2964.772227,444.123565,-8438.347739,-229.828649
2964.772554,1110.308913,-9622.677246,-153.219100
2964.772882,148.041188,-12657.521608,-919.314598
2964.773210,-1554.432478,-12509.480420,-1532.190996
2964.773537,-1110.308913,-10214.842000,-919.314598
2964.773865,1998.556043,-9770.718434,-2374.896044
2964.774193,2516.700203,-10140.821405,-383.047749
2964.774520,222.061783,-9474.636058,766.095498
2964.774848,-444.123565,-9104.533087,2757.943793
2964.775176,444.123565,-8882.471304,1072.533697
2964.775503,-296.082377,-7920.203579,-459.657299
2964.775831,-2516.700203,-6883.915261,689.485948
2964.776159,-1850.514855,-6143.709319,919.314598
2964.776486,1258.350101,-8216.285956,-459.657299
2964.776814,2442.679609,-11177.109724,0.000000
2964.777141,1850.514855,-10584.944971,1302.362347
2964.777469,2368.659014,-9030.512492,1762.019645
2964.777797,3701.029710,-10732.986159,0.000000
2964.778124,2442.679609,-13323.706956,-1455.581446
2964.778452,74.020594,-11843.295072,-919.314598
2964.778780,0.000000,-8290.306550,-459.657299
2964.779107,1702.473667,-9030.512492,-383.047749
2964.779435,1406.391290,-10658.965565,0.000000
2964.779763,-740.205942,-8956.491898,536.266849
2964.780090,-1036.288319,-8068.244768,766.095498
2964.780418,0.000000,-8586.388927,-612.876398
2964.780746,74.020594,-9326.594869,-1991.848295
2964.781073,-1628.453072,-8142.265362,383.047749
2964.781401,-814.226536,-6661.853478,689.485948
2964.781728,2368.659014,-9548.656652,-536.266849
2964.782056,2960.823768,-13101.645173,-766.095498
2964.782384,1850.514855,-11917.315666,-229.828649
2964.782711,2516.700203,-10584.944971,-383.047749
2964.783039,3404.947333,-12879.583391,-1991.848295
2964.783367,1480.411884,-14359.995275,-2374.896044
2964.783694,-1036.288319,-11843.295072,-1225.752797
2964.784022,-1258.350101,-8956.491898,-229.828649
2964.784350,370.102971,-9178.553681,0.000000
2964.784677,-148.041188,-9696.697840,-459.657299
2964.785005,-2960.823768,-7402.059420,1072.533697
2964.785333,-3330.926739,-6587.832884,1225.752797
2964.785660,-962.267725,-6809.894666,306.438199
2964.785988,-1628.453072,-7920.203579,-612.876398
2964.786315,-3108.864956,-6735.874072,689.485948
2964.786643,-888.247130,-7179.997637,612.876398
2964.786971,2072.576638,-11029.068536,-1072.533697
2964.787298,2294.638420,-14063.912898,-919.314598
2964.787626,1998.556043,-13249.686362,0.000000
2964.787954,2516.700203,-11177.109724,383.047749
2964.788281,2590.720797,-12731.542202,-153.219100
2964.788609,74.020594,-12657.521608,0.000000
2964.788937,-1554.432478,-9030.512492,459.657299
2964.789264,-1258.350101,-6883.915261,689.485948
2964.789592,0.000000,-7772.162391,306.438199
2964.789920,-1924.535449,-6217.729913,383.047749
2964.790247,-3775.050304,-4959.379811,1838.629195
2964.790575,-2072.576638,-6809.894666,1838.629195
2964.790902,74.020594,-8364.327145,-689.485948
2964.791230,-740.205942,-9400.615463,-2068.457845
2964.791558,-1036.288319,-10584.944971,-689.485948
2964.791885,1628.453072,-10955.047942,-1225.752797
2964.792213,4515.256246,-12287.418637,-1915.238745
2964.792541,2664.741391,-13027.624579,76.609550
2964.792868,1258.350101,-11399.171507,459.657299
2964.793196,2516.700203,-10510.924376,-383.047749
2964.793524,2886.803174,-11991.336260,-919.314598
2964.793851,296.082377,-11399.171507,-1378.971896
2964.794179,-1702.473667,-9030.512492,-229.828649
2964.794507,592.164754,-7846.182985,0.000000
2964.794834,962.267725,-8956.491898,-612.876398
2964.795162,222.061783,-9548.656652,0.000000
2964.795489,-1332.370696,-7328.038826,919.314598
2964.795817,0.000000,-7920.203579,229.828649
2964.796145,2516.700203,-10732.986159,-1378.971896
2964.796472,1036.288319,-11029.068536,-1378.971896
2964.796800,-518.144159,-9104.533087,306.438199
2964.797128,1406.391290,-8734.430116,-229.828649
2964.797455,3034.844362,-10955.047942,-1225.752797
2964.797783,1480.411884,-11473.192101,-689.485948
2964.798111,222.061783,-9918.759623,1149.143247
2964.798438,962.267725,-9622.677246,536.266849
2964.798766,74.020594,-10066.800811,-842.705048
2964.799094,-2220.617826,-10510.924376,0.000000
2964.799421,-2368.659014,-7105.977043,1685.410096
2964.799749,1332.370696,-7994.224174,1225.752797
2964.800077,2368.659014,-9178.553681,612.876398
2964.800404,-666.185348,-8956.491898,689.485948
2964.800732,-1554.432478,-7550.100608,1685.410096
2964.801059,1110.308913,-8290.306550,-76.609550
2964.801387,814.226536,-10584.944971,-1225.752797
2964.801715,-2368.659014,-9844.739029,0.000000
2964.802042,-2368.659014,-8882.471304,-842.705048
2964.802370,740.205942,-9992.780217,-1838.629195
2964.802698,2738.761985,-12583.501014,-2221.676944
2964.803025,370.102971,-12287.418637,-306.438199
2964.803353,-444.123565,-9770.718434,1685.410096
2964.803681,1776.494261,-9178.553681,-1072.533697
2964.804008,666.185348,-11177.109724,-2145.067394
2964.804336,-1480.411884,-10362.883188,-536.266849
2964.804664,-1776.494261,-7402.059420,766.095498
2964.804991,740.205942,-7920.203579,153.219100
2964.805319,1110.308913,-10066.800811,-842.705048
2964.805646,-962.267725,-10658.965565,-842.705048
2964.805974,-1702.473667,-9844.739029,0.000000
2964.806302,592.164754,-10362.883188,-1915.238745
2964.806629,1776.494261,-11769.274478,-3294.210641
2964.806957,-1184.329507,-10436.903782,-1149.143247
2964.807285,-1332.370696,-8956.491898,919.314598
2964.807612,1702.473667,-9178.553681,229.828649
2964.807940,1184.329507,-9474.636058,-612.876398
2964.808268,-1776.494261,-9548.656652,689.485948
2964.808595,-592.164754,-8364.327145,1149.143247
2964.808923,1332.370696,-7624.121203,-306.438199
2964.809251,518.144159,-10584.944971,-1149.143247
2964.809578,-740.205942,-10658.965565,0.000000
2964.809906,-740.205942,-8364.327145,229.828649
2964.810233,2368.659014,-8586.388927,0.000000
2964.810561,2738.761985,-10214.842000,-459.657299
2964.810889,148.041188,-9770.718434,919.314598
2964.811216,518.144159,-9252.574275,2221.676944
2964.811544,2664.741391,-10066.800811,229.828649
2964.811872,2072.576638,-10732.986159,-766.095498
2964.812199,-1036.288319,-8882.471304,995.924147
2964.812527,-1480.411884,-7031.956449,1072.533697
2964.812855,888.247130,-8364.327145,-766.095498
2964.813182,518.144159,-10066.800811,-1991.848295
2964.813510,-1258.350101,-10140.821405,-383.047749
2964.813838,222.061783,-8808.450710,383.047749
2964.814165,3182.885551,-9770.718434,-995.924147
2964.814493,2442.679609,-12805.562797,-1302.362347
2964.814820,740.205942,-12065.356855,-306.438199
2964.815148,1110.308913,-9474.636058,-689.485948
2964.815476,2368.659014,-9696.697840,-919.314598
2964.815803,2886.803174,-11399.171507,-612.876398
2964.816131,592.164754,-9770.718434,459.657299
2964.816459,-222.061783,-9400.615463,2145.067394
2964.816786,962.267725,-10066.800811,229.828649
2964.817114,740.205942,-10214.842000,-1762.019645
2964.817442,-2664.741391,-8438.347739,536.266849
2964.817769,-2812.782580,-6217.729913,612.876398
2964.818097,-518.144159,-7846.182985,-612.876398
2964.818425,-444.123565,-10584.944971,-1532.190996
2964.818752,-1850.514855,-10584.944971,0.000000
2964.819080,-740.205942,-7772.162391,306.438199
2964.819407,1628.453072,-9030.512492,-842.705048
2964.819735,962.267725,-12361.439231,-1838.629195
2964.820063,-592.164754,-11695.253884,-1608.800546
2964.820390,0.000000,-9474.636058,-1302.362347
2964.820718,2368.659014,-10584.944971,-1225.752797
2964.821046,2368.659014,-11473.192101,-536.266849
2964.821373,-222.061783,-10214.842000,2145.067394
2964.821701,-370.102971,-8068.244768,2451.505594
2964.822029,888.247130,-8364.327145,842.705048
2964.822356,-888.247130,-10066.800811,-459.657299
2964.822684,-4071.132681,-6883.915261,229.828649
2964.823012,-2664.741391,-5181.441594,0.000000
2964.823339,-222.061783,-7920.203579,-689.485948
2964.823667,370.102971,-11473.192101,-1149.143247
2964.823994,-666.185348,-11473.192101,-153.219100
2964.824322,962.267725,-9696.697840,-229.828649
2964.824650,3108.864956,-12287.418637,-2451.505594
2964.824977,2072.576638,-14211.954086,-2374.896044
2964.825305,-444.123565,-11621.233289,-842.705048
2964.825633,518.144159,-9622.677246,0.000000
2964.825960,2812.782580,-9992.780217,229.828649
2964.826288,2664.741391,-9548.656652,766.095498
2964.826616,444.123565,-7698.141797,2068.457845
2964.826943,0.000000,-7476.080014,2987.772442
2964.827271,444.123565,-9474.636058,689.485948
2964.827599,-370.102971,-9622.677246,-995.924147
2964.827926,-2442.679609,-8068.244768,153.219100
2964.828254,-296.082377,-7105.977043,0.000000
2964.828581,2738.761985,-10066.800811,-1455.581446
2964.828909,2738.761985,-13767.830521,-995.924147
2964.829237,1110.308913,-12435.459826,306.438199
2964.829564,3849.070898,-10362.883188,-919.314598
2964.829892,3849.070898,-11177.109724,-1225.752797
2964.830220,370.102971,-11695.253884,-383.047749
2964.830547,-1554.432478,-9326.594869,153.219100
2964.830875,-518.144159,-7550.100608,1225.752797
2964.831203,518.144159,-7920.203579,-842.705048
2964.831530,296.082377,-8364.327145,-766.095498
2964.831858,-3552.988522,-7105.977043,2451.505594
2964.832186,-2442.679609,-7402.059420,2221.676944
2964.832513,444.123565,-11029.068536,-1225.752797
2964.832841,222.061783,-10732.986159,-2604.724693
2964.833169,-1776.494261,-7698.141797,-612.876398
2964.833496,1628.453072,-9178.553681,612.876398
2964.833824,2590.720797,-11991.336260,229.828649
2964.834151,1258.350101,-12287.418637,229.828649
2964.834479,222.061783,-10510.924376,-995.924147
2964.834807,444.123565,-10214.842000,-1608.800546
2964.835134,222.061783,-11473.192101,-1991.848295
2964.835462,-1036.288319,-11695.253884,-2145.067394
2964.835790,-3478.967927,-9770.718434,-612.876398
2964.836117,-1110.308913,-8808.450710,-306.438199
2964.836445,2072.576638,-7994.224174,-1302.362347
2964.836773,740.205942,-7994.224174,76.609550
2964.837100,-1554.432478,-8438.347739,2528.115143
2964.837428,592.164754,-8734.430116,1378.971896
2964.837756,888.247130,-9400.615463,-919.314598
2964.838083,0.000000,-9918.759623,-1302.362347
2964.838411,-1332.370696,-8290.306550,536.266849
2964.838738,370.102971,-9548.656652,459.657299
2964.839066,1850.514855,-13323.706956,-995.924147
2964.839394,1110.308913,-13989.892304,-2298.286494
2964.839721,444.123565,-10436.903782,-1532.190996
2964.840049,1480.411884,-9474.636058,-689.485948
2964.840377,518.144159,-10288.862594,-612.876398
2964.840704,-1776.494261,-8660.409521,1455.581446
2964.841032,-1776.494261,-6365.771101,1762.019645
2964.841360,0.000000,-6587.832884,1302.362347
2964.841687,1776.494261,-7772.162391,153.219100
2964.842015,74.020594,-6883.915261,1149.143247
2964.842343,-1110.308913,-7105.977043,1225.752797
2964.842670,592.164754,-10214.842000,229.828649
2964.842998,1480.411884,-12435.459826,-2451.505594
2964.843325,-592.164754,-11029.068536,-1685.410096
2964.843653,-666.185348,-9474.636058,-536.266849
2964.843981,1776.494261,-10881.027347,-689.485948
2964.844308,2664.741391,-13027.624579,-536.266849
2964.844636,1332.370696,-12139.377449,536.266849
2964.844964,962.267725,-9030.512492,995.924147
2964.845291,1406.391290,-8808.450710,0.000000
2964.845619,518.144159,-10140.821405,0.000000
2964.845947,-2146.597232,-8882.471304,-459.657299
2964.846274,-2442.679609,-7476.080014,-76.609550
2964.846602,222.061783,-8734.430116,-536.266849
2964.846930,2220.617826,-9326.594869,-1378.971896
2964.847257,1110.308913,-9992.780217,-383.047749
2964.847585,0.000000,-9696.697840,612.876398
2964.847912,1924.535449,-12065.356855,-306.438199
2964.848240,2442.679609,-13397.727550,-1915.238745
2964.848568,0.000000,-9770.718434,-1302.362347
2964.848895,-666.185348,-7254.018232,76.609550
2964.849223,444.123565,-9622.677246,1838.629195
2964.849551,1628.453072,-11769.274478,842.705048
2964.849878,222.061783,-10140.821405,689.485948
2964.850206,-666.185348,-7476.080014,536.266849
2964.850534,592.164754,-8586.388927,-689.485948
2964.850861,518.144159,-11251.130318,-842.705048
2964.851189,-1480.411884,-9474.636058,0.000000
2964.851517,-1258.350101,-7402.059420,536.266849
2964.851844,1110.308913,-7772.162391,1149.143247
2964.852172,1110.308913,-9178.553681,-229.828649
2964.852499,-1184.329507,-8586.388927,0.000000
2964.852827,-1258.350101,-8956.491898,0.000000
2964.853155,592.164754,-10658.965565,-1608.800546
2964.853482,1110.308913,-11991.336260,-1378.971896
2964.853810,-592.164754,-9844.739029,76.609550
2964.854138,-222.061783,-7698.141797,1072.533697
2964.854465,1184.329507,-9252.574275,459.657299
2964.854793,1480.411884,-12361.439231,-1608.800546
2964.855121,-814.226536,-10955.047942,0.000000
2964.855448,-592.164754,-7698.141797,153.219100
2964.855776,518.144159,-8290.306550,-766.095498
2964.856104,0.000000,-11399.171507,-383.047749
2964.856431,-592.164754,-11251.130318,766.095498
2964.856759,370.102971,-9252.574275,383.047749
2964.857086,2368.659014,-8734.430116,-919.314598
2964.857414,1702.473667,-9622.677246,-2451.505594
2964.857742,-888.247130,-9992.780217,-1455.581446
2964.858069,-1110.308913,-10140.821405,0.000000
2964.858397,814.226536,-10510.924376,76.609550
2964.858725,888.247130,-9622.677246,459.657299
2964.859052,-740.205942,-8068.244768,689.485948
2964.859380,-222.061783,-7624.121203,1455.581446
2964.859708,1184.329507,-9844.739029,689.485948
2964.860035,444.123565,-11621.233289,229.828649
2964.860363,-222.061783,-9844.739029,0.000000
2964.860690,666.185348,-7920.203579,-229.828649
2964.861018,1850.514855,-9326.594869,-1685.410096
2964.861346,1184.329507,-12361.439231,-766.095498
2964.861673,962.267725,-11399.171507,-229.828649
2964.862001,1924.535449,-9622.677246,0.000000
2964.862329,2590.720797,-9400.615463,-612.876398
2964.862656,1406.391290,-8808.450710,-995.924147
2964.862984,-444.123565,-7846.182985,842.705048
2964.863311,-888.247130,-7920.203579,1915.238745
2964.863639,592.164754,-9326.594869,1225.752797
2964.863967,444.123565,-7402.059420,766.095498
2964.864294,-1628.453072,-5477.523971,1072.533697
2964.864622,-2368.659014,-7179.997637,1302.362347
2964.864950,-888.247130,-11769.274478,0.000000
2964.865277,370.102971,-13249.686362,-1685.410096
2964.865605,888.247130,-10955.047942,-2681.334243
2964.865932,2072.576638,-11029.068536,-1225.752797
2964.866260,3256.906145,-12805.562797,-842.705048
2964.866588,1924.535449,-13027.624579,229.828649
2964.866915,222.061783,-10658.965565,229.828649
2964.867243,148.041188,-8438.347739,-689.485948
2964.867571,592.164754,-8512.368333,-919.314598
2964.867898,0.000000,-7772.162391,-1072.533697
2964.868226,-1998.556043,-6883.915261,229.828649
2964.868554,-2146.597232,-8142.265362,1762.019645
2964.868881,-148.041188,-9918.759623,919.314598
2964.869209,0.000000,-8808.450710,-766.095498
2964.869536,-1776.494261,-8216.285956,-689.485948
2964.869864,-962.267725,-9622.677246,-612.876398
2964.870192,1258.350101,-12435.459826,-1302.362347
2964.870519,1184.329507,-13175.665768,-536.266849
2964.870847,592.164754,-11399.171507,-229.828649
2964.871175,1480.411884,-9178.553681,153.219100
2964.871502,1850.514855,-12139.377449,-306.438199
2964.871830,148.041188,-13471.748144,-1149.143247
2964.872157,-1110.308913,-9992.780217,-1608.800546
2964.872485,-370.102971,-7105.977043,-689.485948
2964.872813,-296.082377,-7402.059420,0.000000
2964.873140,-666.185348,-7476.080014,1072.533697
2964.873468,-1924.535449,-6291.750507,2145.067394
2964.873796,-666.185348,-7105.977043,2451.505594
2964.874123,1110.308913,-8882.471304,919.314598
2964.874451,814.226536,-8808.450710,-229.828649
2964.874778,-1036.288319,-7476.080014,612.876398
2964.875106,0.000000,-8956.491898,612.876398
2964.875434,1998.556043,-12953.603985,-689.485948
2964.875761,1184.329507,-13397.727550,-1378.971896
2964.876089,666.185348,-9622.677246,-1378.971896
2964.876417,1702.473667,-9622.677246,-1838.629195
2964.876744,1998.556043,-13619.789333,-1072.533697
2964.877072,0.000000,-13175.665768,306.438199
2964.877399,-888.247130,-8290.306550,153.219100
2964.877727,518.144159,-7105.977043,0.000000
2964.878055,1480.411884,-8660.409521,459.657299
2964.878382,-148.041188,-7772.162391,383.047749
2964.878710,-888.247130,-7179.997637,919.314598
2964.879038,74.020594,-8068.244768,1225.752797
2964.879365,1258.350101,-9548.656652,-766.095498
2964.879693,1258.350101,-10288.862594,-2068.457845
2964.880021,-148.041188,-10066.800811,-153.219100
2964.880348,888.247130,-11177.109724,-766.095498
2964.880676,2368.659014,-14063.912898,-1762.019645
2964.881003,1110.308913,-12731.542202,-1608.800546
2964.881331,666.185348,-9474.636058,-995.924147
2964.881659,1702.473667,-9474.636058,229.828649
2964.881986,1776.494261,-12583.501014,766.095498
2964.882314,-222.061783,-10658.965565,1455.581446
2964.882642,-1702.473667,-6291.750507,0.000000
2964.882969,-1110.308913,-5995.668130,306.438199
2964.883297,0.000000,-8216.285956,0.000000
2964.883624,-148.041188,-7994.224174,0.000000
2964.883952,-888.247130,-7179.997637,1532.190996
2964.884280,74.020594,-9030.512492,612.876398
2964.884607,74.020594,-9252.574275,-536.266849
2964.884935,-2072.576638,-10362.883188,-1915.238745
2964.885263,-2146.597232,-9400.615463,-1838.629195
2964.885590,74.020594,-10510.924376,-2221.676944
2964.885918,1480.411884,-12953.603985,-459.657299
2964.886245,1480.411884,-11473.192101,766.095498
2964.886573,1776.494261,-8734.430116,1149.143247
2964.886901,2294.638420,-10362.883188,1455.581446
2964.887228,444.123565,-11991.336260,459.657299
2964.887556,-1850.514855,-9696.697840,-842.705048
2964.887884,-2072.576638,-6513.812290,-995.924147
2964.888211,-814.226536,-7105.977043,-229.828649
2964.888539,888.247130,-9474.636058,-229.828649
2964.888866,518.144159,-9548.656652,842.705048
2964.889194,0.000000,-7920.203579,1149.143247
2964.889522,2072.576638,-9252.574275,-766.095498
2964.889849,2146.597232,-11399.171507,-1991.848295
2964.890177,-444.123565,-10510.924376,-1225.752797
2964.890505,-1036.288319,-8068.244768,-459.657299
2964.890832,888.247130,-9622.677246,0.000000
2964.891160,1184.329507,-11843.295072,536.266849
2964.891488,148.041188,-10066.800811,1378.971896
2964.891815,222.061783,-8734.430116,536.266849
2964.892143,740.205942,-11029.068536,-689.485948
2964.892470,962.267725,-12805.562797,-1915.238745
2964.892798,-814.226536,-9770.718434,-1378.971896
2964.893126,-444.123565,-6439.791695,0.000000
2964.893453,1776.494261,-6809.894666,2298.286494
2964.893781,3108.864956,-9770.718434,689.485948
2964.894109,1406.391290,-9918.759623,459.657299
2964.894436,1110.308913,-9400.615463,459.657299
2964.894764,2220.617826,-9474.636058,-612.876398
2964.895091,1036.288319,-9696.697840,-1302.362347
2964.895419,-1480.411884,-9474.636058,-1149.143247
2964.895747,-1850.514855,-8956.491898,-153.219100
2964.896074,0.000000,-9474.636058,-229.828649
2964.896402,1480.411884,-10881.027347,0.000000
2964.896730,0.000000,-8438.347739,383.047749
2964.897057,-1332.370696,-7994.224174,1532.190996
2964.897385,-296.082377,-11029.068536,459.657299
2964.897712,666.185348,-13249.686362,-1378.971896
2964.898040,370.102971,-11843.295072,-1762.019645
2964.898368,962.267725,-9030.512492,-766.095498
2964.898695,2368.659014,-9622.677246,-306.438199
2964.899023,2368.659014,-11399.171507,-383.047749
2964.899351,962.267725,-9992.780217,-459.657299
2964.899678,0.000000,-9474.636058,0.000000
2964.900006,-222.061783,-9844.739029,459.657299
2964.900333,-518.144159,-8808.450710,-1149.143247
2964.900661,-2368.659014,-6957.935855,-612.876398
2964.900989,-2368.659014,-7772.162391,689.485948
2964.901316,0.000000,-10066.800811,1149.143247
2964.901644,1332.370696,-10658.965565,612.876398
2964.901972,518.144159,-9326.594869,383.047749
2964.902299,740.205942,-9178.553681,-689.485948
2964.902627,814.226536,-11029.068536,-2068.457845
2964.902955,-740.205942,-13101.645173,-2145.067394
2964.903282,-1480.411884,-10214.842000,-1149.143247
2964.903610,296.082377,-8586.388927,-536.266849
2964.903937,2220.617826,-11103.089130,0.000000
2964.904265,1924.535449,-11769.274478,-306.438199
2964.904593,1036.288319,-9400.615463,-306.438199
2964.904920,148.041188,-7402.059420,842.705048
2964.905248,-370.102971,-7994.224174,459.657299
2964.905576,-1924.535449,-7402.059420,0.000000
2964.905903,-3478.967927,-5625.565159,229.828649
2964.906231,-1850.514855,-6513.812290,995.924147
2964.906558,1110.308913,-10140.821405,459.657299
2964.906886,2294.638420,-11547.212695,-306.438199
2964.907214,1258.350101,-10288.862594,-153.219100
2964.907541,2368.659014,-11843.295072,-1149.143247
2964.907869,2368.659014,-13989.892304,-2298.286494
2964.908197,814.226536,-13915.871710,-2221.676944
2964.908524,0.000000,-9474.636058,-1149.143247
2964.908852,888.247130,-8586.388927,-306.438199
2964.909179,1332.370696,-11103.089130,919.314598
2964.909507,0.000000,-10584.944971,459.657299
2964.909835,-1036.288319,-7105.977043,0.000000
2964.910162,-666.185348,-7179.997637,-306.438199
2964.910490,-370.102971,-8290.306550,0.000000
2964.910818,-962.267725,-7254.018232,0.000000
2964.911145,-2294.638420,-6883.915261,612.876398
2964.911473,0.000000,-9400.615463,842.705048
2964.911800,3701.029710,-12213.398043,-306.438199
2964.912128,3849.070898,-12361.439231,-229.828649
2964.912456,2220.617826,-10658.965565,383.047749
2964.912783,2220.617826,-11547.212695,-536.266849
2964.913111,962.267725,-14359.995275,-1685.410096
2964.913439,-592.164754,-12805.562797,-1608.800546
2964.913766,-962.267725,-7698.141797,-1532.190996
2964.914094,222.061783,-7402.059420,76.609550
2964.914422,0.000000,-9622.677246,2145.067394
2964.914749,-666.185348,-8586.388927,1762.019645
2964.915077,-1184.329507,-5847.626942,1149.143247
2964.915404,-962.267725,-6661.853478,919.314598
2964.915732,0.000000,-7846.182985,306.438199
2964.916060,-296.082377,-7698.141797,0.000000
2964.916387,-1036.288319,-7105.977043,1072.533697
2964.916715,962.267725,-8882.471304,842.705048
2964.917043,2664.741391,-11917.315666,-995.924147
2964.917370,1110.308913,-13323.706956,-612.876398
2964.917698,-888.247130,-10436.903782,-612.876398
2964.918025,-666.185348,-10881.027347,-2757.943793
2964.918353,-1480.411884,-13693.809927,-2681.334243
2964.918681,-1554.432478,-11399.171507,-2911.162892
2964.919008,-296.082377,-7105.977043,-1991.848295
2964.919336,888.247130,-8512.368333,1915.238745
2964.919664,2294.638420,-10955.047942,2681.334243
2964.919991,1924.535449,-9474.636058,1072.533697
2964.920319,0.000000,-6661.853478,536.266849
2964.920646,-888.247130,-7254.018232,229.828649
2964.920974,74.020594,-10732.986159,-1455.581446
2964.921302,-1258.350101,-9474.636058,-1455.581446
2964.921629,-1628.453072,-7994.224174,-689.485948
2964.921957,1776.494261,-9992.780217,-842.705048
2964.922285,3330.926739,-13767.830521,-383.047749
2964.922612,1850.514855,-12583.501014,612.876398
2964.922940,1554.432478,-9918.759623,306.438199
2964.923267,814.226536,-10066.800811,-536.266849
2964.923595,0.000000,-11843.295072,-612.876398
2964.923923,-1184.329507,-9030.512492,0.000000
2964.924250,-1036.288319,-5773.606348,1149.143247
2964.924578,666.185348,-7328.038826,2451.505594
2964.924906,2072.576638,-10362.883188,1378.971896
2964.925233,222.061783,-9696.697840,842.705048
2964.925561,-518.144159,-7846.182985,-383.047749
2964.925889,1702.473667,-8660.409521,-1608.800546
2964.926216,1924.535449,-10436.903782,-1455.581446
2964.926544,148.041188,-9844.739029,306.438199
2964.926871,1036.288319,-7920.203579,1225.752797
2964.927199,3552.988522,-9992.780217,0.000000
2964.927527,3034.844362,-11843.295072,-306.438199
2964.927854,0.000000,-9918.759623,1149.143247
2964.928182,-814.226536,-8216.285956,-153.219100
2964.928510,-370.102971,-9622.677246,-612.876398
2964.928837,-518.144159,-10140.821405,-1838.629195
2964.929165,-1332.370696,-7698.141797,-766.095498
2964.929492,-296.082377,-7031.956449,995.924147
2964.929820,1776.494261,-9696.697840,1149.143247
2964.930148,1998.556043,-11769.274478,-306.438199
2964.930475,-814.226536,-10807.006753,-1302.362347
2964.930803,-888.247130,-9104.533087,-919.314598
2964.931131,1258.350101,-10658.965565,-2145.067394
2964.931458,1406.391290,-12065.356855,-2221.676944
2964.931786,-814.226536,-10288.862594,-536.266849
2964.932113,0.000000,-9844.739029,919.314598
2964.932441,1332.370696,-10658.965565,0.000000
2964.932769,444.123565,-10362.883188,-1225.752797
2964.933096,-1998.556043,-8956.491898,-1302.362347
2964.933424,-2738.761985,-8586.388927,-306.438199
2964.933752,-740.205942,-10658.965565,0.000000
2964.934079,-296.082377,-11029.068536,-306.438199
2964.934407,-1258.350101,-8808.450710,919.314598
2964.934734,0.000000,-8068.244768,1072.533697
2964.935062,1332.370696,-10140.821405,459.657299
2964.935390,1110.308913,-10955.047942,-612.876398
2964.935717,-1110.308913,-8216.285956,-995.924147
2964.936045,-592.164754,-7698.141797,-612.876398
2964.936373,592.164754,-10140.821405,0.000000
2964.936700,666.185348,-11029.068536,383.047749
2964.937028,-888.247130,-9474.636058,766.095498
2964.937356,-222.061783,-8808.450710,229.828649
2964.937683,1184.329507,-10140.821405,-919.314598
2964.938011,444.123565,-10288.862594,-612.876398
2964.938338,-592.164754,-7624.121203,229.828649
2964.938666,-222.061783,-7846.182985,1685.410096
2964.938994,814.226536,-9178.553681,1149.143247
2964.939321,814.226536,-10066.800811,153.219100
2964.939649,-814.226536,-8290.306550,153.219100
2964.939977,0.000000,-9030.512492,0.000000
2964.940304,1850.514855,-11991.336260,-1378.971896
2964.940632,1776.494261,-11917.315666,-2298.286494
2964.940959,444.123565,-8882.471304,-1532.190996
2964.941287,962.267725,-8956.491898,-842.705048
2964.941615,1628.453072,-11695.253884,459.657299
2964.941942,518.144159,-11177.109724,-306.438199
2964.942270,-888.247130,-7624.121203,0.000000
2964.942598,-296.082377,-7105.977043,229.828649
2964.942925,962.267725,-9548.656652,0.000000
2964.943253,370.102971,-11769.274478,-306.438199
2964.943580,-592.164754,-8734.430116,-229.828649
2964.943908,74.020594,-9252.574275,-766.095498
2964.944236,2294.638420,-12805.562797,-1762.019645
2964.944563,2368.659014,-13397.727550,-2374.896044
2964.944891,1702.473667,-10436.903782,-612.876398
2964.945219,2368.659014,-9844.739029,536.266849
2964.945546,3256.906145,-12065.356855,459.657299
2964.945874,2442.679609,-10881.027347,0.000000
2964.946201,0.000000,-6883.915261,0.000000
2964.946529,-666.185348,-7328.038826,1838.629195
2964.946857,-370.102971,-10214.842000,1072.533697
2964.947184,-1184.329507,-9474.636058,-306.438199
2964.947512,-2442.679609,-6439.791695,383.047749
2964.947840,-1702.473667,-6069.688724,1302.362347
2964.948167,444.123565,-9918.759623,459.657299
2964.948495,888.247130,-12139.377449,76.609550
2964.948822,444.123565,-9622.677246,76.609550
2964.949150,1184.329507,-9474.636058,229.828649
2964.949478,2220.617826,-11695.253884,-536.266849
2964.949805,74.020594,-10955.047942,-383.047749
2964.950133,-1406.391290,-8734.430116,459.657299
2964.950461,-962.267725,-8808.450710,0.000000
2964.950788,74.020594,-11103.089130,-689.485948
2964.951116,-296.082377,-9104.533087,-2451.505594
2964.951444,-1110.308913,-6809.894666,-1532.190996
2964.951771,-888.247130,-8882.471304,1302.362347
2964.952099,0.000000,-11325.150913,1149.143247
2964.952426,-1110.308913,-9844.739029,229.828649
2964.952754,-1554.432478,-7254.018232,536.266849
2964.953082,-222.061783,-8142.265362,-383.047749
2964.953409,1406.391290,-11621.233289,-1225.752797
2964.953737,518.144159,-12435.459826,-1378.971896
2964.954065,-666.185348,-9918.759623,-76.609550
2964.954392,370.102971,-10214.842000,-842.705048
2964.954720,888.247130,-12213.398043,-1838.629195
2964.955047,0.000000,-11843.295072,-2451.505594
2964.955375,-592.164754,-9844.739029,-1302.362347
2964.955703,296.082377,-10510.924376,0.000000
2964.956030,1998.556043,-9844.739029,-919.314598
2964.956358,740.205942,-7698.141797,-229.828649
2964.956686,-518.144159,-5773.606348,1455.581446
2964.957013,-296.082377,-7994.224174,2451.505594
2964.957341,1702.473667,-10658.965565,842.705048
2964.957668,-148.041188,-8364.327145,-153.219100
2964.957996,-444.123565,-7105.977043,-153.219100
2964.958324,1998.556043,-10288.862594,-229.828649
2964.958651,3923.091493,-14359.995275,-612.876398
2964.958979,3108.864956,-12953.603985,-536.266849
2964.959307,3108.864956,-10658.965565,-1225.752797
2964.959634,3849.070898,-10658.965565,-995.924147
2964.959962,2664.741391,-11621.233289,-306.438199
2964.960290,296.082377,-9770.718434,459.657299
2964.960617,-1258.350101,-6809.894666,1685.410096
2964.960945,666.185348,-7328.038826,1532.190996
2964.961273,1998.556043,-8586.388927,0.000000
2964.961600,-666.185348,-6883.915261,766.095498
2964.961928,-888.247130,-6217.729913,2298.286494
2964.962256,888.247130,-7624.121203,1915.238745
2964.962583,518.144159,-9622.677246,-153.219100
2964.962911,-1924.535449,-10214.842000,-1302.362347
2964.963239,-740.205942,-9770.718434,-383.047749
2964.963566,2738.761985,-11547.212695,-689.485948
2964.963894,4663.297435,-15100.201217,-1225.752797
2964.964222,2442.679609,-14137.933492,0.000000
2964.964550,1036.288319,-9104.533087,536.266849
2964.964877,2072.576638,-9918.759623,-306.438199
2964.965205,-296.082377,-10362.883188,-689.485948
2964.965533,-4293.194464,-7920.203579,-1072.533697
2964.965860,-4293.194464,-6291.750507,-153.219100
2964.966188,-1850.514855,-7920.203579,0.000000
2964.966516,-296.082377,-9992.780217,-842.705048
2964.966843,-962.267725,-8364.327145,306.438199
2964.967171,-1628.453072,-7772.162391,689.485948
2964.967499,1036.288319,-10584.944971,-995.924147
2964.967826,1628.453072,-12435.459826,-2757.943793
2964.968154,-962.267725,-9844.739029,-1302.362347
2964.968482,-370.102971,-7994.224174,306.438199
2964.968809,1998.556043,-11473.192101,383.047749
2964.969137,1998.556043,-13915.871710,-919.314598
2964.969465,-1184.329507,-12065.356855,-306.438199
2964.969792,-1036.288319,-9178.553681,0.000000
2964.970120,-296.082377,-9992.780217,-2451.505594
2964.970448,-814.226536,-11547.212695,-2298.286494
2964.970776,-2442.679609,-8660.409521,0.000000
2964.971103,-1850.514855,-6143.709319,2681.334243
2964.971431,1184.329507,-7254.018232,2374.896044
2964.971759,1480.411884,-7550.100608,766.095498
2964.972086,-1480.411884,-6217.729913,766.095498
2964.972414,-296.082377,-8068.244768,1378.971896
2964.972742,1776.494261,-10955.047942,0.000000
2964.973069,1776.494261,-12509.480420,-1915.238745
2964.973397,-444.123565,-10066.800811,-995.924147
2964.973725,0.000000,-8882.471304,383.047749
2964.974052,2368.659014,-11695.253884,0.000000
2964.974380,1554.432478,-12953.603985,-1149.143247
2964.974708,148.041188,-9844.739029,0.000000
2964.975035,888.247130,-7920.203579,383.047749
2964.975363,1184.329507,-8808.450710,995.924147
2964.975691,0.000000,-9030.512492,1072.533697
2964.976018,-1110.308913,-7698.141797,842.705048
2964.976346,-444.123565,-6809.894666,0.000000
2964.976674,2220.617826,-8142.265362,-995.924147
2964.977002,2812.782580,-10584.944971,-2145.067394
2964.977329,1776.494261,-9918.759623,-689.485948
2964.977657,2294.638420,-10732.986159,689.485948
2964.977985,2886.803174,-13101.645173,-306.438199
2964.978312,1480.411884,-12805.562797,-2068.457845
2964.978640,-1036.288319,-8068.244768,-1149.143247
2964.978968,0.000000,-8364.327145,-612.876398
2964.979295,2072.576638,-11621.233289,-459.657299
2964.979623,1480.411884,-11473.192101,-459.657299
2964.979951,-148.041188,-8808.450710,536.266849
2964.980278,74.020594,-8290.306550,995.924147
2964.980606,740.205942,-10140.821405,-229.828649
2964.980934,-592.164754,-9400.615463,-1302.362347
2964.981261,-2442.679609,-8364.327145,-689.485948
2964.981589,-666.185348,-8512.368333,-766.095498
2964.981917,2664.741391,-11325.150913,-1225.752797
2964.982244,1406.391290,-10732.986159,-995.924147
2964.982572,-370.102971,-9474.636058,536.266849
2964.982900,0.000000,-9548.656652,229.828649
2964.983227,1110.308913,-10510.924376,-459.657299
2964.983555,-740.205942,-9770.718434,-612.876398
2964.983883,-2442.679609,-6587.832884,919.314598
2964.984211,-370.102971,-7328.038826,1225.752797
2964.984538,370.102971,-10955.047942,995.924147
2964.984866,-1258.350101,-11621.233289,766.095498
2964.985194,-2442.679609,-8364.327145,842.705048
2964.985521,-1184.329507,-8586.388927,612.876398
2964.985849,518.144159,-11103.089130,-2068.457845
2964.986177,-592.164754,-11621.233289,-1302.362347
2964.986504,-740.205942,-9474.636058,1072.533697
2964.986832,1702.473667,-9030.512492,1532.190996
2964.987160,2368.659014,-10140.821405,0.000000
2964.987487,0.000000,-8956.491898,-612.876398
2964.987815,-2146.597232,-7624.121203,-612.876398
2964.988143,-1554.432478,-7994.224174,-612.876398
2964.988470,-592.164754,-9104.533087,-1302.362347
2964.988798,-1776.494261,-8512.368333,-1378.971896
2964.989126,-1850.514855,-7105.977043,919.314598
2964.989453,0.000000,-8882.471304,1225.752797
2964.989781,2072.576638,-11769.274478,-383.047749
2964.990109,1258.350101,-12361.439231,-536.266849
2964.990437,814.226536,-9844.739029,-76.609550
2964.990764,2072.576638,-10658.965565,-919.314598
2964.991092,2664.741391,-13101.645173,-1378.971896
2964.991420,814.226536,-12657.521608,-766.095498
2964.991747,74.020594,-10066.800811,0.000000
2964.992075,1110.308913,-9696.697840,-766.095498
2964.992403,1702.473667,-11103.089130,-2451.505594
2964.992730,-888.247130,-9770.718434,-2068.457845
2964.993058,-1850.514855,-7698.141797,76.609550
2964.993386,-370.102971,-7698.141797,306.438199
2964.993713,740.205942,-8882.471304,0.000000
2964.994041,-592.164754,-7994.224174,919.314598
2964.994369,-296.082377,-6217.729913,2298.286494
2964.994696,2368.659014,-9400.615463,1762.019645
2964.995024,3330.926739,-13101.645173,0.000000
2964.995352,1924.535449,-11843.295072,153.219100
2964.995679,1924.535449,-9474.636058,842.705048
2964.996007,3404.947333,-10732.986159,0.000000
2964.996335,3256.906145,-13841.851115,-612.876398
2964.996663,296.082377,-11473.192101,-536.266849
2964.996990,74.020594,-7476.080014,0.000000
2964.997318,1110.308913,-7105.977043,76.609550
2964.997646,-148.041188,-9252.574275,689.485948
2964.997973,-2368.659014,-7328.038826,1532.190996
2964.998301,-2146.597232,-5921.647536,1838.629195
2964.998629,0.000000,-7698.141797,306.438199
2964.998956,1554.432478,-9844.739029,-1072.533697
2964.999284,-296.082377,-8290.306550,0.000000
2964.999612,-370.102971,-6217.729913,919.314598
2964.999939,1554.432478,-10807.006753,-612.876398
2965.000267,1332.370696,-14582.057057,-1685.410096
2965.000595,-444.123565,-11769.274478,-1302.362347
2965.000922,222.061783,-9696.697840,-995.924147
2965.001250,1998.556043,-12287.418637,-1762.019645
2965.001578,1480.411884,-14804.118840,-1072.533697
2965.001905,-1406.391290,-11843.295072,-1225.752797
2965.002233,-1554.432478,-7624.121203,-306.438199
2965.002561,0.000000,-8956.491898,-1532.190996
2965.002888,-444.123565,-9474.636058,-1991.848295
2965.003216,-2960.823768,-7179.997637,-459.657299
2965.003544,-3627.009116,-6661.853478,306.438199
2965.003872,-666.185348,-8808.450710,0.000000
2965.004199,0.000000,-10732.986159,-1532.190996
2965.004527,-1110.308913,-9474.636058,0.000000
2965.004855,444.123565,-8364.327145,0.000000
2965.005182,2738.761985,-11769.274478,-1378.971896
2965.005510,2442.679609,-14434.015869,-1378.971896
2965.005838,962.267725,-11103.089130,-842.705048
2965.006165,444.123565,-8290.306550,536.266849
2965.006493,740.205942,-10214.842000,689.485948
2965.006821,-1036.288319,-11843.295072,459.657299
2965.007148,-2886.803174,-9178.553681,306.438199
2965.007476,-1850.514855,-6365.771101,0.000000
2965.007804,0.000000,-8216.285956,0.000000
2965.008131,-296.082377,-9030.512492,0.000000
2965.008459,-814.226536,-7772.162391,153.219100
2965.008787,-814.226536,-5995.668130,1915.238745
2965.009114,1554.432478,-7772.162391,536.266849
2965.009442,2590.720797,-10658.965565,-766.095498
2965.009770,962.267725,-9474.636058,536.266849
2965.010098,1036.288319,-8512.368333,1072.533697
2965.010425,3034.844362,-11029.068536,-612.876398
2965.010753,2516.700203,-13323.706956,-1225.752797
2965.011081,370.102971,-10288.862594,0.000000
2965.011408,1776.494261,-10066.800811,-459.657299
2965.011736,2442.679609,-11843.295072,-459.657299
2965.012064,1332.370696,-12361.439231,-689.485948
2965.012391,-444.123565,-9770.718434,459.657299
2965.012719,-962.267725,-7254.018232,1378.971896
2965.013047,666.185348,-8142.265362,0.000000
2965.013374,592.164754,-8586.388927,-1378.971896
2965.013702,-1924.535449,-7402.059420,0.000000
2965.014030,-666.185348,-8142.265362,-306.438199
2965.014357,2886.803174,-11473.192101,-2068.457845
2965.014685,1924.535449,-12435.459826,-1762.019645
2965.015013,0.000000,-10807.006753,-229.828649
2965.015340,1850.514855,-10140.821405,0.000000
2965.015668,2664.741391,-11991.336260,-1149.143247
2965.015996,1924.535449,-12805.562797,-1149.143247
2965.016323,666.185348,-9548.656652,0.000000
2965.016651,888.247130,-8808.450710,1302.362347
2965.016979,1332.370696,-11473.192101,1072.533697
2965.017307,-1776.494261,-10955.047942,229.828649
2965.017634,-3701.029710,-7994.224174,229.828649
2965.017962,-2294.638420,-6587.832884,-459.657299
2965.018290,222.061783,-8882.471304,-1532.190996
2965.018617,-814.226536,-9548.656652,-919.314598
2965.018945,-1850.514855,-7920.203579,919.314598
2965.019273,222.061783,-8882.471304,919.314598
2965.019600,2294.638420,-11399.171507,-536.266849
2965.019928,518.144159,-10140.821405,-383.047749
2965.020256,-1998.556043,-6883.915261,76.609550
2965.020583,-740.205942,-8068.244768,612.876398
2965.020911,1184.329507,-10807.006753,-919.314598
2965.021239,0.000000,-10362.883188,-229.828649
2965.021566,-962.267725,-8512.368333,1685.410096
2965.021894,444.123565,-9474.636058,1915.238745
2965.022222,1554.432478,-12361.439231,153.219100
2965.022549,-666.185348,-11029.068536,-1532.190996
2965.022877,-1924.535449,-7920.203579,-766.095498
2965.023205,296.082377,-8438.347739,-536.266849
2965.023533,2738.761985,-11029.068536,-995.924147
2965.023860,1258.350101,-11325.150913,-306.438199
2965.024188,-370.102971,-9104.533087,-229.828649
2965.024516,444.123565,-9400.615463,-842.705048
2965.024843,1036.288319,-11843.295072,-1762.019645
2965.025171,-1924.535449,-10214.842000,-2451.505594
2965.025499,-3182.885551,-7624.121203,-1378.971896
2965.025826,-1406.391290,-7550.100608,-536.266849
2965.026154,1332.370696,-11695.253884,-766.095498
2965.026482,1110.308913,-12287.418637,459.657299
2965.026809,1406.391290,-8956.491898,1072.533697
2965.027137,2146.597232,-9252.574275,1072.533697
2965.027465,3108.864956,-13397.727550,76.609550
2965.027792,370.102971,-11547.212695,-306.438199
2965.028120,-592.164754,-7624.121203,612.876398
2965.028448,1850.514855,-7550.100608,612.876398
2965.028775,2812.782580,-10140.821405,-306.438199
2965.029103,296.082377,-10214.842000,-459.657299
2965.029431,-1480.411884,-8660.409521,0.000000
2965.029759,0.000000,-8956.491898,-459.657299
2965.030086,1036.288319,-10066.800811,-1608.800546
2965.030414,-1036.288319,-8364.327145,-153.219100
2965.030742,-2072.576638,-6439.791695,2145.067394
2965.031069,740.205942,-7994.224174,1762.019645
2965.031397,2442.679609,-10436.903782,0.000000
2965.031725,1406.391290,-9918.759623,76.609550
2965.032052,74.020594,-7476.080014,1608.800546
2965.032380,814.226536,-9030.512492,229.828649
2965.032708,518.144159,-13397.727550,-1225.752797
2965.033035,-518.144159,-12435.459826,-1762.019645
2965.033363,0.000000,-9474.636058,-1608.800546
2965.033691,1998.556043,-10658.965565,-536.266849
2965.034018,3330.926739,-12657.521608,-842.705048
2965.034346,0.000000,-9770.718434,-919.314598
2965.034674,-1480.411884,-7402.059420,0.000000
2965.035001,-592.164754,-7698.141797,-689.485948
2965.035329,-592.164754,-9400.615463,-1302.362347
2965.035657,-3108.864956,-8068.244768,689.485948
2965.035984,-2442.679609,-6365.771101,919.314598
2965.036312,296.082377,-8956.491898,-689.485948
2965.036640,2368.659014,-12953.603985,-2451.505594
2965.036968,370.102971,-11843.295072,-1762.019645
2965.037295,1406.391290,-9918.759623,-919.314598
2965.037623,3108.864956,-12287.418637,-1149.143247
2965.037951,2072.576638,-15322.262999,-919.314598
2965.038278,-592.164754,-10362.883188,0.000000
2965.038606,0.000000,-7105.977043,995.924147
2965.038934,1702.473667,-9696.697840,1149.143247
2965.039261,1184.329507,-11473.192101,536.266849
2965.039589,-1554.432478,-7624.121203,459.657299
2965.039917,-2516.700203,-5107.421000,536.266849
2965.040244,-1850.514855,-7105.977043,0.000000
2965.040572,-1332.370696,-8956.491898,-229.828649
2965.040900,-3849.070898,-7105.977043,919.314598
2965.041227,-2812.782580,-5921.647536,1608.800546
2965.041555,2368.659014,-10510.924376,-919.314598
2965.041883,4071.132681,-13989.892304,-1378.971896
2965.042210,1998.556043,-11029.068536,766.095498
2965.042538,2442.679609,-9104.533087,1838.629195
2965.042866,3182.885551,-11843.295072,459.657299
2965.043194,666.185348,-13027.624579,-612.876398
2965.043521,-1406.391290,-9474.636058,-995.924147
2965.043849,-1406.391290,-7105.977043,306.438199
2965.044177,148.041188,-9770.718434,536.266849
2965.044504,518.144159,-10881.027347,-689.485948
2965.044832,-2368.659014,-7254.018232,-306.438199
2965.045160,-1924.535449,-6587.832884,0.000000
2965.045487,0.000000,-8438.347739,-766.095498
2965.045815,222.061783,-10140.821405,-1915.238745
2965.046143,-740.205942,-9178.553681,-689.485948
2965.046470,1332.370696,-8660.409521,153.219100
2965.046798,3552.988522,-11621.233289,0.000000
2965.047126,3552.988522,-14211.954086,-1149.143247
2965.047453,1702.473667,-11991.336260,-383.047749
2965.047781,1332.370696,-9770.718434,-1915.238745
2965.048109,1702.473667,-11473.192101,-2451.505594
2965.048436,592.164754,-13693.809927,-1608.800546
2965.048764,-1332.370696,-9252.574275,306.438199
2965.049092,-666.185348,-7031.956449,1915.238745
2965.049420,370.102971,-9400.615463,1685.410096
2965.049747,-296.082377,-9548.656652,-689.485948
2965.050075,-1036.288319,-6809.894666,-306.438199
2965.050403,-1110.308913,-5773.606348,919.314598
2965.050730,1184.329507,-9474.636058,536.266849
2965.051058,666.185348,-10658.965565,612.876398
2965.051386,-592.164754,-8512.368333,612.876398
2965.051713,1110.308913,-8364.327145,229.828649
2965.052041,2590.720797,-11399.171507,-459.657299
2965.052369,1406.391290,-12879.583391,-1225.752797
2965.052696,-518.144159,-9622.677246,-1378.971896
2965.053024,444.123565,-8290.306550,-842.705048
2965.053352,1110.308913,-11029.068536,-536.266849
2965.053679,-518.144159,-10881.027347,1072.533697
2965.054007,-1554.432478,-6513.812290,1149.143247
2965.054335,0.000000,-6883.915261,2528.115143
2965.054662,814.226536,-10066.800811,459.657299
2965.054990,592.164754,-9326.594869,-536.266849
2965.055318,-740.205942,-7476.080014,0.000000
2965.055645,-592.164754,-8142.265362,383.047749
2965.055973,1480.411884,-11251.130318,-1378.971896
2965.056301,888.247130,-12657.521608,-1608.800546
2965.056629,-370.102971,-10510.924376,-1072.533697
2965.056956,444.123565,-9400.615463,-229.828649
2965.057284,2294.638420,-11695.253884,-995.924147
2965.057612,370.102971,-11769.274478,-689.485948
2965.057939,-740.205942,-9030.512492,-842.705048
2965.058267,-222.061783,-8364.327145,-383.047749
2965.058595,0.000000,-11251.130318,76.609550
2965.058922,74.020594,-11177.109724,-459.657299
2965.059250,-518.144159,-8068.244768,0.000000
2965.059578,148.041188,-8068.244768,919.314598
2965.059905,1406.391290,-11621.233289,0.000000
2965.060233,740.205942,-10436.903782,-766.095498
2965.060561,-148.041188,-7550.100608,-306.438199
2965.060888,148.041188,-8216.285956,-612.876398
2965.061222,592.164754,-12139.377449,-1072.533697
2965.061550,0.000000,-11177.109724,-383.047749
2965.061878,0.000000,-7698.141797,-536.266849
2965.062205,1110.308913,-8364.327145,306.438199
2965.062533,1998.556043,-11917.315666,919.314598
2965.062861,666.185348,-11251.130318,306.438199
2965.063188,-666.185348,-7772.162391,306.438199
2965.063516,-222.061783,-8290.306550,-689.485948
2965.063843,370.102971,-10658.965565,153.219100
2965.064171,-1110.308913,-8808.450710,153.219100
2965.064499,-1036.288319,-7254.018232,1532.190996
2965.064826,888.247130,-9030.512492,919.314598
2965.065154,2442.679609,-11473.192101,-229.828649
2965.065482,592.164754,-10510.924376,-689.485948
2965.065809,-740.205942,-7328.038826,0.000000
2965.066137,0.000000,-8290.306550,-919.314598
2965.066464,592.164754,-12139.377449,-1762.019645
2965.066792,-1332.370696,-9770.718434,-1378.971896
2965.067120,-1480.411884,-7402.059420,-689.485948
2965.067447,962.267725,-9326.594869,536.266849
2965.067775,1850.514855,-12361.439231,153.219100
2965.068103,888.247130,-12139.377449,76.609550
2965.068430,0.000000,-8734.430116,-1072.533697
2965.068758,888.247130,-9030.512492,-1378.971896
2965.069085,1850.514855,-11695.253884,-995.924147
2965.069413,0.000000,-10584.944971,0.000000
2965.069741,-592.164754,-8586.388927,536.266849
2965.070068,1184.329507,-10066.800811,-612.876398
2965.070396,2220.617826,-11621.233289,-1762.019645
2965.070724,-148.041188,-9770.718434,-1378.971896
2965.071051,-666.185348,-8216.285956,383.047749
2965.071379,518.144159,-9992.780217,229.828649
2965.071706,814.226536,-11325.150913,-612.876398
2965.072034,-1184.329507,-8882.471304,-383.047749
2965.072362,-1850.514855,-6661.853478,1072.533697
2965.072689,222.061783,-8364.327145,1608.800546
2965.073017,1554.432478,-11029.068536,1532.190996
2965.073345,-296.082377,-9770.718434,-383.047749
2965.073672,-296.082377,-7402.059420,-229.828649
2965.074000,1702.473667,-9918.759623,-1149.143247
2965.074327,1480.411884,-12435.459826,-919.314598
2965.074655,296.082377,-10510.924376,-229.828649
2965.074983,518.144159,-8216.285956,-536.266849
2965.075310,2738.761985,-10214.842000,459.657299
2965.075638,2220.617826,-11843.295072,306.438199
2965.075966,0.000000,-9252.574275,842.705048
2965.076293,-814.226536,-7105.977043,1685.410096
2965.076621,-370.102971,-8438.347739,229.828649
2965.076948,-962.267725,-10362.883188,-1225.752797
2965.077276,-3108.864956,-8660.409521,-689.485948
2965.077604,-2516.700203,-5995.668130,76.609550
2965.077931,148.041188,-8216.285956,-229.828649
2965.078259,1258.350101,-12805.562797,-1378.971896
2965.078587,0.000000,-11473.192101,-919.314598
2965.078914,740.205942,-9474.636058,-536.266849
2965.079242,2886.803174,-11103.089130,-842.705048
2965.079569,3256.906145,-13471.748144,-1455.581446
2965.079897,74.020594,-10066.800811,-612.876398
2965.080225,0.000000,-8216.285956,459.657299
2965.080552,2072.576638,-10881.027347,0.000000
2965.080880,1554.432478,-11473.192101,-306.438199
2965.081208,-1480.411884,-8142.265362,689.485948
2965.081535,-3330.926739,-6365.771101,1149.143247
2965.081863,-1850.514855,-8956.491898,-383.047749
2965.082190,-1258.350101,-10658.965565,-2221.676944
2965.082518,-2072.576638,-8882.471304,-1072.533697
2965.082846,-1110.308913,-6735.874072,1149.143247
2965.083173,2368.659014,-10362.883188,76.609550
2965.083501,2886.803174,-13323.706956,-459.657299
2965.083829,1480.411884,-11103.089130,229.828649
2965.084156,2072.576638,-9252.574275,153.219100
2965.084484,2294.638420,-10362.883188,-1225.752797
2965.084811,592.164754,-11177.109724,-1762.019645
2965.085139,-1480.411884,-8734.430116,-383.047749
2965.085467,-740.205942,-7698.141797,459.657299
2965.085794,1628.453072,-10140.821405,459.657299
2965.086122,1406.391290,-10362.883188,306.438199
2965.086450,-296.082377,-7550.100608,1685.410096
2965.086777,-370.102971,-6365.771101,2068.457845
2965.087105,1332.370696,-9252.574275,0.000000
2965.087432,-296.082377,-9696.697840,-919.314598
2965.087760,-1702.473667,-8068.244768,612.876398
2965.088088,666.185348,-7624.121203,919.314598
2965.088415,3108.864956,-11695.253884,-536.266849
2965.088743,1998.556043,-14285.974681,-1378.971896
2965.089071,740.205942,-11917.315666,-2681.334243
2965.089398,1406.391290,-9474.636058,-2374.896044
2965.089726,1702.473667,-11473.192101,-2528.115143
2965.090053,-370.102971,-12435.459826,-1532.190996
2965.090381,-1998.556043,-8808.450710,153.219100
2965.090709,-370.102971,-6957.935855,1302.362347
2965.091036,1406.391290,-9178.553681,689.485948
2965.091364,1036.288319,-9696.697840,306.438199
2965.091692,-1924.535449,-6809.894666,2834.553343
2965.092019,-1702.473667,-6735.874072,1762.019645
2965.092347,1036.288319,-10066.800811,-1149.143247
2965.092674,0.000000,-11029.068536,-1685.410096
2965.093002,-2146.597232,-8142.265362,0.000000
2965.093330,-444.123565,-9622.677246,0.000000
2965.093657,2368.659014,-13619.789333,-995.924147
2965.093985,1776.494261,-13397.727550,-2145.067394
2965.094313,1406.391290,-10955.047942,-766.095498
2965.094640,2368.659014,-10066.800811,306.438199
2965.094968,2294.638420,-11473.192101,76.609550
2965.095295,-296.082377,-10436.903782,459.657299
2965.095623,-2886.803174,-6217.729913,995.924147
2965.095951,-2294.638420,-5477.523971,766.095498
2965.096278,-444.123565,-7698.141797,536.266849
2965.096606,-1184.329507,-8142.265362,-306.438199
2965.096934,-1776.494261,-7920.203579,1302.362347
2965.097261,592.164754,-9474.636058,459.657299
2965.097589,1850.514855,-12435.459826,-1225.752797
2965.097916,74.020594,-11843.295072,-1608.800546
2965.098244,-1110.308913,-9178.553681,-1149.143247
2965.098572,296.082377,-7772.162391,-766.095498
2965.098899,2960.823768,-12065.356855,-842.705048
2965.099227,1480.411884,-13101.645173,-612.876398
2965.099555,222.061783,-10288.862594,383.047749
2965.099882,1036.288319,-9178.553681,383.047749
2965.100210,666.185348,-10881.027347,-1608.800546
2965.100537,-1554.432478,-11843.295072,-2451.505594
2965.100865,-2516.700203,-6661.853478,306.438199
2965.101193,0.000000,-6439.791695,0.000000
2965.101520,2590.720797,-9622.677246,383.047749
2965.101848,2368.659014,-9992.780217,766.095498
2965.102176,148.041188,-7698.141797,2068.457845
2965.102503,1406.391290,-8438.347739,766.095498
2965.102831,1184.329507,-11029.068536,-1378.971896
2965.103158,-592.164754,-10807.006753,-1302.362347
2965.103486,-1554.432478,-8068.244768,-689.485948
2965.103814,592.164754,-9326.594869,0.000000
2965.104141,2220.617826,-12509.480420,-459.657299
2965.104469,814.226536,-12583.501014,-306.438199
2965.104797,74.020594,-9104.533087,766.095498
2965.105124,518.144159,-8068.244768,766.095498
2965.105452,592.164754,-9770.718434,-153.219100
2965.105779,-1480.411884,-9400.615463,383.047749
2965.106107,-1628.453072,-7105.977043,1302.362347
2965.106435,1184.329507,-6809.894666,842.705048
2965.106762,3256.906145,-9844.739029,-459.657299
2965.107090,1406.391290,-10140.821405,76.609550
2965.107418,0.000000,-8512.368333,689.485948
2965.107745,370.102971,-10510.924376,-1302.362347
2965.108073,814.226536,-11843.295072,-2451.505594
2965.108400,-1332.370696,-10066.800811,-1149.143247
2965.108728,-1702.473667,-8068.244768,383.047749
2965.109056,222.061783,-9474.636058,1149.143247
2965.109383,1110.308913,-12435.459826,0.000000
2965.109711,0.000000,-10436.903782,1072.533697
2965.110039,-148.041188,-7920.203579,-306.438199
2965.110366,370.102971,-8512.368333,-153.219100
2965.110694,370.102971,-10732.986159,-995.924147
2965.111021,-1480.411884,-9474.636058,0.000000
2965.111349,-888.247130,-7994.224174,76.609550
2965.111677,1406.391290,-9178.553681,-612.876398
2965.112004,2368.659014,-11325.150913,-1225.752797
2965.112332,0.000000,-9844.739029,-1378.971896
2965.112660,-444.123565,-9030.512492,-383.047749
2965.112987,1628.453072,-10362.883188,-612.876398
2965.113315,1258.350101,-10732.986159,-383.047749
2965.113642,-1332.370696,-9030.512492,919.314598
2965.113970,-888.247130,-6735.874072,2221.676944
2965.114298,-148.041188,-7994.224174,1915.238745
2965.114625,-296.082377,-11473.192101,76.609550
2965.114953,-1702.473667,-10288.862594,-383.047749
2965.115281,-1850.514855,-7846.182985,-919.314598
2965.115608,222.061783,-10288.862594,-1915.238745
2965.115936,1628.453072,-14137.933492,-2451.505594
2965.116263,1184.329507,-12287.418637,-612.876398
2965.116591,1406.391290,-8660.409521,919.314598
2965.116919,3404.947333,-9400.615463,1455.581446
2965.117246,2368.659014,-10214.842000,-153.219100
2965.117574,74.020594,-8364.327145,-153.219100
2965.117902,-814.226536,-6957.935855,-229.828649
2965.118229,-740.205942,-8512.368333,-612.876398
2965.118557,-1110.308913,-9770.718434,-995.924147
2965.118884,-1480.411884,-8512.368333,-229.828649
2965.119212,-888.247130,-7920.203579,1608.800546
2965.119540,1554.432478,-10140.821405,1149.143247
2965.119867,1702.473667,-13397.727550,76.609550
2965.120195,1110.308913,-11029.068536,-306.438199
2965.120523,1850.514855,-8512.368333,-306.438199
2965.120850,3404.947333,-10658.965565,0.000000
2965.121178,1998.556043,-12953.603985,0.000000
2965.121505,444.123565,-10362.883188,229.828649
2965.121833,1110.308913,-7179.997637,-229.828649
2965.122161,1702.473667,-9400.615463,-1378.971896
2965.122488,-296.082377,-11177.109724,-1455.581446
2965.122816,-2072.576638,-7920.203579,-1302.362347
2965.123144,-2368.659014,-5847.626942,0.000000
2965.123471,-962.267725,-8586.388927,459.657299
2965.123799,-518.144159,-10214.842000,-153.219100
2965.124126,-1406.391290,-7920.203579,1378.971896
2965.124454,0.000000,-7846.182985,1762.019645
2965.124782,2738.761985,-11991.336260,536.266849
2965.125109,2368.659014,-13989.892304,0.000000
2965.125437,592.164754,-9474.636058,612.876398
2965.125765,962.267725,-8438.347739,0.000000
2965.126092,2368.659014,-10881.027347,-1455.581446
2965.126420,0.000000,-12287.418637,-1378.971896
2965.126747,-1332.370696,-10436.903782,-1685.410096
2965.127075,-740.205942,-9252.574275,-1455.581446
2965.127403,1332.370696,-10214.842000,-842.705048
2965.127730,1184.329507,-9696.697840,-383.047749
2965.128058,-1702.473667,-7179.997637,766.095498
2965.128386,-1850.514855,-6291.750507,1762.019645
2965.128713,888.247130,-8290.306550,153.219100
2965.129041,-444.123565,-9178.553681,153.219100
2965.129368,-2146.597232,-7772.162391,1302.362347
2965.129696,-888.247130,-8068.244768,383.047749
2965.130024,1258.350101,-12509.480420,-612.876398
2965.130351,814.226536,-14063.912898,-1532.190996
2965.130679,0.000000,-11547.212695,-2068.457845
2965.131006,1702.473667,-10362.883188,-1608.800546
2965.131334,3108.864956,-13175.665768,-1685.410096
2965.131662,814.226536,-13397.727550,-1072.533697
2965.131989,-592.164754,-8438.347739,306.438199
2965.132317,0.000000,-5773.606348,1072.533697
2965.132645,1036.288319,-8734.430116,536.266849
2965.132972,-740.205942,-8586.388927,306.438199
2965.133300,-2812.782580,-6217.729913,1532.190996
2965.133627,-1850.514855,-7179.997637,612.876398
2965.133955,148.041188,-10362.883188,-1225.752797
2965.134283,-296.082377,-10510.924376,-1378.971896
2965.134610,-592.164754,-8438.347739,-383.047749
2965.134938,1036.288319,-9696.697840,383.047749
2965.135266,3701.029710,-13101.645173,-229.828649
2965.135593,2664.741391,-12583.501014,-306.438199
2965.135921,1332.370696,-8882.471304,153.219100
2965.136248,1554.432478,-9030.512492,536.266849
2965.136576,1480.411884,-12139.377449,0.000000
2965.136904,-740.205942,-11251.130318,-229.828649
2965.137231,-1702.473667,-7105.977043,229.828649
2965.137559,0.000000,-6809.894666,-383.047749
2965.137887,1258.350101,-9400.615463,0.000000
2965.138214,-1036.288319,-9696.697840,766.095498
2965.138542,-962.267725,-7772.162391,536.266849
2965.138869,518.144159,-7328.038826,0.000000
2965.139197,1332.370696,-9474.636058,-1072.533697
2965.139525,1036.288319,-11547.212695,-612.876398
2965.139852,740.205942,-9474.636058,842.705048
2965.140180,1776.494261,-10214.842000,0.000000
2965.140508,2664.741391,-13841.851115,-689.485948
2965.140835,814.226536,-12583.501014,-1072.533697
2965.141163,-296.082377,-9400.615463,-612.876398
2965.141490,962.267725,-9696.697840,-1072.533697
2965.141818,222.061783,-13249.686362,-229.828649
2965.142146,-1258.350101,-11399.171507,-459.657299
2965.142473,-2368.659014,-7772.162391,153.219100
2965.142801,-1480.411884,-6957.935855,689.485948
2965.143129,148.041188,-9252.574275,229.828649
2965.143456,0.000000,-8660.409521,689.485948
2965.143784,-1036.288319,-6365.771101,612.876398
2965.144111,888.247130,-7031.956449,0.000000
2965.144439,1554.432478,-10732.986159,0.000000
2965.144767,-666.185348,-9474.636058,459.657299
2965.145094,-962.267725,-7920.203579,306.438199
2965.145422,888.247130,-10362.883188,-459.657299
2965.145750,1554.432478,-13249.686362,-1378.971896
2965.146077,-148.041188,-11843.295072,-383.047749
2965.146405,370.102971,-8142.265362,76.609550
2965.146732,1258.350101,-8956.491898,306.438199
2965.147060,0.000000,-11399.171507,1608.800546
2965.147388,-2442.679609,-9400.615463,1149.143247
2965.147715,-3034.844362,-7031.956449,229.828649
2965.148043,0.000000,-8734.430116,-1302.362347
2965.148371,1702.473667,-11029.068536,-2451.505594
2965.148698,0.000000,-8956.491898,-459.657299
2965.149026,518.144159,-8068.244768,0.000000
2965.149353,3034.844362,-10140.821405,-1149.143247
2965.149681,2590.720797,-12435.459826,-1302.362347
2965.150009,0.000000,-10510.924376,-536.266849
2965.150336,-222.061783,-7550.100608,-536.266849
2965.150664,518.144159,-9104.533087,0.000000
2965.150992,962.267725,-12065.356855,-383.047749
2965.151319,-592.164754,-9992.780217,0.000000
2965.151647,296.082377,-7772.162391,306.438199
2965.151974,1998.556043,-11103.089130,153.219100
2965.152302,1406.391290,-13915.871710,-153.219100
2965.152630,-666.185348,-10881.027347,-536.266849
2965.152957,-370.102971,-7550.100608,-995.924147
2965.153285,1628.453072,-8734.430116,-1149.143247
2965.153613,2220.617826,-11029.068536,-612.876398
2965.153940,1998.556043,-9622.677246,536.266849
2965.154268,1628.453072,-7698.141797,1072.533697
2965.154595,2442.679609,-9770.718434,-229.828649
2965.154923,814.226536,-11769.274478,-612.876398
2965.155251,-2146.597232,-8660.409521,0.000000
2965.155578,-2220.617826,-5699.585753,-459.657299
2965.155906,-222.061783,-8068.244768,-153.219100
2965.156234,0.000000,-10807.006753,76.609550
2965.156561,-370.102971,-9474.636058,1378.971896
2965.156889,666.185348,-8068.244768,1532.190996
2965.157216,1998.556043,-11399.171507,612.876398
2965.157544,888.247130,-12509.480420,0.000000
2965.157872,-296.082377,-9548.656652,76.609550
2965.158199,740.205942,-7254.018232,0.000000
2965.158527,2368.659014,-9844.739029,383.047749
2965.158855,1554.432478,-11325.150913,76.609550
2965.159182,-814.226536,-8956.491898,-229.828649
2965.159510,-1036.288319,-7994.224174,-766.095498
2965.159837,0.000000,-9770.718434,-1762.019645
2965.160165,-1406.391290,-10658.965565,-1762.019645
2965.160493,-2442.679609,-8808.450710,612.876398
2965.160820,-1850.514855,-6883.915261,76.609550
2965.161148,444.123565,-8956.491898,0.000000
2965.161475,666.185348,-11177.109724,459.657299
2965.161803,-1036.288319,-9178.553681,1149.143247
2965.162131,-370.102971,-8438.347739,76.609550
2965.162458,1184.329507,-11621.233289,-1838.629195
2965.162786,592.164754,-13471.748144,-1991.848295
2965.163113,-222.061783,-10732.986159,-1532.190996
2965.163441,1184.329507,-9770.718434,-689.485948
2965.163769,2294.638420,-12361.439231,-766.095498
2965.164096,666.185348,-12657.521608,-1225.752797
2965.164424,-1258.350101,-8216.285956,-1072.533697
2965.164751,-962.267725,-6587.832884,-1455.581446
2965.165079,-592.164754,-8586.388927,0.000000
2965.165407,-2664.741391,-9030.512492,995.924147
2965.165734,-3108.864956,-7105.977043,1685.410096
2965.166062,-666.185348,-7179.997637,919.314598
2965.166389,2072.576638,-10066.800811,-459.657299
2965.166717,2442.679609,-12287.418637,-229.828649
2965.167045,1924.535449,-10436.903782,612.876398
2965.167372,2442.679609,-9252.574275,76.609550
2965.167700,2886.803174,-12731.542202,-306.438199
2965.168027,518.144159,-12657.521608,-536.266849
2965.168355,0.000000,-8734.430116,-229.828649
2965.168683,1776.494261,-8364.327145,-153.219100
2965.169010,2146.597232,-11103.089130,612.876398
2965.169338,888.247130,-9992.780217,1225.752797
2965.169665,-370.102971,-5921.647536,995.924147
2965.169993,-1628.453072,-5181.441594,229.828649
2965.170321,-1258.350101,-8734.430116,-229.828649
2965.170648,-2146.597232,-8808.450710,0.000000
2965.170976,-1554.432478,-6439.791695,229.828649
2965.171303,1776.494261,-8586.388927,-229.828649
2965.171631,4663.297435,-14582.057057,0.000000
2965.171959,3849.070898,-13989.892304,0.000000
2965.172286,3182.885551,-10732.986159,383.047749
2965.172614,3701.029710,-10584.944971,-995.924147
2965.172942,2590.720797,-12805.562797,-1915.238745
2965.173269,-666.185348,-12435.459826,-842.705048
2965.173597,-1702.473667,-8882.471304,0.000000
2965.173924,74.020594,-8142.265362,-383.047749
2965.174252,518.144159,-11103.089130,-612.876398
2965.174580,-1850.514855,-9474.636058,229.828649
2965.174907,-3552.988522,-6291.750507,76.609550
2965.175235,-2664.741391,-7402.059420,0.000000
2965.175562,-666.185348,-9770.718434,-1149.143247
2965.175890,-666.185348,-10362.883188,-612.876398
2965.176218,-370.102971,-8216.285956,306.438199
2965.176545,2960.823768,-10214.842000,1302.362347
2965.176873,4589.276840,-13915.871710,919.314598
2965.177200,3627.009116,-13175.665768,919.314598
2965.177528,1110.308913,-9030.512492,153.219100
2965.177856,74.020594,-9326.594869,-689.485948
2965.178183,-666.185348,-12287.418637,-919.314598
2965.178511,-2590.720797,-9844.739029,-689.485948
2965.178838,-3849.070898,-5995.668130,306.438199
2965.179166,-3404.947333,-7105.977043,766.095498
2965.179494,-2294.638420,-9918.759623,383.047749
2965.179821,-1702.473667,-9030.512492,-383.047749
2965.180149,-1406.391290,-6883.915261,-459.657299
2965.180476,-148.041188,-8290.306550,76.609550
2965.180804,1702.473667,-11325.150913,76.609550
2965.181132,1406.391290,-10510.924376,1685.410096
2965.181459,1406.391290,-8734.430116,536.266849
2965.181787,3182.885551,-9770.718434,-536.266849
2965.182114,2960.823768,-12805.562797,-919.314598
2965.182442,222.061783,-11547.212695,-689.485948
2965.182770,-962.267725,-7402.059420,-1838.629195
2965.183097,-518.144159,-8586.388927,-2145.067394
2965.183425,0.000000,-12583.501014,459.657299
2965.183752,-666.185348,-10658.965565,689.485948
2965.184080,-222.061783,-7254.018232,1608.800546
2965.184408,2072.576638,-9252.574275,842.705048
2965.184735,3182.885551,-11547.212695,0.000000
2965.185063,74.020594,-8586.388927,76.609550
2965.185390,74.020594,-6883.915261,-612.876398
2965.185718,1184.329507,-9252.574275,-1532.190996
2965.186046,1258.350101,-11325.150913,-459.657299
2965.186373,74.020594,-11547.212695,-612.876398
2965.186701,666.185348,-9548.656652,-229.828649
2965.187028,3478.967927,-10732.986159,-1685.410096
2965.187356,3478.967927,-13027.624579,-1072.533697
2965.187684,444.123565,-10955.047942,459.657299
2965.188011,-592.164754,-6217.729913,689.485948
2965.188339,814.226536,-8586.388927,-306.438199
2965.188666,0.000000,-11029.068536,536.266849
2965.188994,-888.247130,-8660.409521,1455.581446
2965.189322,-296.082377,-6439.791695,2145.067394
2965.189649,740.205942,-8142.265362,995.924147
2965.189977,1036.288319,-11399.171507,-995.924147
2965.190304,222.061783,-10066.800811,-995.924147
2965.190632,444.123565,-7698.141797,-612.876398
2965.190960,1036.288319,-10362.883188,-766.095498
2965.191287,518.144159,-12731.542202,-459.657299
2965.191615,-740.205942,-9548.656652,-306.438199
2965.191942,444.123565,-8068.244768,-229.828649
2965.192270,1258.350101,-10066.800811,0.000000
2965.192598,222.061783,-11547.212695,689.485948
2965.192925,-444.123565,-9252.574275,1302.362347
2965.193253,-1332.370696,-7031.956449,153.219100
2965.193580,-518.144159,-9252.574275,-995.924147
2965.193908,-1258.350101,-11547.212695,-229.828649
2965.194236,-2146.597232,-9178.553681,229.828649
2965.194563,-444.123565,-8660.409521,76.609550
2965.194891,1702.473667,-11473.192101,-229.828649
2965.195218,814.226536,-11547.212695,-842.705048
2965.195546,74.020594,-10140.821405,-995.924147
2965.195874,1184.329507,-8734.430116,-842.705048
2965.196201,888.247130,-9770.718434,-1072.533697
2965.196529,-962.267725,-10955.047942,0.000000
2965.196856,-1850.514855,-8216.285956,153.219100
2965.197184,-1036.288319,-6143.709319,-766.095498
2965.197512,74.020594,-10066.800811,-306.438199
2965.197839,-370.102971,-12509.480420,842.705048
2965.198167,-1184.329507,-9474.636058,76.609550
2965.198494,0.000000,-8142.265362,-612.876398
2965.198822,666.185348,-10288.862594,-995.924147
2965.199150,444.123565,-11103.089130,-459.657299
2965.199477,592.164754,-7920.203579,766.095498
2965.199805,1406.391290,-8364.327145,383.047749
2965.200132,2220.617826,-11621.233289,-306.438199
2965.200460,1406.391290,-11251.130318,-536.266849
2965.200788,-370.102971,-8364.327145,-919.314598
2965.201115,-444.123565,-7476.080014,-766.095498
2965.201443,666.185348,-10288.862594,-919.314598
2965.201770,-888.247130,-10436.903782,-459.657299
2965.202098,-1628.453072,-8068.244768,306.438199
2965.202426,148.041188,-6661.853478,153.219100
2965.202753,1554.432478,-9400.615463,612.876398
2965.203081,888.247130,-11177.109724,1149.143247
2965.203408,0.000000,-8586.388927,995.924147
2965.203736,814.226536,-8216.285956,76.609550
2965.204064,3182.885551,-12361.439231,-612.876398
2965.204391,2368.659014,-12731.542202,-2451.505594
2965.204719,370.102971,-9696.697840,-689.485948
2965.205047,1924.535449,-9622.677246,-306.438199
2965.205374,3256.906145,-12657.521608,-1302.362347
2965.205702,1184.329507,-11843.295072,-536.266849
2965.206029,0.000000,-7772.162391,0.000000
2965.206357,222.061783,-7031.956449,1149.143247
2965.206685,1184.329507,-10436.903782,536.266849
2965.207012,-1702.473667,-9992.780217,1455.581446
2965.207340,-3034.844362,-5773.606348,1302.362347
2965.207667,-962.267725,-5847.626942,229.828649
2965.207995,1258.350101,-11029.068536,-689.485948
2965.208323,814.226536,-11917.315666,153.219100
2965.208650,148.041188,-8882.471304,383.047749
2965.208978,2664.741391,-9844.739029,0.000000
2965.209305,3256.906145,-13471.748144,-1225.752797
2965.209633,1036.288319,-12435.459826,0.000000
2965.209961,-518.144159,-8068.244768,689.485948
2965.210288,888.247130,-7772.162391,-612.876398
2965.210616,148.041188,-10807.006753,-766.095498
2965.210943,-2294.638420,-9400.615463,459.657299
2965.211271,-4441.235652,-5033.400406,0.000000
2965.211599,-3849.070898,-5995.668130,-383.047749
2965.211926,-1998.556043,-10436.903782,-1838.629195
2965.212254,-2516.700203,-10288.862594,-1608.800546
2965.212581,-1258.350101,-8512.368333,536.266849
2965.212909,2368.659014,-9104.533087,612.876398
2965.213237,3775.050304,-13619.789333,-153.219100
2965.213564,2812.782580,-14582.057057,229.828649
2965.213892,1924.535449,-10288.862594,-306.438199
2965.214219,1628.453072,-9104.533087,-1378.971896
2965.214547,1332.370696,-11251.130318,-1608.800546
2965.214875,-1406.391290,-10362.883188,-1225.752797
2965.215202,-2516.700203,-7328.038826,-612.876398
2965.215530,-1110.308913,-7994.224174,-229.828649
2965.215857,74.020594,-11547.212695,-1149.143247
2965.216185,-592.164754,-10807.006753,-383.047749
2965.216513,-1184.329507,-6513.812290,689.485948
2965.216840,-370.102971,-6587.832884,76.609550
2965.217168,444.123565,-9474.636058,0.000000
2965.217495,666.185348,-10140.821405,919.314598
2965.217823,1258.350101,-8290.306550,919.314598
2965.218151,3552.988522,-9548.656652,1378.971896
2965.218478,3775.050304,-13397.727550,306.438199
2965.218806,1480.411884,-12657.521608,-229.828649
2965.219133,1110.308913,-9474.636058,-1608.800546
2965.219461,1554.432478,-9844.739029,-2604.724693
2965.219789,888.247130,-11621.233289,-2221.676944
2965.220116,-1036.288319,-10362.883188,-229.828649
2965.220444,-740.205942,-7328.038826,459.657299
2965.220771,1554.432478,-7772.162391,1149.143247
2965.221099,1110.308913,-9474.636058,919.314598
2965.221427,0.000000,-7994.224174,1762.019645
2965.221754,-814.226536,-4737.318029,1532.190996
2965.222082,888.247130,-6661.853478,-536.266849
2965.222409,1924.535449,-11251.130318,-1149.143247
2965.222737,592.164754,-11103.089130,0.000000
2965.223065,-370.102971,-8734.430116,383.047749
2965.223392,1332.370696,-12583.501014,-842.705048
2965.223720,2738.761985,-15988.448347,-2604.724693
2965.224047,1998.556043,-13619.789333,-2451.505594
2965.224375,1554.432478,-9770.718434,-1072.533697
2965.224703,2294.638420,-10658.965565,-612.876398
2965.225030,592.164754,-12509.480420,842.705048
2965.225358,-1036.288319,-8660.409521,1149.143247
2965.225685,-3108.864956,-4219.173869,1608.800546
2965.226013,-1406.391290,-6735.874072,612.876398
2965.226341,-962.267725,-8956.491898,0.000000
2965.226668,-2442.679609,-7994.224174,536.266849
2965.226996,-1406.391290,-6883.915261,0.000000
2965.227323,666.185348,-10140.821405,-689.485948
2965.227651,592.164754,-12953.603985,-1991.848295
2965.227979,222.061783,-12139.377449,-919.314598
2965.228306,592.164754,-8956.491898,-612.876398
2965.228634,3108.864956,-10658.965565,-612.876398
2965.228961,1628.453072,-12435.459826,383.047749
2965.229289,-1332.370696,-10584.944971,1762.019645
2965.229617,-1332.370696,-7920.203579,536.266849
2965.229944,-740.205942,-9104.533087,-1072.533697
2965.230272,-2368.659014,-11177.109724,-1225.752797
2965.230599,-3627.009116,-8512.368333,-842.705048
2965.230927,-2072.576638,-5921.647536,-306.438199
2965.231255,1406.391290,-8808.450710,0.000000
2965.231582,1554.432478,-10362.883188,1302.362347
2965.231910,0.000000,-7698.141797,1455.581446
2965.232237,1110.308913,-6809.894666,383.047749
2965.232565,2072.576638,-11103.089130,-995.924147
2965.232893,74.020594,-12139.377449,-1072.533697
2965.233220,-1184.329507,-8956.491898,76.609550
2965.233548,962.267725,-8808.450710,229.828649
2965.233875,2516.700203,-12805.562797,-766.095498
2965.234203,666.185348,-12953.603985,-689.485948
2965.234531,-1258.350101,-9252.574275,-1302.362347
2965.234858,-814.226536,-8586.388927,-919.314598
2965.235186,740.205942,-10584.944971,-1225.752797
2965.235513,-1036.288319,-10288.862594,-229.828649
2965.235841,-1924.535449,-7476.080014,1302.362347
2965.236169,2294.638420,-6957.935855,766.095498
2965.236496,5181.441594,-10140.821405,383.047749
2965.236824,3478.967927,-11103.089130,536.266849
2965.237151,1628.453072,-9252.574275,919.314598
2965.237479,1850.514855,-8216.285956,-383.047749
2965.237807,1924.535449,-11473.192101,-1915.238745
2965.238134,0.000000,-11917.315666,-919.314598
2965.238462,-1924.535449,-8512.368333,459.657299
2965.238790,-444.123565,-8808.450710,0.000000
2965.239117,1406.391290,-12435.459826,-1149.143247
2965.239445,0.000000,-12361.439231,-842.705048
2965.239772,-296.082377,-8216.285956,-153.219100
2965.240100,296.082377,-7550.100608,459.657299
2965.240428,1258.350101,-10140.821405,1378.971896
2965.240755,0.000000,-9030.512492,536.266849
2965.241083,-666.185348,-6735.874072,1838.629195
2965.241410,1406.391290,-8364.327145,-153.219100
2965.241738,2886.803174,-11843.295072,-919.314598
2965.242066,1480.411884,-11399.171507,-689.485948
2965.242393,0.000000,-8438.347739,-1149.143247
2965.242721,1036.288319,-8438.347739,-1608.800546
2965.243048,1036.288319,-11029.068536,-612.876398
2965.243376,-2072.576638,-10510.924376,1302.362347
2965.243704,-2516.700203,-7846.182985,1302.362347
2965.244031,-740.205942,-7476.080014,0.000000
2965.244359,222.061783,-10658.965565,-1302.362347
2965.244686,-1924.535449,-11547.212695,0.000000
2965.245014,-2220.617826,-8660.409521,689.485948
2965.245342,-370.102971,-8364.327145,-229.828649
2965.245669,962.267725,-11769.274478,-1608.800546
2965.245997,-222.061783,-12583.501014,-1762.019645
2965.246324,-444.123565,-9770.718434,-919.314598
2965.246652,1332.370696,-9030.512492,0.000000
2965.246980,2516.700203,-10362.883188,-766.095498
2965.247307,296.082377,-10066.800811,-689.485948
2965.247635,-1332.370696,-6957.935855,1225.752797
2965.247962,444.123565,-7698.141797,383.047749
2965.248290,296.082377,-10214.842000,0.000000
2965.248618,-962.267725,-9474.636058,76.609550
2965.248945,-1628.453072,-6661.853478,459.657299
2965.249273,-740.205942,-7254.018232,459.657299
2965.249600,222.061783,-10658.965565,-612.876398
2965.249928,74.020594,-11177.109724,-1302.362347
2965.250256,370.102971,-10510.924376,-306.438199
2965.250583,1998.556043,-10955.047942,-459.657299
2965.250911,3034.844362,-14582.057057,-842.705048
2965.251238,1110.308913,-12065.356855,-612.876398
2965.251566,888.247130,-8290.306550,-766.095498
2965.251894,1184.329507,-8512.368333,-919.314598
2965.252221,1184.329507,-9252.574275,-612.876398
2965.252549,-1258.350101,-6809.894666,-383.047749
2965.252876,-1036.288319,-6069.688724,306.438199
2965.253204,-592.164754,-7476.080014,306.438199
2965.253532,296.082377,-10288.862594,-229.828649
2965.253859,0.000000,-10066.800811,689.485948
2965.254187,222.061783,-7698.141797,919.314598
2965.254514,2738.761985,-9474.636058,76.609550
2965.254842,4293.194464,-13027.624579,-229.828649
2965.255170,2516.700203,-11695.253884,612.876398
2965.255497,1702.473667,-9400.615463,1455.581446
2965.255825,1776.494261,-9400.615463,-76.609550
2965.256152,592.164754,-13101.645173,-1302.362347
2965.256480,-1554.432478,-12287.418637,-1225.752797
2965.256808,-666.185348,-9252.574275,-2298.286494
2965.257135,592.164754,-9400.615463,-1915.238745
2965.257463,1702.473667,-11103.089130,-306.438199
2965.257790,-1332.370696,-8364.327145,1225.752797
2965.258118,-1998.556043,-5773.606348,1532.190996
2965.258446,-444.123565,-6661.853478,1072.533697
2965.258773,-444.123565,-8956.491898,306.438199
2965.259101,-2220.617826,-8216.285956,536.266849
2965.259428,-1702.473667,-7698.141797,1455.581446
2965.259756,1850.514855,-9400.615463,0.000000
2965.260084,2590.720797,-13915.871710,-1225.752797
2965.260411,444.123565,-13693.809927,0.000000
2965.260739,296.082377,-9992.780217,-919.314598
2965.261066,2146.597232,-10658.965565,-2145.067394
2965.261394,518.144159,-12361.439231,-1072.533697
2965.261722,-2442.679609,-9992.780217,-766.095498
2965.262049,-1628.453072,-7105.977043,995.924147
2965.262377,-222.061783,-8142.265362,1072.533697
2965.262704,-814.226536,-9178.553681,536.266849
2965.263032,-2516.700203,-7920.203579,306.438199
2965.263359,-2368.659014,-5033.400406,689.485948
2965.263687,0.000000,-7846.182985,-306.438199
2965.264015,-518.144159,-9992.780217,-1685.410096
2965.264342,-1110.308913,-8956.491898,153.219100
2965.264670,666.185348,-9030.512492,76.609550
2965.264997,3404.947333,-12139.377449,-612.876398
2965.265325,2960.823768,-13915.871710,-995.924147
2965.265653,1480.411884,-11621.233289,-383.047749
2965.265980,1924.535449,-9104.533087,0.000000
2965.266308,3256.906145,-11843.295072,-459.657299
2965.266635,592.164754,-12213.398043,-766.095498
2965.266963,-2368.659014,-9252.574275,229.828649
2965.267290,-1850.514855,-7105.977043,842.705048
2965.267618,296.082377,-8734.430116,-536.266849
2965.267946,-1184.329507,-9770.718434,-612.876398
2965.268273,-2886.803174,-7105.977043,0.000000
2965.268601,-1036.288319,-6143.709319,-766.095498
2965.268928,2812.782580,-9178.553681,-1915.238745
2965.269256,3108.864956,-11325.150913,-1302.362347
2965.269584,1184.329507,-10362.883188,995.924147
2965.269911,2590.720797,-9252.574275,1915.238745
2965.270239,5329.482782,-11399.171507,383.047749
2965.270566,3034.844362,-12731.542202,-306.438199
2965.270894,296.082377,-10436.903782,612.876398
2965.271221,444.123565,-8660.409521,383.047749
2965.271549,1184.329507,-11843.295072,-689.485948
2965.271877,-1184.329507,-12583.501014,-1455.581446
2965.272204,-1998.556043,-8586.388927,-842.705048
2965.272532,-1850.514855,-6291.750507,1225.752797
2965.272859,-222.061783,-8290.306550,842.705048
2965.273187,0.000000,-9474.636058,-153.219100
2965.273515,-1406.391290,-7402.059420,-153.219100
2965.273842,148.041188,-6069.688724,0.000000
2965.274170,2590.720797,-9696.697840,-1149.143247
2965.274497,1258.350101,-11399.171507,-383.047749
2965.274825,-444.123565,-9252.574275,995.924147
2965.275152,1406.391290,-9252.574275,0.000000
2965.275480,2664.741391,-12065.356855,-1378.971896
2965.275808,148.041188,-12065.356855,-1838.629195
2965.276135,-296.082377,-11029.068536,612.876398
2965.276463,-296.082377,-9178.553681,919.314598
2965.276790,222.061783,-11547.212695,229.828649
2965.277118,-666.185348,-11769.274478,-383.047749
2965.277445,-2738.761985,-7105.977043,-766.095498
2965.277773,-1776.494261,-7031.956449,0.000000
2965.278101,1110.308913,-10436.903782,-842.705048
2965.278428,444.123565,-11029.068536,-153.219100
2965.278756,-1480.411884,-8142.265362,383.047749
2965.279083,0.000000,-7772.162391,-1455.581446
2965.279411,888.247130,-10584.944971,-2681.334243
2965.279739,-1258.350101,-11029.068536,-1149.143247
2965.280066,-1998.556043,-8808.450710,0.000000
2965.280394,148.041188,-8068.244768,-612.876398
2965.280721,2220.617826,-11547.212695,153.219100
2965.281049,1998.556043,-12583.501014,612.876398
2965.281376,888.247130,-9400.615463,1991.848295
2965.281704,2294.638420,-8808.450710,1302.362347
2965.282032,1406.391290,-10066.800811,153.219100
2965.282359,-1776.494261,-9326.594869,229.828649
2965.282687,-2146.597232,-7031.956449,0.000000
2965.283014,74.020594,-8216.285956,229.828649
2965.283342,2368.659014,-11399.171507,0.000000
2965.283670,740.205942,-11251.130318,0.000000
2965.283997,0.000000,-9770.718434,-306.438199
2965.284325,1332.370696,-8882.471304,-1838.629195
2965.284652,888.247130,-10214.842000,-2298.286494
2965.284980,-1258.350101,-9178.553681,-766.095498
2965.285307,-2146.597232,-6957.935855,1302.362347
2965.285635,222.061783,-7402.059420,1149.143247
2965.285963,2146.597232,-10658.965565,842.705048
2965.286290,444.123565,-11177.109724,383.047749
2965.286618,-370.102971,-7846.182985,0.000000
2965.286945,1850.514855,-9474.636058,-612.876398
2965.287273,2072.576638,-11991.336260,-1455.581446
2965.287600,1110.308913,-12435.459826,-1072.533697
2965.287928,740.205942,-9252.574275,0.000000
2965.288256,3108.864956,-9992.780217,689.485948
2965.288583,4071.132681,-12213.398043,766.095498
2965.288911,888.247130,-10807.006753,-919.314598
2965.289238,-2220.617826,-7105.977043,-459.657299
2965.289566,-740.205942,-8068.244768,-1991.848295
2965.289894,0.000000,-10955.047942,-2451.505594
2965.290221,-2368.659014,-9992.780217,-995.924147
2965.290549,-2368.659014,-6809.894666,919.314598
2965.290876,0.000000,-8142.265362,76.609550
2965.291204,2146.597232,-11177.109724,0.000000
2965.291531,740.205942,-10584.944971,536.266849
2965.291859,0.000000,-7402.059420,383.047749
2965.292187,1554.432478,-9474.636058,-536.266849
2965.292514,2516.700203,-13175.665768,-1455.581446
2965.292842,592.164754,-12435.459826,0.000000
2965.293169,-222.061783,-9918.759623,1225.752797
2965.293497,2072.576638,-9622.677246,766.095498
2965.293825,2368.659014,-10881.027347,-1378.971896
