#time,accel_x,accel_y,accel_z
3199.796340,0.000000,-9770.718434,-306.438199
3199.796667,0.000000,-9844.739029,-459.657299
3199.796995,666.185348,-9918.759623,-1225.752797
3199.797322,444.123565,-9770.718434,-229.828649
3199.797650,370.102971,-9548.656652,229.828649
3199.797977,592.164754,-9622.677246,153.219100
3199.798305,666.185348,-9474.636058,0.000000
3199.798632,444.123565,-9474.636058,0.000000
3199.798960,370.102971,-9326.594869,-612.876398
3199.799287,0.000000,-8512.368333,-306.438199
3199.799615,370.102971,-9548.656652,-842.705048
3199.799942,444.123565,-9992.780217,-842.705048
3199.800270,296.082377,-10066.800811,-842.705048
3199.800597,666.185348,-10436.903782,-689.485948
3199.800925,518.144159,-10362.883188,-229.828649
3199.801252,1036.288319,-10362.883188,0.000000
3199.801580,592.164754,-10066.800811,0.000000
3199.801907,666.185348,-10140.821405,229.828649
3199.802235,296.082377,-9548.656652,76.609550
3199.802562,148.041188,-9474.636058,-153.219100
3199.802890,0.000000,-9400.615463,-229.828649
3199.803217,0.000000,-9474.636058,-536.266849
3199.803545,0.000000,-9474.636058,0.000000
3199.803872,666.185348,-9696.697840,-1532.190996
3199.804200,148.041188,-9622.677246,-995.924147
3199.804527,666.185348,-9696.697840,0.000000
3199.804855,592.164754,-9844.739029,0.000000
3199.805182,592.164754,-9696.697840,0.000000
3199.805510,370.102971,-9548.656652,0.000000
3199.805837,592.164754,-9770.718434,0.000000
3199.806165,222.061783,-8956.491898,459.657299
3199.806492,0.000000,-9178.553681,229.828649
3199.806820,0.000000,-9474.636058,-306.438199
3199.807147,0.000000,-9548.656652,-306.438199
3199.807475,-148.041188,-9548.656652,-383.047749
3199.807802,0.000000,-9844.739029,-306.438199
3199.808130,222.061783,-9992.780217,0.000000
3199.808457,370.102971,-9696.697840,0.000000
3199.808785,740.205942,-9844.739029,153.219100
3199.809112,814.226536,-9844.739029,0.000000
3199.809440,666.185348,-9548.656652,0.000000
3199.809767,444.123565,-9474.636058,-229.828649
3199.810095,148.041188,-9474.636058,-229.828649
3199.810422,222.061783,-9474.636058,-306.438199
3199.810750,222.061783,-9548.656652,-306.438199
3199.811077,666.185348,-9548.656652,-766.095498
3199.811405,1554.432478,-9992.780217,-536.266849
3199.811732,2590.720797,-9770.718434,-383.047749
3199.812060,3478.967927,-9474.636058,-306.438199
3199.812387,4441.235652,-9548.656652,0.000000
3199.812715,5699.585753,-9918.759623,612.876398
3199.813042,6809.894666,-10510.924376,612.876398
3199.813370,6735.874072,-9252.574275,459.657299
3199.813697,6809.894666,-9548.656652,76.609550
3199.814025,7328.038826,-9548.656652,-306.438199
3199.814352,7105.977043,-10140.821405,-153.219100
3199.814680,6957.935855,-9992.780217,612.876398
3199.815007,8364.327145,-9252.574275,-536.266849
3199.815335,9400.615463,-8956.491898,229.828649
3199.815662,10140.821405,-9548.656652,306.438199
3199.815990,10436.903782,-8808.450710,459.657299
3199.816317,11325.150913,-8882.471304,536.266849
3199.816645,11621.233289,-9178.553681,689.485948
3199.816972,11843.295072,-9400.615463,459.657299
3199.817300,10955.047942,-9474.636058,459.657299
3199.817627,11325.150913,-9252.574275,383.047749
3199.817955,11991.336260,-9104.533087,0.000000
3199.818282,12435.459826,-10436.903782,0.000000
3199.818610,12657.521608,-10288.862594,153.219100
3199.818937,14137.933492,-9844.739029,383.047749
3199.819265,14508.036463,-8586.388927,76.609550
3199.819593,14508.036463,-9400.615463,536.266849
3199.819920,14137.933492,-9770.718434,1762.019645
3199.820248,13545.768739,-8808.450710,2145.067394
3199.820575,13249.686362,-9252.574275,689.485948
3199.820903,13249.686362,-10732.986159,383.047749
3199.821230,12731.542202,-9918.759623,0.000000
3199.821558,12287.418637,-9178.553681,536.266849
3199.821885,12065.356855,-9696.697840,0.000000
3199.822213,11843.295072,-9844.739029,-306.438199
3199.822540,10584.944971,-10584.944971,0.000000
3199.822868,10436.903782,-10881.027347,0.000000
3199.823195,9326.594869,-9474.636058,-536.266849
3199.823523,8068.244768,-9252.574275,153.219100
3199.823850,8512.368333,-8956.491898,76.609550
3199.824178,9918.759623,-8734.430116,153.219100
3199.824505,10288.862594,-10362.883188,689.485948
3199.824833,10066.800811,-11917.315666,612.876398
3199.825160,8660.409521,-10732.986159,689.485948
3199.825488,7698.141797,-8734.430116,0.000000
3199.825815,7105.977043,-7402.059420,-842.705048
3199.826143,7105.977043,-8660.409521,-306.438199
3199.826470,8142.265362,-11399.171507,-306.438199
3199.826798,8586.388927,-11547.212695,689.485948
3199.827125,9178.553681,-9178.553681,229.828649
3199.827453,9400.615463,-8438.347739,-459.657299
3199.827780,7550.100608,-10140.821405,995.924147
3199.828108,7105.977043,-10140.821405,1072.533697
3199.828435,7994.224174,-8882.471304,-383.047749
3199.828763,9252.574275,-8142.265362,-1608.800546
3199.829090,10362.883188,-8808.450710,-842.705048
3199.829418,9622.677246,-8512.368333,766.095498
3199.829745,6735.874072,-7698.141797,2528.115143
3199.830073,7031.956449,-8586.388927,1149.143247
3199.830400,9844.739029,-10881.027347,-1532.190996
3199.830728,11177.109724,-11769.274478,-2528.115143
3199.831055,9622.677246,-10288.862594,-689.485948
3199.831383,7994.224174,-10140.821405,1915.238745
3199.831710,6883.915261,-10807.006753,689.485948
3199.832038,5255.462188,-9992.780217,0.000000
3199.832365,3627.009116,-8068.244768,-1149.143247
3199.832693,4367.215058,-8290.306550,-995.924147
3199.833020,5773.606348,-9548.656652,-995.924147
3199.833348,5847.626942,-9252.574275,76.609550
3199.833675,5625.565159,-10510.924376,0.000000
3199.834003,4811.338623,-10066.800811,459.657299
3199.834330,4737.318029,-9178.553681,-842.705048
3199.834658,4663.297435,-9178.553681,-1302.362347
3199.834985,6291.750507,-10362.883188,-1455.581446
3199.835313,7994.224174,-9770.718434,-842.705048
3199.835640,6439.791695,-8956.491898,1302.362347
3199.835968,4885.359217,-11769.274478,1991.848295
3199.836295,5033.400406,-10881.027347,536.266849
3199.836623,6365.771101,-8290.306550,-1378.971896
3199.836950,5995.668130,-9622.677246,-1991.848295
3199.837278,5551.544565,-11547.212695,-536.266849
3199.837605,6587.832884,-9622.677246,1149.143247
3199.837933,5477.523971,-9992.780217,2757.943793
3199.838260,3478.967927,-9252.574275,1915.238745
3199.838588,1776.494261,-8734.430116,689.485948
3199.838915,-296.082377,-9104.533087,1149.143247
3199.839243,-444.123565,-9030.512492,919.314598
3199.839570,0.000000,-8956.491898,-1685.410096
3199.839898,-2220.617826,-10732.986159,-995.924147
3199.840225,-2516.700203,-9918.759623,919.314598
3199.840553,-1332.370696,-7698.141797,-1685.410096
3199.840880,-2664.741391,-9030.512492,-1072.533697
3199.841208,-2368.659014,-11103.089130,0.000000
3199.841535,518.144159,-10214.842000,-1838.629195
3199.841863,1036.288319,-11029.068536,-2145.067394
3199.842190,0.000000,-9696.697840,2068.457845
3199.842518,-518.144159,-8142.265362,2451.505594
3199.842845,-2368.659014,-10066.800811,1302.362347
3199.843173,-3552.988522,-11399.171507,-229.828649
3199.843501,-2220.617826,-9104.533087,-2604.724693
3199.843828,-1776.494261,-8956.491898,-2604.724693
3199.844156,-1110.308913,-10140.821405,536.266849
3199.844483,0.000000,-9918.759623,995.924147
3199.844811,-1184.329507,-8808.450710,229.828649
3199.845138,-1184.329507,-10288.862594,229.828649
3199.845466,-518.144159,-10807.006753,-1762.019645
3199.845793,-888.247130,-8142.265362,-1915.238745
3199.846121,0.000000,-8142.265362,-1225.752797
3199.846448,-444.123565,-9770.718434,76.609550
3199.846776,-962.267725,-10510.924376,1685.410096
3199.847103,444.123565,-10436.903782,1225.752797
3199.847431,0.000000,-11177.109724,-229.828649
3199.847758,-1110.308913,-9844.739029,-459.657299
3199.848086,-1554.432478,-8364.327145,-1991.848295
3199.848413,-2664.741391,-8808.450710,-1838.629195
3199.848741,-1406.391290,-9252.574275,-689.485948
3199.849068,1258.350101,-9030.512492,-153.219100
3199.849396,1554.432478,-8956.491898,2068.457845
3199.849723,3552.988522,-9030.512492,1915.238745
3199.850051,4663.297435,-10362.883188,383.047749
3199.850378,2368.659014,-9844.739029,-689.485948
3199.850706,1110.308913,-10436.903782,-1072.533697
3199.851033,-592.164754,-11917.315666,-1532.190996
3199.851361,-1332.370696,-11473.192101,-1072.533697
3199.851688,592.164754,-9770.718434,-1455.581446
3199.852016,592.164754,-9992.780217,-1838.629195
3199.852343,962.267725,-11251.130318,0.000000
3199.852671,2590.720797,-11103.089130,842.705048
3199.852998,2590.720797,-9178.553681,842.705048
3199.853326,1702.473667,-7846.182985,1225.752797
3199.853653,1480.411884,-7402.059420,306.438199
3199.853981,296.082377,-8142.265362,153.219100
3199.854308,1406.391290,-8364.327145,536.266849
3199.854636,3627.009116,-9918.759623,-306.438199
3199.854963,3182.885551,-12435.459826,459.657299
3199.855291,3108.864956,-11695.253884,1685.410096
3199.855618,2590.720797,-10288.862594,0.000000
3199.855946,74.020594,-11325.150913,-1225.752797
3199.856273,-370.102971,-11769.274478,-306.438199
3199.856601,-888.247130,-9474.636058,-2145.067394
3199.856928,-1554.432478,-8364.327145,-995.924147
3199.857256,740.205942,-9548.656652,919.314598
3199.857583,1480.411884,-9474.636058,1225.752797
3199.857911,0.000000,-8216.285956,2221.676944
3199.858239,592.164754,-7846.182985,306.438199
3199.858566,-814.226536,-8512.368333,-1302.362347
3199.858894,-1480.411884,-9474.636058,-383.047749
3199.859221,0.000000,-7031.956449,-612.876398
3199.859549,962.267725,-8586.388927,-1762.019645
3199.859877,444.123565,-12213.398043,689.485948
3199.860204,814.226536,-12953.603985,1225.752797
3199.860532,0.000000,-11695.253884,383.047749
3199.860860,0.000000,-11251.130318,-1072.533697
3199.861187,-666.185348,-10658.965565,-1915.238745
3199.861515,-2960.823768,-9622.677246,-1991.848295
3199.861842,-3849.070898,-7772.162391,229.828649
3199.862170,-2812.782580,-8068.244768,-459.657299
3199.862498,-2368.659014,-7402.059420,153.219100
3199.862825,-888.247130,-6735.874072,0.000000
3199.863153,-592.164754,-7846.182985,0.000000
3199.863480,0.000000,-10732.986159,0.000000
3199.863808,1258.350101,-11029.068536,-612.876398
3199.864136,74.020594,-10362.883188,-1378.971896
3199.864463,74.020594,-11177.109724,-306.438199
3199.864791,1036.288319,-11029.068536,-612.876398
3199.865118,296.082377,-11251.130318,-383.047749
3199.865446,0.000000,-11621.233289,-306.438199
3199.865774,222.061783,-11547.212695,-229.828649
3199.866101,-1702.473667,-10066.800811,612.876398
3199.866429,-2442.679609,-8142.265362,-612.876398
3199.866756,-1776.494261,-6661.853478,-2604.724693
3199.867084,-814.226536,-7254.018232,-1991.848295
3199.867412,1480.411884,-9696.697840,-306.438199
3199.867739,2442.679609,-10436.903782,1225.752797
3199.868067,3182.885551,-9474.636058,2528.115143
3199.868395,4515.256246,-9030.512492,1455.581446
3199.868722,2960.823768,-10288.862594,0.000000
3199.869050,444.123565,-11325.150913,-689.485948
3199.869377,0.000000,-10658.965565,-1072.533697
3199.869705,148.041188,-10362.883188,-2221.676944
3199.870033,444.123565,-10955.047942,-1072.533697
3199.870360,222.061783,-9400.615463,459.657299
3199.870688,1184.329507,-8956.491898,1302.362347
3199.871015,1850.514855,-8808.450710,1838.629195
3199.871343,1998.556043,-8364.327145,536.266849
3199.871671,1184.329507,-7328.038826,459.657299
3199.871998,1850.514855,-7179.997637,995.924147
3199.872326,2664.741391,-7698.141797,689.485948
3199.872653,2368.659014,-9104.533087,2451.505594
3199.872981,1924.535449,-9252.574275,3064.381992
3199.873309,888.247130,-10584.944971,612.876398
3199.873636,296.082377,-12139.377449,-842.705048
3199.873964,148.041188,-10807.006753,-2987.772442
3199.874292,-1628.453072,-10732.986159,-3907.087040
3199.874619,-4367.215058,-11769.274478,-2145.067394
3199.874947,-1776.494261,-9770.718434,-1455.581446
3199.875274,296.082377,-8512.368333,-1072.533697
3199.875602,1258.350101,-8216.285956,689.485948
3199.875930,1628.453072,-8660.409521,1685.410096
3199.876257,1480.411884,-9030.512492,1991.848295
3199.876585,1850.514855,-8956.491898,1072.533697
3199.876912,740.205942,-9844.739029,-306.438199
3199.877240,-1110.308913,-9992.780217,-1378.971896
3199.877568,0.000000,-8808.450710,-1685.410096
3199.877895,296.082377,-10510.924376,-1608.800546
3199.878223,-222.061783,-12509.480420,-919.314598
3199.878550,0.000000,-13249.686362,0.000000
3199.878878,-518.144159,-12361.439231,-383.047749
3199.879206,-1332.370696,-11029.068536,-766.095498
3199.879533,-1406.391290,-9992.780217,-1149.143247
3199.879861,-2664.741391,-7254.018232,-459.657299
3199.880189,-2664.741391,-7105.977043,306.438199
3199.880516,-962.267725,-7994.224174,0.000000
3199.880844,-740.205942,-8660.409521,612.876398
3199.881171,-888.247130,-7105.977043,1302.362347
3199.881499,370.102971,-7698.141797,-536.266849
3199.881827,-740.205942,-10881.027347,229.828649
3199.882154,-814.226536,-11325.150913,153.219100
3199.882482,148.041188,-10140.821405,-1532.190996
3199.882809,-370.102971,-9326.594869,-536.266849
3199.883137,-592.164754,-10362.883188,612.876398
3199.883465,148.041188,-10436.903782,1532.190996
3199.883792,296.082377,-10140.821405,1378.971896
3199.884120,1110.308913,-9918.759623,842.705048
3199.884447,222.061783,-8586.388927,-536.266849
3199.884775,-740.205942,-7476.080014,-229.828649
3199.885103,-518.144159,-6957.935855,-842.705048
3199.885430,-740.205942,-7402.059420,-306.438199
3199.885758,0.000000,-8956.491898,153.219100
3199.886085,2146.597232,-9400.615463,-383.047749
3199.886413,2886.803174,-10362.883188,0.000000
3199.886741,2146.597232,-11843.295072,1378.971896
3199.887068,2738.761985,-12879.583391,306.438199
3199.887396,1406.391290,-11029.068536,-536.266849
3199.887724,1184.329507,-12139.377449,-1302.362347
3199.888051,148.041188,-11547.212695,-1455.581446
3199.888379,370.102971,-9992.780217,-229.828649
3199.888706,1628.453072,-8068.244768,-995.924147
3199.889034,-740.205942,-8364.327145,0.000000
3199.889362,-740.205942,-10436.903782,1072.533697
3199.889689,0.000000,-8808.450710,-383.047749
3199.890017,444.123565,-7328.038826,-2145.067394
3199.890344,1036.288319,-9252.574275,-995.924147
3199.890672,2516.700203,-11399.171507,76.609550
3199.891000,1776.494261,-11029.068536,1915.238745
3199.891327,2220.617826,-10510.924376,1915.238745
3199.891655,2294.638420,-11325.150913,-919.314598
3199.891982,74.020594,-11325.150913,-1532.190996
3199.892310,-592.164754,-9770.718434,-1225.752797
3199.892638,-370.102971,-8142.265362,-1072.533697
3199.892965,-1332.370696,-7772.162391,-612.876398
3199.893293,-296.082377,-7698.141797,842.705048
3199.893621,962.267725,-8734.430116,1378.971896
3199.893948,1036.288319,-8438.347739,1455.581446
3199.894276,1924.535449,-8512.368333,1838.629195
3199.894603,1036.288319,-7550.100608,766.095498
3199.894931,0.000000,-8364.327145,536.266849
3199.895259,222.061783,-10584.944971,459.657299
3199.895586,518.144159,-10214.842000,0.000000
3199.895914,888.247130,-9030.512492,76.609550
3199.896241,296.082377,-10288.862594,229.828649
3199.896569,-592.164754,-11843.295072,0.000000
3199.896897,-1406.391290,-10214.842000,-1072.533697
3199.897224,-1850.514855,-9992.780217,-2068.457845
3199.897552,-3849.070898,-10658.965565,-2298.286494
3199.897879,-2960.823768,-9844.739029,-1072.533697
3199.898207,-592.164754,-8216.285956,-1378.971896
3199.898535,148.041188,-8808.450710,842.705048
3199.898862,888.247130,-10732.986159,1838.629195
3199.899190,1998.556043,-11399.171507,766.095498
3199.899517,1554.432478,-9844.739029,153.219100
3199.899845,1184.329507,-9400.615463,-1455.581446
3199.900173,-296.082377,-10214.842000,-1532.190996
3199.900500,-666.185348,-10658.965565,-229.828649
3199.900828,2072.576638,-10214.842000,-536.266849
3199.901156,1850.514855,-10658.965565,-919.314598
3199.901483,444.123565,-11547.212695,1532.190996
3199.901811,1258.350101,-10807.006753,1608.800546
3199.902138,1110.308913,-9548.656652,-153.219100
3199.902466,-740.205942,-9326.594869,-1302.362347
3199.902794,-1110.308913,-8882.471304,-766.095498
3199.903121,-814.226536,-7476.080014,-842.705048
3199.903449,518.144159,-6883.915261,-383.047749
3199.903776,2368.659014,-8512.368333,306.438199
3199.904104,1998.556043,-10066.800811,1762.019645
3199.904432,3108.864956,-9992.780217,1302.362347
3199.904759,3478.967927,-10362.883188,-1378.971896
3199.905087,1776.494261,-11177.109724,-1608.800546
3199.905414,666.185348,-9474.636058,-995.924147
3199.905742,-370.102971,-8734.430116,0.000000
3199.906070,-666.185348,-9992.780217,536.266849
3199.906397,-518.144159,-10510.924376,0.000000
3199.906725,-148.041188,-10066.800811,-459.657299
3199.907053,-222.061783,-9252.574275,-689.485948
3199.907380,1480.411884,-9252.574275,-1225.752797
3199.907708,296.082377,-8808.450710,-766.095498
3199.908035,-148.041188,-7994.224174,153.219100
3199.908363,740.205942,-8364.327145,-306.438199
3199.908691,0.000000,-9992.780217,612.876398
3199.909018,1480.411884,-9622.677246,1072.533697
3199.909346,1480.411884,-9548.656652,-306.438199
3199.909673,-444.123565,-11695.253884,612.876398
3199.910001,-444.123565,-12435.459826,-536.266849
3199.910329,-666.185348,-11769.274478,-1762.019645
3199.910656,-1332.370696,-10658.965565,-1838.629195
3199.910984,-1554.432478,-9252.574275,-1838.629195
3199.911311,222.061783,-8660.409521,-1532.190996
3199.911639,296.082377,-8068.244768,0.000000
3199.911967,888.247130,-9770.718434,2451.505594
3199.912294,0.000000,-9474.636058,1991.848295
3199.912622,-518.144159,-8512.368333,536.266849
3199.912949,0.000000,-8586.388927,-1149.143247
3199.913277,-148.041188,-8882.471304,-1762.019645
3199.913605,-962.267725,-10807.006753,-153.219100
3199.913932,0.000000,-12361.439231,1225.752797
3199.914260,1406.391290,-11177.109724,-612.876398
3199.914588,962.267725,-9548.656652,-1685.410096
3199.914915,74.020594,-9326.594869,-1378.971896
3199.915243,-1258.350101,-9178.553681,-229.828649
3199.915570,-1184.329507,-9178.553681,536.266849
3199.915898,-148.041188,-7846.182985,-612.876398
3199.916226,814.226536,-7550.100608,0.000000
3199.916553,1406.391290,-7624.121203,766.095498
3199.916881,1702.473667,-9104.533087,1608.800546
3199.917208,1554.432478,-10807.006753,2298.286494
3199.917536,1480.411884,-10881.027347,0.000000
3199.917864,74.020594,-9622.677246,-2221.676944
3199.918191,-592.164754,-8438.347739,-2451.505594
3199.918519,1110.308913,-9474.636058,-2145.067394
3199.918846,370.102971,-10362.883188,919.314598
3199.919174,2146.597232,-10732.986159,2757.943793
3199.919502,3701.029710,-10214.842000,536.266849
3199.919829,2590.720797,-10362.883188,383.047749
3199.920157,1628.453072,-8808.450710,919.314598
3199.920485,-296.082377,-7402.059420,306.438199
3199.920812,-3701.029710,-9548.656652,383.047749
3199.921140,-3182.885551,-10807.006753,-2068.457845
3199.921467,-1554.432478,-9326.594869,-3753.867940
3199.921795,-296.082377,-9030.512492,-1225.752797
3199.922123,962.267725,-10510.924376,919.314598
3199.922450,2368.659014,-11621.233289,536.266849
3199.922778,3256.906145,-10732.986159,76.609550
3199.923105,3182.885551,-10436.903782,-153.219100
3199.923433,814.226536,-9548.656652,0.000000
3199.923761,296.082377,-7994.224174,766.095498
3199.924088,666.185348,-8438.347739,76.609550
3199.924416,1110.308913,-11473.192101,0.000000
3199.924743,666.185348,-11769.274478,995.924147
3199.925071,814.226536,-11251.130318,383.047749
3199.925399,222.061783,-9696.697840,-1838.629195
3199.925726,-1110.308913,-9104.533087,-1991.848295
3199.926054,-2220.617826,-8956.491898,-1455.581446
3199.926382,-1184.329507,-8438.347739,-1838.629195
3199.926709,74.020594,-9178.553681,-229.828649
3199.927037,1258.350101,-9104.533087,1149.143247
3199.927364,3330.926739,-9696.697840,1915.238745
3199.927692,3478.967927,-10881.027347,2374.896044
3199.928020,1406.391290,-11843.295072,689.485948
3199.928347,296.082377,-10584.944971,-1455.581446
3199.928675,-1702.473667,-9622.677246,-2145.067394
3199.929002,-3330.926739,-9474.636058,-2451.505594
3199.929330,-1998.556043,-8512.368333,-1149.143247
3199.929658,-1702.473667,-8364.327145,0.000000
3199.929985,-2294.638420,-8660.409521,459.657299
3199.930313,-1332.370696,-9770.718434,0.000000
3199.930640,74.020594,-9696.697840,-459.657299
3199.930968,296.082377,-8438.347739,-229.828649
3199.931296,888.247130,-9474.636058,229.828649
3199.931623,814.226536,-8734.430116,306.438199
3199.931951,74.020594,-8956.491898,995.924147
3199.932278,1258.350101,-10140.821405,1225.752797
3199.932606,222.061783,-10066.800811,0.000000
3199.932934,-518.144159,-9474.636058,-766.095498
3199.933261,-296.082377,-10436.903782,-1149.143247
3199.933589,-1036.288319,-11177.109724,-689.485948
3199.933917,-444.123565,-10288.862594,-689.485948
3199.934244,814.226536,-9326.594869,-842.705048
3199.934572,962.267725,-8438.347739,-612.876398
3199.934899,1998.556043,-8882.471304,459.657299
3199.935227,814.226536,-9252.574275,2374.896044
3199.935555,-1184.329507,-10510.924376,1378.971896
3199.935882,-666.185348,-9548.656652,-995.924147
3199.936210,666.185348,-9326.594869,-2451.505594
3199.936537,296.082377,-10584.944971,-919.314598
3199.936865,0.000000,-11103.089130,1149.143247
3199.937193,222.061783,-9548.656652,-689.485948
3199.937520,814.226536,-10362.883188,-2221.676944
3199.937848,1554.432478,-11769.274478,-2068.457845
3199.938175,888.247130,-10140.821405,-459.657299
3199.938503,592.164754,-7994.224174,1838.629195
3199.938831,1258.350101,-7402.059420,919.314598
3199.939158,814.226536,-9178.553681,153.219100
3199.939486,296.082377,-9770.718434,919.314598
3199.939814,1702.473667,-8734.430116,-306.438199
3199.940141,1702.473667,-9770.718434,-536.266849
3199.940469,1184.329507,-10584.944971,-995.924147
3199.940796,888.247130,-9992.780217,-1072.533697
3199.941124,518.144159,-9474.636058,-995.924147
3199.941452,1110.308913,-9770.718434,-229.828649
3199.941779,814.226536,-9474.636058,306.438199
3199.942107,888.247130,-9104.533087,1455.581446
3199.942434,1850.514855,-9474.636058,766.095498
3199.942762,1924.535449,-10362.883188,0.000000
3199.943090,1480.411884,-9844.739029,689.485948
3199.943417,1258.350101,-8660.409521,459.657299
3199.943745,-1036.288319,-9178.553681,1149.143247
3199.944072,-2738.761985,-9178.553681,229.828649
3199.944400,-2294.638420,-8364.327145,-995.924147
3199.944728,-1258.350101,-10214.842000,-1915.238745
3199.945055,-1036.288319,-11399.171507,-1532.190996
3199.945383,-888.247130,-10807.006753,-229.828649
3199.945710,-592.164754,-9474.636058,459.657299
3199.946038,1110.308913,-9844.739029,-76.609550
3199.946366,0.000000,-9548.656652,-766.095498
3199.946693,-592.164754,-9252.574275,-229.828649
3199.947021,0.000000,-9400.615463,-229.828649
3199.947349,518.144159,-11103.089130,0.000000
3199.947676,0.000000,-11399.171507,689.485948
3199.948004,962.267725,-11103.089130,306.438199
3199.948331,1184.329507,-8956.491898,-1302.362347
3199.948659,444.123565,-9474.636058,-1608.800546
3199.948987,-962.267725,-10510.924376,0.000000
3199.949314,-444.123565,-8586.388927,-153.219100
3199.949642,-518.144159,-8438.347739,0.000000
3199.949969,-592.164754,-8586.388927,383.047749
3199.950297,-592.164754,-8660.409521,459.657299
3199.950625,444.123565,-9844.739029,306.438199
3199.950952,1776.494261,-11177.109724,-612.876398
3199.951280,2368.659014,-12361.439231,-1532.190996
3199.951607,1258.350101,-11843.295072,-766.095498
3199.951935,888.247130,-9548.656652,-1685.410096
3199.952263,0.000000,-8586.388927,-1149.143247
3199.952590,-888.247130,-10214.842000,76.609550
3199.952918,-1110.308913,-10066.800811,842.705048
3199.953246,888.247130,-9178.553681,0.000000
3199.953573,592.164754,-8290.306550,-459.657299
3199.953901,-666.185348,-8956.491898,229.828649
3199.954228,-888.247130,-9770.718434,1225.752797
3199.954556,296.082377,-8808.450710,153.219100
3199.954884,518.144159,-9548.656652,-612.876398
3199.955211,962.267725,-9030.512492,0.000000
3199.955539,1554.432478,-7846.182985,-229.828649
3199.955866,1110.308913,-10066.800811,1302.362347
3199.956194,148.041188,-10288.862594,1762.019645
3199.956522,592.164754,-10732.986159,919.314598
3199.956849,370.102971,-10584.944971,229.828649
3199.957177,666.185348,-9696.697840,-1072.533697
3199.957504,814.226536,-9622.677246,-1608.800546
3199.957832,444.123565,-9030.512492,-229.828649
3199.958160,-370.102971,-9992.780217,1149.143247
3199.958487,-666.185348,-10807.006753,76.609550
3199.958815,-1554.432478,-8142.265362,-1225.752797
3199.959143,592.164754,-8142.265362,-2528.115143
3199.959470,1406.391290,-10066.800811,-1378.971896
3199.959798,1258.350101,-11251.130318,842.705048
3199.960126,2146.597232,-11547.212695,1225.752797
3199.960454,1332.370696,-9696.697840,153.219100
3199.960781,518.144159,-9918.759623,-995.924147
3199.961109,-296.082377,-11103.089130,-995.924147
3199.961437,-592.164754,-10288.862594,-612.876398
3199.961765,518.144159,-9178.553681,-919.314598
3199.962093,888.247130,-10288.862594,-995.924147
3199.962420,-666.185348,-9844.739029,-306.438199
3199.962748,148.041188,-8660.409521,306.438199
3199.963076,962.267725,-8216.285956,-766.095498
3199.963404,148.041188,-9474.636058,0.000000
3199.963731,592.164754,-9844.739029,76.609550
3199.964059,888.247130,-9104.533087,0.000000
3199.964387,666.185348,-8586.388927,919.314598
3199.964715,222.061783,-8808.450710,2068.457845
3199.965042,-222.061783,-9622.677246,1915.238745
3199.965370,-296.082377,-10584.944971,459.657299
3199.965698,296.082377,-10436.903782,-2068.457845
3199.966026,-296.082377,-9252.574275,-2681.334243
3199.966353,-666.185348,-8660.409521,-1302.362347
3199.966681,-296.082377,-9622.677246,766.095498
3199.967009,814.226536,-9770.718434,1149.143247
3199.967337,1924.535449,-8586.388927,766.095498
3199.967664,1628.453072,-8438.347739,689.485948
3199.967992,222.061783,-9622.677246,995.924147
3199.968320,-370.102971,-9252.574275,1762.019645
3199.968648,-518.144159,-8734.430116,689.485948
3199.968976,-1110.308913,-8512.368333,-995.924147
3199.969303,-1480.411884,-10436.903782,-2145.067394
3199.969631,-1850.514855,-9918.759623,-2757.943793
3199.969959,-148.041188,-9548.656652,-2681.334243
3199.970287,1184.329507,-9992.780217,-2068.457845
3199.970614,888.247130,-11621.233289,-229.828649
3199.970942,1406.391290,-11843.295072,842.705048
3199.971270,3256.906145,-11177.109724,-459.657299
3199.971598,1628.453072,-9918.759623,-306.438199
3199.971925,1998.556043,-10658.965565,76.609550
3199.972253,666.185348,-9548.656652,306.438199
3199.972581,-370.102971,-8734.430116,229.828649
3199.972909,-666.185348,-9400.615463,76.609550
3199.973236,-592.164754,-9992.780217,-689.485948
3199.973564,-814.226536,-9030.512492,-766.095498
3199.973892,148.041188,-9104.533087,-2221.676944
3199.974220,74.020594,-9474.636058,-995.924147
3199.974547,0.000000,-9770.718434,-1072.533697
3199.974875,592.164754,-9992.780217,0.000000
3199.975203,1924.535449,-10066.800811,612.876398
3199.975531,2738.761985,-10658.965565,1225.752797
3199.975859,2294.638420,-10436.903782,1991.848295
3199.976186,592.164754,-9844.739029,536.266849
3199.976514,-814.226536,-9400.615463,-459.657299
3199.976842,-1702.473667,-9770.718434,-919.314598
3199.977170,-2590.720797,-8068.244768,-1072.533697
3199.977497,-1480.411884,-6735.874072,-1149.143247
3199.977825,-962.267725,-6883.915261,-1072.533697
3199.978153,-222.061783,-8956.491898,0.000000
3199.978481,1702.473667,-9178.553681,766.095498
3199.978808,1924.535449,-8660.409521,1685.410096
3199.979136,1628.453072,-9030.512492,2068.457845
3199.979464,2072.576638,-9844.739029,1302.362347
3199.979792,444.123565,-10658.965565,536.266849
3199.980119,-148.041188,-11399.171507,76.609550
3199.980447,518.144159,-11621.233289,-1838.629195
3199.980775,592.164754,-11621.233289,-2068.457845
3199.981103,-666.185348,-11399.171507,-689.485948
3199.981430,-2590.720797,-9252.574275,0.000000
3199.981758,-2368.659014,-8586.388927,-1838.629195
3199.982086,-1184.329507,-8142.265362,-2987.772442
3199.982414,-592.164754,-8438.347739,-1915.238745
3199.982742,888.247130,-9252.574275,995.924147
3199.983069,1998.556043,-10436.903782,3140.991542
3199.983397,2220.617826,-10214.842000,2451.505594
3199.983725,2220.617826,-10658.965565,383.047749
3199.984053,1036.288319,-11917.315666,-995.924147
3199.984380,-370.102971,-12213.398043,-1378.971896
3199.984708,-962.267725,-9918.759623,-2528.115143
3199.985036,-296.082377,-9104.533087,-4060.306139
3199.985364,-1036.288319,-10214.842000,-1608.800546
3199.985691,0.000000,-10066.800811,536.266849
3199.986019,1406.391290,-9252.574275,1072.533697
3199.986347,1702.473667,-9474.636058,919.314598
3199.986675,962.267725,-8660.409521,76.609550
3199.987002,74.020594,-7402.059420,459.657299
3199.987330,-592.164754,-7105.977043,536.266849
3199.987658,1258.350101,-7994.224174,1302.362347
3199.987986,2146.597232,-10436.903782,612.876398
3199.988314,1406.391290,-10436.903782,1838.629195
3199.988641,1850.514855,-9252.574275,0.000000
3199.988969,1406.391290,-9992.780217,-1915.238745
3199.989297,888.247130,-11103.089130,-1685.410096
3199.989625,1406.391290,-9474.636058,-1991.848295
3199.989952,-370.102971,-9992.780217,-1072.533697
3199.990280,0.000000,-9770.718434,1149.143247
3199.990608,1850.514855,-8586.388927,383.047749
3199.990936,1480.411884,-8808.450710,1072.533697
3199.991263,-592.164754,-8512.368333,2298.286494
3199.991591,0.000000,-9992.780217,1225.752797
3199.991919,148.041188,-10140.821405,-612.876398
3199.992247,-1184.329507,-8142.265362,-2145.067394
3199.992574,-1924.535449,-7624.121203,-2221.676944
3199.992902,-1850.514855,-9030.512492,-1685.410096
3199.993230,0.000000,-11103.089130,-689.485948
3199.993558,1850.514855,-12657.521608,-459.657299
3199.993885,2294.638420,-12657.521608,76.609550
3199.994213,2294.638420,-12583.501014,689.485948
3199.994541,2146.597232,-11843.295072,-1378.971896
3199.994869,-444.123565,-10658.965565,0.000000
3199.995197,-1036.288319,-10658.965565,0.000000
3199.995524,-962.267725,-9178.553681,-1378.971896
3199.995852,-1110.308913,-7179.997637,-1225.752797
3199.996180,-1110.308913,-6513.812290,-306.438199
3199.996508,-592.164754,-8438.347739,919.314598
3199.996835,0.000000,-9474.636058,1225.752797
3199.997163,222.061783,-9548.656652,-536.266849
3199.997491,-444.123565,-10066.800811,-1302.362347
3199.997819,962.267725,-10066.800811,-1225.752797
3199.998146,1480.411884,-10140.821405,0.000000
3199.998474,1776.494261,-10658.965565,1378.971896
3199.998802,1702.473667,-11991.336260,1685.410096
3199.999130,1110.308913,-11769.274478,459.657299
3199.999457,-222.061783,-10288.862594,-383.047749
3199.999785,-1332.370696,-9030.512492,-1378.971896
3200.000113,-1850.514855,-7698.141797,-1149.143247
3200.000441,-1480.411884,-6957.935855,-995.924147
3200.000768,-1110.308913,-7254.018232,-842.705048
3200.001096,0.000000,-7772.162391,383.047749
3200.001424,814.226536,-8290.306550,1149.143247
3200.001752,2072.576638,-8438.347739,1915.238745
3200.002080,1702.473667,-10066.800811,1225.752797
3200.002407,1258.350101,-11547.212695,766.095498
3200.002735,962.267725,-12065.356855,-383.047749
3200.003063,-296.082377,-11473.192101,-842.705048
3200.003391,-296.082377,-9400.615463,-1838.629195
3200.003718,370.102971,-10214.842000,-2451.505594
3200.004046,0.000000,-11029.068536,-1225.752797
3200.004374,518.144159,-10807.006753,-995.924147
3200.004702,1110.308913,-9918.759623,-995.924147
3200.005029,0.000000,-8364.327145,459.657299
3200.005357,-1110.308913,-7476.080014,1149.143247
3200.005685,-1184.329507,-8068.244768,-459.657299
3200.006013,-1110.308913,-9178.553681,-153.219100
3200.006340,962.267725,-10288.862594,-612.876398
3200.006668,1924.535449,-11769.274478,-1608.800546
3200.006996,1702.473667,-12361.439231,229.828649
3200.007324,2442.679609,-11029.068536,536.266849
3200.007651,1628.453072,-10436.903782,-919.314598
3200.007979,296.082377,-11621.233289,-919.314598
3200.008307,222.061783,-10881.027347,-1608.800546
3200.008635,296.082377,-8364.327145,-1378.971896
3200.008963,1184.329507,-7624.121203,-1149.143247
3200.009290,-148.041188,-8290.306550,1225.752797
3200.009618,74.020594,-8660.409521,2681.334243
3200.009946,1480.411884,-8512.368333,1762.019645
3200.010274,962.267725,-9178.553681,459.657299
3200.010601,-148.041188,-8290.306550,-459.657299
3200.010929,0.000000,-8142.265362,-1072.533697
3200.011257,148.041188,-9326.594869,-919.314598
3200.011585,296.082377,-9844.739029,-459.657299
3200.011912,1184.329507,-10288.862594,0.000000
3200.012240,888.247130,-10955.047942,842.705048
3200.012568,1924.535449,-10807.006753,0.000000
3200.012896,2146.597232,-10510.924376,0.000000
3200.013223,1628.453072,-10214.842000,-536.266849
3200.013551,0.000000,-9178.553681,76.609550
3200.013879,-1184.329507,-9918.759623,0.000000
3200.014207,-2368.659014,-8956.491898,0.000000
3200.014534,-1258.350101,-7772.162391,-612.876398
3200.014862,-666.185348,-7920.203579,0.000000
3200.015190,-1110.308913,-9400.615463,1149.143247
3200.015518,-518.144159,-10807.006753,0.000000
3200.015846,370.102971,-10881.027347,-1302.362347
3200.016173,0.000000,-10214.842000,-1378.971896
3200.016501,74.020594,-10658.965565,-1608.800546
3200.016829,-370.102971,-10288.862594,-306.438199
3200.017157,0.000000,-10807.006753,76.609550
3200.017484,1258.350101,-12287.418637,306.438199
3200.017812,518.144159,-12361.439231,459.657299
3200.018140,0.000000,-10214.842000,0.000000
3200.018468,370.102971,-9400.615463,-1378.971896
3200.018795,-370.102971,-9178.553681,-1302.362347
3200.019123,-1406.391290,-7402.059420,-229.828649
3200.019451,-1036.288319,-6217.729913,229.828649
3200.019779,222.061783,-7328.038826,-383.047749
3200.020106,666.185348,-8882.471304,459.657299
3200.020434,592.164754,-9326.594869,1302.362347
3200.020762,518.144159,-9696.697840,1072.533697
3200.021090,1702.473667,-11325.150913,-306.438199
3200.021418,1924.535449,-12657.521608,-1455.581446
3200.021745,962.267725,-11325.150913,-1378.971896
3200.022073,814.226536,-9474.636058,-459.657299
3200.022401,518.144159,-8956.491898,-459.657299
3200.022729,-518.144159,-8956.491898,689.485948
3200.023056,-370.102971,-8512.368333,459.657299
3200.023384,-296.082377,-8364.327145,0.000000
3200.023712,0.000000,-8142.265362,-459.657299
3200.024040,0.000000,-8142.265362,-536.266849
3200.024367,-592.164754,-8216.285956,766.095498
3200.024695,666.185348,-9622.677246,0.000000
3200.025023,1036.288319,-11473.192101,-153.219100
3200.025351,1110.308913,-11325.150913,-536.266849
3200.025678,1850.514855,-10510.924376,-1532.190996
3200.026006,888.247130,-11251.130318,-689.485948
3200.026334,444.123565,-11325.150913,153.219100
3200.026662,666.185348,-10584.944971,-612.876398
3200.026989,888.247130,-10955.047942,-459.657299
3200.027317,1332.370696,-10140.821405,-1149.143247
3200.027645,740.205942,-9474.636058,-229.828649
3200.027973,-296.082377,-8142.265362,1225.752797
3200.028301,-592.164754,-7402.059420,1225.752797
3200.028628,-888.247130,-8956.491898,1455.581446
3200.028956,-1332.370696,-9104.533087,1072.533697
3200.029284,-2368.659014,-8882.471304,-1149.143247
3200.029612,-962.267725,-10140.821405,-1915.238745
3200.029939,1036.288319,-11103.089130,-1685.410096
3200.030267,1702.473667,-10140.821405,-842.705048
3200.030595,666.185348,-11177.109724,1302.362347
3200.030923,888.247130,-10732.986159,1762.019645
3200.031250,1702.473667,-10658.965565,-153.219100
3200.031578,1406.391290,-9548.656652,-842.705048
3200.031906,-296.082377,-8216.285956,-459.657299
3200.032234,-592.164754,-7846.182985,0.000000
3200.032561,-370.102971,-8290.306550,153.219100
3200.032889,-1110.308913,-8142.265362,842.705048
3200.033217,-222.061783,-8142.265362,459.657299
3200.033545,370.102971,-8882.471304,536.266849
3200.033872,592.164754,-9474.636058,612.876398
3200.034200,1258.350101,-10140.821405,-1225.752797
3200.034528,222.061783,-9548.656652,-612.876398
3200.034856,592.164754,-10140.821405,-842.705048
3200.035184,666.185348,-11177.109724,-919.314598
3200.035511,1110.308913,-11843.295072,-536.266849
3200.035839,1406.391290,-10510.924376,229.828649
3200.036167,814.226536,-10658.965565,-536.266849
3200.036495,222.061783,-10362.883188,-306.438199
3200.036822,0.000000,-8734.430116,-1072.533697
3200.037150,-962.267725,-8586.388927,-612.876398
3200.037478,-1110.308913,-9548.656652,-306.438199
3200.037806,-148.041188,-8734.430116,-229.828649
3200.038133,666.185348,-8660.409521,153.219100
3200.038461,814.226536,-9030.512492,76.609550
3200.038789,222.061783,-10584.944971,842.705048
3200.039117,-296.082377,-11473.192101,842.705048
3200.039444,592.164754,-10436.903782,-1149.143247
3200.039772,0.000000,-10362.883188,-2145.067394
3200.040100,-1184.329507,-10807.006753,-1532.190996
3200.040428,-592.164754,-9326.594869,-1532.190996
3200.040755,444.123565,-8734.430116,0.000000
3200.041083,888.247130,-9622.677246,0.000000
3200.041411,1554.432478,-10510.924376,995.924147
3200.041739,1258.350101,-9622.677246,1532.190996
3200.042067,1332.370696,-8438.347739,153.219100
3200.042394,1184.329507,-9326.594869,-919.314598
3200.042722,-666.185348,-8290.306550,0.000000
3200.043050,-444.123565,-7402.059420,-689.485948
3200.043378,962.267725,-8216.285956,-229.828649
3200.043705,666.185348,-10807.006753,1225.752797
3200.044033,592.164754,-9918.759623,689.485948
3200.044361,1406.391290,-11177.109724,-612.876398
3200.044689,814.226536,-11621.233289,-1608.800546
3200.045016,740.205942,-10214.842000,-1915.238745
3200.045344,666.185348,-10288.862594,-766.095498
3200.045672,592.164754,-10584.944971,459.657299
3200.046000,740.205942,-9844.739029,306.438199
3200.046327,592.164754,-9104.533087,0.000000
3200.046655,0.000000,-9178.553681,306.438199
3200.046983,-296.082377,-9770.718434,383.047749
3200.047311,-962.267725,-9548.656652,-229.828649
3200.047638,-1332.370696,-8586.388927,-689.485948
3200.047966,-1628.453072,-8142.265362,-1455.581446
3200.048294,-666.185348,-9474.636058,-1225.752797
3200.048622,74.020594,-9770.718434,-229.828649
3200.048950,1184.329507,-11029.068536,536.266849
3200.049277,1554.432478,-11843.295072,459.657299
3200.049605,1184.329507,-11399.171507,-383.047749
3200.049933,962.267725,-10881.027347,0.000000
3200.050261,296.082377,-9548.656652,-306.438199
3200.050588,-592.164754,-9400.615463,229.828649
3200.050916,-148.041188,-9400.615463,153.219100
3200.051244,-296.082377,-7772.162391,-383.047749
3200.051572,-888.247130,-6809.894666,229.828649
3200.051899,-2368.659014,-7179.997637,1072.533697
3200.052227,-1554.432478,-9104.533087,689.485948
3200.052555,-1554.432478,-8438.347739,-766.095498
3200.052883,-370.102971,-9918.759623,-1608.800546
3200.053210,1110.308913,-11251.130318,-1532.190996
3200.053538,2146.597232,-12435.459826,229.828649
3200.053866,1406.391290,-11325.150913,1762.019645
3200.054194,2738.761985,-10881.027347,842.705048
3200.054522,2294.638420,-11621.233289,-306.438199
3200.054849,-222.061783,-10510.924376,-229.828649
3200.055177,-1332.370696,-6883.915261,-1455.581446
3200.055505,-518.144159,-6735.874072,-2374.896044
3200.055833,-1406.391290,-9622.677246,0.000000
3200.056160,0.000000,-9918.759623,1378.971896
3200.056488,1480.411884,-8956.491898,766.095498
3200.056816,2294.638420,-10140.821405,689.485948
3200.057144,1480.411884,-10658.965565,-536.266849
3200.057471,592.164754,-10214.842000,-536.266849
3200.057799,74.020594,-9178.553681,-612.876398
3200.058127,1924.535449,-10214.842000,-1072.533697
3200.058455,1628.453072,-11695.253884,153.219100
3200.058782,740.205942,-10658.965565,1302.362347
3200.059110,1628.453072,-9030.512492,-153.219100
3200.059438,888.247130,-9770.718434,-1532.190996
3200.059766,518.144159,-10066.800811,-995.924147
3200.060093,666.185348,-8808.450710,0.000000
3200.060421,0.000000,-7105.977043,76.609550
3200.060749,-518.144159,-8142.265362,612.876398
3200.061076,814.226536,-8882.471304,842.705048
3200.061404,592.164754,-8808.450710,1991.848295
3200.061732,1258.350101,-8956.491898,1149.143247
3200.062059,370.102971,-9696.697840,306.438199
3200.062387,370.102971,-10807.006753,-919.314598
3200.062714,370.102971,-9770.718434,-2451.505594
3200.063042,-370.102971,-9770.718434,-1685.410096
3200.063370,-1924.535449,-8660.409521,-153.219100
3200.063697,-740.205942,-9326.594869,-919.314598
3200.064025,0.000000,-10881.027347,229.828649
3200.064352,1850.514855,-11473.192101,153.219100
3200.064680,1184.329507,-11029.068536,995.924147
3200.065008,518.144159,-11029.068536,1838.629195
3200.065335,518.144159,-9474.636058,-612.876398
3200.065663,0.000000,-10214.842000,-1685.410096
3200.065990,-1332.370696,-8512.368333,-536.266849
3200.066318,-1036.288319,-6291.750507,-1838.629195
3200.066646,-296.082377,-7624.121203,-306.438199
3200.066973,1110.308913,-10807.006753,536.266849
3200.067301,1406.391290,-11473.192101,612.876398
3200.067628,518.144159,-11177.109724,689.485948
3200.067956,518.144159,-11177.109724,-536.266849
3200.068284,888.247130,-11399.171507,-2068.457845
3200.068611,74.020594,-11029.068536,-842.705048
3200.068939,74.020594,-9844.739029,383.047749
3200.069266,814.226536,-9696.697840,536.266849
3200.069594,296.082377,-9030.512492,383.047749
3200.069921,-222.061783,-8290.306550,-459.657299
3200.070249,-666.185348,-7550.100608,-153.219100
3200.070577,-1184.329507,-6661.853478,-459.657299
3200.070904,-740.205942,-7179.997637,-536.266849
3200.071232,296.082377,-9770.718434,-536.266849
3200.071559,296.082377,-9474.636058,536.266849
3200.071887,1554.432478,-9474.636058,689.485948
3200.072215,1406.391290,-11547.212695,1915.238745
3200.072542,1406.391290,-12213.398043,1685.410096
3200.072870,1036.288319,-11843.295072,-1378.971896
3200.073197,148.041188,-10140.821405,-1915.238745
3200.073525,-222.061783,-8438.347739,-1378.971896
3200.073853,148.041188,-8216.285956,-1225.752797
3200.074180,0.000000,-9474.636058,689.485948
3200.074508,-370.102971,-8512.368333,842.705048
3200.074835,1110.308913,-7105.977043,-1225.752797
3200.075163,-222.061783,-8438.347739,766.095498
3200.075491,-962.267725,-9252.574275,1915.238745
3200.075818,-2072.576638,-9844.739029,995.924147
3200.076146,-1776.494261,-10881.027347,-766.095498
3200.076473,666.185348,-11177.109724,-3064.381992
3200.076801,2812.782580,-12435.459826,-3217.601092
3200.077129,2368.659014,-12731.542202,459.657299
3200.077456,1776.494261,-11103.089130,1762.019645
3200.077784,2294.638420,-10066.800811,229.828649
3200.078111,1036.288319,-9918.759623,-2374.896044
3200.078439,0.000000,-9548.656652,-2221.676944
3200.078767,-1036.288319,-7994.224174,-612.876398
3200.079094,-666.185348,-7550.100608,459.657299
3200.079422,444.123565,-8364.327145,0.000000
3200.079749,296.082377,-9696.697840,1455.581446
3200.080077,666.185348,-8956.491898,1302.362347
3200.080405,1406.391290,-9844.739029,536.266849
3200.080732,296.082377,-11325.150913,0.000000
3200.081060,740.205942,-9548.656652,-2145.067394
3200.081387,444.123565,-8882.471304,-2451.505594
3200.081715,74.020594,-9992.780217,76.609550
3200.082042,1184.329507,-9770.718434,995.924147
3200.082370,1924.535449,-11399.171507,1455.581446
3200.082698,1628.453072,-10436.903782,536.266849
3200.083025,888.247130,-10066.800811,-612.876398
3200.083353,0.000000,-10288.862594,-153.219100
3200.083680,-518.144159,-8142.265362,229.828649
3200.084008,-666.185348,-7105.977043,-383.047749
3200.084336,-1480.411884,-9622.677246,919.314598
3200.084663,0.000000,-9252.574275,306.438199
3200.084991,1184.329507,-7402.059420,-612.876398
3200.085318,1110.308913,-8808.450710,-306.438199
3200.085646,296.082377,-11177.109724,229.828649
3200.085974,666.185348,-11473.192101,153.219100
3200.086301,-370.102971,-10140.821405,-76.609550
3200.086629,-666.185348,-9474.636058,-2068.457845
3200.086956,-1480.411884,-9474.636058,-1838.629195
3200.087284,-1258.350101,-9622.677246,-766.095498
3200.087612,0.000000,-9622.677246,0.000000
3200.087939,1702.473667,-11621.233289,536.266849
3200.088267,1110.308913,-11547.212695,842.705048
3200.088594,74.020594,-9474.636058,153.219100
3200.088922,-592.164754,-7254.018232,-919.314598
3200.089250,-370.102971,-7476.080014,-2374.896044
3200.089577,0.000000,-8586.388927,-1532.190996
3200.089905,444.123565,-9178.553681,0.000000
3200.090232,1258.350101,-9992.780217,842.705048
3200.090560,1702.473667,-11547.212695,1532.190996
3200.090888,1184.329507,-11177.109724,1685.410096
3200.091215,222.061783,-11399.171507,-229.828649
3200.091543,-222.061783,-12287.418637,-1991.848295
3200.091870,-1258.350101,-11177.109724,-2451.505594
3200.092198,-518.144159,-8956.491898,-3217.601092
3200.092526,0.000000,-9030.512492,-1149.143247
3200.092853,518.144159,-9178.553681,1532.190996
3200.093181,1406.391290,-7254.018232,2221.676944
3200.093508,740.205942,-8142.265362,919.314598
3200.093836,-592.164754,-8808.450710,153.219100
3200.094164,0.000000,-8438.347739,-1378.971896
3200.094491,-222.061783,-8364.327145,0.000000
3200.094819,-222.061783,-8956.491898,1072.533697
3200.095146,888.247130,-10214.842000,612.876398
3200.095474,1258.350101,-11177.109724,153.219100
3200.095801,1924.535449,-12065.356855,0.000000
3200.096129,1850.514855,-10436.903782,-459.657299
3200.096457,1332.370696,-8882.471304,-1225.752797
3200.096784,518.144159,-7772.162391,-919.314598
3200.097112,74.020594,-8882.471304,-306.438199
3200.097439,0.000000,-9548.656652,1072.533697
3200.097767,740.205942,-8142.265362,1072.533697
3200.098095,1554.432478,-8068.244768,153.219100
3200.098422,962.267725,-8512.368333,383.047749
3200.098750,-740.205942,-10140.821405,1149.143247
3200.099077,-2368.659014,-10955.047942,612.876398
3200.099405,-2072.576638,-10881.027347,-2221.676944
3200.099733,-370.102971,-10362.883188,-3830.477490
3200.100060,1184.329507,-10658.965565,-2604.724693
3200.100388,1184.329507,-11843.295072,-229.828649
3200.100715,1776.494261,-12509.480420,842.705048
3200.101043,2368.659014,-12361.439231,536.266849
3200.101371,2072.576638,-10732.986159,-995.924147
3200.101698,0.000000,-9326.594869,-919.314598
3200.102026,-1628.453072,-7698.141797,306.438199
3200.102353,-962.267725,-7698.141797,153.219100
3200.102681,-296.082377,-9548.656652,229.828649
3200.103009,-962.267725,-9770.718434,1532.190996
3200.103336,0.000000,-7550.100608,229.828649
3200.103664,0.000000,-8512.368333,536.266849
3200.103991,-518.144159,-10066.800811,459.657299
3200.104319,222.061783,-9696.697840,-1225.752797
3200.104647,-222.061783,-9548.656652,-1378.971896
3200.104974,0.000000,-9474.636058,-536.266849
3200.105302,444.123565,-8660.409521,0.000000
3200.105629,888.247130,-9918.759623,1532.190996
3200.105957,592.164754,-10658.965565,2451.505594
3200.106285,1702.473667,-10214.842000,0.000000
3200.106612,888.247130,-9992.780217,-459.657299
3200.106940,74.020594,-7328.038826,-1072.533697
3200.107267,-888.247130,-7031.956449,-612.876398
3200.107595,-2220.617826,-8216.285956,459.657299
3200.107922,-962.267725,-7698.141797,229.828649
3200.108250,740.205942,-9104.533087,-306.438199
3200.108578,1628.453072,-11473.192101,153.219100
3200.108905,1850.514855,-11177.109724,306.438199
3200.109233,2294.638420,-11621.233289,0.000000
3200.109560,814.226536,-11029.068536,-995.924147
3200.109888,-370.102971,-10807.006753,-1302.362347
3200.110216,-1332.370696,-10066.800811,-1225.752797
3200.110543,-1332.370696,-9326.594869,-1608.800546
3200.110871,370.102971,-10066.800811,-1838.629195
3200.111198,888.247130,-10510.924376,-842.705048
3200.111526,666.185348,-9770.718434,612.876398
3200.111854,1480.411884,-10658.965565,689.485948
3200.112181,1036.288319,-9844.739029,-689.485948
3200.112509,222.061783,-9030.512492,-1685.410096
3200.112836,740.205942,-8586.388927,-1762.019645
3200.113164,444.123565,-8216.285956,-383.047749
3200.113492,1628.453072,-9326.594869,689.485948
3200.113819,2072.576638,-10881.027347,2145.067394
3200.114147,1258.350101,-11621.233289,2145.067394
3200.114474,888.247130,-10288.862594,-689.485948
3200.114802,222.061783,-10510.924376,-2911.162892
3200.115130,-888.247130,-9844.739029,-2374.896044
3200.115457,222.061783,-8364.327145,-1991.848295
3200.115785,592.164754,-9474.636058,-306.438199
3200.116112,888.247130,-9474.636058,2298.286494
3200.116440,1258.350101,-6883.915261,1225.752797
3200.116768,814.226536,-8216.285956,1608.800546
3200.117095,0.000000,-8586.388927,842.705048
3200.117423,148.041188,-9030.512492,-842.705048
3200.117750,-666.185348,-9622.677246,-459.657299
3200.118078,-666.185348,-9918.759623,-459.657299
3200.118406,74.020594,-9844.739029,0.000000
3200.118733,666.185348,-9844.739029,0.000000
3200.119061,1406.391290,-11251.130318,-229.828649
3200.119388,1924.535449,-12805.562797,-229.828649
3200.119716,518.144159,-11325.150913,-306.438199
3200.120044,370.102971,-8586.388927,-919.314598
3200.120371,-370.102971,-8364.327145,0.000000
3200.120699,-888.247130,-8290.306550,1378.971896
3200.121026,0.000000,-8660.409521,1302.362347
3200.121354,-962.267725,-9104.533087,76.609550
3200.121681,296.082377,-9918.759623,-612.876398
3200.122009,0.000000,-9474.636058,-995.924147
3200.122337,-2294.638420,-8882.471304,0.000000
3200.122664,-2590.720797,-9030.512492,-536.266849
3200.122992,-1406.391290,-11473.192101,-2068.457845
3200.123319,-1184.329507,-11843.295072,-1685.410096
3200.123647,666.185348,-10658.965565,-1915.238745
3200.123975,1554.432478,-10436.903782,0.000000
3200.124302,1628.453072,-11177.109724,1915.238745
3200.124630,1036.288319,-9474.636058,2068.457845
3200.124957,296.082377,-8882.471304,536.266849
3200.125285,-962.267725,-8216.285956,-995.924147
3200.125613,-888.247130,-7179.997637,-2145.067394
3200.125940,0.000000,-7772.162391,-1378.971896
3200.126268,-296.082377,-7772.162391,229.828649
3200.126595,222.061783,-8438.347739,1149.143247
3200.126923,1036.288319,-9844.739029,1685.410096
3200.127251,1776.494261,-11325.150913,766.095498
3200.127578,1998.556043,-11843.295072,-229.828649
3200.127906,1036.288319,-10362.883188,-766.095498
3200.128233,1554.432478,-9622.677246,-1455.581446
3200.128561,444.123565,-9622.677246,-995.924147
3200.128889,444.123565,-9992.780217,689.485948
3200.129216,1776.494261,-9622.677246,842.705048
3200.129544,1406.391290,-9252.574275,689.485948
3200.129871,1480.411884,-9770.718434,76.609550
3200.130199,2368.659014,-8290.306550,-689.485948
3200.130527,814.226536,-9474.636058,-995.924147
3200.130854,-2368.659014,-9474.636058,842.705048
3200.131182,-740.205942,-8586.388927,383.047749
3200.131509,740.205942,-8956.491898,0.000000
3200.131837,1702.473667,-10214.842000,229.828649
3200.132165,2220.617826,-11621.233289,1225.752797
3200.132492,1406.391290,-12139.377449,919.314598
3200.132820,1184.329507,-10140.821405,-689.485948
3200.133147,-518.144159,-9326.594869,-1762.019645
3200.133475,-2960.823768,-8290.306550,-1225.752797
3200.133802,-1554.432478,-8216.285956,-1685.410096
3200.134130,814.226536,-9918.759623,-1762.019645
3200.134458,888.247130,-11547.212695,919.314598
3200.134785,814.226536,-11103.089130,2451.505594
3200.135113,814.226536,-11251.130318,2145.067394
3200.135440,222.061783,-9770.718434,-536.266849
3200.135768,-518.144159,-8142.265362,-2374.896044
3200.136096,-222.061783,-8956.491898,-2374.896044
3200.136423,-148.041188,-8586.388927,-919.314598
3200.136751,1036.288319,-8438.347739,153.219100
3200.137078,814.226536,-8364.327145,1378.971896
3200.137406,962.267725,-10510.924376,1302.362347
3200.137734,888.247130,-12805.562797,0.000000
3200.138061,-222.061783,-11473.192101,-1378.971896
3200.138389,-296.082377,-10436.903782,-2451.505594
3200.138716,370.102971,-10807.006753,-2451.505594
3200.139044,444.123565,-9770.718434,-459.657299
3200.139372,-222.061783,-7846.182985,1532.190996
3200.139699,-222.061783,-8364.327145,1378.971896
3200.140027,-666.185348,-8586.388927,1302.362347
3200.140354,222.061783,-8438.347739,-766.095498
3200.140682,-222.061783,-7254.018232,-1532.190996
3200.141010,-1480.411884,-8290.306550,-383.047749
3200.141337,0.000000,-9770.718434,-766.095498
3200.141665,444.123565,-11769.274478,-919.314598
3200.141992,518.144159,-11843.295072,76.609550
3200.142320,1184.329507,-10436.903782,-306.438199
3200.142648,1406.391290,-11399.171507,0.000000
3200.142975,518.144159,-11029.068536,229.828649
3200.143303,888.247130,-9548.656652,-612.876398
3200.143630,740.205942,-9178.553681,-153.219100
3200.143958,-444.123565,-7772.162391,-306.438199
3200.144286,-1406.391290,-7179.997637,1072.533697
3200.144613,-1258.350101,-7624.121203,306.438199
3200.144941,222.061783,-8956.491898,-383.047749
3200.145268,666.185348,-9326.594869,-766.095498
3200.145596,592.164754,-10066.800811,0.000000
3200.145924,592.164754,-10362.883188,459.657299
3200.146251,518.144159,-10881.027347,995.924147
3200.146579,-888.247130,-9918.759623,0.000000
3200.146906,-740.205942,-10436.903782,-2604.724693
3200.147234,814.226536,-11029.068536,-2681.334243
3200.147561,1998.556043,-10288.862594,-1378.971896
3200.147889,1110.308913,-8808.450710,766.095498
3200.148217,814.226536,-9030.512492,2221.676944
3200.148544,1110.308913,-9770.718434,306.438199
3200.148872,1776.494261,-10066.800811,-766.095498
3200.149199,74.020594,-9178.553681,-919.314598
3200.149527,-666.185348,-7846.182985,-1149.143247
3200.149855,0.000000,-8438.347739,-229.828649
3200.150182,296.082377,-8956.491898,919.314598
3200.150510,1110.308913,-9252.574275,1532.190996
3200.150837,1332.370696,-11103.089130,536.266849
3200.151165,1998.556043,-12509.480420,306.438199
3200.151493,1702.473667,-11029.068536,-1838.629195
3200.151820,0.000000,-9252.574275,-2451.505594
3200.152148,-962.267725,-8660.409521,-1455.581446
3200.152475,148.041188,-9474.636058,-766.095498
3200.152803,296.082377,-11103.089130,0.000000
3200.153131,444.123565,-10436.903782,766.095498
3200.153458,814.226536,-9326.594869,919.314598
3200.153786,518.144159,-9844.739029,919.314598
3200.154113,592.164754,-9326.594869,919.314598
3200.154441,296.082377,-6957.935855,0.000000
3200.154769,-1998.556043,-7698.141797,0.000000
3200.155096,-3034.844362,-9252.574275,306.438199
3200.155424,-1184.329507,-10362.883188,-612.876398
3200.155751,0.000000,-9770.718434,-919.314598
3200.156079,1554.432478,-10510.924376,-1149.143247
3200.156407,814.226536,-13101.645173,306.438199
3200.156734,740.205942,-13101.645173,1072.533697
3200.157062,1110.308913,-9918.759623,-766.095498
3200.157389,-592.164754,-8586.388927,-459.657299
3200.157717,-2072.576638,-7031.956449,229.828649
3200.158045,-1110.308913,-7402.059420,-383.047749
3200.158372,370.102971,-9326.594869,689.485948
3200.158700,666.185348,-9770.718434,612.876398
3200.159027,0.000000,-8438.347739,536.266849
3200.159355,666.185348,-8734.430116,0.000000
3200.159682,1406.391290,-8438.347739,-1762.019645
3200.160010,518.144159,-9918.759623,-2145.067394
3200.160338,-370.102971,-10510.924376,-919.314598
3200.160665,1258.350101,-10510.924376,-842.705048
3200.160993,2220.617826,-11843.295072,-383.047749
3200.161320,1480.411884,-12361.439231,2068.457845
3200.161648,1628.453072,-11251.130318,1225.752797
3200.161976,1480.411884,-11103.089130,-459.657299
3200.162303,666.185348,-10584.944971,-2757.943793
3200.162631,-296.082377,-8438.347739,-3753.867940
3200.162958,-2368.659014,-7476.080014,-1072.533697
3200.163286,-1628.453072,-7698.141797,306.438199
3200.163613,1036.288319,-7920.203579,383.047749
3200.163941,370.102971,-7994.224174,536.266849
3200.164268,74.020594,-10658.965565,1225.752797
3200.164596,814.226536,-11325.150913,153.219100
3200.164923,962.267725,-11325.150913,-612.876398
3200.165251,1110.308913,-11399.171507,-1225.752797
3200.165578,592.164754,-11177.109724,-306.438199
3200.165906,370.102971,-10436.903782,383.047749
3200.166233,1036.288319,-9548.656652,459.657299
3200.166561,814.226536,-9326.594869,76.609550
3200.166889,888.247130,-9326.594869,306.438199
3200.167216,0.000000,-7772.162391,0.000000
3200.167544,-962.267725,-7772.162391,459.657299
3200.167871,-1628.453072,-8290.306550,612.876398
3200.168199,-962.267725,-8512.368333,306.438199
3200.168526,-296.082377,-8438.347739,842.705048
3200.168854,888.247130,-8586.388927,536.266849
3200.169181,1332.370696,-9696.697840,1072.533697
3200.169509,148.041188,-10955.047942,1455.581446
3200.169836,0.000000,-10658.965565,0.000000
3200.170164,-962.267725,-10510.924376,-3217.601092
3200.170491,-962.267725,-9992.780217,-3217.601092
3200.170819,370.102971,-8808.450710,-2451.505594
3200.171146,962.267725,-10362.883188,0.000000
3200.171474,444.123565,-11473.192101,2374.896044
3200.171801,1480.411884,-9622.677246,1072.533697
3200.172129,1406.391290,-9326.594869,-459.657299
3200.172456,-1332.370696,-8882.471304,0.000000
3200.172784,-740.205942,-8290.306550,-1302.362347
3200.173111,-814.226536,-8882.471304,-1302.362347
3200.173439,-962.267725,-8882.471304,-536.266849
3200.173767,1110.308913,-8808.450710,-842.705048
3200.174094,1332.370696,-10658.965565,306.438199
3200.174422,1480.411884,-12361.439231,306.438199
3200.174749,2072.576638,-12287.418637,-1762.019645
3200.175077,888.247130,-11843.295072,-2068.457845
3200.175404,-148.041188,-9918.759623,-2145.067394
3200.175732,444.123565,-9400.615463,-1149.143247
3200.176059,74.020594,-9104.533087,1532.190996
3200.176387,1110.308913,-8808.450710,2528.115143
3200.176714,1924.535449,-9622.677246,1838.629195
3200.177042,1776.494261,-9548.656652,1685.410096
3200.177369,1406.391290,-6883.915261,76.609550
3200.177697,444.123565,-6513.812290,-689.485948
3200.178024,-740.205942,-8068.244768,0.000000
3200.178352,-666.185348,-9030.512492,-153.219100
3200.178679,740.205942,-10066.800811,-689.485948
3200.179007,1924.535449,-11177.109724,-842.705048
3200.179334,2368.659014,-11843.295072,76.609550
3200.179662,1702.473667,-11843.295072,1532.190996
3200.179989,2146.597232,-10510.924376,536.266849
3200.180317,2072.576638,-10436.903782,-459.657299
3200.180645,-222.061783,-9400.615463,383.047749
3200.180972,-1554.432478,-6957.935855,-459.657299
3200.181300,-2072.576638,-6809.894666,-306.438199
3200.181627,-1406.391290,-8068.244768,-536.266849
3200.181955,0.000000,-9030.512492,-383.047749
3200.182282,222.061783,-10362.883188,153.219100
3200.182610,592.164754,-11029.068536,766.095498
3200.182937,1924.535449,-10140.821405,-2221.676944
3200.183265,0.000000,-10955.047942,-2068.457845
3200.183592,-1036.288319,-11177.109724,383.047749
3200.183920,518.144159,-10436.903782,-383.047749
3200.184247,1480.411884,-11695.253884,0.000000
3200.184575,592.164754,-11843.295072,919.314598
3200.184902,370.102971,-11251.130318,0.000000
3200.185230,-370.102971,-9474.636058,-766.095498
3200.185557,-962.267725,-9178.553681,-1685.410096
3200.185885,-2146.597232,-8438.347739,-2374.896044
3200.186212,-3108.864956,-8290.306550,-1378.971896
3200.186540,-2072.576638,-7846.182985,-229.828649
3200.186867,-296.082377,-8290.306550,536.266849
3200.187195,-370.102971,-8808.450710,1838.629195
3200.187523,296.082377,-9178.553681,1762.019645
3200.187850,1554.432478,-11399.171507,689.485948
3200.188178,888.247130,-11621.233289,459.657299
3200.188505,296.082377,-9992.780217,-1225.752797
3200.188833,-666.185348,-8956.491898,-1378.971896
3200.189160,-370.102971,-8882.471304,-459.657299
3200.189488,814.226536,-9474.636058,-612.876398
3200.189815,0.000000,-9844.739029,383.047749
3200.190143,-814.226536,-8734.430116,1455.581446
3200.190470,0.000000,-7994.224174,-306.438199
3200.190798,-888.247130,-8586.388927,-306.438199
3200.191125,-1332.370696,-7624.121203,153.219100
3200.191453,-296.082377,-8438.347739,0.000000
3200.191780,814.226536,-10436.903782,766.095498
3200.192108,1554.432478,-10214.842000,536.266849
3200.192435,1776.494261,-10807.006753,689.485948
3200.192763,0.000000,-10214.842000,0.000000
3200.193090,1036.288319,-11251.130318,-2068.457845
3200.193418,1480.411884,-12213.398043,-2911.162892
3200.193745,1110.308913,-10955.047942,-1532.190996
3200.194073,1702.473667,-9918.759623,-536.266849
3200.194401,2072.576638,-10881.027347,1532.190996
3200.194728,1480.411884,-10288.862594,1378.971896
3200.195056,2368.659014,-9474.636058,0.000000
3200.195383,518.144159,-8882.471304,-612.876398
3200.195711,-296.082377,-8216.285956,-306.438199
3200.196038,-370.102971,-7476.080014,-612.876398
3200.196366,-370.102971,-7994.224174,612.876398
3200.196693,666.185348,-8216.285956,842.705048
3200.197021,2072.576638,-10584.944971,-1685.410096
3200.197348,2368.659014,-12509.480420,-306.438199
3200.197676,2368.659014,-11399.171507,-1225.752797
3200.198003,1480.411884,-11547.212695,-1072.533697
3200.198331,0.000000,-10584.944971,229.828649
3200.198658,370.102971,-9030.512492,0.000000
3200.198986,962.267725,-9548.656652,0.000000
3200.199313,0.000000,-9474.636058,2298.286494
3200.199641,-370.102971,-7846.182985,1532.190996
3200.199968,518.144159,-8290.306550,459.657299
3200.200296,148.041188,-7031.956449,-153.219100
3200.200623,-370.102971,-7328.038826,-612.876398
3200.200951,-2442.679609,-9474.636058,0.000000
3200.201278,-1258.350101,-9622.677246,0.000000
3200.201606,1924.535449,-10066.800811,-1608.800546
3200.201934,1406.391290,-11621.233289,-689.485948
3200.202261,222.061783,-12435.459826,1072.533697
3200.202589,814.226536,-11843.295072,919.314598
3200.202916,370.102971,-10510.924376,-383.047749
3200.203244,-592.164754,-9252.574275,-1302.362347
3200.203571,-2442.679609,-7772.162391,-306.438199
3200.203899,-1924.535449,-8512.368333,0.000000
3200.204226,0.000000,-7994.224174,-1532.190996
3200.204554,74.020594,-9622.677246,-919.314598
3200.204881,-888.247130,-10807.006753,1072.533697
3200.205209,222.061783,-9992.780217,459.657299
3200.205536,666.185348,-9400.615463,-766.095498
3200.205864,666.185348,-10066.800811,-1149.143247
3200.206191,222.061783,-10140.821405,-1072.533697
3200.206519,296.082377,-11325.150913,76.609550
3200.206846,592.164754,-10066.800811,383.047749
3200.207174,1332.370696,-9844.739029,0.000000
3200.207501,222.061783,-11473.192101,842.705048
3200.207829,296.082377,-10658.965565,-306.438199
3200.208156,370.102971,-9918.759623,-1991.848295
3200.208484,-666.185348,-9178.553681,-1608.800546
3200.208812,-1702.473667,-7698.141797,-1225.752797
3200.209139,-962.267725,-7994.224174,0.000000
3200.209467,-1258.350101,-8364.327145,1455.581446
3200.209794,296.082377,-8364.327145,1302.362347
3200.210122,1184.329507,-9474.636058,689.485948
3200.210449,1406.391290,-10510.924376,383.047749
3200.210777,1776.494261,-9474.636058,0.000000
3200.211104,1776.494261,-10658.965565,-536.266849
3200.211432,888.247130,-10955.047942,-383.047749
3200.211759,1036.288319,-10214.842000,-689.485948
3200.212087,1480.411884,-10510.924376,-689.485948
3200.212414,1036.288319,-9918.759623,-383.047749
3200.212742,888.247130,-9474.636058,459.657299
3200.213069,444.123565,-8808.450710,536.266849
3200.213397,518.144159,-8438.347739,-689.485948
3200.213724,222.061783,-8734.430116,-229.828649
3200.214052,0.000000,-8364.327145,153.219100
3200.214379,-148.041188,-7994.224174,459.657299
3200.214707,888.247130,-9474.636058,-383.047749
3200.215034,222.061783,-9474.636058,-153.219100
3200.215362,888.247130,-9622.677246,-153.219100
3200.215690,888.247130,-11843.295072,-689.485948
3200.216017,518.144159,-12361.439231,-612.876398
3200.216345,888.247130,-11029.068536,-1302.362347
3200.216672,1480.411884,-10214.842000,-1532.190996
3200.217000,962.267725,-10066.800811,-689.485948
3200.217327,1702.473667,-10510.924376,766.095498
3200.217655,1258.350101,-9992.780217,306.438199
3200.217982,1480.411884,-9770.718434,536.266849
3200.218310,-370.102971,-7698.141797,0.000000
3200.218637,-1480.411884,-8068.244768,-383.047749
3200.218965,-1184.329507,-7846.182985,-995.924147
3200.219292,-1184.329507,-7920.203579,-383.047749
3200.219620,-1480.411884,-8586.388927,612.876398
3200.219947,518.144159,-9992.780217,0.000000
3200.220275,666.185348,-11769.274478,0.000000
3200.220602,592.164754,-11029.068536,0.000000
3200.220930,888.247130,-10288.862594,-1072.533697
3200.221257,592.164754,-10658.965565,-1072.533697
3200.221585,148.041188,-10066.800811,-229.828649
3200.221912,74.020594,-9178.553681,842.705048
3200.222240,-296.082377,-8586.388927,1302.362347
3200.222568,592.164754,-8290.306550,919.314598
3200.222895,962.267725,-7846.182985,-229.828649
3200.223223,-592.164754,-8586.388927,536.266849
3200.223550,-1850.514855,-9400.615463,306.438199
3200.223878,-2072.576638,-9252.574275,-766.095498
3200.224205,-888.247130,-9474.636058,-1225.752797
3200.224533,1110.308913,-9474.636058,-766.095498
3200.224860,1776.494261,-11769.274478,-919.314598
3200.225188,814.226536,-12657.521608,995.924147
3200.225515,888.247130,-11399.171507,229.828649
3200.225843,888.247130,-9622.677246,-1302.362347
3200.226170,-296.082377,-9104.533087,-1378.971896
3200.226498,-1554.432478,-8808.450710,-383.047749
3200.226825,-814.226536,-9696.697840,-306.438199
3200.227153,0.000000,-9474.636058,153.219100
3200.227480,0.000000,-10066.800811,-459.657299
3200.227808,-444.123565,-10214.842000,536.266849
3200.228135,1332.370696,-9252.574275,0.000000
3200.228463,1628.453072,-9770.718434,-995.924147
3200.228790,1406.391290,-10288.862594,-306.438199
3200.229118,666.185348,-9104.533087,-995.924147
3200.229446,222.061783,-9104.533087,306.438199
3200.229773,888.247130,-8882.471304,689.485948
3200.230101,1702.473667,-9844.739029,689.485948
3200.230428,1480.411884,-12065.356855,1225.752797
3200.230756,1110.308913,-11843.295072,0.000000
3200.231083,1332.370696,-9696.697840,-1378.971896
3200.231411,888.247130,-9178.553681,-1838.629195
3200.231738,0.000000,-7772.162391,0.000000
3200.232066,-222.061783,-8068.244768,153.219100
3200.232393,-814.226536,-8290.306550,1225.752797
3200.232721,148.041188,-7994.224174,536.266849
3200.233048,296.082377,-8068.244768,-612.876398
3200.233376,222.061783,-9178.553681,-229.828649
3200.233703,1184.329507,-9992.780217,0.000000
3200.234031,1924.535449,-10807.006753,0.000000
3200.234358,888.247130,-11251.130318,0.000000
3200.234686,592.164754,-11251.130318,-383.047749
3200.235013,962.267725,-10214.842000,-459.657299
3200.235341,1036.288319,-9770.718434,0.000000
3200.235668,1184.329507,-10807.006753,0.000000
3200.235996,1036.288319,-11325.150913,-766.095498
3200.236324,-518.144159,-8364.327145,-229.828649
3200.236651,-740.205942,-7179.997637,-1685.410096
3200.236979,-2072.576638,-8216.285956,-689.485948
3200.237306,-740.205942,-8290.306550,-306.438199
3200.237634,0.000000,-9030.512492,-306.438199
3200.237961,444.123565,-11103.089130,76.609550
3200.238289,518.144159,-10732.986159,-536.266849
3200.238616,0.000000,-10807.006753,0.000000
3200.238944,-1628.453072,-11843.295072,-383.047749
3200.239271,-740.205942,-11177.109724,-995.924147
3200.239599,1110.308913,-10288.862594,-2757.943793
3200.239926,1036.288319,-11251.130318,-1838.629195
3200.240254,1036.288319,-11103.089130,153.219100
3200.240581,1258.350101,-9770.718434,1685.410096
3200.240909,1406.391290,-8364.327145,995.924147
3200.241236,962.267725,-8290.306550,-153.219100
3200.241564,-1036.288319,-9178.553681,-459.657299
3200.241891,-2442.679609,-7476.080014,76.609550
3200.242219,-1776.494261,-7179.997637,0.000000
3200.242546,-1258.350101,-8586.388927,612.876398
3200.242874,-592.164754,-8882.471304,1532.190996
3200.243202,1406.391290,-10658.965565,229.828649
3200.243529,2294.638420,-11917.315666,76.609550
3200.243857,2146.597232,-11473.192101,-1225.752797
3200.244184,1184.329507,-10436.903782,-2145.067394
3200.244512,0.000000,-8290.306550,-1378.971896
3200.244839,74.020594,-6735.874072,0.000000
3200.245167,666.185348,-9178.553681,1455.581446
3200.245494,0.000000,-10288.862594,2451.505594
3200.245822,888.247130,-9400.615463,1149.143247
3200.246149,1406.391290,-9918.759623,229.828649
3200.246477,1332.370696,-9326.594869,383.047749
3200.246804,592.164754,-7994.224174,-383.047749
3200.247132,-296.082377,-9252.574275,-766.095498
3200.247459,-370.102971,-9030.512492,-1378.971896
3200.247787,1998.556043,-10214.842000,-2911.162892
3200.248114,1406.391290,-11251.130318,-383.047749
3200.248442,740.205942,-12065.356855,1378.971896
3200.248769,1628.453072,-11251.130318,-383.047749
3200.249097,1702.473667,-11399.171507,-229.828649
3200.249424,-666.185348,-10658.965565,76.609550
3200.249752,-518.144159,-9992.780217,-995.924147
3200.250080,-1998.556043,-7846.182985,-229.828649
3200.250407,-592.164754,-8068.244768,-459.657299
3200.250735,518.144159,-9770.718434,-766.095498
3200.251062,74.020594,-11547.212695,536.266849
3200.251390,0.000000,-9548.656652,229.828649
3200.251717,666.185348,-8734.430116,-1685.410096
3200.252045,222.061783,-8956.491898,-1225.752797
3200.252372,518.144159,-8956.491898,-1072.533697
3200.252700,370.102971,-9474.636058,459.657299
3200.253027,222.061783,-9474.636058,1685.410096
3200.253355,962.267725,-10510.924376,1532.190996
3200.253682,370.102971,-11695.253884,1302.362347
3200.254010,74.020594,-9696.697840,0.000000
3200.254337,222.061783,-10658.965565,-919.314598
3200.254665,666.185348,-11621.233289,-1991.848295
3200.254992,74.020594,-8734.430116,-1991.848295
3200.255320,-1110.308913,-7105.977043,-1225.752797
3200.255647,-1480.411884,-7179.997637,0.000000
3200.255975,-296.082377,-7772.162391,459.657299
3200.256302,0.000000,-8068.244768,536.266849
3200.256630,74.020594,-10140.821405,842.705048
3200.256958,444.123565,-10584.944971,689.485948
3200.257285,444.123565,-11029.068536,459.657299
3200.257613,444.123565,-10584.944971,459.657299
3200.257940,1332.370696,-11177.109724,-842.705048
3200.258268,814.226536,-11177.109724,-1072.533697
3200.258595,0.000000,-9622.677246,-612.876398
3200.258923,370.102971,-9030.512492,-1762.019645
3200.259250,0.000000,-9770.718434,-766.095498
3200.259578,-962.267725,-8438.347739,-689.485948
3200.259905,-888.247130,-7920.203579,153.219100
3200.260233,-1110.308913,-9474.636058,306.438199
3200.260557,-296.082377,-9178.553681,-229.828649
3200.260885,666.185348,-8956.491898,-306.438199
3200.261212,0.000000,-10658.965565,0.000000
3200.261540,1258.350101,-10510.924376,306.438199
3200.261868,1406.391290,-10584.944971,459.657299
3200.262195,296.082377,-11029.068536,0.000000
3200.262523,148.041188,-10362.883188,-1455.581446
3200.262851,1110.308913,-10214.842000,-2451.505594
3200.263178,1776.494261,-9474.636058,-1455.581446
3200.263506,962.267725,-9030.512492,-306.438199
3200.263834,666.185348,-10214.842000,1455.581446
3200.264161,888.247130,-10066.800811,1225.752797
3200.264489,814.226536,-9548.656652,76.609550
3200.264816,-888.247130,-9178.553681,766.095498
3200.265144,-518.144159,-7179.997637,0.000000
3200.265472,518.144159,-7920.203579,-383.047749
3200.265799,0.000000,-9104.533087,536.266849
3200.266127,0.000000,-9030.512492,766.095498
3200.266455,518.144159,-8956.491898,0.000000
3200.266782,1480.411884,-10658.965565,-1149.143247
3200.267110,1998.556043,-10955.047942,-1455.581446
3200.267437,1258.350101,-10955.047942,-995.924147
3200.267765,666.185348,-10362.883188,229.828649
3200.268093,740.205942,-9696.697840,459.657299
3200.268420,370.102971,-9770.718434,842.705048
3200.268748,-148.041188,-9474.636058,995.924147
3200.269076,0.000000,-9252.574275,919.314598
3200.269403,296.082377,-9474.636058,-306.438199
3200.269731,444.123565,-8586.388927,-1072.533697
3200.270059,-740.205942,-8808.450710,-1225.752797
3200.270386,-1184.329507,-9992.780217,-766.095498
3200.270714,888.247130,-9326.594869,-1762.019645
3200.271041,1406.391290,-9696.697840,-689.485948
3200.271369,1110.308913,-10955.047942,919.314598
3200.271697,1554.432478,-11695.253884,1302.362347
3200.272024,1702.473667,-11917.315666,766.095498
3200.272352,222.061783,-11547.212695,995.924147
3200.272680,-962.267725,-9622.677246,-689.485948
3200.273007,-1998.556043,-8808.450710,-1302.362347
3200.273335,-1480.411884,-9030.512492,-2298.286494
3200.273662,-1406.391290,-8438.347739,-2374.896044
3200.273990,-1258.350101,-8808.450710,-612.876398
3200.274318,0.000000,-8956.491898,536.266849
3200.274645,1850.514855,-9178.553681,-306.438199
3200.274973,1036.288319,-10066.800811,-306.438199
3200.275301,74.020594,-10362.883188,536.266849
3200.275628,-222.061783,-9844.739029,0.000000
3200.275956,444.123565,-9474.636058,76.609550
3200.276284,888.247130,-9252.574275,459.657299
3200.276611,888.247130,-11399.171507,1225.752797
3200.276939,444.123565,-11325.150913,1762.019645
3200.277266,1258.350101,-9696.697840,-306.438199
3200.277594,-296.082377,-10214.842000,-2604.724693
3200.277922,-814.226536,-8438.347739,-2604.724693
3200.278249,-814.226536,-6587.832884,-1915.238745
3200.278577,-1110.308913,-7772.162391,-306.438199
3200.278905,0.000000,-10214.842000,536.266849
3200.279232,814.226536,-10510.924376,689.485948
3200.279560,1258.350101,-9400.615463,2145.067394
3200.279887,1110.308913,-9548.656652,995.924147
3200.280215,1628.453072,-11177.109724,-689.485948
3200.280543,592.164754,-10732.986159,-229.828649
3200.280870,222.061783,-10140.821405,-919.314598
3200.281198,1184.329507,-9918.759623,-1762.019645
3200.281526,1480.411884,-9548.656652,-1225.752797
3200.281853,1110.308913,-9326.594869,0.000000
3200.282181,518.144159,-9474.636058,0.000000
3200.282509,814.226536,-10658.965565,0.000000
3200.282836,592.164754,-9104.533087,-612.876398
3200.283164,-962.267725,-8660.409521,76.609550
3200.283491,-888.247130,-8512.368333,995.924147
3200.283819,1776.494261,-9104.533087,-153.219100
3200.284147,1184.329507,-10362.883188,1149.143247
3200.284474,-296.082377,-10362.883188,1302.362347
3200.284802,-1036.288319,-10436.903782,-995.924147
3200.285130,-1184.329507,-10807.006753,-2528.115143
3200.285457,-1332.370696,-9326.594869,-2987.772442
3200.285785,740.205942,-9178.553681,-2681.334243
3200.286112,1258.350101,-11251.130318,229.828649
3200.286440,2146.597232,-11843.295072,1991.848295
3200.286768,2072.576638,-10066.800811,459.657299
3200.287095,1110.308913,-9770.718434,689.485948
3200.287423,962.267725,-9326.594869,-459.657299
3200.287751,518.144159,-8734.430116,-1302.362347
3200.288078,-1480.411884,-8068.244768,-536.266849
3200.288406,-1036.288319,-7698.141797,-153.219100
3200.288734,-370.102971,-7994.224174,76.609550
3200.289061,888.247130,-9252.574275,612.876398
3200.289389,1406.391290,-10288.862594,229.828649
3200.289716,1110.308913,-11843.295072,-766.095498
3200.290044,1110.308913,-11103.089130,-1302.362347
3200.290372,444.123565,-9844.739029,-1915.238745
3200.290699,-370.102971,-9474.636058,-383.047749
3200.291027,814.226536,-8956.491898,0.000000
3200.291355,518.144159,-9992.780217,1838.629195
3200.291682,222.061783,-10955.047942,2145.067394
3200.292010,666.185348,-9992.780217,306.438199
3200.292337,814.226536,-8734.430116,-919.314598
3200.292665,-370.102971,-6735.874072,-766.095498
3200.292993,-1332.370696,-7105.977043,-229.828649
3200.293320,-1776.494261,-9326.594869,0.000000
3200.293648,148.041188,-10584.944971,0.000000
3200.293976,1110.308913,-9474.636058,-766.095498
3200.294303,1702.473667,-10955.047942,383.047749
3200.294631,1184.329507,-12065.356855,1608.800546
3200.294959,1702.473667,-10807.006753,995.924147
3200.295286,740.205942,-11029.068536,383.047749
3200.295614,0.000000,-10066.800811,-153.219100
3200.295941,-2146.597232,-7624.121203,-1838.629195
3200.296269,-2590.720797,-7031.956449,-1608.800546
3200.296597,-1258.350101,-7624.121203,-1225.752797
3200.296924,-370.102971,-10881.027347,-536.266849
3200.297252,0.000000,-11621.233289,689.485948
3200.297580,962.267725,-10066.800811,-536.266849
3200.297907,1332.370696,-9992.780217,-1072.533697
3200.298235,1702.473667,-9918.759623,-842.705048
3200.298562,1036.288319,-9474.636058,612.876398
3200.298890,814.226536,-9474.636058,1072.533697
3200.299218,1480.411884,-9918.759623,689.485948
3200.299545,1480.411884,-10140.821405,0.000000
3200.299873,0.000000,-9474.636058,612.876398
3200.300201,-222.061783,-9104.533087,0.000000
3200.300528,-370.102971,-10658.965565,-1685.410096
3200.300856,-1184.329507,-11029.068536,-2451.505594
3200.301184,-1406.391290,-8956.491898,-2451.505594
3200.301511,-666.185348,-8438.347739,-1378.971896
3200.301839,0.000000,-8882.471304,766.095498
3200.302166,962.267725,-9178.553681,1225.752797
3200.302494,518.144159,-9992.780217,1149.143247
3200.302822,222.061783,-9622.677246,919.314598
3200.303149,1850.514855,-9918.759623,-1225.752797
3200.303477,814.226536,-9770.718434,-536.266849
3200.303805,0.000000,-9992.780217,153.219100
3200.304132,370.102971,-10066.800811,-383.047749
3200.304460,1110.308913,-10510.924376,-1302.362347
3200.304787,1184.329507,-10362.883188,-766.095498
3200.305115,1406.391290,-9992.780217,-612.876398
3200.305443,888.247130,-10140.821405,919.314598
3200.305770,296.082377,-9326.594869,1225.752797
3200.306098,-222.061783,-8068.244768,536.266849
3200.306426,-814.226536,-8734.430116,459.657299
3200.306753,740.205942,-7698.141797,-459.657299
3200.307081,148.041188,-7994.224174,306.438199
3200.307409,-1184.329507,-8808.450710,2374.896044
3200.307736,-1702.473667,-9696.697840,0.000000
3200.308064,-1480.411884,-11695.253884,-2451.505594
3200.308391,-222.061783,-10881.027347,-3064.381992
3200.308719,666.185348,-10140.821405,-2451.505594
3200.309047,592.164754,-11843.295072,459.657299
3200.309374,1998.556043,-11991.336260,2068.457845
3200.309702,2442.679609,-10214.842000,689.485948
3200.310030,1406.391290,-9918.759623,-612.876398
3200.310357,0.000000,-9474.636058,-459.657299
3200.310685,-592.164754,-8586.388927,-612.876398
3200.311012,-1110.308913,-7254.018232,-919.314598
3200.311340,-1332.370696,-6809.894666,-612.876398
3200.311668,-814.226536,-8364.327145,0.000000
3200.311995,814.226536,-11103.089130,1225.752797
3200.312323,1702.473667,-11473.192101,766.095498
3200.312651,2516.700203,-11769.274478,-383.047749
3200.312978,814.226536,-11325.150913,-153.219100
3200.313306,740.205942,-9622.677246,-995.924147
3200.313634,222.061783,-9400.615463,-1072.533697
3200.313961,1258.350101,-10066.800811,153.219100
3200.314289,1332.370696,-9474.636058,459.657299
3200.314616,518.144159,-10066.800811,1149.143247
3200.314944,-222.061783,-9178.553681,689.485948
3200.315272,962.267725,-7994.224174,-1149.143247
3200.315599,148.041188,-7254.018232,-536.266849
3200.315927,-1258.350101,-7920.203579,383.047749
3200.316255,-2368.659014,-9326.594869,-689.485948
3200.316582,0.000000,-9992.780217,689.485948
3200.316910,2442.679609,-9400.615463,-383.047749
3200.317237,2738.761985,-10807.006753,229.828649
3200.317565,2368.659014,-12213.398043,1838.629195
3200.317893,2812.782580,-11325.150913,612.876398
3200.318220,1036.288319,-9696.697840,-229.828649
3200.318548,-1036.288319,-9548.656652,-536.266849
3200.318876,-2442.679609,-7254.018232,-1225.752797
3200.319203,-2812.782580,-7402.059420,-1915.238745
3200.319531,-3256.906145,-9844.739029,-229.828649
3200.319859,-814.226536,-11251.130318,-612.876398
3200.320186,0.000000,-10288.862594,153.219100
3200.320514,1850.514855,-10288.862594,153.219100
3200.320841,2368.659014,-9474.636058,-536.266849
3200.321169,1480.411884,-10881.027347,-383.047749
3200.321497,814.226536,-9474.636058,-229.828649
3200.321824,888.247130,-8364.327145,-1149.143247
3200.322152,296.082377,-9030.512492,-383.047749
3200.322480,1406.391290,-9548.656652,383.047749
3200.322807,666.185348,-11547.212695,1072.533697
3200.323135,1776.494261,-12879.583391,995.924147
3200.323462,296.082377,-11325.150913,-1225.752797
3200.323790,-814.226536,-10955.047942,-2451.505594
3200.324118,-1702.473667,-7920.203579,-2451.505594
3200.324445,-740.205942,-7179.997637,-1455.581446
3200.324773,-444.123565,-9770.718434,306.438199
3200.325101,1480.411884,-10584.944971,842.705048
3200.325428,1998.556043,-7846.182985,612.876398
3200.325756,814.226536,-7624.121203,459.657299
3200.326084,0.000000,-8660.409521,536.266849
3200.326411,370.102971,-9474.636058,-1225.752797
3200.326739,-1036.288319,-9844.739029,-995.924147
3200.327066,-814.226536,-10362.883188,-1149.143247
3200.327394,296.082377,-10732.986159,-689.485948
3200.327722,1258.350101,-11399.171507,1608.800546
3200.328049,1850.514855,-10066.800811,536.266849
3200.328377,1480.411884,-9992.780217,229.828649
3200.328705,74.020594,-10362.883188,153.219100
3200.329032,-296.082377,-7920.203579,-689.485948
3200.329360,-1110.308913,-6365.771101,0.000000
3200.329688,-740.205942,-7550.100608,766.095498
3200.330015,148.041188,-7994.224174,612.876398
3200.330343,888.247130,-9548.656652,383.047749
3200.330670,1110.308913,-10658.965565,76.609550
3200.330998,-592.164754,-11695.253884,0.000000
3200.331326,-1110.308913,-11695.253884,-153.219100
3200.331653,-2146.597232,-9844.739029,-2451.505594
3200.331981,-666.185348,-10066.800811,-2911.162892
3200.332309,1776.494261,-11473.192101,-2298.286494
3200.332636,1924.535449,-11695.253884,153.219100
3200.332964,2294.638420,-10362.883188,2068.457845
3200.333291,3404.947333,-10066.800811,383.047749
3200.333619,1924.535449,-9474.636058,-689.485948
3200.333947,0.000000,-9326.594869,-383.047749
3200.334274,-1998.556043,-8068.244768,-842.705048
3200.334602,-2294.638420,-6957.935855,-689.485948
3200.334930,-962.267725,-9400.615463,-306.438199
3200.335257,0.000000,-10362.883188,995.924147
3200.335585,1110.308913,-9104.533087,1991.848295
3200.335913,3182.885551,-11325.150913,766.095498
3200.336240,2886.803174,-12065.356855,0.000000
3200.336568,962.267725,-10510.924376,-842.705048
3200.336895,-370.102971,-8068.244768,-1532.190996
3200.337223,0.000000,-7476.080014,-995.924147
3200.337551,-222.061783,-8808.450710,0.000000
3200.337878,370.102971,-11029.068536,1378.971896
3200.338206,296.082377,-11695.253884,1915.238745
3200.338534,814.226536,-9474.636058,536.266849
3200.338861,1554.432478,-9992.780217,-306.438199
3200.339189,0.000000,-7920.203579,842.705048
3200.339516,-740.205942,-5921.647536,-995.924147
3200.339844,-2146.597232,-7179.997637,-612.876398
3200.340172,-740.205942,-9992.780217,-1149.143247
3200.340499,1184.329507,-11103.089130,-612.876398
3200.340827,3182.885551,-11325.150913,919.314598
3200.341155,3478.967927,-10955.047942,1532.190996
3200.341482,2886.803174,-12805.562797,1149.143247
3200.341810,1332.370696,-10510.924376,0.000000
3200.342138,-1258.350101,-9548.656652,-1838.629195
3200.342465,-3627.009116,-8512.368333,-1149.143247
3200.342793,-3108.864956,-8586.388927,-1149.143247
3200.343120,-2368.659014,-9622.677246,-1225.752797
3200.343448,-1406.391290,-10140.821405,-766.095498
3200.343776,-370.102971,-10140.821405,-153.219100
3200.344103,740.205942,-9844.739029,-1225.752797
3200.344431,740.205942,-9474.636058,-306.438199
3200.344759,1184.329507,-9030.512492,-842.705048
3200.345086,1258.350101,-9030.512492,-1915.238745
3200.345414,1036.288319,-10510.924376,306.438199
3200.345741,740.205942,-10140.821405,1685.410096
3200.346069,1110.308913,-11917.315666,1838.629195
3200.346397,1110.308913,-11991.336260,1455.581446
3200.346724,1110.308913,-10436.903782,-153.219100
3200.347052,-296.082377,-10584.944971,-1685.410096
3200.347380,-592.164754,-9474.636058,-1915.238745
3200.347707,-888.247130,-7994.224174,-2145.067394
3200.348035,-1184.329507,-7698.141797,-536.266849
3200.348363,-1184.329507,-7105.977043,919.314598
3200.348690,814.226536,-7402.059420,459.657299
3200.349018,1110.308913,-8956.491898,1072.533697
3200.349345,1258.350101,-10732.986159,1225.752797
3200.349673,1628.453072,-10955.047942,689.485948
3200.350001,1702.473667,-10881.027347,229.828649
3200.350328,814.226536,-10362.883188,-612.876398
3200.350656,814.226536,-11177.109724,-1455.581446
3200.350984,-296.082377,-10584.944971,-995.924147
3200.351311,740.205942,-9400.615463,-1608.800546
3200.351639,0.000000,-9622.677246,-76.609550
3200.351966,0.000000,-9030.512492,0.000000
3200.352294,-962.267725,-7105.977043,76.609550
3200.352622,-444.123565,-8660.409521,76.609550
3200.352949,-592.164754,-8068.244768,-229.828649
3200.353277,-296.082377,-8882.471304,-459.657299
3200.353605,814.226536,-9548.656652,536.266849
3200.353932,2072.576638,-9178.553681,229.828649
3200.354260,1554.432478,-10066.800811,1685.410096
3200.354588,1258.350101,-12139.377449,1455.581446
3200.354915,0.000000,-11843.295072,-459.657299
3200.355243,-370.102971,-10288.862594,-2451.505594
3200.355570,0.000000,-8808.450710,-4213.525239
3200.355898,-592.164754,-10214.842000,-2374.896044
3200.356226,0.000000,-10807.006753,-229.828649
3200.356553,1258.350101,-10066.800811,612.876398
3200.356881,1554.432478,-9770.718434,1072.533697
3200.357209,518.144159,-10658.965565,689.485948
3200.357536,-592.164754,-8956.491898,536.266849
3200.357864,-444.123565,-7031.956449,536.266849
3200.358191,444.123565,-7846.182985,-612.876398
3200.358519,0.000000,-9400.615463,459.657299
3200.358847,296.082377,-9400.615463,1685.410096
3200.359174,2220.617826,-10362.883188,919.314598
3200.359502,2812.782580,-11177.109724,76.609550
3200.359830,1554.432478,-11103.089130,-766.095498
3200.360157,-296.082377,-9548.656652,-1149.143247
3200.360485,-1850.514855,-7476.080014,-1225.752797
3200.360813,-962.267725,-9030.512492,-1532.190996
3200.361140,-592.164754,-9844.739029,536.266849
3200.361468,-888.247130,-9474.636058,2528.115143
3200.361795,222.061783,-9474.636058,2068.457845
3200.362123,1776.494261,-9104.533087,459.657299
3200.362450,1480.411884,-8512.368333,536.266849
3200.362778,370.102971,-7179.997637,0.000000
3200.363106,-1184.329507,-6661.853478,-229.828649
3200.363433,-1702.473667,-8068.244768,-1072.533697
3200.363761,-222.061783,-11843.295072,-1915.238745
3200.364088,1184.329507,-13471.748144,-766.095498
3200.364416,2738.761985,-12583.501014,-306.438199
3200.364743,3256.906145,-11843.295072,1149.143247
3200.365071,2294.638420,-11917.315666,1225.752797
3200.365398,888.247130,-10362.883188,459.657299
3200.365726,-518.144159,-8512.368333,-536.266849
3200.366053,-2960.823768,-6069.688724,-842.705048
3200.366381,-3627.009116,-6365.771101,-1762.019645
3200.366709,-2368.659014,-8364.327145,-1455.581446
3200.367036,-888.247130,-9696.697840,-1225.752797
3200.367364,148.041188,-10214.842000,-153.219100
3200.367691,1406.391290,-11251.130318,-229.828649
3200.368019,3775.050304,-11547.212695,-1915.238745
3200.368346,2442.679609,-11621.233289,-1378.971896
3200.368674,962.267725,-10807.006753,383.047749
3200.369001,148.041188,-8586.388927,536.266849
3200.369329,1998.556043,-10066.800811,919.314598
3200.369656,2294.638420,-10955.047942,1608.800546
3200.369984,148.041188,-10066.800811,1302.362347
3200.370311,-1036.288319,-8586.388927,536.266849
3200.370639,296.082377,-8438.347739,-2221.676944
3200.370967,-296.082377,-8438.347739,-3217.601092
3200.371294,-1554.432478,-8216.285956,-2068.457845
3200.371622,-1850.514855,-7105.977043,0.000000
3200.371949,-1110.308913,-8290.306550,612.876398
3200.372277,1184.329507,-9622.677246,995.924147
3200.372604,2368.659014,-10584.944971,919.314598
3200.372932,2442.679609,-11473.192101,1685.410096
3200.373259,2664.741391,-11177.109724,1762.019645
3200.373587,2368.659014,-11325.150913,-306.438199
3200.373914,962.267725,-9918.759623,-2451.505594
3200.374242,148.041188,-8438.347739,-2757.943793
3200.374569,-1776.494261,-8216.285956,-1685.410096
3200.374897,-814.226536,-10658.965565,0.000000
3200.375225,-444.123565,-11399.171507,0.000000
3200.375552,-888.247130,-9622.677246,-383.047749
3200.375880,-888.247130,-8808.450710,0.000000
3200.376207,-592.164754,-8364.327145,153.219100
3200.376535,444.123565,-9400.615463,536.266849
3200.376862,962.267725,-9918.759623,0.000000
3200.377190,1036.288319,-9252.574275,229.828649
3200.377517,2146.597232,-9104.533087,-229.828649
3200.377845,2738.761985,-10362.883188,383.047749
3200.378172,1184.329507,-10066.800811,1991.848295
3200.378500,-370.102971,-11251.130318,1225.752797
3200.378828,-1628.453072,-11547.212695,-2451.505594
3200.379155,-2146.597232,-10362.883188,-4903.011187
3200.379483,-1554.432478,-9474.636058,-4596.572988
3200.379810,-740.205942,-9548.656652,-842.705048
3200.380138,962.267725,-9992.780217,1762.019645
3200.380465,1924.535449,-10140.821405,2145.067394
3200.380793,1406.391290,-9548.656652,1838.629195
3200.381120,0.000000,-8290.306550,766.095498
3200.381448,0.000000,-6809.894666,0.000000
3200.381775,-518.144159,-5773.606348,-383.047749
3200.382103,-666.185348,-9252.574275,-153.219100
3200.382430,296.082377,-11177.109724,-229.828649
3200.382758,1628.453072,-11621.233289,-383.047749
3200.383086,2590.720797,-12583.501014,229.828649
3200.383413,1850.514855,-11843.295072,0.000000
3200.383741,0.000000,-9770.718434,-459.657299
3200.384068,-1258.350101,-8364.327145,-1608.800546
3200.384396,-1628.453072,-8364.327145,-1302.362347
3200.384723,-1110.308913,-8808.450710,229.828649
3200.385051,74.020594,-8734.430116,2068.457845
3200.385378,1258.350101,-7994.224174,2374.896044
3200.385706,1406.391290,-9252.574275,612.876398
3200.386033,1406.391290,-10658.965565,0.000000
3200.386361,1406.391290,-9770.718434,-1225.752797
3200.386688,-1110.308913,-8808.450710,-1838.629195
3200.387016,-2146.597232,-10362.883188,-1378.971896
3200.387344,-370.102971,-10955.047942,-1302.362347
3200.387671,1998.556043,-12361.439231,-536.266849
3200.387999,3034.844362,-13101.645173,-383.047749
3200.388326,2072.576638,-10362.883188,1991.848295
3200.388654,666.185348,-9474.636058,1149.143247
3200.388981,592.164754,-7624.121203,0.000000
3200.389309,-740.205942,-6587.832884,-919.314598
3200.389636,-3108.864956,-7328.038826,-459.657299
3200.389964,-3108.864956,-7698.141797,-842.705048
3200.390291,-1628.453072,-9474.636058,-1072.533697
3200.390619,222.061783,-10732.986159,-995.924147
3200.390947,518.144159,-11473.192101,0.000000
3200.391274,1332.370696,-10955.047942,0.000000
3200.391602,2590.720797,-11251.130318,-995.924147
3200.391929,2072.576638,-12065.356855,-1072.533697
3200.392257,1776.494261,-9622.677246,-995.924147
3200.392584,1776.494261,-7698.141797,536.266849
3200.392912,814.226536,-8586.388927,1762.019645
3200.393239,962.267725,-10955.047942,1685.410096
3200.393567,0.000000,-11103.089130,306.438199
3200.393894,370.102971,-9030.512492,-1532.190996
3200.394222,0.000000,-9400.615463,-2221.676944
3200.394549,-888.247130,-9992.780217,-2068.457845
3200.394877,74.020594,-8808.450710,-459.657299
3200.395205,148.041188,-9474.636058,459.657299
3200.395532,74.020594,-9474.636058,766.095498
3200.395860,2220.617826,-9918.759623,-459.657299
3200.396187,2368.659014,-10732.986159,919.314598
3200.396515,1998.556043,-9770.718434,1685.410096
3200.396842,1924.535449,-11177.109724,383.047749
3200.397170,1406.391290,-11991.336260,-612.876398
3200.397497,-222.061783,-10510.924376,-2068.457845
3200.397825,-2072.576638,-8734.430116,-2298.286494
3200.398152,-1628.453072,-8808.450710,-1225.752797
3200.398480,-962.267725,-9326.594869,229.828649
3200.398808,-222.061783,-9992.780217,995.924147
3200.399135,-888.247130,-9104.533087,1072.533697
3200.399463,-592.164754,-8438.347739,306.438199
3200.399790,370.102971,-7105.977043,-306.438199
3200.400118,0.000000,-7920.203579,-612.876398
3200.400445,592.164754,-8660.409521,1072.533697
3200.400773,1406.391290,-9696.697840,459.657299
3200.401100,1924.535449,-10436.903782,536.266849
3200.401428,1184.329507,-11473.192101,995.924147
3200.401755,0.000000,-11029.068536,1072.533697
3200.402083,-1628.453072,-9474.636058,-306.438199
3200.402410,-1184.329507,-10214.842000,-2528.115143
3200.402738,-1332.370696,-9178.553681,-3524.039291
3200.403066,-1776.494261,-10140.821405,-1915.238745
3200.403393,518.144159,-9918.759623,766.095498
3200.403721,1998.556043,-9326.594869,1915.238745
3200.404048,2146.597232,-8438.347739,2374.896044
3200.404376,296.082377,-9030.512492,1455.581446
3200.404703,740.205942,-9326.594869,-689.485948
3200.405031,0.000000,-8660.409521,-1991.848295
3200.405358,296.082377,-9548.656652,-1072.533697
3200.405686,-370.102971,-9548.656652,0.000000
3200.406013,148.041188,-10066.800811,229.828649
3200.406341,2960.823768,-13323.706956,-229.828649
3200.406668,2960.823768,-13175.665768,-766.095498
3200.406996,296.082377,-9770.718434,-229.828649
3200.407324,-370.102971,-7920.203579,-536.266849
3200.407651,-1036.288319,-7031.956449,-919.314598
3200.407979,-1406.391290,-7328.038826,-689.485948
3200.408306,-1036.288319,-8216.285956,459.657299
3200.408634,518.144159,-10214.842000,2604.724693
3200.408961,1998.556043,-10066.800811,1378.971896
3200.409289,2368.659014,-10732.986159,76.609550
3200.409616,2442.679609,-10140.821405,-689.485948
3200.409944,1554.432478,-9696.697840,-1455.581446
3200.410271,-962.267725,-10214.842000,-1149.143247
3200.410599,-518.144159,-10436.903782,-383.047749
3200.410927,1554.432478,-9696.697840,-1072.533697
3200.411254,2812.782580,-11103.089130,842.705048
3200.411582,1258.350101,-10510.924376,2068.457845
3200.411909,888.247130,-9992.780217,1838.629195
3200.412237,-296.082377,-7994.224174,995.924147
3200.412564,-1480.411884,-7624.121203,-919.314598
3200.412892,-3923.091493,-6957.935855,-536.266849
3200.413219,-4219.173869,-6883.915261,-1685.410096
3200.413547,-2516.700203,-8586.388927,-2068.457845
3200.413874,370.102971,-10955.047942,-1455.581446
3200.414202,444.123565,-11251.130318,0.000000
3200.414529,1776.494261,-11843.295072,536.266849
3200.414857,2664.741391,-11103.089130,76.609550
3200.415185,3330.926739,-10140.821405,-1149.143247
3200.415512,1110.308913,-9770.718434,-459.657299
3200.415840,222.061783,-10214.842000,-306.438199
3200.416167,0.000000,-9400.615463,153.219100
3200.416495,-444.123565,-9474.636058,459.657299
3200.416822,-888.247130,-9548.656652,153.219100
3200.417150,-370.102971,-9992.780217,-842.705048
3200.417477,0.000000,-10362.883188,-1149.143247
3200.417805,0.000000,-9622.677246,-1225.752797
3200.418132,-1110.308913,-8216.285956,-1455.581446
3200.418460,592.164754,-9104.533087,-1302.362347
3200.418787,-444.123565,-9474.636058,306.438199
3200.419115,148.041188,-9548.656652,306.438199
3200.419443,2368.659014,-10436.903782,612.876398
3200.419770,2664.741391,-12213.398043,842.705048
3200.420098,1480.411884,-11991.336260,689.485948
3200.420425,1258.350101,-10362.883188,0.000000
3200.420753,296.082377,-8438.347739,-1685.410096
3200.421080,-222.061783,-9770.718434,-1685.410096
3200.421408,-1406.391290,-9474.636058,-919.314598
3200.421735,-1628.453072,-8660.409521,689.485948
3200.422063,-1110.308913,-7920.203579,766.095498
3200.422390,148.041188,-7698.141797,76.609550
3200.422718,0.000000,-7254.018232,1685.410096
3200.423046,0.000000,-8882.471304,459.657299
3200.423373,370.102971,-9326.594869,842.705048
3200.423701,1406.391290,-9474.636058,-229.828649
3200.424028,814.226536,-9474.636058,0.000000
3200.424356,1702.473667,-9622.677246,766.095498
3200.424683,3330.926739,-10066.800811,-153.219100
3200.425011,1998.556043,-11547.212695,383.047749
3200.425338,0.000000,-11621.233289,842.705048
3200.425666,-1258.350101,-10881.027347,-2374.896044
3200.425993,-1554.432478,-8438.347739,-3753.867940
3200.426321,-814.226536,-7105.977043,-3753.867940
3200.426648,74.020594,-10066.800811,0.000000
3200.426976,1332.370696,-11843.295072,2068.457845
3200.427304,1258.350101,-10807.006753,1838.629195
3200.427631,1554.432478,-9844.739029,-459.657299
3200.427959,1258.350101,-9252.574275,-1225.752797
3200.428286,1406.391290,-10584.944971,-689.485948
3200.428614,962.267725,-10881.027347,536.266849
3200.428941,1258.350101,-9918.759623,-306.438199
3200.429269,518.144159,-9548.656652,-919.314598
3200.429596,1406.391290,-10955.047942,-1608.800546
3200.429924,1702.473667,-10732.986159,76.609550
3200.430251,888.247130,-10584.944971,306.438199
3200.430579,-814.226536,-10288.862594,153.219100
3200.430906,-1924.535449,-8956.491898,-612.876398
3200.431234,-2442.679609,-7105.977043,-612.876398
3200.431562,-1332.370696,-6883.915261,1072.533697
3200.431889,-296.082377,-8364.327145,2298.286494
3200.432217,888.247130,-10584.944971,2451.505594
3200.432544,1480.411884,-10732.986159,-229.828649
3200.432872,1776.494261,-9548.656652,-1838.629195
3200.433199,1702.473667,-8068.244768,-1608.800546
3200.433527,666.185348,-8660.409521,459.657299
3200.433854,-888.247130,-9918.759623,1532.190996
3200.434182,740.205942,-10658.965565,306.438199
3200.434509,518.144159,-11103.089130,-229.828649
3200.434837,1110.308913,-10436.903782,306.438199
3200.435165,296.082377,-9252.574275,1685.410096
3200.435492,0.000000,-8512.368333,1915.238745
3200.435820,-296.082377,-7698.141797,689.485948
3200.436147,-1776.494261,-9548.656652,-1302.362347
3200.436475,-2886.803174,-7994.224174,-2145.067394
3200.436802,-1480.411884,-7550.100608,-2987.772442
3200.437130,-1110.308913,-8438.347739,-1455.581446
3200.437457,148.041188,-10436.903782,-306.438199
3200.437785,1110.308913,-12435.459826,76.609550
3200.438112,2590.720797,-12879.583391,306.438199
3200.438440,2442.679609,-12287.418637,306.438199
3200.438767,2886.803174,-11991.336260,0.000000
3200.439095,666.185348,-9474.636058,536.266849
3200.439423,74.020594,-9252.574275,-229.828649
3200.439750,0.000000,-9844.739029,-612.876398
3200.440078,-518.144159,-9844.739029,-919.314598
3200.440405,-1036.288319,-8216.285956,-1149.143247
3200.440733,296.082377,-9178.553681,-383.047749
3200.441060,-148.041188,-8512.368333,-1072.533697
3200.441388,-222.061783,-9326.594869,-1072.533697
3200.441715,-148.041188,-9918.759623,0.000000
3200.442043,370.102971,-9696.697840,383.047749
3200.442370,888.247130,-9770.718434,459.657299
3200.442698,2368.659014,-11251.130318,995.924147
3200.443025,1776.494261,-11843.295072,1302.362347
3200.443353,2516.700203,-11621.233289,689.485948
3200.443681,1480.411884,-9844.739029,-766.095498
3200.444008,0.000000,-9252.574275,-1532.190996
3200.444336,-1110.308913,-7698.141797,-1225.752797
3200.444663,-1702.473667,-7105.977043,-459.657299
3200.444991,-1702.473667,-7550.100608,919.314598
3200.445318,-1332.370696,-8216.285956,0.000000
3200.445646,-444.123565,-8808.450710,76.609550
3200.445973,-148.041188,-9474.636058,536.266849
3200.446301,370.102971,-9622.677246,1149.143247
3200.446628,1554.432478,-9918.759623,919.314598
3200.446956,2146.597232,-10436.903782,76.609550
3200.447284,2220.617826,-11029.068536,0.000000
3200.447611,2368.659014,-10510.924376,383.047749
3200.447939,2368.659014,-10140.821405,-612.876398
3200.448266,1702.473667,-9992.780217,-612.876398
3200.448594,-148.041188,-8956.491898,-306.438199
3200.448921,-2146.597232,-9030.512492,-1072.533697
3200.449249,-2886.803174,-10140.821405,-1532.190996
3200.449576,-2664.741391,-9844.739029,-2145.067394
3200.449904,-1850.514855,-8512.368333,-2451.505594
3200.450231,-1036.288319,-9474.636058,-153.219100
3200.450559,0.000000,-10658.965565,1149.143247
3200.450886,2442.679609,-11029.068536,383.047749
3200.451214,2220.617826,-10214.842000,0.000000
3200.451542,1628.453072,-10362.883188,-306.438199
3200.451869,518.144159,-9400.615463,-536.266849
3200.452197,296.082377,-8438.347739,-1072.533697
3200.452524,0.000000,-9696.697840,-689.485948
3200.452852,-222.061783,-11843.295072,-612.876398
3200.453179,-148.041188,-10955.047942,-689.485948
3200.453507,0.000000,-10584.944971,-153.219100
3200.453834,-1036.288319,-10140.821405,383.047749
3200.454162,-1036.288319,-8660.409521,459.657299
3200.454489,-740.205942,-7698.141797,0.000000
3200.454817,-1110.308913,-7624.121203,0.000000
3200.455144,-518.144159,-8068.244768,-229.828649
3200.455472,1184.329507,-8438.347739,0.000000
3200.455800,1776.494261,-9326.594869,1225.752797
3200.456127,1480.411884,-9770.718434,1302.362347
3200.456455,740.205942,-11103.089130,459.657299
3200.456782,1036.288319,-10066.800811,76.609550
3200.457110,1702.473667,-9030.512492,-1149.143247
3200.457437,444.123565,-10658.965565,0.000000
3200.457765,-814.226536,-10510.924376,766.095498
3200.458092,888.247130,-9474.636058,536.266849
3200.458420,1406.391290,-9252.574275,229.828649
3200.458747,740.205942,-8660.409521,76.609550
3200.459075,-148.041188,-9030.512492,919.314598
3200.459403,-518.144159,-7402.059420,-842.705048
3200.459730,-518.144159,-7772.162391,-1991.848295
3200.460058,-962.267725,-9178.553681,-2298.286494
3200.460385,-1184.329507,-9252.574275,-1302.362347
3200.460713,-962.267725,-10436.903782,-536.266849
3200.461040,666.185348,-11917.315666,0.000000
3200.461368,2146.597232,-13175.665768,689.485948
3200.461695,3108.864956,-12805.562797,229.828649
3200.462023,3256.906145,-12139.377449,919.314598
3200.462350,2072.576638,-10807.006753,-306.438199
3200.462678,74.020594,-9326.594869,-612.876398
3200.463005,-814.226536,-6587.832884,-1608.800546
3200.463333,-1628.453072,-5403.503377,-919.314598
3200.463661,-592.164754,-8142.265362,-612.876398
3200.463988,-592.164754,-10955.047942,306.438199
3200.464316,370.102971,-11843.295072,229.828649
3200.464643,148.041188,-10436.903782,-536.266849
3200.464971,222.061783,-9770.718434,-689.485948
3200.465298,1184.329507,-9992.780217,-153.219100
3200.465626,2516.700203,-11029.068536,612.876398
3200.465953,2886.803174,-11473.192101,76.609550
3200.466281,3478.967927,-12139.377449,76.609550
3200.466608,2812.782580,-9474.636058,-536.266849
3200.466936,296.082377,-7179.997637,76.609550
3200.467264,-1332.370696,-8512.368333,76.609550
3200.467591,-1776.494261,-9030.512492,-1455.581446
3200.467919,-3330.926739,-8438.347739,-1991.848295
3200.468246,-2072.576638,-8142.265362,-2221.676944
3200.468574,-1332.370696,-7920.203579,-995.924147
3200.468901,-518.144159,-8216.285956,1838.629195
3200.469229,74.020594,-10288.862594,2068.457845
3200.469556,0.000000,-11843.295072,1302.362347
3200.469884,1110.308913,-10584.944971,-612.876398
3200.470211,2590.720797,-8216.285956,-1532.190996
3200.470539,1628.453072,-8882.471304,0.000000
3200.470867,740.205942,-9622.677246,1762.019645
3200.471194,1110.308913,-11621.233289,1225.752797
3200.471522,-962.267725,-10658.965565,0.000000
3200.471849,-1850.514855,-9400.615463,-1915.238745
3200.472177,-2146.597232,-8808.450710,-2298.286494
3200.472504,-666.185348,-8808.450710,-1225.752797
3200.472832,-814.226536,-9474.636058,919.314598
3200.473159,0.000000,-11547.212695,536.266849
3200.473487,-962.267725,-10658.965565,-153.219100
3200.473814,296.082377,-9400.615463,-1762.019645
3200.474142,1480.411884,-7105.977043,-2145.067394
3200.474469,1332.370696,-8808.450710,229.828649
3200.474797,2294.638420,-11029.068536,2221.676944
3200.475125,1702.473667,-11621.233289,919.314598
3200.475452,518.144159,-10214.842000,0.000000
3200.475780,1554.432478,-10140.821405,-1532.190996
3200.476107,222.061783,-9770.718434,-1149.143247
3200.476435,0.000000,-10140.821405,-766.095498
3200.476762,-592.164754,-9918.759623,-1378.971896
3200.477090,-1110.308913,-9326.594869,-1532.190996
3200.477417,0.000000,-8956.491898,0.000000
3200.477745,1628.453072,-7920.203579,1762.019645
3200.478072,1406.391290,-7105.977043,2528.115143
3200.478400,1406.391290,-9326.594869,1072.533697
3200.478728,592.164754,-10362.883188,-766.095498
3200.479055,-444.123565,-9400.615463,-1915.238745
3200.479383,-666.185348,-8586.388927,-1225.752797
3200.479710,1036.288319,-9918.759623,153.219100
3200.480038,1110.308913,-11547.212695,1378.971896
3200.480365,1332.370696,-12509.480420,383.047749
3200.480693,1406.391290,-12435.459826,-842.705048
3200.481020,2220.617826,-10362.883188,-1149.143247
3200.481348,814.226536,-6291.750507,0.000000
3200.481675,-1332.370696,-6217.729913,1532.190996
3200.482003,-2812.782580,-7402.059420,1378.971896
3200.482331,-1406.391290,-10140.821405,0.000000
3200.482658,-1036.288319,-9104.533087,-1608.800546
3200.482986,0.000000,-9104.533087,-1915.238745
3200.483313,222.061783,-9844.739029,-536.266849
3200.483641,1776.494261,-10807.006753,306.438199
3200.483968,1258.350101,-11399.171507,0.000000
3200.484296,2368.659014,-11621.233289,-1378.971896
3200.484623,2146.597232,-11029.068536,-1455.581446
3200.484951,2072.576638,-9770.718434,-306.438199
3200.485278,1406.391290,-8068.244768,1072.533697
3200.485606,1110.308913,-9474.636058,1302.362347
3200.485934,222.061783,-10214.842000,842.705048
3200.486261,-666.185348,-9178.553681,-689.485948
3200.486589,-1998.556043,-7920.203579,-1991.848295
3200.486916,-1110.308913,-7550.100608,-1915.238745
3200.487244,-1258.350101,-8734.430116,-1378.971896
3200.487571,-1332.370696,-11177.109724,536.266849
3200.487899,-148.041188,-11547.212695,383.047749
3200.488226,1554.432478,-11177.109724,-689.485948
3200.488554,2664.741391,-9992.780217,-919.314598
3200.488881,3775.050304,-10584.944971,-536.266849
3200.489209,2294.638420,-10955.047942,1378.971896
3200.489536,1702.473667,-11177.109724,842.705048
3200.489864,296.082377,-9104.533087,-459.657299
3200.490192,-1036.288319,-8956.491898,-1302.362347
3200.490519,-1998.556043,-8808.450710,-1302.362347
3200.490847,-1406.391290,-9030.512492,-536.266849
3200.491174,-1998.556043,-8438.347739,229.828649
3200.491502,-1406.391290,-9696.697840,-383.047749
3200.491829,-518.144159,-9844.739029,-1608.800546
3200.492157,-740.205942,-7772.162391,-766.095498
3200.492484,0.000000,-7994.224174,0.000000
3200.492812,1628.453072,-9178.553681,995.924147
3200.493139,1998.556043,-9770.718434,995.924147
3200.493467,1702.473667,-10584.944971,1685.410096
3200.493795,518.144159,-10510.924376,1378.971896
3200.494122,1110.308913,-10066.800811,0.000000
3200.494450,1110.308913,-9918.759623,76.609550
3200.494777,-814.226536,-9474.636058,-306.438199
3200.495105,-1554.432478,-9992.780217,-1378.971896
3200.495432,-888.247130,-9548.656652,-1685.410096
3200.495760,-370.102971,-8438.347739,-1072.533697
3200.496087,222.061783,-8586.388927,1302.362347
3200.496415,-666.185348,-8586.388927,2528.115143
3200.496742,-1258.350101,-9844.739029,919.314598
3200.497070,-518.144159,-9400.615463,-1072.533697
3200.497398,444.123565,-8586.388927,-2298.286494
3200.497725,1258.350101,-10881.027347,-612.876398
3200.498053,2220.617826,-11843.295072,1608.800546
3200.498380,2072.576638,-11029.068536,0.000000
3200.498708,1258.350101,-10584.944971,-229.828649
3200.499035,1184.329507,-12435.459826,-2451.505594
3200.499363,592.164754,-10658.965565,-2528.115143
3200.499690,-666.185348,-8290.306550,-1455.581446
3200.500018,-1332.370696,-7328.038826,0.000000
3200.500345,-962.267725,-8068.244768,612.876398
3200.500673,222.061783,-9400.615463,2068.457845
3200.501001,370.102971,-9400.615463,995.924147
3200.501328,888.247130,-9474.636058,229.828649
3200.501656,666.185348,-9400.615463,0.000000
3200.501983,444.123565,-9252.574275,-842.705048
3200.502311,370.102971,-9474.636058,-842.705048
3200.502638,1406.391290,-10140.821405,-1378.971896
3200.502966,1998.556043,-11843.295072,-306.438199
3200.503293,1850.514855,-12287.418637,612.876398
3200.503621,2072.576638,-10658.965565,306.438199
3200.503948,2220.617826,-8512.368333,-612.876398
3200.504276,1184.329507,-8438.347739,0.000000
3200.504603,-1554.432478,-8956.491898,1302.362347
3200.504931,-1332.370696,-9400.615463,1608.800546
3200.505259,-666.185348,-8882.471304,0.000000
3200.505586,-1184.329507,-8882.471304,-229.828649
3200.505914,-1702.473667,-9474.636058,229.828649
3200.506241,0.000000,-9696.697840,-995.924147
3200.506569,592.164754,-9844.739029,-995.924147
3200.506896,1554.432478,-10362.883188,-1455.581446
3200.507224,1628.453072,-10658.965565,-766.095498
3200.507551,1480.411884,-9696.697840,1302.362347
3200.507879,1924.535449,-10436.903782,1072.533697
3200.508206,1480.411884,-9992.780217,1149.143247
3200.508534,666.185348,-10214.842000,229.828649
3200.508862,0.000000,-10955.047942,0.000000
3200.509189,-296.082377,-10214.842000,-536.266849
3200.509517,-1036.288319,-8142.265362,-995.924147
3200.509844,-1554.432478,-7476.080014,-995.924147
3200.510172,-1036.288319,-9400.615463,-1225.752797
3200.510499,-962.267725,-10510.924376,0.000000
3200.510827,-296.082377,-9918.759623,306.438199
3200.511154,666.185348,-8660.409521,-306.438199
3200.511482,1850.514855,-9474.636058,-612.876398
3200.511809,2220.617826,-11103.089130,-153.219100
3200.512137,1480.411884,-11769.274478,0.000000
3200.512465,888.247130,-11843.295072,842.705048
3200.512792,1258.350101,-10732.986159,-612.876398
3200.513120,0.000000,-9178.553681,-1762.019645
3200.513447,-962.267725,-9326.594869,-1072.533697
3200.513775,-962.267725,-10584.944971,-536.266849
3200.514102,-2072.576638,-9696.697840,76.609550
3200.514430,-1406.391290,-9252.574275,-842.705048
3200.514757,-1702.473667,-7846.182985,-842.705048
3200.515085,-740.205942,-7105.977043,-153.219100
3200.515412,0.000000,-7772.162391,612.876398
3200.515740,-148.041188,-9844.739029,1455.581446
3200.516067,296.082377,-11029.068536,766.095498
3200.516395,2072.576638,-9844.739029,-536.266849
3200.516723,592.164754,-9104.533087,306.438199
3200.517050,222.061783,-9178.553681,1762.019645
3200.517378,1406.391290,-10436.903782,153.219100
3200.517705,1036.288319,-11399.171507,-459.657299
3200.518033,-296.082377,-9844.739029,-919.314598
3200.518360,-814.226536,-8364.327145,-1149.143247
3200.518688,222.061783,-7402.059420,-766.095498
3200.519015,0.000000,-7328.038826,1378.971896
3200.519343,-296.082377,-10066.800811,1225.752797
3200.519670,-1480.411884,-11399.171507,689.485948
3200.519998,-1332.370696,-9992.780217,-689.485948
3200.520326,-296.082377,-7772.162391,-1991.848295
3200.520653,518.144159,-9252.574275,-995.924147
3200.520981,1776.494261,-11547.212695,153.219100
3200.521308,2812.782580,-13175.665768,1149.143247
3200.521636,1998.556043,-9992.780217,-229.828649
3200.521963,2220.617826,-10584.944971,-1149.143247
3200.522291,1184.329507,-10436.903782,-1302.362347
3200.522618,444.123565,-9252.574275,-383.047749
3200.522946,-1184.329507,-8882.471304,153.219100
3200.523273,-888.247130,-10214.842000,-459.657299
3200.523601,-1184.329507,-11029.068536,-612.876398
3200.523929,-518.144159,-9326.594869,0.000000
3200.524256,814.226536,-8364.327145,0.000000
3200.524584,1258.350101,-9696.697840,383.047749
3200.524911,962.267725,-10362.883188,0.000000
3200.525239,222.061783,-9918.759623,-612.876398
3200.525566,1036.288319,-8586.388927,-1532.190996
3200.525894,1776.494261,-8142.265362,-1225.752797
3200.526221,1850.514855,-10140.821405,919.314598
3200.526549,2072.576638,-11103.089130,1991.848295
3200.526876,2146.597232,-10955.047942,689.485948
3200.527204,444.123565,-10955.047942,0.000000
3200.527532,-1036.288319,-9252.574275,-306.438199
3200.527859,-1480.411884,-7476.080014,-383.047749
3200.528187,-962.267725,-7550.100608,919.314598
3200.528514,-518.144159,-9622.677246,1378.971896
3200.528842,-1258.350101,-10066.800811,842.705048
3200.529169,222.061783,-8882.471304,-995.924147
3200.529497,666.185348,-7476.080014,-2221.676944
3200.529824,1036.288319,-8142.265362,-995.924147
3200.530152,0.000000,-9696.697840,612.876398
3200.530479,1554.432478,-11177.109724,459.657299
3200.530807,1554.432478,-12139.377449,153.219100
3200.531134,2368.659014,-11621.233289,-153.219100
3200.531462,1776.494261,-10066.800811,229.828649
3200.531790,740.205942,-10436.903782,1149.143247
3200.532117,74.020594,-9844.739029,229.828649
3200.532445,0.000000,-9030.512492,-2298.286494
3200.532772,-1258.350101,-8068.244768,-2528.115143
3200.533100,-962.267725,-8364.327145,-1915.238745
3200.533427,296.082377,-9474.636058,-153.219100
3200.533755,740.205942,-9474.636058,1072.533697
3200.534082,-370.102971,-9844.739029,229.828649
3200.534410,-814.226536,-10881.027347,-1072.533697
3200.534737,666.185348,-11177.109724,-2145.067394
3200.535065,962.267725,-10140.821405,-689.485948
3200.535393,1480.411884,-10955.047942,689.485948
3200.535720,1554.432478,-12583.501014,1838.629195
3200.536048,1850.514855,-11621.233289,306.438199
3200.536375,444.123565,-10288.862594,-1225.752797
3200.536703,-1332.370696,-9252.574275,-766.095498
3200.537030,-814.226536,-7476.080014,-1838.629195
3200.537358,-1850.514855,-6957.935855,-689.485948
3200.537685,-1924.535449,-8068.244768,-306.438199
3200.538013,-1702.473667,-8512.368333,0.000000
3200.538340,-962.267725,-9326.594869,306.438199
3200.538668,74.020594,-9622.677246,229.828649
3200.538996,370.102971,-10436.903782,919.314598
3200.539323,1924.535449,-9474.636058,842.705048
3200.539651,1776.494261,-9474.636058,536.266849
3200.539978,1628.453072,-9474.636058,0.000000
3200.540306,2072.576638,-9178.553681,0.000000
3200.540633,1184.329507,-9770.718434,995.924147
3200.540961,444.123565,-8586.388927,919.314598
3200.541288,-740.205942,-8660.409521,-153.219100
3200.541616,-1036.288319,-8956.491898,-1302.362347
3200.541943,-1184.329507,-9252.574275,-2451.505594
3200.542271,-1036.288319,-10066.800811,-536.266849
3200.542599,-1110.308913,-9918.759623,229.828649
3200.542926,-1850.514855,-9918.759623,0.000000
3200.543254,-370.102971,-9770.718434,-1378.971896
3200.543581,1480.411884,-9474.636058,-2451.505594
3200.543909,1554.432478,-10510.924376,0.000000
3200.544236,1850.514855,-10955.047942,1685.410096
3200.544564,1628.453072,-9474.636058,1991.848295
3200.544891,2664.741391,-10807.006753,0.000000
3200.545219,2368.659014,-11843.295072,-1608.800546
3200.545546,222.061783,-11769.274478,-1532.190996
3200.545874,-1036.288319,-9992.780217,-995.924147
3200.546201,-518.144159,-9770.718434,-2145.067394
3200.546529,-1258.350101,-10140.821405,-689.485948
3200.546857,74.020594,-9770.718434,306.438199
3200.547184,1702.473667,-10362.883188,689.485948
3200.547512,1776.494261,-10066.800811,766.095498
3200.547839,1702.473667,-9326.594869,0.000000
3200.548167,1258.350101,-8068.244768,-995.924147
3200.548494,1480.411884,-7031.956449,-536.266849
3200.548822,518.144159,-7698.141797,-306.438199
3200.549149,814.226536,-11103.089130,1072.533697
3200.549477,370.102971,-11547.212695,1225.752797
3200.549804,1258.350101,-11103.089130,-306.438199
3200.550132,148.041188,-11695.253884,-459.657299
3200.550460,370.102971,-10140.821405,0.000000
3200.550787,814.226536,-7994.224174,-306.438199
3200.551115,518.144159,-8068.244768,612.876398
3200.551442,-666.185348,-9030.512492,995.924147
3200.551770,-1702.473667,-7550.100608,919.314598
3200.552097,-888.247130,-6661.853478,0.000000
3200.552425,-592.164754,-8142.265362,-995.924147
3200.552752,-1110.308913,-9548.656652,-919.314598
3200.553080,-1258.350101,-10066.800811,-383.047749
3200.553407,74.020594,-11251.130318,-1149.143247
3200.553735,1850.514855,-11843.295072,-995.924147
3200.554063,2146.597232,-11843.295072,1149.143247
3200.554390,1628.453072,-11325.150913,1225.752797
3200.554718,1110.308913,-10214.842000,0.000000
3200.555045,296.082377,-10658.965565,-536.266849
3200.555373,74.020594,-8660.409521,-919.314598
3200.555700,148.041188,-7772.162391,-2145.067394
3200.556028,-814.226536,-7476.080014,0.000000
3200.556355,74.020594,-10658.965565,-612.876398
3200.556683,-740.205942,-11029.068536,-153.219100
3200.557010,-962.267725,-10066.800811,-766.095498
3200.557338,-592.164754,-9696.697840,-1149.143247
3200.557666,222.061783,-9400.615463,-995.924147
3200.557993,1554.432478,-11769.274478,459.657299
3200.558321,2072.576638,-13397.727550,1302.362347
3200.558648,2294.638420,-11621.233289,612.876398
3200.558976,888.247130,-8734.430116,-306.438199
3200.559303,0.000000,-7846.182985,-383.047749
3200.559631,-814.226536,-8290.306550,-229.828649
3200.559958,0.000000,-8290.306550,-766.095498
3200.560286,-518.144159,-9622.677246,-536.266849
3200.560613,-1702.473667,-9474.636058,0.000000
3200.560941,-1258.350101,-8956.491898,-383.047749
3200.561268,-1406.391290,-8438.347739,536.266849
3200.561596,-814.226536,-9104.533087,995.924147
3200.561924,370.102971,-10732.986159,0.000000
3200.562251,2220.617826,-11843.295072,-766.095498
3200.562579,2294.638420,-9030.512492,306.438199
3200.562906,1924.535449,-7402.059420,1455.581446
3200.563234,1258.350101,-7402.059420,2374.896044
3200.563562,1628.453072,-9474.636058,1455.581446
3200.563889,518.144159,-9918.759623,0.000000
3200.564217,-2146.597232,-9844.739029,-1072.533697
3200.564545,-2368.659014,-9992.780217,-1685.410096
3200.564872,518.144159,-9992.780217,-1991.848295
3200.565200,-296.082377,-10214.842000,-842.705048
3200.565527,-888.247130,-11325.150913,1302.362347
3200.565855,370.102971,-10658.965565,-383.047749
3200.566183,888.247130,-9400.615463,-2451.505594
3200.566510,1554.432478,-8216.285956,-1608.800546
3200.566838,1406.391290,-7476.080014,919.314598
3200.567165,1184.329507,-8734.430116,2451.505594
3200.567493,1628.453072,-11399.171507,1762.019645
3200.567821,518.144159,-11325.150913,-612.876398
3200.568148,518.144159,-10584.944971,-2451.505594
3200.568476,0.000000,-11251.130318,-1915.238745
3200.568803,148.041188,-10362.883188,-1378.971896
3200.569131,222.061783,-9770.718434,-766.095498
3200.569459,-1332.370696,-10510.924376,0.000000
3200.569786,-296.082377,-10658.965565,153.219100
3200.570114,1406.391290,-9104.533087,306.438199
3200.570442,1702.473667,-7550.100608,1302.362347
3200.570769,740.205942,-7920.203579,1532.190996
3200.571097,518.144159,-9474.636058,459.657299
3200.571424,370.102971,-9844.739029,-1532.190996
3200.571752,-148.041188,-9400.615463,-919.314598
3200.572080,-296.082377,-9252.574275,-383.047749
3200.572407,-370.102971,-9918.759623,995.924147
3200.572735,222.061783,-10881.027347,0.000000
3200.573062,888.247130,-11399.171507,-1149.143247
3200.573390,-296.082377,-11251.130318,-306.438199
3200.573718,370.102971,-9622.677246,229.828649
3200.574045,1184.329507,-6587.832884,536.266849
3200.574373,74.020594,-5921.647536,1762.019645
3200.574701,0.000000,-8364.327145,1838.629195
3200.575028,-814.226536,-9844.739029,1225.752797
3200.575356,-2368.659014,-9474.636058,-612.876398
3200.575683,-1332.370696,-8808.450710,-2987.772442
3200.576011,-1332.370696,-7994.224174,-2451.505594
3200.576339,-1480.411884,-9622.677246,-842.705048
3200.576666,-592.164754,-11621.233289,153.219100
3200.576994,1776.494261,-12287.418637,153.219100
3200.577321,3478.967927,-11103.089130,-919.314598
3200.577649,2960.823768,-11251.130318,229.828649
3200.577977,1184.329507,-9178.553681,1378.971896
3200.578304,370.102971,-7624.121203,1302.362347
3200.578632,518.144159,-8364.327145,0.000000
3200.578959,-518.144159,-9918.759623,-995.924147
3200.579287,-1850.514855,-9918.759623,-1532.190996
3200.579615,-1628.453072,-8882.471304,-919.314598
3200.579942,0.000000,-10066.800811,-842.705048
3200.580270,0.000000,-12065.356855,-1225.752797
3200.580598,0.000000,-11843.295072,-536.266849
3200.580925,222.061783,-9474.636058,-919.314598
3200.581253,1406.391290,-8364.327145,-1302.362347
3200.581580,1702.473667,-9548.656652,919.314598
3200.581908,2368.659014,-10214.842000,1991.848295
3200.582236,2294.638420,-10510.924376,1685.410096
3200.582563,1258.350101,-10362.883188,766.095498
3200.582891,1036.288319,-9474.636058,-1149.143247
3200.583218,-666.185348,-8808.450710,-1149.143247
3200.583546,-2146.597232,-7994.224174,-766.095498
3200.583874,-1332.370696,-9474.636058,-842.705048
3200.584201,-592.164754,-10510.924376,-1225.752797
3200.584529,0.000000,-10288.862594,-459.657299
3200.584856,740.205942,-9030.512492,0.000000
3200.585184,2072.576638,-7846.182985,306.438199
3200.585512,1332.370696,-7994.224174,2374.896044
3200.585839,1776.494261,-9030.512492,1838.629195
3200.586167,1776.494261,-8586.388927,1149.143247
3200.586495,1258.350101,-9030.512492,0.000000
3200.586822,148.041188,-10288.862594,229.828649
3200.587150,0.000000,-9844.739029,-229.828649
3200.587477,0.000000,-9252.574275,-383.047749
3200.587805,370.102971,-10510.924376,-1378.971896
3200.588133,-1184.329507,-11251.130318,-995.924147
3200.588460,-1258.350101,-10140.821405,-919.314598
3200.588788,-592.164754,-8364.327145,-1378.971896
3200.589115,-148.041188,-7994.224174,-383.047749
3200.589443,518.144159,-8068.244768,0.000000
3200.589771,-222.061783,-9104.533087,1915.238745
3200.590098,518.144159,-10214.842000,2604.724693
3200.590426,2072.576638,-10658.965565,0.000000
3200.590753,666.185348,-9696.697840,-995.924147
3200.591081,-814.226536,-10066.800811,-689.485948
3200.591409,-296.082377,-11621.233289,-1225.752797
3200.591736,-296.082377,-11991.336260,-1608.800546
3200.592064,-370.102971,-10140.821405,-1915.238745
3200.592392,-148.041188,-9474.636058,-1378.971896
3200.592719,296.082377,-8956.491898,0.000000
3200.593047,1258.350101,-8586.388927,689.485948
3200.593374,814.226536,-9178.553681,1455.581446
3200.593702,-1184.329507,-9326.594869,1225.752797
3200.594030,-814.226536,-9030.512492,0.000000
3200.594357,0.000000,-7994.224174,-2298.286494
3200.594685,-296.082377,-8512.368333,-1149.143247
3200.595012,592.164754,-11029.068536,306.438199
3200.595340,1850.514855,-12213.398043,0.000000
3200.595668,888.247130,-11843.295072,-383.047749
3200.595995,370.102971,-10288.862594,-1608.800546
3200.596323,-888.247130,-8586.388927,-1378.971896
3200.596651,-592.164754,-7254.018232,-383.047749
3200.596978,0.000000,-8216.285956,1608.800546
3200.597306,592.164754,-9474.636058,2145.067394
3200.597633,148.041188,-9992.780217,1302.362347
3200.597961,1702.473667,-10807.006753,-153.219100
3200.598289,1036.288319,-9030.512492,-1302.362347
3200.598616,592.164754,-8586.388927,-612.876398
3200.598944,370.102971,-9918.759623,229.828649
3200.599271,-666.185348,-10288.862594,-229.828649
3200.599599,-1036.288319,-10362.883188,-1072.533697
3200.599927,148.041188,-10510.924376,-2145.067394
3200.600254,0.000000,-9104.533087,-459.657299
3200.600582,222.061783,-8956.491898,842.705048
3200.600909,666.185348,-10658.965565,995.924147
3200.601237,814.226536,-11473.192101,153.219100
3200.601565,1628.453072,-9770.718434,-689.485948
3200.601892,592.164754,-9696.697840,-1302.362347
3200.602220,0.000000,-8734.430116,0.000000
3200.602548,1480.411884,-10732.986159,153.219100
3200.602875,1110.308913,-11103.089130,229.828649
3200.603203,740.205942,-9474.636058,-306.438199
3200.603530,666.185348,-7624.121203,-1072.533697
