#time,accel_x,accel_y,accel_z
2807.962713,0.000000,-8512.368333,306.438199
2807.963041,0.000000,-8734.430116,306.438199
2807.963369,148.041188,-9030.512492,153.219100
2807.963696,-444.123565,-9178.553681,-306.438199
2807.964024,0.000000,-9030.512492,-766.095498
2807.964352,74.020594,-9326.594869,76.609550
2807.964680,592.164754,-9474.636058,0.000000
2807.965007,518.144159,-9474.636058,153.219100
2807.965335,814.226536,-9474.636058,153.219100
2807.965663,444.123565,-9178.553681,383.047749
2807.965991,814.226536,-9326.594869,0.000000
2807.966318,370.102971,-9030.512492,229.828649
2807.966646,0.000000,-9104.533087,0.000000
2807.966974,-370.102971,-9474.636058,0.000000
2807.967302,-222.061783,-9696.697840,-842.705048
2807.967630,0.000000,-10510.924376,-1072.533697
2807.967957,148.041188,-10436.903782,-1072.533697
2807.968285,370.102971,-10584.944971,-766.095498
2807.968613,296.082377,-10436.903782,-1225.752797
2807.968941,1036.288319,-10362.883188,-1149.143247
2807.969268,592.164754,-10140.821405,-459.657299
2807.969596,518.144159,-9918.759623,-306.438199
2807.969924,296.082377,-10140.821405,-536.266849
2807.970252,74.020594,-9844.739029,-689.485948
2807.970580,222.061783,-9770.718434,-995.924147
2807.970907,-148.041188,-9918.759623,-1532.190996
2807.971235,148.041188,-10658.965565,-766.095498
2807.971563,0.000000,-10214.842000,-612.876398
2807.971891,148.041188,-10140.821405,-383.047749
2807.972218,222.061783,-10140.821405,0.000000
2807.972546,592.164754,-9992.780217,306.438199
2807.972874,814.226536,-9770.718434,459.657299
2807.973202,666.185348,-9474.636058,689.485948
2807.973529,740.205942,-8956.491898,689.485948
2807.973857,296.082377,-8586.388927,536.266849
2807.974185,0.000000,-8512.368333,306.438199
2807.974513,0.000000,-8808.450710,153.219100
2807.974841,0.000000,-8734.430116,0.000000
2807.975168,148.041188,-8956.491898,-689.485948
2807.975496,592.164754,-8882.471304,229.828649
2807.975824,1332.370696,-8882.471304,0.000000
2807.976152,1702.473667,-9178.553681,306.438199
2807.976479,2516.700203,-9252.574275,536.266849
2807.976807,3552.988522,-8586.388927,229.828649
2807.977135,4145.153275,-8586.388927,0.000000
2807.977463,4441.235652,-9474.636058,0.000000
2807.977791,4885.359217,-9696.697840,76.609550
2807.978118,5551.544565,-9104.533087,-1149.143247
2807.978446,6365.771101,-9844.739029,-612.876398
2807.978774,7328.038826,-11103.089130,-612.876398
2807.979102,8512.368333,-11695.253884,-766.095498
2807.979429,8290.306550,-11769.274478,0.000000
2807.979757,8882.471304,-10584.944971,0.000000
2807.980085,9400.615463,-9696.697840,-229.828649
2807.980413,9178.553681,-9474.636058,0.000000
2807.980740,9918.759623,-8882.471304,0.000000
2807.981068,11103.089130,-9326.594869,0.000000
2807.981396,11251.130318,-9770.718434,306.438199
2807.981724,11177.109724,-9918.759623,0.000000
2807.982052,10881.027347,-9844.739029,-536.266849
2807.982379,9918.759623,-9326.594869,-536.266849
2807.982707,11473.192101,-9400.615463,-1225.752797
2807.983035,13249.686362,-10807.006753,-383.047749
2807.983363,14359.995275,-10658.965565,459.657299
2807.983690,15470.304188,-9992.780217,1838.629195
2807.984018,15618.345376,-8734.430116,1838.629195
2807.984346,14359.995275,-8290.306550,1378.971896
2807.984674,13397.727550,-8660.409521,2221.676944
2807.985002,12879.583391,-8808.450710,1302.362347
2807.985329,12065.356855,-9178.553681,76.609550
2807.985657,11917.315666,-9696.697840,229.828649
2807.985985,11769.274478,-8956.491898,76.609550
2807.986313,10807.006753,-8734.430116,1149.143247
2807.986640,9844.739029,-9474.636058,2145.067394
2807.986968,9548.656652,-9326.594869,766.095498
2807.987296,8660.409521,-9992.780217,0.000000
2807.987624,7402.059420,-10584.944971,612.876398
2807.987951,5995.668130,-9178.553681,306.438199
2807.988279,4367.215058,-7994.224174,612.876398
2807.988607,2960.823768,-8512.368333,689.485948
2807.988935,3034.844362,-9252.574275,0.000000
2807.989263,3997.112087,-9696.697840,-1302.362347
2807.989590,4071.132681,-10510.924376,-383.047749
2807.989918,3182.885551,-11843.295072,-306.438199
2807.990246,1850.514855,-10955.047942,-306.438199
2807.990574,592.164754,-9622.677246,-689.485948
2807.990901,740.205942,-8586.388927,-1149.143247
2807.991229,2442.679609,-8734.430116,-1072.533697
2807.991557,4071.132681,-10732.986159,1149.143247
2807.991885,4145.153275,-11843.295072,1991.848295
2807.992212,2368.659014,-11695.253884,766.095498
2807.992540,-222.061783,-10066.800811,-766.095498
2807.992868,-2368.659014,-8438.347739,-2374.896044
2807.993196,-2368.659014,-9252.574275,-2681.334243
2807.993524,-1998.556043,-10362.883188,-1838.629195
2807.993851,-666.185348,-10658.965565,153.219100
2807.994179,0.000000,-9326.594869,306.438199
2807.994507,-518.144159,-8660.409521,229.828649
2807.994835,-2442.679609,-8068.244768,536.266849
2807.995162,-3701.029710,-8586.388927,995.924147
2807.995490,-2960.823768,-9548.656652,-689.485948
2807.995818,-1776.494261,-9844.739029,-2528.115143
2807.996146,-444.123565,-8660.409521,-1915.238745
2807.996474,-370.102971,-7698.141797,-383.047749
2807.996801,-1184.329507,-8586.388927,1685.410096
2807.997129,-2368.659014,-10807.006753,1302.362347
2807.997457,-1850.514855,-10881.027347,-1149.143247
2807.997785,-444.123565,-9918.759623,-3294.210641
2807.998112,1110.308913,-8290.306550,-2834.553343
2807.998440,1110.308913,-7624.121203,0.000000
2807.998768,1998.556043,-9326.594869,2221.676944
2807.999096,2590.720797,-10807.006753,2374.896044
2807.999423,2886.803174,-8734.430116,0.000000
2807.999751,3034.844362,-7105.977043,-1532.190996
2808.000079,2960.823768,-8512.368333,-1532.190996
2808.000407,2146.597232,-10214.842000,0.000000
2808.000735,1998.556043,-10658.965565,76.609550
2808.001062,1850.514855,-9474.636058,-612.876398
2808.001390,3404.947333,-9844.739029,-2145.067394
2808.001718,4145.153275,-10807.006753,-1532.190996
2808.002046,3256.906145,-11769.274478,306.438199
2808.002373,2368.659014,-12731.542202,689.485948
2808.002701,2960.823768,-11473.192101,-153.219100
2808.003029,3182.885551,-8734.430116,-1838.629195
2808.003357,1184.329507,-8142.265362,0.000000
2808.003685,1110.308913,-9918.759623,1302.362347
2808.004012,1036.288319,-10288.862594,1072.533697
2808.004340,1554.432478,-9844.739029,-459.657299
2808.004668,1776.494261,-9104.533087,-1378.971896
2808.004996,1036.288319,-8882.471304,-383.047749
2808.005323,148.041188,-10140.821405,995.924147
2808.005651,444.123565,-11843.295072,612.876398
2808.005979,1332.370696,-11769.274478,-306.438199
2808.006307,1924.535449,-9992.780217,-1072.533697
2808.006634,888.247130,-9178.553681,612.876398
2808.006962,-370.102971,-10436.903782,1838.629195
2808.007290,-666.185348,-11251.130318,1532.190996
2808.007618,-1406.391290,-8290.306550,459.657299
2808.007946,-1036.288319,-6587.832884,-306.438199
2808.008273,-1776.494261,-7476.080014,-306.438199
2808.008601,-2738.761985,-8808.450710,995.924147
2808.008929,-2220.617826,-9844.739029,995.924147
2808.009257,-1628.453072,-9918.759623,0.000000
2808.009584,-444.123565,-8290.306550,-689.485948
2808.009912,-518.144159,-8660.409521,-383.047749
2808.010240,-1554.432478,-10658.965565,1762.019645
2808.010568,-1036.288319,-11621.233289,919.314598
2808.010895,-962.267725,-10510.924376,-306.438199
2808.011223,-962.267725,-8734.430116,-1225.752797
2808.011551,-2368.659014,-7550.100608,-536.266849
2808.011879,-3034.844362,-8808.450710,-306.438199
2808.012207,-3404.947333,-10140.821405,0.000000
2808.012534,-2220.617826,-10436.903782,-1608.800546
2808.012862,-148.041188,-8142.265362,-2145.067394
2808.013190,74.020594,-8438.347739,-1072.533697
2808.013518,0.000000,-10436.903782,766.095498
2808.013845,222.061783,-11251.130318,459.657299
2808.014173,1332.370696,-10584.944971,-1149.143247
2808.014501,1184.329507,-9326.594869,-995.924147
2808.014829,666.185348,-9400.615463,-1225.752797
2808.015157,74.020594,-9992.780217,76.609550
2808.015484,-222.061783,-11917.315666,459.657299
2808.015812,592.164754,-12287.418637,-1762.019645
2808.016140,1184.329507,-10066.800811,-3064.381992
2808.016468,666.185348,-9178.553681,-2221.676944
2808.016795,222.061783,-9326.594869,-306.438199
2808.017123,370.102971,-9992.780217,1072.533697
2808.017451,1184.329507,-9400.615463,383.047749
2808.017779,2368.659014,-7031.956449,-306.438199
2808.018106,1924.535449,-6957.935855,306.438199
2808.018434,962.267725,-9696.697840,1685.410096
2808.018762,1036.288319,-11473.192101,1762.019645
2808.019090,1628.453072,-11473.192101,-689.485948
2808.019418,1924.535449,-9178.553681,-2374.896044
2808.019745,2072.576638,-9474.636058,-1455.581446
2808.020073,2072.576638,-10955.047942,153.219100
2808.020401,1776.494261,-11843.295072,1378.971896
2808.020729,1998.556043,-10658.965565,459.657299
2808.021056,2072.576638,-8364.327145,-536.266849
2808.021384,1036.288319,-7698.141797,-229.828649
2808.021712,740.205942,-8660.409521,995.924147
2808.022040,1480.411884,-9474.636058,1225.752797
2808.022368,1406.391290,-9696.697840,229.828649
2808.022695,2368.659014,-9400.615463,-766.095498
2808.023023,1110.308913,-8660.409521,-153.219100
2808.023351,0.000000,-9992.780217,995.924147
2808.023679,-592.164754,-11843.295072,536.266849
2808.024006,222.061783,-12657.521608,-1149.143247
2808.024334,592.164754,-10140.821405,-2604.724693
2808.024662,-296.082377,-8660.409521,-1149.143247
2808.024989,-1480.411884,-10066.800811,842.705048
2808.025317,-1184.329507,-11769.274478,2145.067394
2808.025645,-148.041188,-10362.883188,383.047749
2808.025972,444.123565,-6957.935855,-766.095498
2808.026300,-296.082377,-6809.894666,459.657299
2808.026627,-814.226536,-8364.327145,1149.143247
2808.026955,-1406.391290,-10066.800811,1455.581446
2808.027283,-962.267725,-9696.697840,-383.047749
2808.027610,-296.082377,-8660.409521,-2374.896044
2808.027938,-592.164754,-8586.388927,-2298.286494
2808.028265,-1184.329507,-10066.800811,-689.485948
2808.028593,-370.102971,-11547.212695,612.876398
2808.028921,814.226536,-11991.336260,-919.314598
2808.029248,1036.288319,-9474.636058,-1302.362347
2808.029576,222.061783,-8586.388927,-536.266849
2808.029903,-1554.432478,-9030.512492,1225.752797
2808.030231,-1998.556043,-9918.759623,1378.971896
2808.030559,-888.247130,-9178.553681,-536.266849
2808.030886,0.000000,-7624.121203,-1455.581446
2808.031214,-814.226536,-7698.141797,-1302.362347
2808.031542,-962.267725,-9770.718434,842.705048
2808.031869,-814.226536,-11547.212695,1225.752797
2808.032197,0.000000,-11251.130318,-612.876398
2808.032524,888.247130,-9030.512492,-2757.943793
2808.032852,370.102971,-9252.574275,-2451.505594
2808.033180,0.000000,-10955.047942,383.047749
2808.033507,-148.041188,-11103.089130,919.314598
2808.033835,1406.391290,-10732.986159,0.000000
2808.034162,2516.700203,-9770.718434,-1225.752797
2808.034490,1406.391290,-8586.388927,-612.876398
2808.034818,222.061783,-8808.450710,459.657299
2808.035145,148.041188,-10362.883188,536.266849
2808.035473,1258.350101,-10658.965565,-383.047749
2808.035800,2220.617826,-8068.244768,-1378.971896
2808.036128,1702.473667,-8142.265362,383.047749
2808.036456,1628.453072,-10066.800811,2221.676944
2808.036783,2146.597232,-11843.295072,1762.019645
2808.037111,1850.514855,-11769.274478,-306.438199
2808.037438,1258.350101,-9030.512492,-1455.581446
2808.037766,296.082377,-8438.347739,0.000000
2808.038094,-666.185348,-9474.636058,689.485948
2808.038421,-1110.308913,-11029.068536,995.924147
2808.038749,-296.082377,-10140.821405,-612.876398
2808.039077,666.185348,-8586.388927,-2451.505594
2808.039404,666.185348,-8364.327145,-1225.752797
2808.039732,740.205942,-9844.739029,842.705048
2808.040059,888.247130,-10732.986159,1762.019645
2808.040387,1036.288319,-9992.780217,229.828649
2808.040715,1998.556043,-7994.224174,-1225.752797
2808.041042,1110.308913,-8216.285956,-995.924147
2808.041370,-222.061783,-9030.512492,919.314598
2808.041697,-1184.329507,-10807.006753,1072.533697
2808.042025,-148.041188,-11547.212695,-1149.143247
2808.042353,370.102971,-10436.903782,-2757.943793
2808.042680,518.144159,-9844.739029,-1685.410096
2808.043008,-370.102971,-10066.800811,612.876398
2808.043335,-1258.350101,-11399.171507,1302.362347
2808.043663,-370.102971,-10955.047942,153.219100
2808.043991,-444.123565,-7846.182985,-1608.800546
2808.044318,-1258.350101,-6883.915261,-995.924147
2808.044646,-1776.494261,-7698.141797,1149.143247
2808.044973,-1924.535449,-10510.924376,1455.581446
2808.045301,-1332.370696,-10881.027347,153.219100
2808.045629,0.000000,-8364.327145,-2145.067394
2808.045956,74.020594,-8364.327145,-2374.896044
2808.046284,0.000000,-10288.862594,0.000000
2808.046612,0.000000,-11769.274478,1225.752797
2808.046939,1184.329507,-11177.109724,229.828649
2808.047267,2294.638420,-9548.656652,-689.485948
2808.047594,1258.350101,-8882.471304,-306.438199
2808.047922,-666.185348,-9622.677246,1608.800546
2808.048250,-1924.535449,-10362.883188,1915.238745
2808.048577,-1628.453072,-9992.780217,76.609550
2808.048905,-370.102971,-8438.347739,-2298.286494
2808.049232,-666.185348,-8216.285956,-1378.971896
2808.049560,-1258.350101,-8216.285956,995.924147
2808.049888,-370.102971,-10214.842000,766.095498
2808.050215,148.041188,-10955.047942,0.000000
2808.050543,814.226536,-9400.615463,-1302.362347
2808.050870,370.102971,-7920.203579,-459.657299
2808.051198,74.020594,-8808.450710,0.000000
2808.051526,296.082377,-11325.150913,1532.190996
2808.051853,1110.308913,-11769.274478,-612.876398
2808.052181,1480.411884,-9104.533087,-1915.238745
2808.052508,444.123565,-8142.265362,-1302.362347
2808.052836,0.000000,-9474.636058,0.000000
2808.053164,148.041188,-10436.903782,-383.047749
2808.053491,1998.556043,-10584.944971,-612.876398
2808.053819,2960.823768,-8956.491898,-995.924147
2808.054147,3478.967927,-7846.182985,0.000000
2808.054474,1998.556043,-9918.759623,1838.629195
2808.054802,666.185348,-11843.295072,1991.848295
2808.055129,1036.288319,-11769.274478,0.000000
2808.055457,1184.329507,-9104.533087,-2451.505594
2808.055785,222.061783,-8364.327145,-1685.410096
2808.056112,370.102971,-10436.903782,229.828649
2808.056440,0.000000,-11769.274478,1762.019645
2808.056767,444.123565,-10288.862594,76.609550
2808.057095,592.164754,-9030.512492,-2451.505594
2808.057423,296.082377,-8734.430116,-1915.238745
2808.057750,-370.102971,-8216.285956,612.876398
2808.058078,-592.164754,-10214.842000,2221.676944
2808.058405,740.205942,-10658.965565,383.047749
2808.058733,2146.597232,-8586.388927,-459.657299
2808.059061,2220.617826,-8068.244768,-612.876398
2808.059388,888.247130,-9326.594869,2068.457845
2808.059716,370.102971,-11177.109724,2145.067394
2808.060043,1258.350101,-10955.047942,0.000000
2808.060371,666.185348,-8734.430116,-2451.505594
2808.060699,296.082377,-7846.182985,-1532.190996
2808.061026,-592.164754,-9252.574275,383.047749
2808.061354,-1480.411884,-11251.130318,1378.971896
2808.061682,-666.185348,-10881.027347,689.485948
2808.062009,370.102971,-8956.491898,-1838.629195
2808.062337,0.000000,-8734.430116,-1915.238745
2808.062664,-1332.370696,-8956.491898,0.000000
2808.062992,-1184.329507,-10288.862594,383.047749
2808.063320,-444.123565,-10807.006753,-459.657299
2808.063647,222.061783,-9030.512492,-1762.019645
2808.063975,0.000000,-8438.347739,-1532.190996
2808.064302,-740.205942,-10288.862594,689.485948
2808.064630,-296.082377,-12731.542202,1225.752797
2808.064958,888.247130,-11843.295072,-919.314598
2808.065285,592.164754,-9178.553681,-2987.772442
2808.065613,-296.082377,-9030.512492,-1838.629195
2808.065940,-740.205942,-10362.883188,536.266849
2808.066268,-666.185348,-11621.233289,2068.457845
2808.066596,888.247130,-10584.944971,995.924147
2808.066923,2294.638420,-7920.203579,-383.047749
2808.067251,370.102971,-7402.059420,766.095498
2808.067578,-1110.308913,-9178.553681,1991.848295
2808.067906,-2220.617826,-10288.862594,612.876398
2808.068234,-1850.514855,-10214.842000,-1149.143247
2808.068561,-518.144159,-9030.512492,-2911.162892
2808.068889,-370.102971,-8438.347739,-2068.457845
2808.069217,296.082377,-9622.677246,229.828649
2808.069544,962.267725,-10955.047942,2068.457845
2808.069872,2516.700203,-11917.315666,995.924147
2808.070199,2442.679609,-9400.615463,-153.219100
2808.070527,1628.453072,-7550.100608,0.000000
2808.070855,0.000000,-8290.306550,1532.190996
2808.071182,-296.082377,-10288.862594,1915.238745
2808.071510,962.267725,-10732.986159,76.609550
2808.071837,1554.432478,-8142.265362,-1915.238745
2808.072165,1110.308913,-7105.977043,-1072.533697
2808.072493,518.144159,-9696.697840,919.314598
2808.072820,814.226536,-11991.336260,1378.971896
2808.073148,1924.535449,-11251.130318,-919.314598
2808.073475,2442.679609,-9030.512492,-2757.943793
2808.073803,2294.638420,-8512.368333,-1149.143247
2808.074131,370.102971,-9400.615463,536.266849
2808.074458,74.020594,-10436.903782,2834.553343
2808.074786,1036.288319,-10658.965565,153.219100
2808.075113,1628.453072,-9548.656652,-2604.724693
2808.075441,1110.308913,-9030.512492,-2298.286494
2808.075769,444.123565,-9770.718434,-306.438199
2808.076096,148.041188,-10436.903782,919.314598
2808.076424,296.082377,-10288.862594,-919.314598
2808.076752,1036.288319,-8586.388927,-1532.190996
2808.077079,296.082377,-7624.121203,-842.705048
2808.077407,0.000000,-8882.471304,995.924147
2808.077734,-592.164754,-11251.130318,1991.848295
2808.078062,148.041188,-11917.315666,0.000000
2808.078390,740.205942,-9474.636058,-1608.800546
2808.078717,0.000000,-8512.368333,-1608.800546
2808.079045,-1110.308913,-10066.800811,153.219100
2808.079372,-814.226536,-11843.295072,1302.362347
2808.079700,296.082377,-10881.027347,-229.828649
2808.080028,962.267725,-8660.409521,-1532.190996
2808.080355,518.144159,-8068.244768,-766.095498
2808.080683,-1110.308913,-9104.533087,1762.019645
2808.081010,-2072.576638,-10362.883188,2757.943793
2808.081338,-1184.329507,-9474.636058,536.266849
2808.081666,888.247130,-7328.038826,-2145.067394
2808.081993,222.061783,-7920.203579,-1072.533697
2808.082321,-296.082377,-8956.491898,612.876398
2808.082648,-1258.350101,-10288.862594,1455.581446
2808.082976,-1554.432478,-10510.924376,0.000000
2808.083304,-962.267725,-8808.450710,-1991.848295
2808.083631,-370.102971,-8734.430116,-1608.800546
2808.083959,-370.102971,-9252.574275,459.657299
2808.084287,-444.123565,-11917.315666,1685.410096
2808.084614,666.185348,-12435.459826,1149.143247
2808.084942,740.205942,-9252.574275,-1302.362347
2808.085269,0.000000,-8216.285956,-2068.457845
2808.085597,-814.226536,-9326.594869,0.000000
2808.085925,74.020594,-10288.862594,76.609550
2808.086252,1110.308913,-10066.800811,0.000000
2808.086580,1998.556043,-8660.409521,-536.266849
2808.086907,2368.659014,-8364.327145,-459.657299
2808.087235,1110.308913,-9622.677246,766.095498
2808.087563,0.000000,-11621.233289,1225.752797
2808.087890,1110.308913,-11695.253884,-1378.971896
2808.088218,2960.823768,-9696.697840,-2451.505594
2808.088545,2368.659014,-8586.388927,-1991.848295
2808.088873,1258.350101,-10362.883188,1455.581446
2808.089201,0.000000,-10955.047942,2834.553343
2808.089528,0.000000,-9918.759623,536.266849
2808.089856,-222.061783,-7920.203579,-2221.676944
2808.090183,-814.226536,-7105.977043,-2681.334243
2808.090511,-1332.370696,-8290.306550,-689.485948
2808.090839,0.000000,-10955.047942,689.485948
2808.091166,1036.288319,-11029.068536,0.000000
2808.091494,1850.514855,-9918.759623,-842.705048
2808.091822,1998.556043,-8882.471304,-229.828649
2808.092149,1258.350101,-9474.636058,383.047749
2808.092477,1258.350101,-11251.130318,919.314598
2808.092804,2368.659014,-11473.192101,-612.876398
2808.093132,2368.659014,-9104.533087,-612.876398
2808.093460,1184.329507,-7994.224174,-229.828649
2808.093787,0.000000,-9030.512492,536.266849
2808.094115,-1184.329507,-10732.986159,995.924147
2808.094442,-814.226536,-10881.027347,0.000000
2808.094770,1628.453072,-9030.512492,-2298.286494
2808.095098,1628.453072,-8660.409521,-1838.629195
2808.095425,888.247130,-9474.636058,1072.533697
2808.095753,-592.164754,-10510.924376,2374.896044
2808.096080,-148.041188,-10955.047942,842.705048
2808.096408,-296.082377,-9178.553681,-1072.533697
2808.096736,-740.205942,-7994.224174,-1838.629195
2808.097063,-1332.370696,-9178.553681,-383.047749
2808.097391,-814.226536,-10732.986159,1072.533697
2808.097718,-962.267725,-11029.068536,306.438199
2808.098046,-592.164754,-9992.780217,-1991.848295
2808.098374,-1110.308913,-8956.491898,-1838.629195
2808.098701,-1406.391290,-9252.574275,-689.485948
2808.099029,-962.267725,-10510.924376,76.609550
2808.099357,222.061783,-10955.047942,76.609550
2808.099684,2368.659014,-8734.430116,306.438199
2808.100012,2072.576638,-7328.038826,612.876398
2808.100339,0.000000,-8660.409521,1915.238745
2808.100667,-1110.308913,-10584.944971,1991.848295
2808.100995,-1036.288319,-11029.068536,0.000000
2808.101322,0.000000,-8512.368333,-2145.067394
2808.101650,-296.082377,-7994.224174,-2451.505594
2808.101977,-888.247130,-9548.656652,536.266849
2808.102305,-1258.350101,-10140.821405,1072.533697
2808.102633,-888.247130,-10807.006753,459.657299
2808.102960,0.000000,-9252.574275,-1302.362347
2808.103288,-370.102971,-7920.203579,-1455.581446
2808.103615,-1406.391290,-8734.430116,-76.609550
2808.103943,-740.205942,-10807.006753,689.485948
2808.104271,1332.370696,-10584.944971,-383.047749
2808.104598,1850.514855,-8660.409521,-1302.362347
2808.104926,962.267725,-8660.409521,-766.095498
2808.105253,740.205942,-10214.842000,459.657299
2808.105581,888.247130,-11695.253884,459.657299
2808.105909,1480.411884,-12065.356855,-766.095498
2808.106236,2590.720797,-10214.842000,-1762.019645
2808.106564,2368.659014,-8142.265362,-1378.971896
2808.106892,1036.288319,-8734.430116,1072.533697
2808.107219,148.041188,-10807.006753,2451.505594
2808.107547,1628.453072,-10584.944971,766.095498
2808.107874,2664.741391,-8660.409521,-1149.143247
2808.108202,1480.411884,-7994.224174,-689.485948
2808.108530,370.102971,-9474.636058,995.924147
2808.108857,-1110.308913,-10066.800811,1072.533697
2808.109185,-1184.329507,-9918.759623,-1302.362347
2808.109512,-814.226536,-9770.718434,-3753.867940
2808.109840,296.082377,-9178.553681,-2604.724693
2808.110168,814.226536,-9474.636058,536.266849
2808.110495,2220.617826,-11621.233289,2298.286494
2808.110823,2960.823768,-12805.562797,995.924147
2808.111150,2812.782580,-9696.697840,-306.438199
2808.111478,1480.411884,-7550.100608,-536.266849
2808.111806,148.041188,-8660.409521,995.924147
2808.112133,0.000000,-10362.883188,1838.629195
2808.112461,1110.308913,-10436.903782,689.485948
2808.112788,1850.514855,-8734.430116,-995.924147
2808.113116,1036.288319,-7920.203579,-842.705048
2808.113444,0.000000,-9474.636058,1532.190996
2808.113771,-1924.535449,-10214.842000,1685.410096
2808.114099,-1554.432478,-10732.986159,-689.485948
2808.114427,0.000000,-9474.636058,-2987.772442
2808.114754,222.061783,-8586.388927,-2221.676944
2808.115082,-962.267725,-9252.574275,612.876398
2808.115409,-1258.350101,-11177.109724,2528.115143
2808.115737,-962.267725,-10732.986159,1455.581446
2808.116065,-888.247130,-8364.327145,-1072.533697
2808.116392,-1184.329507,-8216.285956,-2298.286494
2808.116720,-1628.453072,-8808.450710,-536.266849
2808.117047,-740.205942,-10214.842000,536.266849
2808.117375,296.082377,-11103.089130,689.485948
2808.117703,148.041188,-8586.388927,0.000000
2808.118030,148.041188,-7402.059420,0.000000
2808.118358,-444.123565,-10362.883188,459.657299
2808.118685,-370.102971,-11991.336260,536.266849
2808.119013,1480.411884,-11843.295072,-919.314598
2808.119341,2368.659014,-10140.821405,-1838.629195
2808.119668,888.247130,-9104.533087,-612.876398
2808.119996,-518.144159,-9844.739029,1302.362347
2808.120323,-1480.411884,-10658.965565,919.314598
2808.120651,-1480.411884,-10732.986159,-1302.362347
2808.120979,148.041188,-9400.615463,-3524.039291
2808.121306,962.267725,-8290.306550,-2221.676944
2808.121634,518.144159,-9622.677246,1225.752797
2808.121962,962.267725,-11325.150913,2604.724693
2808.122289,962.267725,-10658.965565,2145.067394
2808.122617,2220.617826,-9696.697840,-1378.971896
2808.122944,1628.453072,-7550.100608,-2528.115143
2808.123272,518.144159,-8660.409521,-459.657299
2808.123600,0.000000,-10362.883188,1302.362347
2808.123927,148.041188,-10584.944971,306.438199
2808.124255,370.102971,-9104.533087,-1915.238745
2808.124582,0.000000,-8438.347739,-1302.362347
2808.124910,-666.185348,-9104.533087,612.876398
2808.125238,0.000000,-10436.903782,1532.190996
2808.125565,1480.411884,-11621.233289,-689.485948
2808.125893,2664.741391,-9474.636058,-2068.457845
2808.126220,2442.679609,-7476.080014,-306.438199
2808.126548,962.267725,-8290.306550,2681.334243
2808.126875,0.000000,-9622.677246,3600.648841
2808.127203,592.164754,-9696.697840,306.438199
2808.127531,1554.432478,-8290.306550,-1762.019645
2808.127858,1702.473667,-8586.388927,-2451.505594
2808.128186,740.205942,-9474.636058,0.000000
2808.128513,0.000000,-11029.068536,1915.238745
2808.128841,0.000000,-11547.212695,1302.362347
2808.129168,1184.329507,-9844.739029,-1762.019645
2808.129496,1480.411884,-9104.533087,-2681.334243
2808.129823,74.020594,-9252.574275,229.828649
2808.130151,-666.185348,-11621.233289,1532.190996
2808.130478,0.000000,-12139.377449,919.314598
2808.130806,-518.144159,-9030.512492,-689.485948
2808.131134,-1554.432478,-7402.059420,-1455.581446
2808.131461,-1776.494261,-9326.594869,-689.485948
2808.131789,0.000000,-11695.253884,-1455.581446
2808.132116,444.123565,-11177.109724,-1532.190996
2808.132444,1258.350101,-9918.759623,-1225.752797
2808.132771,1332.370696,-8586.388927,0.000000
2808.133099,592.164754,-9326.594869,1762.019645
2808.133426,-740.205942,-10436.903782,2145.067394
2808.133754,-296.082377,-10955.047942,459.657299
2808.134081,296.082377,-8364.327145,-1762.019645
2808.134409,444.123565,-7105.977043,-1225.752797
2808.134736,-1184.329507,-9030.512492,919.314598
2808.135064,-1702.473667,-10066.800811,2221.676944
2808.135392,-814.226536,-10658.965565,842.705048
2808.135719,0.000000,-9548.656652,-1685.410096
2808.136047,0.000000,-7698.141797,-2451.505594
2808.136374,-592.164754,-8956.491898,-459.657299
2808.136702,-1480.411884,-10807.006753,842.705048
2808.137029,-518.144159,-11843.295072,919.314598
2808.137357,592.164754,-9548.656652,-1302.362347
2808.137684,296.082377,-8068.244768,-1149.143247
2808.138012,-148.041188,-9326.594869,153.219100
2808.138339,148.041188,-10881.027347,536.266849
2808.138667,518.144159,-11473.192101,-306.438199
2808.138995,1702.473667,-9326.594869,-1762.019645
2808.139322,962.267725,-7550.100608,-1302.362347
2808.139650,592.164754,-9474.636058,612.876398
2808.139977,222.061783,-11399.171507,1378.971896
2808.140305,518.144159,-11695.253884,0.000000
2808.140632,1406.391290,-9474.636058,-2298.286494
2808.140960,2072.576638,-8068.244768,-1915.238745
2808.141287,888.247130,-9252.574275,459.657299
2808.141615,592.164754,-10732.986159,1991.848295
2808.141942,1036.288319,-10362.883188,766.095498
2808.142270,1776.494261,-9030.512492,-2068.457845
2808.142597,666.185348,-8290.306550,-2145.067394
2808.142925,0.000000,-8586.388927,459.657299
2808.143253,-222.061783,-10362.883188,612.876398
2808.143580,0.000000,-11621.233289,306.438199
2808.143908,370.102971,-10732.986159,-995.924147
2808.144235,592.164754,-8216.285956,-1532.190996
2808.144563,444.123565,-8956.491898,-306.438199
2808.144890,740.205942,-11621.233289,229.828649
2808.145218,1628.453072,-11325.150913,536.266849
2808.145545,2146.597232,-8882.471304,-612.876398
2808.145873,2368.659014,-8142.265362,-536.266849
2808.146200,888.247130,-8734.430116,689.485948
2808.146528,74.020594,-10362.883188,1685.410096
2808.146855,-518.144159,-10955.047942,689.485948
2808.147183,592.164754,-9622.677246,-1838.629195
2808.147511,888.247130,-7772.162391,-2298.286494
2808.147838,-370.102971,-8734.430116,229.828649
2808.148166,-592.164754,-9992.780217,2451.505594
2808.148493,296.082377,-10807.006753,1915.238745
2808.148821,1110.308913,-8808.450710,-766.095498
2808.149148,518.144159,-7476.080014,-1072.533697
2808.149476,-1480.411884,-8364.327145,459.657299
2808.149803,-2146.597232,-9844.739029,919.314598
2808.150131,-2294.638420,-10955.047942,-536.266849
2808.150458,-1258.350101,-9474.636058,-2528.115143
2808.150786,0.000000,-8290.306550,-3294.210641
2808.151114,-222.061783,-9622.677246,-919.314598
2808.151441,518.144159,-12213.398043,612.876398
2808.151769,1924.535449,-12731.542202,306.438199
2808.152096,2072.576638,-9400.615463,-612.876398
2808.152424,1998.556043,-7920.203579,-842.705048
2808.152751,74.020594,-8660.409521,1302.362347
2808.153079,-740.205942,-10436.903782,1685.410096
2808.153406,-296.082377,-11029.068536,383.047749
2808.153734,1184.329507,-9474.636058,-1915.238745
2808.154061,888.247130,-8882.471304,-1838.629195
2808.154389,0.000000,-9622.677246,76.609550
2808.154716,-1332.370696,-10214.842000,1225.752797
2808.155044,-1110.308913,-10881.027347,0.000000
2808.155372,0.000000,-9622.677246,-3064.381992
2808.155699,74.020594,-7846.182985,-2451.505594
2808.156027,-740.205942,-8142.265362,612.876398
2808.156354,-740.205942,-10362.883188,2911.162892
2808.156682,222.061783,-11251.130318,2298.286494
2808.157009,962.267725,-9696.697840,-1225.752797
2808.157337,370.102971,-8438.347739,-1991.848295
2808.157664,518.144159,-8734.430116,-306.438199
2808.157992,1332.370696,-10362.883188,842.705048
2808.158319,2072.576638,-11177.109724,689.485948
2808.158647,3034.844362,-8956.491898,76.609550
2808.158975,2812.782580,-7476.080014,-229.828649
2808.159302,1036.288319,-8438.347739,1455.581446
2808.159630,-370.102971,-11177.109724,1915.238745
2808.159957,1036.288319,-11473.192101,-229.828649
2808.160285,2072.576638,-9622.677246,-2451.505594
2808.160612,1702.473667,-8808.450710,-1762.019645
2808.160940,296.082377,-9696.697840,612.876398
2808.161267,-518.144159,-11103.089130,2145.067394
2808.161595,-444.123565,-10955.047942,0.000000
2808.161922,0.000000,-9474.636058,-3064.381992
2808.162250,-370.102971,-7254.018232,-2681.334243
2808.162577,-888.247130,-8660.409521,0.000000
2808.162905,-296.082377,-11029.068536,1991.848295
2808.163233,1036.288319,-12213.398043,1149.143247
2808.163560,2812.782580,-10658.965565,-306.438199
2808.163888,2886.803174,-8808.450710,-1302.362347
2808.164215,1776.494261,-9844.739029,-689.485948
2808.164543,296.082377,-11325.150913,-612.876398
2808.164870,-222.061783,-10955.047942,-766.095498
2808.165198,-444.123565,-9326.594869,-1915.238745
2808.165525,-740.205942,-8364.327145,-1455.581446
2808.165853,-1184.329507,-8660.409521,842.705048
2808.166180,-2146.597232,-9992.780217,1378.971896
2808.166508,-962.267725,-11769.274478,0.000000
2808.166836,0.000000,-9622.677246,-2451.505594
2808.167163,592.164754,-7772.162391,-2451.505594
2808.167491,-518.144159,-7920.203579,536.266849
2808.167818,-888.247130,-9474.636058,2681.334243
2808.168146,0.000000,-9548.656652,1838.629195
2808.168473,1258.350101,-8808.450710,-536.266849
2808.168801,814.226536,-7624.121203,-1225.752797
2808.169128,0.000000,-8808.450710,-229.828649
2808.169456,-962.267725,-10732.986159,1225.752797
2808.169783,-222.061783,-11621.233289,383.047749
2808.170111,518.144159,-10066.800811,-1762.019645
2808.170438,1036.288319,-9030.512492,-1685.410096
2808.170766,222.061783,-9474.636058,-306.438199
2808.171094,-222.061783,-9844.739029,2221.676944
2808.171421,74.020594,-10362.883188,995.924147
2808.171749,370.102971,-9400.615463,-919.314598
2808.172076,444.123565,-7846.182985,-1455.581446
2808.172404,-296.082377,-8882.471304,-383.047749
2808.172731,-592.164754,-11029.068536,766.095498
2808.173059,0.000000,-11843.295072,-612.876398
2808.173386,1036.288319,-9992.780217,-2068.457845
2808.173714,2368.659014,-8808.450710,-2221.676944
2808.174041,1406.391290,-10066.800811,-153.219100
2808.174369,1036.288319,-11399.171507,1455.581446
2808.174697,1332.370696,-11621.233289,766.095498
2808.175024,1628.453072,-9696.697840,-689.485948
2808.175352,740.205942,-7476.080014,-1685.410096
2808.175679,0.000000,-8068.244768,153.219100
2808.176007,-1480.411884,-10362.883188,1455.581446
2808.176334,-592.164754,-10658.965565,536.266849
2808.176662,1406.391290,-9992.780217,-1608.800546
2808.176989,1924.535449,-8734.430116,-2145.067394
2808.177317,1184.329507,-9400.615463,383.047749
2808.177644,0.000000,-10510.924376,1455.581446
2808.177972,370.102971,-10955.047942,612.876398
2808.178299,1406.391290,-9844.739029,-689.485948
2808.178627,1554.432478,-7772.162391,-1072.533697
2808.178955,370.102971,-8586.388927,306.438199
2808.179282,-370.102971,-10436.903782,1991.848295
2808.179610,296.082377,-11177.109724,1149.143247
2808.179937,74.020594,-9400.615463,-1072.533697
2808.180265,148.041188,-7550.100608,-1915.238745
2808.180592,-962.267725,-8364.327145,-536.266849
2808.180920,-1480.411884,-10140.821405,1149.143247
2808.181247,-518.144159,-10732.986159,995.924147
2808.181575,888.247130,-9474.636058,-1072.533697
2808.181902,1554.432478,-8660.409521,-995.924147
2808.182230,-222.061783,-9474.636058,1072.533697
2808.182558,-814.226536,-11251.130318,1532.190996
2808.182885,-888.247130,-11103.089130,0.000000
2808.183213,-518.144159,-9622.677246,-1838.629195
2808.183540,0.000000,-8364.327145,-2451.505594
2808.183868,-592.164754,-8808.450710,-306.438199
2808.184195,-740.205942,-10732.986159,1608.800546
2808.184523,74.020594,-11695.253884,1225.752797
2808.184850,444.123565,-10362.883188,-919.314598
2808.185178,1036.288319,-8438.347739,-1838.629195
2808.185505,444.123565,-8438.347739,-919.314598
2808.185833,-518.144159,-10658.965565,1072.533697
2808.186160,0.000000,-11695.253884,1072.533697
2808.186488,1110.308913,-9622.677246,-842.705048
2808.186816,1184.329507,-8068.244768,-1378.971896
2808.187143,-444.123565,-9030.512492,612.876398
2808.187471,-1702.473667,-9474.636058,1532.190996
2808.187798,-1776.494261,-10658.965565,0.000000
2808.188126,-370.102971,-9474.636058,-1915.238745
2808.188453,0.000000,-7328.038826,-2221.676944
2808.188781,-222.061783,-7994.224174,229.828649
2808.189108,0.000000,-9992.780217,1685.410096
2808.189436,518.144159,-11399.171507,1991.848295
2808.189763,1332.370696,-9918.759623,-1072.533697
2808.190091,814.226536,-7624.121203,-2145.067394
2808.190419,148.041188,-8586.388927,-1225.752797
2808.190746,-148.041188,-11251.130318,459.657299
2808.191074,1332.370696,-11621.233289,153.219100
2808.191401,2664.741391,-9104.533087,-1455.581446
2808.191729,2960.823768,-8512.368333,-1455.581446
2808.192056,2664.741391,-10288.862594,0.000000
2808.192384,1184.329507,-11325.150913,1762.019645
2808.192711,296.082377,-10732.986159,536.266849
2808.193039,962.267725,-9474.636058,-1762.019645
2808.193366,1036.288319,-7402.059420,-1915.238745
2808.193694,148.041188,-7994.224174,76.609550
2808.194021,-518.144159,-9548.656652,2757.943793
2808.194349,888.247130,-10955.047942,1302.362347
2808.194677,2072.576638,-10140.821405,-842.705048
2808.195004,2072.576638,-9030.512492,-1915.238745
2808.195332,740.205942,-9918.759623,-536.266849
2808.195659,-222.061783,-11843.295072,919.314598
2808.195987,296.082377,-12361.439231,306.438199
2808.196314,1776.494261,-9844.739029,-1302.362347
2808.196642,1406.391290,-7254.018232,-1838.629195
2808.196969,0.000000,-8142.265362,766.095498
2808.197297,-962.267725,-10658.965565,2451.505594
2808.197624,-296.082377,-10807.006753,1072.533697
2808.197952,74.020594,-8438.347739,-995.924147
2808.198279,0.000000,-6809.894666,-1455.581446
2808.198607,-814.226536,-7105.977043,229.828649
2808.198935,-518.144159,-9252.574275,1991.848295
2808.199262,-148.041188,-10658.965565,1838.629195
2808.199590,1184.329507,-10214.842000,-842.705048
2808.199917,1184.329507,-9474.636058,-2298.286494
2808.200245,-518.144159,-10362.883188,153.219100
2808.200572,-814.226536,-10288.862594,995.924147
2808.200900,518.144159,-11029.068536,383.047749
2808.201227,518.144159,-10140.821405,-1302.362347
2808.201555,74.020594,-8734.430116,-1455.581446
2808.201882,0.000000,-8512.368333,0.000000
2808.202210,-740.205942,-9770.718434,995.924147
2808.202538,-1554.432478,-10807.006753,153.219100
2808.202865,-1258.350101,-9696.697840,-1072.533697
2808.203193,-1258.350101,-7920.203579,-2145.067394
2808.203520,-592.164754,-8364.327145,-766.095498
2808.203848,-592.164754,-11325.150913,842.705048
2808.204175,222.061783,-12583.501014,919.314598
2808.204503,2220.617826,-11029.068536,-1225.752797
2808.204830,2886.803174,-8734.430116,-2451.505594
2808.205158,1258.350101,-10066.800811,-1378.971896
2808.205485,0.000000,-10658.965565,1378.971896
2808.205813,518.144159,-10732.986159,383.047749
2808.206140,1110.308913,-9696.697840,-1225.752797
2808.206468,1332.370696,-9252.574275,-1685.410096
2808.206796,0.000000,-10658.965565,0.000000
2808.207123,-962.267725,-10807.006753,1685.410096
2808.207451,-1480.411884,-9400.615463,383.047749
2808.207778,-518.144159,-8364.327145,-1532.190996
2808.208106,-592.164754,-7402.059420,-1608.800546
2808.208433,-962.267725,-7105.977043,766.095498
2808.208761,-888.247130,-8290.306550,1532.190996
2808.209088,-740.205942,-10658.965565,1532.190996
2808.209416,814.226536,-10658.965565,-229.828649
2808.209743,1554.432478,-8956.491898,-1991.848295
2808.210071,1110.308913,-8956.491898,-536.266849
2808.210399,1184.329507,-11029.068536,1455.581446
2808.210726,2294.638420,-12139.377449,842.705048
2808.211054,3256.906145,-10658.965565,0.000000
2808.211381,3108.864956,-8216.285956,-153.219100
2808.211709,1406.391290,-7994.224174,1378.971896
2808.212036,-370.102971,-9622.677246,2451.505594
2808.212364,-592.164754,-10214.842000,1991.848295
2808.212691,0.000000,-8068.244768,-1378.971896
2808.213019,0.000000,-6661.853478,-2221.676944
2808.213346,0.000000,-9178.553681,-383.047749
2808.213674,-592.164754,-10881.027347,1302.362347
2808.214001,-444.123565,-11029.068536,459.657299
2808.214329,370.102971,-10584.944971,-2757.943793
2808.214657,1332.370696,-9622.677246,-2911.162892
2808.214984,740.205942,-9474.636058,-383.047749
2808.215312,222.061783,-11843.295072,842.705048
2808.215639,148.041188,-11843.295072,995.924147
2808.215967,1110.308913,-10362.883188,-1225.752797
2808.216294,1406.391290,-8956.491898,-1685.410096
2808.216622,0.000000,-8586.388927,-383.047749
2808.216949,-888.247130,-10140.821405,919.314598
2808.217277,370.102971,-10658.965565,536.266849
2808.217604,1332.370696,-9548.656652,-1455.581446
2808.217932,1776.494261,-8290.306550,-1685.410096
2808.218260,888.247130,-8512.368333,306.438199
2808.218587,-888.247130,-9622.677246,2451.505594
2808.218915,-1110.308913,-10732.986159,1225.752797
2808.219242,-148.041188,-11103.089130,-1915.238745
2808.219570,222.061783,-9178.553681,-3447.429741
2808.219897,-740.205942,-8216.285956,-689.485948
2808.220225,-962.267725,-10140.821405,1378.971896
2808.220552,-518.144159,-11177.109724,1378.971896
2808.220880,0.000000,-9104.533087,-766.095498
2808.221207,148.041188,-7031.956449,-2221.676944
2808.221535,-1776.494261,-7402.059420,-689.485948
2808.221862,-962.267725,-10066.800811,1608.800546
2808.222190,0.000000,-10881.027347,1455.581446
2808.222518,1258.350101,-9474.636058,0.000000
2808.222845,2146.597232,-8364.327145,-995.924147
2808.223173,1850.514855,-9770.718434,459.657299
2808.223500,740.205942,-10436.903782,2145.067394
2808.223828,370.102971,-11621.233289,1378.971896
2808.224155,1184.329507,-10214.842000,-2298.286494
2808.224483,1554.432478,-9252.574275,-2298.286494
2808.224810,-518.144159,-8364.327145,0.000000
2808.225138,-1628.453072,-9918.759623,1302.362347
2808.225465,-1850.514855,-11695.253884,229.828649
2808.225793,-518.144159,-10436.903782,-2068.457845
2808.226121,814.226536,-7920.203579,-2604.724693
2808.226448,666.185348,-8882.471304,-536.266849
2808.226776,592.164754,-10658.965565,1915.238745
2808.227103,1554.432478,-11769.274478,2221.676944
2808.227431,2516.700203,-9622.677246,0.000000
2808.227758,1776.494261,-7920.203579,-1608.800546
2808.228086,0.000000,-9252.574275,-612.876398
2808.228413,-1110.308913,-11029.068536,766.095498
2808.228741,-1184.329507,-11473.192101,153.219100
2808.229069,0.000000,-10362.883188,-1838.629195
2808.229396,740.205942,-9252.574275,-2221.676944
2808.229724,666.185348,-8734.430116,153.219100
2808.230051,222.061783,-10066.800811,2068.457845
2808.230379,518.144159,-10436.903782,1225.752797
2808.230706,592.164754,-8956.491898,-919.314598
2808.231034,518.144159,-6513.812290,-1455.581446
2808.231362,-888.247130,-6439.791695,612.876398
2808.231689,-962.267725,-8882.471304,2221.676944
2808.232017,74.020594,-11103.089130,1455.581446
2808.232344,1184.329507,-10288.862594,-995.924147
2808.232672,2146.597232,-9178.553681,-2451.505594
2808.232999,1110.308913,-10140.821405,-766.095498
2808.233327,0.000000,-11325.150913,1915.238745
2808.233655,0.000000,-10732.986159,1149.143247
2808.233982,518.144159,-9104.533087,-1532.190996
2808.234310,444.123565,-7254.018232,-2298.286494
2808.234637,-222.061783,-7920.203579,459.657299
2808.234965,-740.205942,-9622.677246,2604.724693
2808.235292,0.000000,-11547.212695,1838.629195
2808.235620,1184.329507,-9770.718434,-1225.752797
2808.235948,814.226536,-8512.368333,-3370.820191
2808.236275,296.082377,-10066.800811,-1991.848295
2808.236603,296.082377,-11843.295072,-153.219100
2808.236930,1110.308913,-12435.459826,-229.828649
2808.237258,1998.556043,-11473.192101,-1455.581446
2808.237585,1998.556043,-9474.636058,-1455.581446
2808.237913,1110.308913,-9252.574275,76.609550
2808.238241,-1036.288319,-9474.636058,1915.238745
2808.238568,-1184.329507,-10732.986159,459.657299
2808.238896,222.061783,-9400.615463,-2221.676944
2808.239223,814.226536,-7402.059420,-2451.505594
2808.239551,0.000000,-7624.121203,153.219100
2808.239878,-148.041188,-9252.574275,2221.676944
2808.240206,-592.164754,-10584.944971,1532.190996
2808.240534,0.000000,-10658.965565,-1302.362347
2808.240861,518.144159,-8734.430116,-2911.162892
2808.241189,296.082377,-9030.512492,-1149.143247
2808.241516,370.102971,-10807.006753,1685.410096
2808.241844,1332.370696,-11547.212695,1762.019645
2808.242171,1924.535449,-10955.047942,-229.828649
2808.242499,1406.391290,-8068.244768,-1455.581446
2808.242827,74.020594,-7772.162391,-383.047749
2808.243154,-444.123565,-9622.677246,536.266849
2808.243482,-1110.308913,-10362.883188,766.095498
2808.243809,-222.061783,-9252.574275,-306.438199
2808.244137,740.205942,-7772.162391,-1072.533697
2808.244465,148.041188,-8808.450710,306.438199
2808.244792,-888.247130,-10214.842000,2068.457845
2808.245120,-740.205942,-11029.068536,536.266849
2808.245447,296.082377,-10732.986159,-1838.629195
2808.245775,1406.391290,-9474.636058,-3294.210641
2808.246102,296.082377,-9474.636058,-842.705048
2808.246430,-962.267725,-9992.780217,2374.896044
2808.246758,0.000000,-10362.883188,1532.190996
2808.247085,1110.308913,-10658.965565,0.000000
2808.247413,814.226536,-9770.718434,-2528.115143
2808.247740,-518.144159,-9474.636058,-1149.143247
2808.248068,-1406.391290,-10362.883188,0.000000
2808.248395,-1406.391290,-11177.109724,306.438199
2808.248723,-592.164754,-9474.636058,-229.828649
2808.249051,592.164754,-7402.059420,-2068.457845
2808.249378,0.000000,-7402.059420,153.219100
2808.249706,-740.205942,-10066.800811,1225.752797
2808.250033,222.061783,-11399.171507,612.876398
2808.250361,1702.473667,-10658.965565,-919.314598
2808.250688,1924.535449,-9030.512492,-1762.019645
2808.251016,1184.329507,-9178.553681,-612.876398
2808.251344,-370.102971,-10066.800811,1378.971896
2808.251671,0.000000,-11695.253884,612.876398
2808.251999,1924.535449,-10658.965565,-1225.752797
2808.252326,2368.659014,-8660.409521,-1608.800546
2808.252654,888.247130,-7920.203579,995.924147
2808.252981,-888.247130,-8956.491898,2757.943793
2808.253309,-1184.329507,-9770.718434,1915.238745
2808.253637,-1480.411884,-7994.224174,-1149.143247
2808.253964,-888.247130,-6217.729913,-2757.943793
2808.254292,-592.164754,-8512.368333,-1149.143247
2808.254619,-666.185348,-11177.109724,1532.190996
2808.254947,518.144159,-12139.377449,1072.533697
2808.255274,1110.308913,-11769.274478,-1072.533697
2808.255602,1850.514855,-9400.615463,-2987.772442
2808.255930,1850.514855,-9252.574275,-1532.190996
2808.256257,518.144159,-10584.944971,536.266849
2808.256585,1184.329507,-11473.192101,229.828649
2808.256912,2812.782580,-10510.924376,-306.438199
2808.257240,2960.823768,-8290.306550,-612.876398
2808.257567,1036.288319,-7772.162391,842.705048
2808.257895,-148.041188,-9844.739029,1991.848295
2808.258223,-518.144159,-10732.986159,919.314598
2808.258550,962.267725,-10584.944971,-1455.581446
2808.258878,1628.453072,-8512.368333,-3140.991542
2808.259205,592.164754,-8808.450710,-612.876398
2808.259533,-148.041188,-10066.800811,2528.115143
2808.259860,-592.164754,-11325.150913,2374.896044
2808.260188,74.020594,-11029.068536,-766.095498
2808.260516,740.205942,-8586.388927,-2451.505594
2808.260843,148.041188,-8512.368333,-1225.752797
2808.261171,-962.267725,-9696.697840,1455.581446
2808.261498,-666.185348,-11399.171507,1685.410096
2808.261826,0.000000,-9992.780217,-536.266849
2808.262153,0.000000,-7846.182985,-2145.067394
2808.262481,-1110.308913,-8364.327145,-1455.581446
2808.262809,-1036.288319,-9326.594869,383.047749
2808.263136,518.144159,-10436.903782,919.314598
2808.263464,1924.535449,-10288.862594,229.828649
2808.263791,1850.514855,-8438.347739,76.609550
2808.264119,592.164754,-7920.203579,919.314598
2808.264446,-1332.370696,-9030.512492,1302.362347
2808.264774,-1332.370696,-10732.986159,306.438199
2808.265102,-222.061783,-9770.718434,-2757.943793
2808.265429,0.000000,-9030.512492,-2298.286494
2808.265757,-1184.329507,-8956.491898,-689.485948
2808.266084,-2146.597232,-9770.718434,995.924147
2808.266412,-2294.638420,-10881.027347,153.219100
2808.266740,-592.164754,-10436.903782,-2221.676944
2808.267067,296.082377,-8660.409521,-2834.553343
2808.267395,148.041188,-8660.409521,-766.095498
2808.267722,222.061783,-10510.924376,1915.238745
2808.268050,1554.432478,-11843.295072,1915.238745
2808.268377,2590.720797,-10732.986159,0.000000
2808.268705,1998.556043,-8364.327145,-2068.457845
2808.269033,222.061783,-8438.347739,-1225.752797
2808.269360,-370.102971,-10732.986159,-1149.143247
2808.269688,296.082377,-11473.192101,-612.876398
2808.270015,1998.556043,-11103.089130,-1532.190996
2808.270343,2368.659014,-8956.491898,-1532.190996
2808.270670,1628.453072,-8586.388927,306.438199
2808.270998,148.041188,-9400.615463,1532.190996
2808.271326,-370.102971,-11029.068536,766.095498
2808.271653,74.020594,-10066.800811,-1225.752797
2808.271981,592.164754,-7624.121203,-1991.848295
2808.272308,74.020594,-7328.038826,0.000000
2808.272636,-296.082377,-9030.512492,1378.971896
2808.272963,0.000000,-11251.130318,1532.190996
2808.273291,1480.411884,-10436.903782,-459.657299
2808.273619,1998.556043,-8808.450710,-2374.896044
2808.273946,1702.473667,-9548.656652,-919.314598
2808.274274,740.205942,-9992.780217,1378.971896
2808.274601,222.061783,-11547.212695,1455.581446
2808.274929,740.205942,-10362.883188,459.657299
2808.275256,1332.370696,-7772.162391,-1302.362347
2808.275584,740.205942,-7920.203579,-306.438199
2808.275912,-148.041188,-9696.697840,1762.019645
2808.276239,296.082377,-11473.192101,2068.457845
2808.276567,1776.494261,-10436.903782,-459.657299
2808.276894,1480.411884,-8512.368333,-2145.067394
2808.277222,740.205942,-9400.615463,-1149.143247
2808.277549,-370.102971,-10214.842000,612.876398
2808.277877,-1184.329507,-11325.150913,919.314598
2808.278205,370.102971,-11103.089130,-766.095498
2808.278532,1406.391290,-9474.636058,-1685.410096
2808.278860,518.144159,-8290.306550,0.000000
2808.279187,-814.226536,-8808.450710,1915.238745
2808.279515,-962.267725,-10732.986159,1532.190996
2808.279842,0.000000,-10214.842000,-995.924147
2808.280170,740.205942,-7772.162391,-2451.505594
2808.280498,-444.123565,-8068.244768,-306.438199
2808.280825,-1110.308913,-9992.780217,2298.286494
2808.281153,-518.144159,-11251.130318,995.924147
2808.281480,74.020594,-11103.089130,-1149.143247
2808.281808,296.082377,-10288.862594,-2834.553343
2808.282135,0.000000,-9548.656652,-1532.190996
2808.282463,148.041188,-10288.862594,153.219100
2808.282791,518.144159,-12139.377449,689.485948
2808.283118,1480.411884,-11621.233289,-383.047749
2808.283446,2220.617826,-7846.182985,-1302.362347
2808.283773,0.000000,-6957.935855,0.000000
2808.284101,-1998.556043,-8882.471304,766.095498
2808.284428,-2812.782580,-10066.800811,306.438199
2808.284756,-1184.329507,-9622.677246,-1378.971896
2808.285084,148.041188,-8882.471304,-2374.896044
2808.285411,0.000000,-9844.739029,-459.657299
2808.285739,-962.267725,-9622.677246,1608.800546
2808.286066,-518.144159,-10881.027347,995.924147
2808.286394,592.164754,-10140.821405,-1149.143247
2808.286721,1998.556043,-8808.450710,-2757.943793
2808.287049,1110.308913,-8734.430116,-766.095498
2808.287377,666.185348,-10214.842000,1762.019645
2808.287704,888.247130,-11769.274478,2298.286494
2808.288032,1480.411884,-11621.233289,-459.657299
2808.288359,518.144159,-9326.594869,-3064.381992
2808.288687,-370.102971,-9178.553681,-2221.676944
2808.289014,-740.205942,-9992.780217,-383.047749
2808.289342,148.041188,-10807.006753,153.219100
2808.289670,1776.494261,-10288.862594,0.000000
2808.289997,1924.535449,-7846.182985,0.000000
2808.290325,888.247130,-6291.750507,536.266849
2808.290652,0.000000,-8290.306550,1302.362347
2808.290980,-740.205942,-10362.883188,1302.362347
2808.291308,1110.308913,-10510.924376,-842.705048
2808.291635,2294.638420,-9252.574275,-1762.019645
2808.291963,1184.329507,-9474.636058,229.828649
2808.292290,666.185348,-10214.842000,1225.752797
2808.292618,518.144159,-11251.130318,1149.143247
2808.292945,1110.308913,-11103.089130,-1378.971896
2808.293273,1406.391290,-9252.574275,-1762.019645
2808.293601,814.226536,-8660.409521,0.000000
2808.293928,-518.144159,-9252.574275,2451.505594
2808.294256,-518.144159,-10510.924376,2757.943793
2808.294583,0.000000,-9326.594869,1072.533697
2808.294911,0.000000,-7105.977043,-766.095498
2808.295238,0.000000,-8216.285956,-1072.533697
2808.295566,-740.205942,-10214.842000,-306.438199
2808.295894,0.000000,-11695.253884,0.000000
2808.296221,1184.329507,-10955.047942,-766.095498
2808.296549,2072.576638,-9622.677246,-1532.190996
2808.296876,814.226536,-9252.574275,153.219100
2808.297204,-888.247130,-9770.718434,1225.752797
2808.297531,-740.205942,-10732.986159,76.609550
2808.297859,666.185348,-10584.944971,-842.705048
2808.298187,1258.350101,-8956.491898,-2068.457845
2808.298514,0.000000,-7920.203579,229.828649
2808.298842,-1480.411884,-8660.409521,2145.067394
2808.299169,-1332.370696,-10658.965565,842.705048
2808.299497,222.061783,-10658.965565,-1072.533697
2808.299824,814.226536,-8512.368333,-2834.553343
2808.300152,0.000000,-8068.244768,-1685.410096
2808.300480,-888.247130,-10066.800811,842.705048
2808.300807,-1258.350101,-12509.480420,1225.752797
2808.301135,0.000000,-11769.274478,-1072.533697
2808.301462,1258.350101,-9030.512492,-2604.724693
2808.301790,1184.329507,-8956.491898,-2374.896044
2808.302117,370.102971,-10584.944971,0.000000
2808.302445,666.185348,-11325.150913,1149.143247
2808.302773,1184.329507,-10214.842000,-536.266849
2808.303100,1110.308913,-8438.347739,-1225.752797
2808.303428,148.041188,-7698.141797,-536.266849
2808.303755,-296.082377,-9030.512492,919.314598
2808.304083,74.020594,-10881.027347,995.924147
2808.304410,1258.350101,-10732.986159,-536.266849
2808.304738,2442.679609,-8956.491898,-536.266849
2808.305066,1184.329507,-8290.306550,536.266849
2808.305393,-148.041188,-9178.553681,1915.238745
2808.305721,-740.205942,-10584.944971,1149.143247
2808.306048,370.102971,-10584.944971,-1455.581446
2808.306376,814.226536,-8290.306550,-2757.943793
2808.306703,-518.144159,-7920.203579,0.000000
2808.307031,-2146.597232,-9474.636058,2374.896044
2808.307359,-1554.432478,-11547.212695,1455.581446
2808.307686,0.000000,-10881.027347,-1378.971896
2808.308014,888.247130,-8364.327145,-3064.381992
2808.308341,1258.350101,-8068.244768,-1225.752797
2808.308669,1332.370696,-10066.800811,1608.800546
2808.308996,2368.659014,-11769.274478,3064.381992
2808.309324,3182.885551,-10140.821405,1685.410096
2808.309652,2812.782580,-8364.327145,-612.876398
2808.309979,888.247130,-8586.388927,-383.047749
2808.310307,-740.205942,-9400.615463,0.000000
2808.310634,-962.267725,-11251.130318,153.219100
2808.310962,74.020594,-11473.192101,-1302.362347
2808.311289,1776.494261,-10288.862594,-1378.971896
2808.311617,1406.391290,-8808.450710,0.000000
2808.311945,-296.082377,-9474.636058,1378.971896
2808.312272,-888.247130,-10807.006753,1225.752797
2808.312600,0.000000,-9992.780217,-766.095498
2808.312927,444.123565,-7105.977043,-2451.505594
2808.313255,-148.041188,-6883.915261,-612.876398
2808.313583,-1110.308913,-8586.388927,2451.505594
2808.313910,-592.164754,-11103.089130,2757.943793
2808.314238,444.123565,-11399.171507,-612.876398
2808.314565,1998.556043,-9548.656652,-3447.429741
2808.314893,1406.391290,-9622.677246,-2681.334243
2808.315220,444.123565,-10510.924376,459.657299
2808.315548,370.102971,-11843.295072,1762.019645
2808.315876,1702.473667,-10510.924376,0.000000
2808.316203,1480.411884,-7698.141797,-995.924147
2808.316531,-148.041188,-7402.059420,0.000000
2808.316858,-1850.514855,-8808.450710,1302.362347
2808.317186,-1924.535449,-10584.944971,766.095498
2808.317513,0.000000,-10658.965565,-1532.190996
2808.317841,888.247130,-8512.368333,-2681.334243
2808.318169,0.000000,-8660.409521,-612.876398
2808.318496,-740.205942,-9622.677246,1455.581446
2808.318824,-962.267725,-11251.130318,842.705048
2808.319151,296.082377,-11251.130318,-1302.362347
2808.319479,1554.432478,-8956.491898,-2834.553343
2808.319806,444.123565,-8068.244768,-689.485948
2808.320134,-592.164754,-9548.656652,2681.334243
2808.320462,74.020594,-11251.130318,2221.676944
2808.320789,962.267725,-10214.842000,-536.266849
2808.321117,1258.350101,-7476.080014,-2451.505594
2808.321444,666.185348,-7624.121203,-1532.190996
2808.321772,74.020594,-10066.800811,842.705048
2808.322099,666.185348,-11103.089130,842.705048
2808.322427,1702.473667,-10658.965565,-1149.143247
2808.322755,1554.432478,-8882.471304,-1072.533697
2808.323082,1332.370696,-9252.574275,0.000000
2808.323410,740.205942,-11251.130318,689.485948
2808.323737,0.000000,-11769.274478,842.705048
2808.324065,1184.329507,-11029.068536,-612.876398
2808.324392,2294.638420,-8882.471304,-1608.800546
2808.324720,444.123565,-8216.285956,0.000000
2808.325048,-1924.535449,-8216.285956,2451.505594
2808.325375,-2368.659014,-9178.553681,1532.190996
2808.325703,-1406.391290,-9992.780217,-306.438199
2808.326030,148.041188,-8586.388927,-1915.238745
2808.326358,0.000000,-7254.018232,-766.095498
2808.326685,-962.267725,-9622.677246,1838.629195
2808.327013,-296.082377,-12065.356855,1455.581446
2808.327341,1036.288319,-11177.109724,-842.705048
2808.327668,2220.617826,-8290.306550,-2145.067394
2808.327996,1332.370696,-8364.327145,-1149.143247
2808.328323,888.247130,-11177.109724,919.314598
2808.328651,592.164754,-12657.521608,1608.800546
2808.328978,962.267725,-11177.109724,-536.266849
2808.329306,814.226536,-8660.409521,-2451.505594
2808.329634,-222.061783,-7994.224174,-1455.581446
2808.329961,-2294.638420,-9400.615463,229.828649
2808.330289,-1850.514855,-10732.986159,229.828649
2808.330617,148.041188,-10436.903782,-919.314598
2808.330944,1184.329507,-8068.244768,-1762.019645
2808.331272,666.185348,-7179.997637,76.609550
2808.331599,-444.123565,-8142.265362,2068.457845
2808.331927,0.000000,-10584.944971,1762.019645
2808.332255,0.000000,-11103.089130,-1608.800546
2808.332582,1184.329507,-9548.656652,-2987.772442
2808.332910,74.020594,-9178.553681,-1685.410096
2808.333237,-370.102971,-10140.821405,612.876398
2808.333565,-888.247130,-11917.315666,1072.533697
2808.333893,370.102971,-11621.233289,-1302.362347
2808.334220,1480.411884,-8216.285956,-2298.286494
2808.334548,1998.556043,-7994.224174,-1225.752797
2808.334875,370.102971,-9400.615463,1072.533697
2808.335203,-222.061783,-10436.903782,2221.676944
2808.335531,74.020594,-9474.636058,536.266849
2808.335858,222.061783,-8142.265362,-995.924147
2808.336186,0.000000,-7698.141797,-1532.190996
2808.336513,-888.247130,-9104.533087,766.095498
2808.336841,-1110.308913,-11621.233289,995.924147
2808.337169,592.164754,-11843.295072,-1149.143247
2808.337496,1480.411884,-9474.636058,-2374.896044
2808.337824,888.247130,-8734.430116,-1149.143247
2808.338151,-666.185348,-9622.677246,1378.971896
2808.338479,-148.041188,-10510.924376,1838.629195
2808.338807,962.267725,-9844.739029,0.000000
2808.339134,1702.473667,-8586.388927,-919.314598
2808.339462,592.164754,-7772.162391,0.000000
2808.339789,-666.185348,-9400.615463,2298.286494
2808.340117,-1036.288319,-10288.862594,1915.238745
2808.340445,222.061783,-10584.944971,-1072.533697
2808.340772,2220.617826,-9474.636058,-3447.429741
2808.341100,1110.308913,-8512.368333,-2068.457845
2808.341428,370.102971,-9548.656652,766.095498
2808.341755,444.123565,-11843.295072,1762.019645
2808.342083,1554.432478,-11695.253884,383.047749
2808.342410,2146.597232,-9622.677246,-1149.143247
2808.342738,1184.329507,-8438.347739,-766.095498
2808.343066,0.000000,-9770.718434,842.705048
2808.343393,-740.205942,-10881.027347,919.314598
2808.343721,814.226536,-10066.800811,0.000000
2808.344048,1036.288319,-8068.244768,-1378.971896
2808.344376,148.041188,-8290.306550,-153.219100
2808.344704,-592.164754,-9622.677246,1378.971896
2808.345031,-666.185348,-10658.965565,1302.362347
2808.345359,0.000000,-9622.677246,-459.657299
2808.345686,814.226536,-8734.430116,-2451.505594
2808.346014,222.061783,-7550.100608,306.438199
2808.346342,-666.185348,-8808.450710,1608.800546
2808.346669,-370.102971,-11473.192101,1762.019645
2808.346997,666.185348,-11621.233289,-383.047749
2808.347324,518.144159,-8364.327145,-2298.286494
2808.347652,-888.247130,-7846.182985,-1685.410096
2808.347980,-2220.617826,-9474.636058,919.314598
2808.348307,-1554.432478,-11029.068536,153.219100
2808.348635,222.061783,-10658.965565,-1225.752797
2808.348962,1702.473667,-8808.450710,-2298.286494
2808.349290,2072.576638,-8734.430116,-306.438199
2808.349618,1332.370696,-9770.718434,1608.800546
2808.349945,1184.329507,-11103.089130,1991.848295
2808.350273,1036.288319,-11103.089130,-306.438199
2808.350601,1628.453072,-8068.244768,-2451.505594
2808.350928,666.185348,-8660.409521,-1762.019645
2808.351256,-1184.329507,-9400.615463,306.438199
2808.351583,-1258.350101,-10214.842000,612.876398
2808.351911,-296.082377,-10881.027347,-995.924147
2808.352239,1258.350101,-9918.759623,-1838.629195
2808.352566,222.061783,-9030.512492,-1608.800546
2808.352894,0.000000,-9696.697840,306.438199
2808.353221,-592.164754,-11399.171507,1072.533697
2808.353549,222.061783,-10807.006753,-383.047749
2808.353877,962.267725,-7772.162391,-1532.190996
2808.354204,592.164754,-7254.018232,-383.047749
2808.354532,592.164754,-9770.718434,1608.800546
2808.354859,962.267725,-11843.295072,2298.286494
2808.355187,1924.535449,-11399.171507,-459.657299
2808.355515,2590.720797,-9696.697840,-1915.238745
2808.355842,2516.700203,-9178.553681,-766.095498
2808.356170,1406.391290,-9474.636058,1149.143247
2808.356497,74.020594,-10584.944971,2298.286494
2808.356825,518.144159,-10658.965565,1608.800546
2808.357153,2220.617826,-7920.203579,-995.924147
2808.357480,222.061783,-7179.997637,383.047749
2808.357808,-1776.494261,-8808.450710,2451.505594
2808.358135,-2516.700203,-9844.739029,2221.676944
2808.358463,-1406.391290,-9696.697840,-766.095498
2808.358791,-296.082377,-8290.306550,-3294.210641
2808.359118,-148.041188,-8438.347739,-2068.457845
2808.359446,-222.061783,-9844.739029,0.000000
2808.359774,-444.123565,-11695.253884,1762.019645
2808.360101,444.123565,-11843.295072,-153.219100
2808.360429,2590.720797,-9770.718434,-1991.848295
2808.360756,1702.473667,-8956.491898,-842.705048
2808.361084,296.082377,-9474.636058,1149.143247
2808.361412,296.082377,-10362.883188,1455.581446
2808.361739,1406.391290,-10288.862594,76.609550
2808.362067,1702.473667,-9104.533087,-1302.362347
2808.362394,1184.329507,-8142.265362,-306.438199
2808.362722,-296.082377,-8660.409521,766.095498
2808.363050,-1776.494261,-9844.739029,766.095498
2808.363377,-518.144159,-11621.233289,-1762.019645
2808.363705,0.000000,-10362.883188,-3447.429741
2808.364032,0.000000,-9474.636058,-2604.724693
2808.364360,-296.082377,-10214.842000,306.438199
2808.364688,-148.041188,-11991.336260,919.314598
2808.365015,888.247130,-11621.233289,-459.657299
2808.365343,1258.350101,-9474.636058,-2068.457845
2808.365670,-296.082377,-7994.224174,-1685.410096
2808.365998,-1850.514855,-8364.327145,842.705048
2808.366326,-2220.617826,-10436.903782,1149.143247
2808.366653,-1776.494261,-9844.739029,-689.485948
2808.366981,0.000000,-8142.265362,-2528.115143
2808.367308,740.205942,-8068.244768,-1302.362347
2808.367636,370.102971,-9622.677246,1072.533697
2808.367964,296.082377,-11991.336260,2068.457845
2808.368291,2294.638420,-10807.006753,0.000000
2808.368619,3478.967927,-8734.430116,-2528.115143
2808.368947,2072.576638,-7846.182985,0.000000
2808.369274,148.041188,-8734.430116,1455.581446
2808.369602,-666.185348,-10510.924376,1532.190996
2808.369929,0.000000,-11177.109724,-459.657299
2808.370257,1406.391290,-9696.697840,-2528.115143
2808.370585,1258.350101,-8882.471304,-1225.752797
2808.370912,74.020594,-9696.697840,995.924147
2808.371240,-222.061783,-10658.965565,1608.800546
2808.371567,148.041188,-9844.739029,-153.219100
2808.371895,666.185348,-7402.059420,-1608.800546
2808.372223,148.041188,-7105.977043,-536.266849
2808.372550,-740.205942,-8142.265362,1838.629195
2808.372878,-518.144159,-10066.800811,2298.286494
2808.373205,888.247130,-11029.068536,459.657299
2808.373533,1924.535449,-10732.986159,-1915.238745
2808.373861,1258.350101,-9622.677246,-1762.019645
2808.374188,666.185348,-10510.924376,-229.828649
2808.374516,-222.061783,-12065.356855,383.047749
2808.374843,1480.411884,-12287.418637,-919.314598
2808.375171,2886.803174,-9918.759623,-1072.533697
2808.375499,2220.617826,-8216.285956,459.657299
2808.375826,592.164754,-9178.553681,1608.800546
2808.376154,-740.205942,-10288.862594,2145.067394
2808.376481,-1110.308913,-10140.821405,153.219100
2808.376809,-592.164754,-7920.203579,-2145.067394
2808.377137,-740.205942,-7698.141797,-1762.019645
2808.377464,-1184.329507,-8956.491898,1532.190996
2808.377792,-1480.411884,-10140.821405,1455.581446
2808.378120,370.102971,-11029.068536,-306.438199
2808.378447,1406.391290,-10658.965565,-1838.629195
2808.378775,296.082377,-9030.512492,-1532.190996
2808.379102,-1110.308913,-9770.718434,536.266849
2808.379430,-1110.308913,-11547.212695,1608.800546
2808.379758,370.102971,-10881.027347,0.000000
2808.380085,1332.370696,-7994.224174,-1762.019645
2808.380413,1184.329507,-7402.059420,-383.047749
2808.380740,0.000000,-9030.512492,1302.362347
2808.381068,-296.082377,-10732.986159,1225.752797
2808.381396,518.144159,-9844.739029,-612.876398
2808.381723,1332.370696,-8586.388927,-2298.286494
2808.382051,1036.288319,-8364.327145,-1838.629195
2808.382378,0.000000,-9622.677246,919.314598
2808.382706,-666.185348,-10881.027347,1149.143247
2808.383034,0.000000,-10658.965565,-383.047749
2808.383361,1776.494261,-10436.903782,-2681.334243
2808.383689,888.247130,-9326.594869,-1532.190996
2808.384016,-74.020594,-9400.615463,612.876398
2808.384344,-518.144159,-10955.047942,842.705048
2808.384672,0.000000,-10658.965565,-689.485948
2808.384999,518.144159,-7550.100608,-3064.381992
2808.385327,-148.041188,-7179.997637,-2451.505594
2808.385654,-1554.432478,-9252.574275,919.314598
2808.385982,-962.267725,-11843.295072,1378.971896
2808.386310,592.164754,-11917.315666,-383.047749
2808.386637,1406.391290,-8882.471304,-2145.067394
2808.386965,1480.411884,-7994.224174,-536.266849
2808.387293,1406.391290,-9104.533087,842.705048
2808.387620,296.082377,-11103.089130,1762.019645
2808.387948,740.205942,-10955.047942,766.095498
2808.388275,1332.370696,-9104.533087,-1608.800546
2808.388603,0.000000,-8438.347739,-1455.581446
2808.388931,-1036.288319,-10066.800811,153.219100
2808.389258,-1628.453072,-10881.027347,689.485948
2808.389586,-518.144159,-10658.965565,-306.438199
2808.389913,1998.556043,-9622.677246,-1838.629195
2808.390241,2368.659014,-8364.327145,-536.266849
2808.390569,1036.288319,-8882.471304,1762.019645
2808.390896,518.144159,-10436.903782,2911.162892
2808.391224,518.144159,-10214.842000,689.485948
2808.391551,666.185348,-7105.977043,-1685.410096
2808.391879,148.041188,-7105.977043,-1455.581446
2808.392207,-1036.288319,-9326.594869,1072.533697
2808.392534,-666.185348,-11621.233289,2374.896044
2808.392862,740.205942,-11917.315666,229.828649
2808.393189,1776.494261,-10436.903782,-2451.505594
2808.393517,740.205942,-8734.430116,-2374.896044
2808.393845,-1110.308913,-8734.430116,-229.828649
2808.394172,-666.185348,-10510.924376,919.314598
2808.394500,814.226536,-10066.800811,306.438199
2808.394827,2146.597232,-8142.265362,-459.657299
2808.395155,962.267725,-7402.059420,689.485948
2808.395483,-296.082377,-9918.759623,1532.190996
2808.395810,-1036.288319,-11399.171507,383.047749
2808.396138,0.000000,-11251.130318,-1455.581446
2808.396466,962.267725,-8956.491898,-4366.744339
2808.396793,962.267725,-9104.533087,-2604.724693
2808.397121,740.205942,-10362.883188,919.314598
2808.397448,814.226536,-12213.398043,2604.724693
2808.397776,1702.473667,-11251.130318,689.485948
2808.398104,1628.453072,-8586.388927,-1302.362347
2808.398431,518.144159,-7254.018232,-306.438199
2808.398759,-2220.617826,-8734.430116,1838.629195
2808.399086,-2294.638420,-10658.965565,1608.800546
2808.399414,-1406.391290,-10288.862594,-1225.752797
2808.399742,-740.205942,-8290.306550,-3064.381992
2808.400069,-888.247130,-8142.265362,-2221.676944
2808.400397,-1332.370696,-9178.553681,459.657299
2808.400724,-666.185348,-11473.192101,689.485948
2808.401052,1332.370696,-11917.315666,-995.924147
2808.401380,2368.659014,-9474.636058,-2374.896044
2808.401707,2146.597232,-8068.244768,-612.876398
2808.402035,1258.350101,-9104.533087,1991.848295
2808.402362,0.000000,-10658.965565,3064.381992
2808.402690,814.226536,-11029.068536,1455.581446
2808.403018,2072.576638,-8808.450710,-1685.410096
2808.403345,1702.473667,-7994.224174,-1762.019645
2808.403673,1036.288319,-9104.533087,383.047749
2808.404000,-962.267725,-9918.759623,1838.629195
2808.404328,-1554.432478,-9474.636058,0.000000
2808.404656,-1036.288319,-8882.471304,-2528.115143
2808.404983,222.061783,-9548.656652,-2068.457845
2808.405311,-370.102971,-9622.677246,0.000000
2808.405639,296.082377,-11695.253884,1302.362347
2808.405966,2072.576638,-12657.521608,459.657299
2808.406294,2072.576638,-10140.821405,-1302.362347
2808.406621,1184.329507,-8290.306550,-1302.362347
2808.406949,-740.205942,-9400.615463,306.438199
2808.407277,-1480.411884,-10658.965565,536.266849
2808.407604,-592.164754,-10584.944971,-766.095498
2808.407932,1628.453072,-9030.512492,-1149.143247
2808.408259,1850.514855,-8956.491898,-612.876398
2808.408587,592.164754,-9548.656652,2145.067394
2808.408915,-962.267725,-10510.924376,2528.115143
2808.409242,222.061783,-10214.842000,0.000000
2808.409570,2220.617826,-8956.491898,-3140.991542
2808.409897,962.267725,-7476.080014,-1915.238745
2808.410225,0.000000,-9030.512492,1378.971896
2808.410553,0.000000,-9918.759623,2298.286494
2808.410880,148.041188,-11029.068536,383.047749
2808.411208,518.144159,-9548.656652,-1915.238745
2808.411535,-148.041188,-8882.471304,-1915.238745
2808.411863,-1184.329507,-10214.842000,153.219100
2808.412191,-1258.350101,-12139.377449,766.095498
2808.412518,592.164754,-11547.212695,-689.485948
2808.412846,1110.308913,-7698.141797,-1532.190996
2808.413173,518.144159,-6439.791695,0.000000
2808.413501,-296.082377,-8586.388927,1915.238745
2808.413829,-444.123565,-10658.965565,1762.019645
2808.414156,1036.288319,-10510.924376,0.000000
2808.414484,2590.720797,-8660.409521,-1838.629195
2808.414812,1776.494261,-8808.450710,-1532.190996
2808.415139,518.144159,-10436.903782,995.924147
2808.415467,-296.082377,-11769.274478,1608.800546
2808.415794,296.082377,-12139.377449,-842.705048
2808.416122,1850.514855,-10732.986159,-3447.429741
2808.416450,1480.411884,-8808.450710,-2221.676944
2808.416777,-222.061783,-9400.615463,1532.190996
2808.417105,-740.205942,-9696.697840,2528.115143
2808.417432,-962.267725,-9770.718434,1378.971896
2808.417760,-888.247130,-7328.038826,-1225.752797
2808.418088,-962.267725,-6291.750507,-2221.676944
2808.418415,-1554.432478,-8808.450710,-459.657299
2808.418743,-666.185348,-11547.212695,1072.533697
2808.419070,74.020594,-11843.295072,153.219100
2808.419398,962.267725,-9474.636058,-1455.581446
2808.419726,1406.391290,-9400.615463,-2221.676944
2808.420053,740.205942,-9844.739029,-229.828649
2808.420381,518.144159,-11695.253884,842.705048
2808.420708,1554.432478,-11621.233289,76.609550
2808.421036,2294.638420,-9400.615463,-1302.362347
2808.421364,1554.432478,-7031.956449,0.000000
2808.421691,74.020594,-7550.100608,995.924147
2808.422019,-1776.494261,-10214.842000,2068.457845
2808.422346,-296.082377,-9770.718434,0.000000
2808.422674,1480.411884,-8586.388927,-2757.943793
2808.423002,1110.308913,-8438.347739,-2145.067394
2808.423329,518.144159,-9548.656652,1072.533697
2808.423657,-1036.288319,-9696.697840,2528.115143
2808.423985,0.000000,-11103.089130,1149.143247
2808.424312,444.123565,-9474.636058,-1838.629195
2808.424640,740.205942,-8512.368333,-2221.676944
2808.424967,-444.123565,-9252.574275,0.000000
2808.425295,-370.102971,-11843.295072,1225.752797
2808.425623,444.123565,-11917.315666,536.266849
2808.425950,888.247130,-9548.656652,-1455.581446
2808.426278,296.082377,-8068.244768,-1915.238745
2808.426605,-592.164754,-9400.615463,-459.657299
2808.426933,-1184.329507,-10658.965565,612.876398
2808.427261,666.185348,-10732.986159,76.609550
2808.427588,2442.679609,-8882.471304,-612.876398
2808.427916,2664.741391,-8364.327145,919.314598
2808.428243,740.205942,-9696.697840,1991.848295
2808.428571,-592.164754,-10807.006753,2528.115143
2808.428899,0.000000,-11473.192101,-383.047749
2808.429226,962.267725,-9030.512492,-3524.039291
2808.429554,444.123565,-8364.327145,-2221.676944
2808.429881,-1184.329507,-9622.677246,1915.238745
2808.430209,-1998.556043,-11029.068536,3140.991542
2808.430537,-1628.453072,-10436.903782,0.000000
2808.430864,-148.041188,-8956.491898,-2987.772442
2808.431192,-370.102971,-7328.038826,-2834.553343
2808.431519,-1480.411884,-8734.430116,-153.219100
2808.431847,-740.205942,-10807.006753,1838.629195
2808.432175,1776.494261,-11029.068536,842.705048
2808.432502,3256.906145,-9252.574275,-766.095498
2808.432830,2146.597232,-7920.203579,-612.876398
2808.433158,444.123565,-9326.594869,1302.362347
2808.433485,0.000000,-10807.006753,0.000000
2808.433813,444.123565,-11177.109724,-1838.629195
2808.434140,1184.329507,-9474.636058,-3140.991542
2808.434468,1406.391290,-8586.388927,-1072.533697
2808.434796,962.267725,-9474.636058,1455.581446
2808.435123,74.020594,-10584.944971,2451.505594
2808.435451,222.061783,-11103.089130,459.657299
2808.435778,1258.350101,-8808.450710,-2068.457845
2808.436106,222.061783,-7402.059420,-2451.505594
2808.436434,-1110.308913,-8438.347739,0.000000
2808.436761,-1110.308913,-10140.821405,1072.533697
2808.437089,0.000000,-11251.130318,306.438199
2808.437416,518.144159,-9252.574275,-1838.629195
2808.437744,1036.288319,-8956.491898,-1762.019645
2808.438072,592.164754,-10881.027347,0.000000
2808.438399,814.226536,-12213.398043,689.485948
2808.438727,1184.329507,-11621.233289,-153.219100
2808.439054,1258.350101,-9178.553681,-1149.143247
2808.439382,1036.288319,-7328.038826,0.000000
2808.439710,0.000000,-8290.306550,1685.410096
2808.440037,-370.102971,-10362.883188,2374.896044
2808.440365,666.185348,-10955.047942,153.219100
2808.440692,1554.432478,-9770.718434,-1225.752797
2808.441020,962.267725,-8364.327145,-1072.533697
2808.441348,74.020594,-8808.450710,0.000000
2808.441675,-740.205942,-10140.821405,1455.581446
2808.442003,-296.082377,-11843.295072,1149.143247
2808.442331,1480.411884,-9474.636058,-1532.190996
2808.442658,1702.473667,-7994.224174,-766.095498
2808.442986,-666.185348,-8512.368333,2068.457845
2808.443313,-1776.494261,-10066.800811,2911.162892
2808.443641,-962.267725,-9992.780217,766.095498
2808.443969,-148.041188,-7476.080014,-1608.800546
2808.444296,-370.102971,-6735.874072,-2298.286494
2808.444624,-370.102971,-8142.265362,0.000000
2808.444951,74.020594,-9844.739029,1608.800546
2808.445279,814.226536,-10510.924376,1072.533697
2808.445607,1628.453072,-9992.780217,-995.924147
2808.445934,1036.288319,-10066.800811,-1225.752797
2808.446262,-518.144159,-10510.924376,-306.438199
2808.446589,0.000000,-12213.398043,-383.047749
2808.446917,1554.432478,-12287.418637,-995.924147
2808.447245,1998.556043,-9918.759623,-1225.752797
2808.447572,1258.350101,-8882.471304,0.000000
2808.447900,-444.123565,-8956.491898,1149.143247
2808.448227,-1628.453072,-10362.883188,306.438199
2808.448555,-1702.473667,-10436.903782,-2068.457845
2808.448883,-888.247130,-9622.677246,-2911.162892
2808.449210,-666.185348,-7920.203579,-1991.848295
2808.449538,-296.082377,-9252.574275,0.000000
2808.449865,-518.144159,-10584.944971,1838.629195
2808.450193,814.226536,-11843.295072,536.266849
2808.450521,2072.576638,-10214.842000,-1991.848295
2808.450848,2146.597232,-8364.327145,-2145.067394
2808.451176,74.020594,-8808.450710,0.000000
2808.451503,-296.082377,-10066.800811,1838.629195
2808.451831,222.061783,-10214.842000,0.000000
2808.452159,148.041188,-8956.491898,-995.924147
2808.452486,74.020594,-8216.285956,-689.485948
2808.452814,0.000000,-9696.697840,612.876398
2808.453142,148.041188,-11325.150913,536.266849
2808.453469,1184.329507,-10881.027347,-306.438199
2808.453797,1628.453072,-8364.327145,-1685.410096
2808.454124,1850.514855,-7476.080014,-306.438199
2808.454452,814.226536,-7920.203579,1378.971896
2808.454780,-296.082377,-9400.615463,2145.067394
2808.455107,0.000000,-10510.924376,536.266849
2808.455435,1258.350101,-10066.800811,-1225.752797
2808.455762,1776.494261,-9474.636058,-2221.676944
2808.456090,888.247130,-9622.677246,0.000000
2808.456418,518.144159,-10881.027347,1532.190996
2808.456745,592.164754,-11621.233289,0.000000
2808.457073,1702.473667,-10362.883188,-1991.848295
2808.457400,1332.370696,-8512.368333,-1532.190996
2808.457728,-444.123565,-8512.368333,612.876398
2808.458056,-1332.370696,-10066.800811,2374.896044
2808.458383,-1480.411884,-10658.965565,919.314598
2808.458711,-962.267725,-8882.471304,-1685.410096
2808.459038,-1184.329507,-7994.224174,-2068.457845
2808.459366,-1480.411884,-9474.636058,-1072.533697
2808.459694,-1036.288319,-10955.047942,-306.438199
2808.460021,222.061783,-11399.171507,-459.657299
2808.460349,2368.659014,-10807.006753,-1225.752797
2808.460676,2812.782580,-9400.615463,-229.828649
2808.461004,1406.391290,-9252.574275,1532.190996
2808.461332,-222.061783,-10140.821405,2221.676944
2808.461659,0.000000,-10955.047942,842.705048
2808.461987,1036.288319,-9178.553681,-1302.362347
2808.462315,814.226536,-7698.141797,-1072.533697
2808.462642,-814.226536,-8808.450710,1072.533697
2808.462970,-1406.391290,-9474.636058,2451.505594
2808.463297,0.000000,-9992.780217,536.266849
2808.463625,296.082377,-9474.636058,-1455.581446
2808.463953,74.020594,-7624.121203,-1762.019645
2808.464280,-666.185348,-8808.450710,-383.047749
2808.464608,-1036.288319,-11177.109724,536.266849
2808.464935,-518.144159,-11399.171507,306.438199
2808.465263,814.226536,-9992.780217,-536.266849
2808.465591,1184.329507,-8586.388927,-842.705048
2808.465918,518.144159,-9696.697840,383.047749
2808.466246,740.205942,-11103.089130,229.828649
2808.466573,592.164754,-10955.047942,0.000000
2808.466901,1776.494261,-9326.594869,-1455.581446
2808.467229,1554.432478,-7550.100608,-995.924147
2808.467556,444.123565,-9030.512492,536.266849
2808.467884,-740.205942,-10732.986159,1455.581446
2808.468211,74.020594,-11843.295072,383.047749
2808.468539,1110.308913,-9696.697840,-1378.971896
2808.468867,1628.453072,-8882.471304,-1608.800546
2808.469194,814.226536,-9400.615463,0.000000
2808.469522,-148.041188,-10214.842000,842.705048
2808.469849,-222.061783,-10732.986159,229.828649
2808.470177,1406.391290,-9548.656652,-1762.019645
2808.470505,222.061783,-8068.244768,-1455.581446
2808.470832,-1480.411884,-9178.553681,689.485948
2808.471160,-2220.617826,-11029.068536,1149.143247
2808.471488,-1924.535449,-11769.274478,-306.438199
2808.471815,-148.041188,-9622.677246,-2451.505594
2808.472143,518.144159,-8660.409521,-3064.381992
2808.472470,0.000000,-9104.533087,76.609550
2808.472798,1258.350101,-9918.759623,2298.286494
2808.473126,2516.700203,-10288.862594,1455.581446
2808.473453,3108.864956,-9622.677246,536.266849
2808.473781,2516.700203,-8660.409521,153.219100
2808.474108,888.247130,-8216.285956,0.000000
2808.474436,-814.226536,-8882.471304,842.705048
2808.474764,-666.185348,-11251.130318,0.000000
2808.475091,888.247130,-10510.924376,-842.705048
2808.475419,1184.329507,-9104.533087,-766.095498
2808.475746,740.205942,-9548.656652,536.266849
2808.476074,-444.123565,-10140.821405,1838.629195
2808.476402,-592.164754,-10066.800811,919.314598
2808.476729,-296.082377,-7402.059420,-1072.533697
2808.477057,0.000000,-6365.771101,-1455.581446
2808.477384,-1628.453072,-7772.162391,153.219100
2808.477712,-1110.308913,-10510.924376,1762.019645
2808.478040,0.000000,-11399.171507,612.876398
2808.478367,962.267725,-10732.986159,-1915.238745
2808.478695,1406.391290,-10510.924376,-2757.943793
2808.479022,740.205942,-11103.089130,-2451.505594
2808.479350,296.082377,-11843.295072,0.000000
2808.479678,1258.350101,-11399.171507,-995.924147
2808.480005,1850.514855,-9696.697840,-919.314598
2808.480333,1702.473667,-8142.265362,0.000000
2808.480661,296.082377,-8364.327145,1685.410096
2808.480988,-1480.411884,-9770.718434,2528.115143
2808.481316,-1406.391290,-10510.924376,689.485948
2808.481643,-740.205942,-9326.594869,-2145.067394
2808.481971,-222.061783,-7920.203579,-2834.553343
2808.482299,-370.102971,-8586.388927,-842.705048
2808.482626,-296.082377,-10658.965565,1455.581446
2808.482954,296.082377,-11177.109724,612.876398
2808.483281,2072.576638,-9992.780217,-1302.362347
2808.483609,1554.432478,-10066.800811,-1455.581446
2808.483937,-592.164754,-8512.368333,1072.533697
2808.484264,-1480.411884,-9474.636058,1685.410096
2808.484592,-814.226536,-9770.718434,0.000000
2808.484919,0.000000,-8290.306550,-1608.800546
2808.485247,666.185348,-7550.100608,-689.485948
2808.485575,1036.288319,-8068.244768,919.314598
2808.485902,814.226536,-9548.656652,1685.410096
2808.486230,1258.350101,-9992.780217,536.266849
2808.486557,1554.432478,-8808.450710,-1072.533697
2808.486885,962.267725,-9178.553681,-1149.143247
2808.487213,222.061783,-10140.821405,153.219100
2808.487540,518.144159,-11621.233289,536.266849
2808.487868,1480.411884,-12583.501014,0.000000
2808.488195,3552.988522,-11473.192101,-1762.019645
2808.488523,2072.576638,-9030.512492,-1991.848295
2808.488851,-1110.308913,-8734.430116,0.000000
2808.489178,-2590.720797,-9474.636058,153.219100
2808.489506,-2220.617826,-10288.862594,-1378.971896
2808.489833,-1406.391290,-8882.471304,-2221.676944
2808.490161,-740.205942,-7402.059420,-995.924147
2808.490489,-888.247130,-8882.471304,2145.067394
2808.490816,-296.082377,-11769.274478,1915.238745
2808.491144,222.061783,-11843.295072,0.000000
2808.491472,1850.514855,-10140.821405,-1915.238745
2808.491799,1924.535449,-8512.368333,-2221.676944
2808.492127,444.123565,-9474.636058,0.000000
2808.492454,74.020594,-10658.965565,1838.629195
2808.492782,370.102971,-10288.862594,536.266849
2808.493110,592.164754,-9770.718434,-383.047749
2808.493437,666.185348,-9104.533087,0.000000
2808.493765,-296.082377,-9400.615463,76.609550
2808.494092,-1184.329507,-10214.842000,76.609550
2808.494420,-370.102971,-10658.965565,-383.047749
2808.494748,1480.411884,-9030.512492,-919.314598
2808.495075,1776.494261,-6587.832884,842.705048
2808.495403,296.082377,-7031.956449,2374.896044
2808.495730,-370.102971,-9474.636058,2451.505594
2808.496058,-148.041188,-10732.986159,153.219100
2808.496386,1036.288319,-9474.636058,-2374.896044
2808.496713,962.267725,-8142.265362,-2068.457845
2808.497041,370.102971,-9400.615463,0.000000
2808.497368,444.123565,-11843.295072,1225.752797
2808.497696,1036.288319,-12805.562797,-612.876398
2808.498024,1776.494261,-10066.800811,-2374.896044
2808.498351,1332.370696,-8290.306550,-1608.800546
2808.498679,148.041188,-8808.450710,76.609550
2808.499006,-740.205942,-10510.924376,1225.752797
2808.499334,0.000000,-10288.862594,153.219100
2808.499662,666.185348,-8512.368333,-1149.143247
2808.499989,518.144159,-8068.244768,-1378.971896
2808.500317,74.020594,-9918.759623,-229.828649
2808.500645,-740.205942,-10955.047942,229.828649
2808.500972,-592.164754,-11843.295072,-919.314598
2808.501300,1110.308913,-11325.150913,-2757.943793
2808.501627,1628.453072,-9474.636058,-2298.286494
2808.501955,74.020594,-8660.409521,536.266849
2808.502283,74.020594,-10140.821405,1915.238745
2808.502610,222.061783,-11029.068536,1072.533697
2808.502938,814.226536,-9474.636058,-1072.533697
2808.503265,0.000000,-7105.977043,-919.314598
2808.503593,-1036.288319,-7550.100608,612.876398
2808.503921,-1036.288319,-9474.636058,1608.800546
2808.504248,-148.041188,-11325.150913,383.047749
2808.504576,296.082377,-9770.718434,-612.876398
2808.504903,1184.329507,-7920.203579,-306.438199
2808.505231,0.000000,-8364.327145,919.314598
2808.505559,-370.102971,-10881.027347,919.314598
2808.505886,370.102971,-11399.171507,0.000000
2808.506214,1702.473667,-9622.677246,0.000000
2808.506541,1110.308913,-8142.265362,0.000000
2808.506869,518.144159,-8956.491898,1685.410096
2808.507197,-370.102971,-9474.636058,1455.581446
2808.507524,-222.061783,-10362.883188,229.828649
2808.507852,740.205942,-9992.780217,-1532.190996
2808.508179,444.123565,-8512.368333,-1685.410096
2808.508507,-296.082377,-8216.285956,0.000000
2808.508835,-518.144159,-9844.739029,1378.971896
2808.509162,-296.082377,-10807.006753,76.609550
2808.509490,666.185348,-9474.636058,-1149.143247
2808.509818,962.267725,-8586.388927,-919.314598
2808.510145,-370.102971,-9622.677246,229.828649
2808.510473,-740.205942,-11325.150913,459.657299
2808.510800,0.000000,-11769.274478,-689.485948
2808.511128,740.205942,-10140.821405,-2221.676944
2808.511456,370.102971,-9252.574275,-2068.457845
2808.511783,0.000000,-9622.677246,-153.219100
2808.512111,-296.082377,-11029.068536,306.438199
2808.512438,444.123565,-11769.274478,-459.657299
2808.512766,888.247130,-10066.800811,-1302.362347
2808.513094,74.020594,-8216.285956,-766.095498
2808.513421,-666.185348,-9104.533087,-383.047749
2808.513749,-592.164754,-9918.759623,-153.219100
2808.514076,814.226536,-11177.109724,-536.266849
2808.514404,2072.576638,-9918.759623,-995.924147
2808.514732,2368.659014,-8512.368333,-689.485948
2808.515059,1628.453072,-9030.512492,766.095498
2808.515387,74.020594,-9992.780217,1762.019645
2808.515714,-296.082377,-10362.883188,229.828649
2808.516042,222.061783,-8660.409521,-1378.971896
2808.516370,370.102971,-7328.038826,-2145.067394
2808.516697,0.000000,-7994.224174,153.219100
2808.517025,-592.164754,-10066.800811,1915.238745
2808.517352,0.000000,-11177.109724,1455.581446
2808.517680,1406.391290,-9030.512492,-842.705048
2808.518008,1628.453072,-7624.121203,-995.924147
2808.518335,0.000000,-8216.285956,459.657299
2808.518663,0.000000,-10140.821405,995.924147
2808.518991,518.144159,-10362.883188,0.000000
2808.519318,1628.453072,-9548.656652,-1225.752797
2808.519646,1776.494261,-9622.677246,-995.924147
2808.519973,1184.329507,-9992.780217,229.828649
2808.520301,222.061783,-11029.068536,995.924147
2808.520629,296.082377,-12139.377449,-689.485948
2808.520956,1628.453072,-10584.944971,-2145.067394
2808.521284,962.267725,-8734.430116,-2068.457845
2808.521611,-888.247130,-8438.347739,842.705048
2808.521939,-1850.514855,-9548.656652,2068.457845
2808.522267,-1332.370696,-10658.965565,536.266849
2808.522594,148.041188,-9844.739029,-1915.238745
2808.522922,592.164754,-9104.533087,-1915.238745
2808.523249,-814.226536,-9992.780217,0.000000
2808.523577,-962.267725,-11621.233289,229.828649
2808.523905,-148.041188,-12731.542202,-459.657299
2808.524232,962.267725,-11399.171507,-1532.190996
2808.524560,1184.329507,-8660.409521,-995.924147
2808.524887,222.061783,-8216.285956,1685.410096
2808.525215,-296.082377,-9548.656652,1991.848295
2808.525543,888.247130,-11177.109724,1378.971896
2808.525870,1332.370696,-8956.491898,76.609550
2808.526198,518.144159,-6957.935855,0.000000
2808.526525,-666.185348,-7254.018232,306.438199
2808.526853,-1332.370696,-9178.553681,1455.581446
2808.527181,-740.205942,-9696.697840,306.438199
2808.527508,1332.370696,-8290.306550,-383.047749
2808.527836,2294.638420,-8438.347739,-995.924147
2808.528163,814.226536,-8956.491898,2068.457845
2808.528491,0.000000,-9844.739029,2221.676944
2808.528819,-148.041188,-10732.986159,229.828649
2808.529146,444.123565,-10066.800811,-2221.676944
2808.529474,1110.308913,-8512.368333,-2757.943793
2808.529802,0.000000,-9622.677246,-689.485948
2808.530129,-370.102971,-11177.109724,1225.752797
2808.530457,0.000000,-11029.068536,306.438199
2808.530784,74.020594,-10066.800811,-1915.238745
2808.531112,-296.082377,-9030.512492,-2221.676944
2808.531440,-1258.350101,-8882.471304,0.000000
2808.531767,-1628.453072,-9400.615463,0.000000
2808.532095,-296.082377,-10066.800811,-919.314598
2808.532422,2146.597232,-9918.759623,-1762.019645
2808.532750,2812.782580,-10066.800811,-1225.752797
2808.533078,1998.556043,-10807.006753,995.924147
2808.533405,962.267725,-11547.212695,919.314598
2808.533733,0.000000,-11547.212695,-1378.971896
2808.534060,814.226536,-10140.821405,-3524.039291
2808.534388,222.061783,-8882.471304,-2451.505594
2808.534716,-296.082377,-9252.574275,0.000000
2808.535043,-296.082377,-10732.986159,1608.800546
2808.535371,370.102971,-10955.047942,766.095498
2808.535699,1110.308913,-9474.636058,-766.095498
2808.536026,1036.288319,-7402.059420,-612.876398
2808.536354,0.000000,-7846.182985,383.047749
2808.536681,0.000000,-9992.780217,2145.067394
2808.537009,0.000000,-10436.903782,306.438199
2808.537337,1406.391290,-8882.471304,-1225.752797
2808.537664,1406.391290,-8808.450710,-459.657299
2808.537992,1110.308913,-10510.924376,1225.752797
2808.538319,962.267725,-10362.883188,1149.143247
2808.538647,962.267725,-10658.965565,0.000000
2808.538975,2368.659014,-10362.883188,-1532.190996
2808.539302,1776.494261,-9326.594869,-76.609550
2808.539630,-148.041188,-7476.080014,1608.800546
2808.539957,-1406.391290,-7994.224174,1915.238745
2808.540285,-1628.453072,-10362.883188,1225.752797
2808.540613,-296.082377,-8734.430116,-1072.533697
2808.540940,0.000000,-7624.121203,-1302.362347
2808.541268,-740.205942,-9252.574275,1149.143247
2808.541595,222.061783,-11399.171507,1302.362347
2808.541923,-666.185348,-10955.047942,0.000000
2808.542251,444.123565,-10288.862594,-2068.457845
2808.542578,592.164754,-9178.553681,-2145.067394
2808.542906,370.102971,-9992.780217,-306.438199
2808.543234,-444.123565,-10807.006753,0.000000
2808.543561,444.123565,-11843.295072,76.609550
2808.543889,1480.411884,-10436.903782,-766.095498
2808.544216,666.185348,-9178.553681,-995.924147
2808.544544,-592.164754,-8956.491898,0.000000
2808.544872,-1628.453072,-9992.780217,-306.438199
2808.545199,0.000000,-10807.006753,-1378.971896
2808.545527,1628.453072,-10362.883188,-1915.238745
2808.545854,2220.617826,-9844.739029,-919.314598
2808.546182,0.000000,-9030.512492,1149.143247
2808.546510,-1554.432478,-9918.759623,1455.581446
2808.546837,-814.226536,-11399.171507,-612.876398
2808.547165,370.102971,-10362.883188,-2681.334243
2808.547492,666.185348,-8660.409521,-2145.067394
2808.547820,0.000000,-9104.533087,536.266849
2808.548148,0.000000,-10510.924376,1685.410096
2808.548475,0.000000,-9696.697840,1302.362347
2808.548803,518.144159,-8660.409521,-1072.533697
2808.549131,296.082377,-7105.977043,-1072.533697
2808.549458,-518.144159,-8438.347739,-229.828649
2808.549786,-814.226536,-10436.903782,612.876398
2808.550113,-518.144159,-10510.924376,229.828649
2808.550441,1406.391290,-9548.656652,0.000000
2808.550769,1850.514855,-8142.265362,-153.219100
2808.551096,888.247130,-8808.450710,842.705048
2808.551424,148.041188,-9844.739029,919.314598
2808.551751,74.020594,-10362.883188,0.000000
2808.552079,1702.473667,-9770.718434,-1302.362347
2808.552407,1554.432478,-8512.368333,-919.314598
2808.552734,592.164754,-8734.430116,1225.752797
2808.553062,-296.082377,-9622.677246,1378.971896
2808.553389,0.000000,-11103.089130,0.000000
2808.553717,1110.308913,-10436.903782,-2068.457845
2808.554045,1480.411884,-9178.553681,-2068.457845
2808.554372,592.164754,-9326.594869,229.828649
2808.554700,222.061783,-10362.883188,2068.457845
2808.555027,370.102971,-10214.842000,1225.752797
2808.555355,962.267725,-9178.553681,0.000000
2808.555683,888.247130,-8142.265362,-1915.238745
2808.556010,0.000000,-9548.656652,-536.266849
2808.556338,-962.267725,-11399.171507,0.000000
2808.556666,-148.041188,-12213.398043,-842.705048
2808.556993,1258.350101,-10658.965565,-1838.629195
2808.557321,1036.288319,-8660.409521,-1225.752797
2808.557648,0.000000,-8882.471304,919.314598
2808.557976,-1258.350101,-10140.821405,1991.848295
2808.558304,-1258.350101,-10658.965565,612.876398
2808.558631,-370.102971,-9252.574275,-1225.752797
2808.558959,-518.144159,-7698.141797,-1608.800546
2808.559286,-888.247130,-8216.285956,0.000000
2808.559614,-1702.473667,-9770.718434,1608.800546
2808.559942,-666.185348,-10955.047942,459.657299
2808.560269,1480.411884,-10658.965565,-2221.676944
2808.560597,2146.597232,-9696.697840,-2451.505594
2808.560924,518.144159,-9326.594869,0.000000
2808.561252,-296.082377,-9474.636058,995.924147
2808.561580,0.000000,-9770.718434,306.438199
2808.561907,222.061783,-8882.471304,-383.047749
2808.562235,148.041188,-7328.038826,-1072.533697
2808.562563,-962.267725,-8438.347739,766.095498
2808.562890,-740.205942,-11103.089130,1532.190996
2808.563218,296.082377,-12139.377449,0.000000
2808.563545,296.082377,-10066.800811,-1685.410096
2808.563873,370.102971,-8216.285956,-1378.971896
2808.564201,-222.061783,-8660.409521,-842.705048
2808.564528,0.000000,-10214.842000,0.000000
2808.564856,444.123565,-11621.233289,0.000000
2808.565183,2368.659014,-11473.192101,-766.095498
2808.565511,3034.844362,-9770.718434,-459.657299
2808.565839,1332.370696,-8956.491898,1072.533697
2808.566166,-222.061783,-9474.636058,1378.971896
2808.566494,-962.267725,-10658.965565,306.438199
2808.566821,296.082377,-9844.739029,-1991.848295
2808.567149,814.226536,-8068.244768,-2068.457845
2808.567477,0.000000,-8290.306550,0.000000
2808.567804,-592.164754,-9400.615463,1762.019645
2808.568132,74.020594,-9992.780217,612.876398
2808.568460,1110.308913,-9696.697840,-1378.971896
2808.568787,1998.556043,-9252.574275,-2374.896044
2808.569115,1184.329507,-8734.430116,-383.047749
2808.569442,962.267725,-10807.006753,536.266849
2808.569770,1702.473667,-11695.253884,383.047749
2808.570098,3034.844362,-10436.903782,0.000000
2808.570425,2516.700203,-8882.471304,0.000000
2808.570753,518.144159,-8734.430116,536.266849
2808.571080,0.000000,-10510.924376,153.219100
2808.571408,-222.061783,-10510.924376,-612.876398
2808.571736,666.185348,-10066.800811,-1838.629195
2808.572063,592.164754,-8660.409521,-919.314598
2808.572391,814.226536,-8216.285956,1149.143247
2808.572718,0.000000,-8660.409521,2604.724693
2808.573046,0.000000,-9918.759623,2145.067394
2808.573374,1628.453072,-9992.780217,-612.876398
2808.573701,2072.576638,-8808.450710,-1302.362347
2808.574029,-296.082377,-8290.306550,0.000000
2808.574356,-1998.556043,-10140.821405,1149.143247
2808.574684,-1480.411884,-11325.150913,-306.438199
2808.575012,148.041188,-10584.944971,-2145.067394
2808.575339,370.102971,-9844.739029,-2221.676944
2808.575667,-444.123565,-10066.800811,0.000000
2808.575995,-1110.308913,-11473.192101,306.438199
2808.576322,-962.267725,-11473.192101,229.828649
2808.576650,-444.123565,-9326.594869,-919.314598
2808.576977,-444.123565,-7179.997637,-1072.533697
2808.577305,-740.205942,-7550.100608,536.266849
2808.577633,-444.123565,-9770.718434,1225.752797
2808.577960,1036.288319,-10881.027347,76.609550
2808.578288,1258.350101,-10807.006753,-612.876398
2808.578615,888.247130,-9992.780217,-1378.971896
2808.578943,814.226536,-9622.677246,-1072.533697
2808.579271,-740.205942,-9918.759623,-459.657299
2808.579598,-1332.370696,-10807.006753,-995.924147
2808.579926,74.020594,-9770.718434,-1378.971896
2808.580253,1110.308913,-9252.574275,-1838.629195
2808.580581,-222.061783,-8290.306550,842.705048
2808.580909,-1184.329507,-9400.615463,2374.896044
2808.581236,-1480.411884,-9400.615463,1072.533697
2808.581564,-592.164754,-8364.327145,-1685.410096
2808.581892,-296.082377,-7179.997637,-2451.505594
2808.582219,-740.205942,-8586.388927,0.000000
2808.582547,-518.144159,-10732.986159,1685.410096
2808.582874,296.082377,-10955.047942,995.924147
2808.583202,1554.432478,-10881.027347,-1302.362347
2808.583530,1924.535449,-9992.780217,-1991.848295
2808.583857,1036.288319,-9400.615463,-689.485948
2808.584185,370.102971,-10658.965565,612.876398
2808.584512,1258.350101,-11399.171507,919.314598
2808.584840,2072.576638,-9326.594869,-383.047749
2808.585168,1998.556043,-8216.285956,383.047749
2808.585495,222.061783,-7920.203579,919.314598
2808.585823,0.000000,-9400.615463,1149.143247
2808.586150,-370.102971,-10584.944971,0.000000
2808.586478,666.185348,-10584.944971,-1915.238745
2808.586806,1628.453072,-9622.677246,-1991.848295
2808.587133,814.226536,-9030.512492,306.438199
2808.587461,-518.144159,-9918.759623,2451.505594
2808.587788,-148.041188,-10955.047942,1302.362347
2808.588116,814.226536,-10066.800811,-842.705048
2808.588444,1258.350101,-8956.491898,-1149.143247
2808.588771,592.164754,-9622.677246,459.657299
2808.589099,0.000000,-10807.006753,1762.019645
2808.589427,-444.123565,-10881.027347,919.314598
2808.589754,0.000000,-9474.636058,-1072.533697
2808.590082,148.041188,-7846.182985,-1532.190996
2808.590409,-296.082377,-8438.347739,-459.657299
2808.590737,0.000000,-9992.780217,612.876398
2808.591065,740.205942,-10807.006753,229.828649
2808.591392,1850.514855,-9696.697840,0.000000
2808.591720,1924.535449,-8290.306550,766.095498
2808.592047,1258.350101,-8512.368333,1072.533697
2808.592375,-444.123565,-9622.677246,766.095498
2808.592703,-370.102971,-10510.924376,-306.438199
2808.593030,888.247130,-10214.842000,-2221.676944
2808.593358,814.226536,-9104.533087,-1838.629195
2808.593685,-222.061783,-9030.512492,689.485948
2808.594013,-814.226536,-9918.759623,1532.190996
2808.594341,-592.164754,-10214.842000,536.266849
2808.594668,0.000000,-9400.615463,-2451.505594
2808.594996,962.267725,-8438.347739,-2451.505594
2808.595324,592.164754,-8734.430116,-459.657299
2808.595651,0.000000,-10732.986159,1532.190996
2808.595979,296.082377,-11325.150913,689.485948
2808.596306,1036.288319,-10214.842000,-612.876398
2808.596634,1184.329507,-8956.491898,-2451.505594
2808.596962,814.226536,-9326.594869,-1915.238745
2808.597289,-222.061783,-11177.109724,-383.047749
2808.597617,-518.144159,-11621.233289,-229.828649
2808.597944,888.247130,-10881.027347,-1455.581446
2808.598272,1924.535449,-9770.718434,-995.924147
2808.598600,0.000000,-8882.471304,459.657299
2808.598927,-2368.659014,-8290.306550,1762.019645
2808.599255,-2294.638420,-9770.718434,0.000000
2808.599582,-1036.288319,-9844.739029,-1685.410096
2808.599910,592.164754,-8438.347739,-2451.505594
2808.600238,-518.144159,-8290.306550,459.657299
2808.600565,-1184.329507,-9918.759623,3294.210641
2808.600893,-148.041188,-10362.883188,1455.581446
2808.601220,1628.453072,-10362.883188,-2221.676944
2808.601548,1480.411884,-9252.574275,-1991.848295
2808.601876,592.164754,-9252.574275,-459.657299
2808.602203,74.020594,-10066.800811,1225.752797
2808.602531,296.082377,-10362.883188,842.705048
2808.602859,1258.350101,-9252.574275,-383.047749
2808.603186,814.226536,-7254.018232,-383.047749
2808.603514,444.123565,-7772.162391,995.924147
2808.603841,888.247130,-10066.800811,1072.533697
2808.604169,1184.329507,-11029.068536,383.047749
2808.604497,1924.535449,-10214.842000,-919.314598
2808.604824,1776.494261,-9474.636058,-919.314598
2808.605152,370.102971,-8808.450710,153.219100
2808.605479,-592.164754,-9622.677246,766.095498
2808.605807,-1036.288319,-10584.944971,0.000000
2808.606135,1480.411884,-11325.150913,-1915.238745
2808.606462,2664.741391,-10436.903782,-1532.190996
2808.606790,1406.391290,-9474.636058,919.314598
2808.607117,-888.247130,-9548.656652,2451.505594
2808.607445,-962.267725,-9474.636058,842.705048
2808.607773,0.000000,-8512.368333,-1455.581446
2808.608100,0.000000,-7476.080014,-2757.943793
2808.608428,-592.164754,-8512.368333,-612.876398
2808.608756,-666.185348,-10658.965565,1072.533697
2808.609083,222.061783,-11547.212695,536.266849
2808.609411,1406.391290,-11325.150913,-1225.752797
2808.609738,2294.638420,-10214.842000,-1685.410096
2808.610066,1184.329507,-9622.677246,-919.314598
2808.610394,814.226536,-10510.924376,689.485948
2808.610721,1332.370696,-11473.192101,229.828649
2808.611049,3034.844362,-10584.944971,-689.485948
2808.611376,2368.659014,-8882.471304,383.047749
2808.611704,0.000000,-8068.244768,1838.629195
2808.612032,-1332.370696,-8956.491898,1608.800546
2808.612359,-1480.411884,-9992.780217,-536.266849
2808.612687,-296.082377,-9622.677246,-3064.381992
2808.613014,370.102971,-8290.306550,-1991.848295
2808.613342,296.082377,-8364.327145,842.705048
2808.613670,-518.144159,-8660.409521,2451.505594
2808.613997,-296.082377,-9252.574275,1685.410096
2808.614325,1406.391290,-9326.594869,-1072.533697
2808.614652,1850.514855,-8290.306550,-2374.896044
2808.614980,74.020594,-8586.388927,229.828649
2808.615308,-814.226536,-10510.924376,766.095498
2808.615635,0.000000,-11843.295072,0.000000
2808.615963,1628.453072,-11473.192101,-1532.190996
2808.616291,962.267725,-9622.677246,-2298.286494
2808.616618,0.000000,-9696.697840,-1072.533697
2808.616946,-296.082377,-10732.986159,306.438199
2808.617273,518.144159,-11547.212695,0.000000
2808.617601,148.041188,-9474.636058,-306.438199
2808.617929,0.000000,-7772.162391,459.657299
2808.618256,-666.185348,-7994.224174,1302.362347
2808.618584,-1036.288319,-10214.842000,1225.752797
2808.618911,-1110.308913,-11399.171507,0.000000
2808.619239,-148.041188,-10881.027347,-1838.629195
2808.619567,1628.453072,-10140.821405,-1915.238745
2808.619894,666.185348,-9918.759623,-459.657299
2808.620222,-962.267725,-10140.821405,995.924147
2808.620549,-1480.411884,-9992.780217,229.828649
2808.620877,-444.123565,-9844.739029,-1532.190996
2808.621205,518.144159,-9104.533087,-1072.533697
2808.621532,-666.185348,-8364.327145,766.095498
2808.621860,-1628.453072,-8956.491898,1991.848295
2808.622188,-592.164754,-9918.759623,1302.362347
2808.622515,0.000000,-9770.718434,-536.266849
2808.622843,518.144159,-8068.244768,-1455.581446
2808.623170,222.061783,-8068.244768,306.438199
2808.623498,518.144159,-9770.718434,536.266849
2808.623826,888.247130,-10732.986159,612.876398
2808.624153,1406.391290,-10214.842000,-919.314598
2808.624481,1702.473667,-8660.409521,-919.314598
2808.624808,888.247130,-8882.471304,536.266849
2808.625136,0.000000,-9770.718434,1302.362347
2808.625464,0.000000,-11177.109724,0.000000
2808.625791,1702.473667,-10807.006753,-1225.752797
2808.626119,2072.576638,-9178.553681,-1762.019645
2808.626446,444.123565,-8438.347739,459.657299
2808.626774,-740.205942,-9252.574275,2451.505594
2808.627102,-592.164754,-9918.759623,536.266849
2808.627429,518.144159,-9770.718434,-2298.286494
2808.627757,1406.391290,-9400.615463,-2757.943793
2808.628085,814.226536,-9992.780217,-766.095498
2808.628412,-740.205942,-10362.883188,1302.362347
2808.628740,-592.164754,-11769.274478,766.095498
2808.629067,1110.308913,-11251.130318,-1991.848295
2808.629395,1924.535449,-9918.759623,-2451.505594
2808.629723,1406.391290,-9474.636058,-766.095498
2808.630050,592.164754,-10362.883188,689.485948
2808.630378,222.061783,-10807.006753,383.047749
2808.630705,518.144159,-9548.656652,-229.828649
2808.631033,148.041188,-8142.265362,-536.266849
2808.631361,0.000000,-8882.471304,0.000000
2808.631688,-740.205942,-9548.656652,383.047749
2808.632016,-148.041188,-10362.883188,0.000000
2808.632343,888.247130,-10584.944971,-1378.971896
2808.632671,1628.453072,-9474.636058,-612.876398
2808.632999,370.102971,-8290.306550,1915.238745
2808.633326,-1110.308913,-8364.327145,1915.238745
2808.633654,-1110.308913,-9474.636058,842.705048
2808.633982,370.102971,-9400.615463,-1072.533697
2808.634309,666.185348,-8438.347739,-1302.362347
2808.634637,-444.123565,-8956.491898,919.314598
2808.634964,-1332.370696,-10214.842000,2451.505594
2808.635292,-1110.308913,-10066.800811,612.876398
2808.635620,74.020594,-9474.636058,-612.876398
2808.635947,962.267725,-8216.285956,-2221.676944
2808.636275,444.123565,-8586.388927,0.000000
2808.636603,370.102971,-10214.842000,1149.143247
2808.636930,1110.308913,-11177.109724,689.485948
2808.637258,1924.535449,-10362.883188,0.000000
2808.637585,1924.535449,-8882.471304,-919.314598
2808.637913,888.247130,-8808.450710,0.000000
2808.638241,-888.247130,-9844.739029,536.266849
2808.638568,-666.185348,-11399.171507,-612.876398
2808.638896,1110.308913,-11325.150913,-2298.286494
2808.639223,962.267725,-10066.800811,-1838.629195
2808.639551,-740.205942,-9548.656652,536.266849
2808.639879,-2516.700203,-9474.636058,1838.629195
2808.640206,-1554.432478,-9992.780217,76.609550
2808.640534,-296.082377,-9252.574275,-2221.676944
2808.640862,296.082377,-8734.430116,-2451.505594
2808.641189,-222.061783,-9178.553681,76.609550
2808.641517,-370.102971,-10436.903782,1838.629195
2808.641844,148.041188,-11399.171507,1225.752797
2808.642172,1406.391290,-10732.986159,-1455.581446
2808.642500,1480.411884,-9178.553681,-2451.505594
2808.642827,1554.432478,-9178.553681,-612.876398
2808.643155,74.020594,-9770.718434,0.000000
2808.643483,740.205942,-10436.903782,459.657299
2808.643810,1924.535449,-9474.636058,0.000000
2808.644138,2220.617826,-8068.244768,1225.752797
2808.644465,1480.411884,-8438.347739,2451.505594
2808.644793,-148.041188,-9030.512492,2528.115143
2808.645121,-222.061783,-9770.718434,459.657299
2808.645448,0.000000,-9030.512492,-1915.238745
2808.645776,148.041188,-8216.285956,-2145.067394
2808.646103,-740.205942,-8438.347739,383.047749
2808.646431,-1184.329507,-9474.636058,1762.019645
2808.646759,-74.020594,-10732.986159,536.266849
2808.647086,1406.391290,-10584.944971,-1991.848295
2808.647414,2220.617826,-9400.615463,-1685.410096
2808.647742,74.020594,-8808.450710,0.000000
2808.648069,-1480.411884,-9474.636058,1838.629195
2808.648397,-1258.350101,-10140.821405,536.266849
2808.648724,148.041188,-9252.574275,-1455.581446
2808.649052,814.226536,-8956.491898,-1915.238745
2808.649380,888.247130,-8956.491898,-229.828649
2808.649707,0.000000,-10066.800811,842.705048
2808.650035,740.205942,-11399.171507,459.657299
2808.650363,1628.453072,-11029.068536,-1532.190996
2808.650690,1702.473667,-10510.924376,-1762.019645
2808.651018,1702.473667,-9992.780217,-153.219100
2808.651345,962.267725,-10436.903782,766.095498
2808.651673,518.144159,-11769.274478,459.657299
2808.652001,1554.432478,-10510.924376,0.000000
2808.652328,1702.473667,-9252.574275,-842.705048
2808.652656,0.000000,-8956.491898,766.095498
2808.652983,-2146.597232,-8882.471304,1838.629195
2808.653311,-2072.576638,-9400.615463,229.828649
2808.653639,-962.267725,-8734.430116,-919.314598
2808.653966,0.000000,-7698.141797,-842.705048
2808.654294,-296.082377,-8364.327145,536.266849
2808.654622,-1110.308913,-9548.656652,2451.505594
2808.654949,-1036.288319,-10362.883188,995.924147
2808.655277,222.061783,-9992.780217,-1532.190996
2808.655604,1628.453072,-9030.512492,-2298.286494
2808.655932,1184.329507,-8660.409521,0.000000
2808.656260,814.226536,-10140.821405,2451.505594
2808.656587,222.061783,-10362.883188,1225.752797
2808.656915,814.226536,-9474.636058,-612.876398
2808.657242,1480.411884,-9178.553681,-1762.019645
2808.657570,-222.061783,-9252.574275,-689.485948
2808.657898,-1776.494261,-10066.800811,459.657299
2808.658225,-1184.329507,-10288.862594,306.438199
2808.658553,962.267725,-9992.780217,-2145.067394
2808.658881,1850.514855,-9844.739029,-1608.800546
2808.659208,1332.370696,-9992.780217,612.876398
2808.659536,0.000000,-9696.697840,1455.581446
2808.659863,0.000000,-10140.821405,-229.828649
2808.660191,444.123565,-10362.883188,-2451.505594
2808.660519,370.102971,-9104.533087,-2528.115143
2808.660846,444.123565,-9252.574275,-1149.143247
2808.661174,-666.185348,-10732.986159,919.314598
2808.661502,-518.144159,-12139.377449,76.609550
2808.661829,666.185348,-11769.274478,-2145.067394
2808.662157,1332.370696,-9474.636058,-3294.210641
2808.662484,444.123565,-8956.491898,-1149.143247
2808.662812,74.020594,-9474.636058,1149.143247
2808.663140,592.164754,-10066.800811,1685.410096
2808.663467,1924.535449,-10066.800811,612.876398
2808.663795,1332.370696,-8290.306550,0.000000
2808.664122,148.041188,-8882.471304,459.657299
2808.664450,-666.185348,-9918.759623,689.485948
2808.664778,-962.267725,-10288.862594,-459.657299
2808.665105,-370.102971,-10066.800811,-2221.676944
2808.665433,222.061783,-8882.471304,-1838.629195
2808.665761,444.123565,-8734.430116,612.876398
2808.666088,-296.082377,-9474.636058,1991.848295
2808.666416,-370.102971,-9104.533087,1225.752797
2808.666743,148.041188,-8660.409521,-153.219100
2808.667071,888.247130,-8142.265362,-612.876398
2808.667399,148.041188,-7994.224174,1149.143247
2808.667726,-962.267725,-9104.533087,1685.410096
2808.668054,-1184.329507,-9474.636058,1072.533697
2808.668382,666.185348,-9992.780217,-1302.362347
2808.668709,1850.514855,-9474.636058,-1685.410096
2808.669037,1036.288319,-9326.594869,0.000000
2808.669364,370.102971,-10510.924376,689.485948
2808.669692,444.123565,-11621.233289,766.095498
2808.670020,1924.535449,-11547.212695,-2145.067394
2808.670347,2146.597232,-9104.533087,-995.924147
2808.670675,518.144159,-9104.533087,306.438199
2808.671002,-222.061783,-10658.965565,1149.143247
2808.671330,-518.144159,-11177.109724,0.000000
2808.671658,592.164754,-10658.965565,-1762.019645
2808.671985,1332.370696,-9474.636058,-2374.896044
2808.672313,0.000000,-8882.471304,0.000000
2808.672641,-1702.473667,-9548.656652,1072.533697
2808.672968,-1554.432478,-10362.883188,0.000000
2808.673296,74.020594,-10214.842000,-1915.238745
2808.673623,962.267725,-8586.388927,-2145.067394
2808.673951,814.226536,-8882.471304,0.000000
2808.674279,-444.123565,-10066.800811,1838.629195
2808.674606,0.000000,-11399.171507,1608.800546
2808.674934,1332.370696,-10732.986159,-766.095498
2808.675262,1110.308913,-8586.388927,-1762.019645
2808.675589,0.000000,-8438.347739,-229.828649
2808.675917,-962.267725,-9400.615463,995.924147
2808.676244,-444.123565,-9918.759623,306.438199
2808.676572,814.226536,-10510.924376,-536.266849
2808.676900,2072.576638,-9770.718434,-842.705048
2808.677227,1184.329507,-8660.409521,919.314598
2808.677555,222.061783,-9326.594869,1225.752797
2808.677882,-148.041188,-9474.636058,383.047749
2808.678210,592.164754,-8808.450710,-1378.971896
2808.678538,1628.453072,-8586.388927,-1608.800546
2808.678865,740.205942,-9400.615463,842.705048
2808.679193,0.000000,-9844.739029,2068.457845
2808.679521,-592.164754,-9844.739029,1455.581446
2808.679848,-888.247130,-9844.739029,-1532.190996
2808.680176,-592.164754,-9326.594869,-2834.553343
2808.680503,-1554.432478,-8882.471304,-1378.971896
2808.680831,-1628.453072,-9622.677246,0.000000
2808.681159,-592.164754,-11695.253884,383.047749
2808.681486,1184.329507,-11325.150913,536.266849
2808.681814,1850.514855,-9474.636058,-689.485948
2808.682141,1480.411884,-9104.533087,153.219100
2808.682469,444.123565,-10436.903782,612.876398
2808.682797,444.123565,-11251.130318,-766.095498
2808.683124,962.267725,-10658.965565,-2145.067394
2808.683452,1998.556043,-9474.636058,-2528.115143
2808.683780,1702.473667,-8882.471304,-1072.533697
2808.684107,296.082377,-9696.697840,1455.581446
2808.684435,148.041188,-11769.274478,766.095498
2808.684762,1258.350101,-10881.027347,-612.876398
2808.685090,1702.473667,-9252.574275,-1302.362347
2808.685418,740.205942,-8364.327145,536.266849
2808.685745,-888.247130,-8660.409521,1685.410096
2808.686073,-1554.432478,-9104.533087,1378.971896
2808.686401,0.000000,-8216.285956,76.609550
2808.686728,444.123565,-8216.285956,-1072.533697
2808.687056,74.020594,-9104.533087,229.828649
2808.687383,-740.205942,-9992.780217,1149.143247
2808.687711,-666.185348,-10214.842000,459.657299
2808.688039,296.082377,-10214.842000,-995.924147
2808.688366,814.226536,-9474.636058,-1378.971896
2808.688694,592.164754,-8216.285956,0.000000
2808.689021,-1110.308913,-8660.409521,1685.410096
2808.689349,-518.144159,-9474.636058,1149.143247
2808.689677,1110.308913,-9400.615463,-536.266849
2808.690004,1258.350101,-8068.244768,-995.924147
2808.690332,1258.350101,-8882.471304,536.266849
2808.690660,0.000000,-10288.862594,1455.581446
2808.690987,0.000000,-10955.047942,766.095498
2808.691315,888.247130,-10658.965565,-2221.676944
2808.691642,2220.617826,-10732.986159,-3447.429741
2808.691970,1258.350101,-10362.883188,-612.876398
2808.692298,0.000000,-11177.109724,1762.019645
2808.692625,74.020594,-11473.192101,919.314598
2808.692953,1036.288319,-10362.883188,-1149.143247
2808.693281,1258.350101,-8586.388927,-2068.457845
2808.693608,-666.185348,-8956.491898,-459.657299
2808.693936,-1480.411884,-9474.636058,689.485948
2808.694263,-1480.411884,-10140.821405,76.609550
2808.694591,-222.061783,-10288.862594,-1378.971896
2808.694919,370.102971,-9104.533087,-1685.410096
2808.695246,740.205942,-9104.533087,-229.828649
2808.695574,-666.185348,-10362.883188,1149.143247
2808.695901,-296.082377,-11029.068536,0.000000
2808.696229,1850.514855,-11251.130318,-1838.629195
2808.696557,2886.803174,-9400.615463,-1455.581446
2808.696884,2220.617826,-8956.491898,689.485948
2808.697212,666.185348,-9770.718434,2834.553343
2808.697540,-444.123565,-9474.636058,1455.581446
2808.697867,-370.102971,-8290.306550,-1072.533697
2808.698195,-296.082377,-8438.347739,-2604.724693
2808.698522,-1480.411884,-8808.450710,-383.047749
2808.698850,-1776.494261,-9178.553681,1608.800546
2808.699178,-296.082377,-9844.739029,1072.533697
2808.699505,1702.473667,-10436.903782,-612.876398
2808.699833,1258.350101,-9474.636058,-229.828649
2808.700161,1036.288319,-9178.553681,229.828649
2808.700488,0.000000,-9030.512492,842.705048
2808.700816,-296.082377,-10436.903782,0.000000
2808.701143,0.000000,-10288.862594,-995.924147
2808.701471,666.185348,-9030.512492,-1532.190996
2808.701799,1110.308913,-9178.553681,-766.095498
2808.702126,666.185348,-11103.089130,842.705048
2808.702454,-518.144159,-11843.295072,-306.438199
2808.702781,888.247130,-10362.883188,-1838.629195
2808.703109,1776.494261,-9252.574275,-1991.848295
2808.703437,1998.556043,-8808.450710,-229.828649
2808.703764,148.041188,-9844.739029,1991.848295
2808.704092,-592.164754,-10362.883188,2298.286494
2808.704420,444.123565,-10066.800811,842.705048
2808.704747,962.267725,-9474.636058,-1762.019645
2808.705075,-148.041188,-9474.636058,-612.876398
2808.705402,-1776.494261,-9844.739029,459.657299
2808.705730,-1480.411884,-9992.780217,-383.047749
2808.706058,-296.082377,-10066.800811,-2145.067394
2808.706385,592.164754,-9326.594869,-2451.505594
2808.706713,148.041188,-9030.512492,-995.924147
2808.707040,-518.144159,-9696.697840,1149.143247
2808.707368,-666.185348,-11103.089130,1225.752797
2808.707696,518.144159,-9918.759623,-612.876398
2808.708023,1702.473667,-8068.244768,-1225.752797
2808.708351,1480.411884,-7920.203579,229.828649
2808.708679,1184.329507,-9400.615463,1915.238745
2808.709006,0.000000,-10510.924376,1455.581446
2808.709334,1258.350101,-9770.718434,-612.876398
2808.709661,1998.556043,-9474.636058,-1455.581446
2808.709989,962.267725,-9326.594869,-919.314598
2808.710317,0.000000,-10584.944971,842.705048
2808.710644,-518.144159,-10881.027347,459.657299
2808.710972,1110.308913,-9844.739029,-1455.581446
2808.711300,1258.350101,-9474.636058,-1378.971896
2808.711627,296.082377,-9178.553681,-306.438199
2808.711955,-444.123565,-9252.574275,1762.019645
2808.712282,-444.123565,-8882.471304,842.705048
2808.712610,518.144159,-9326.594869,-1225.752797
2808.712938,222.061783,-9252.574275,-1762.019645
2808.713265,0.000000,-9326.594869,0.000000
2808.713593,-962.267725,-10066.800811,612.876398
2808.713920,-666.185348,-11621.233289,0.000000
2808.714248,666.185348,-11029.068536,-1455.581446
2808.714576,1776.494261,-9474.636058,-1838.629195
2808.714903,1110.308913,-8808.450710,0.000000
2808.715231,666.185348,-10732.986159,1685.410096
2808.715559,222.061783,-10732.986159,1149.143247
2808.715886,740.205942,-9252.574275,-612.876398
2808.716214,1702.473667,-8438.347739,-1915.238745
2808.716541,1258.350101,-9252.574275,-306.438199
2808.716869,-222.061783,-10584.944971,1762.019645
2808.717197,-1332.370696,-10436.903782,919.314598
2808.717524,-370.102971,-9844.739029,-1608.800546
2808.717852,370.102971,-9030.512492,-2451.505594
2808.718180,-148.041188,-9326.594869,0.000000
2808.718507,-148.041188,-9252.574275,1532.190996
2808.718835,74.020594,-9252.574275,1608.800546
2808.719162,1406.391290,-9622.677246,-459.657299
2808.719490,1702.473667,-9844.739029,-1072.533697
2808.719818,222.061783,-8808.450710,766.095498
2808.720145,-1480.411884,-8438.347739,1532.190996
2808.720473,-1850.514855,-9474.636058,153.219100
2808.720800,-740.205942,-10288.862594,-612.876398
2808.721128,666.185348,-9844.739029,-1608.800546
2808.721456,-148.041188,-9400.615463,0.000000
2808.721783,-888.247130,-10436.903782,689.485948
2808.722111,-370.102971,-10807.006753,-612.876398
2808.722439,740.205942,-10955.047942,-1455.581446
2808.722766,1924.535449,-9178.553681,-842.705048
2808.723094,2220.617826,-8956.491898,-459.657299
2808.723421,1406.391290,-10658.965565,2221.676944
2808.723749,518.144159,-11325.150913,919.314598
2808.724077,1184.329507,-10658.965565,-1378.971896
2808.724404,1776.494261,-8734.430116,-2528.115143
2808.724732,0.000000,-8364.327145,-1072.533697
2808.725060,-888.247130,-10140.821405,536.266849
2808.725387,-370.102971,-10214.842000,383.047749
2808.725715,1554.432478,-9474.636058,-842.705048
2808.726042,1702.473667,-9104.533087,-1225.752797
2808.726370,740.205942,-9474.636058,612.876398
2808.726698,-740.205942,-9844.739029,1685.410096
2808.727025,-1258.350101,-10288.862594,306.438199
2808.727353,-592.164754,-8808.450710,-1915.238745
2808.727680,592.164754,-7698.141797,-2374.896044
2808.728008,814.226536,-8586.388927,689.485948
2808.728336,296.082377,-10658.965565,2068.457845
2808.728663,74.020594,-11473.192101,919.314598
2808.728991,1332.370696,-10362.883188,-1915.238745
2808.729319,2368.659014,-9474.636058,-2528.115143
2808.729646,1110.308913,-9178.553681,0.000000
2808.729974,518.144159,-9030.512492,2145.067394
2808.730302,-888.247130,-9474.636058,2451.505594
2808.730629,222.061783,-9474.636058,76.609550
2808.730957,1406.391290,-8956.491898,-1455.581446
2808.731284,296.082377,-8216.285956,-536.266849
2808.731612,-222.061783,-9696.697840,1378.971896
2808.731940,-1628.453072,-9548.656652,536.266849
2808.732267,0.000000,-9474.636058,-1532.190996
2808.732595,592.164754,-9622.677246,-3600.648841
2808.732923,1036.288319,-9622.677246,-1225.752797
2808.733250,148.041188,-10955.047942,1302.362347
2808.733578,74.020594,-12287.418637,1762.019645
2808.733906,1258.350101,-10881.027347,0.000000
2808.734233,2368.659014,-9326.594869,-2374.896044
2808.734561,1332.370696,-8512.368333,-612.876398
2808.734888,-740.205942,-9548.656652,1149.143247
2808.735216,-592.164754,-10584.944971,1149.143247
2808.735544,148.041188,-9474.636058,-536.266849
2808.735871,740.205942,-8808.450710,-1302.362347
2808.736199,222.061783,-8438.347739,153.219100
2808.736527,-296.082377,-10066.800811,1455.581446
2808.736854,-1554.432478,-10658.965565,1302.362347
2808.737182,-222.061783,-11103.089130,-1072.533697
2808.737510,2368.659014,-9770.718434,-2604.724693
2808.737837,2146.597232,-9622.677246,-919.314598
2808.738165,518.144159,-9992.780217,2298.286494
2808.738493,-814.226536,-9622.677246,2681.334243
2808.738820,74.020594,-8956.491898,536.266849
2808.739148,-888.247130,-7698.141797,-2221.676944
2808.739475,-1850.514855,-7846.182985,-1991.848295
2808.739803,-3108.864956,-9548.656652,459.657299
2808.740131,-1998.556043,-11103.089130,842.705048
2808.740458,296.082377,-10362.883188,-1302.362347
2808.740786,1628.453072,-9252.574275,-1685.410096
2808.741114,1036.288319,-8438.347739,0.000000
2808.741441,518.144159,-9770.718434,2451.505594
2808.741769,296.082377,-10140.821405,842.705048
2808.742097,1036.288319,-10288.862594,-1378.971896
2808.742424,2220.617826,-9400.615463,-2221.676944
2808.742752,2294.638420,-9326.594869,-689.485948
2808.743080,1036.288319,-11177.109724,1915.238745
2808.743407,-370.102971,-11103.089130,842.705048
2808.743735,592.164754,-10955.047942,-2528.115143
2808.744062,1628.453072,-9178.553681,-3677.258390
2808.744390,740.205942,-8956.491898,-1532.190996
2808.744718,-296.082377,-9400.615463,1685.410096
2808.745045,-592.164754,-9474.636058,2298.286494
2808.745373,-518.144159,-8882.471304,536.266849
2808.745701,222.061783,-7920.203579,-1915.238745
2808.746028,444.123565,-9474.636058,-2298.286494
2808.746356,-592.164754,-10658.965565,536.266849
2808.746684,-444.123565,-11325.150913,306.438199
2808.747011,444.123565,-11177.109724,-1991.848295
2808.747339,1702.473667,-10066.800811,-2528.115143
2808.747666,962.267725,-9474.636058,-153.219100
2808.747994,148.041188,-10584.944971,2068.457845
2808.748322,-592.164754,-10807.006753,1149.143247
2808.748649,740.205942,-9548.656652,-689.485948
2808.748977,2220.617826,-7920.203579,-1608.800546
2808.749305,1110.308913,-7624.121203,766.095498
2808.749632,74.020594,-9030.512492,3140.991542
2808.749960,-666.185348,-9844.739029,2681.334243
2808.750288,-296.082377,-9178.553681,-919.314598
2808.750615,74.020594,-7698.141797,-2298.286494
2808.750943,370.102971,-7994.224174,-1685.410096
2808.751271,0.000000,-10140.821405,1302.362347
2808.751598,-962.267725,-10288.862594,1915.238745
2808.751926,222.061783,-10288.862594,-612.876398
2808.752253,888.247130,-9474.636058,-2068.457845
2808.752581,666.185348,-9326.594869,-842.705048
2808.752909,-518.144159,-9992.780217,1149.143247
2808.753236,-1184.329507,-10288.862594,689.485948
2808.753564,-222.061783,-9474.636058,-842.705048
2808.753892,888.247130,-8808.450710,-2298.286494
2808.754219,592.164754,-8660.409521,-612.876398
2808.754547,-592.164754,-10288.862594,1838.629195
2808.754875,0.000000,-11177.109724,919.314598
2808.755202,1480.411884,-10955.047942,-1991.848295
2808.755530,2442.679609,-10214.842000,-1838.629195
2808.755858,1850.514855,-8956.491898,-536.266849
2808.756185,444.123565,-9918.759623,1455.581446
2808.756513,-814.226536,-11103.089130,1608.800546
2808.756840,296.082377,-10510.924376,-842.705048
2808.757168,1406.391290,-8290.306550,-2068.457845
2808.757496,814.226536,-8956.491898,-536.266849
2808.757823,-814.226536,-10510.924376,1915.238745
2808.758151,-1628.453072,-9622.677246,1225.752797
2808.758479,-962.267725,-8512.368333,-995.924147
2808.758806,74.020594,-8808.450710,-2298.286494
2808.759134,148.041188,-8808.450710,-536.266849
2808.759462,-444.123565,-9696.697840,2145.067394
2808.759789,0.000000,-10881.027347,1915.238745
2808.760117,1184.329507,-9696.697840,-689.485948
2808.760444,2294.638420,-8808.450710,-1838.629195
2808.760772,444.123565,-8660.409521,0.000000
2808.761100,-518.144159,-9696.697840,1455.581446
2808.761427,-666.185348,-10584.944971,689.485948
2808.761755,888.247130,-10214.842000,-612.876398
2808.762083,1406.391290,-9030.512492,-1991.848295
2808.762410,592.164754,-8438.347739,153.219100
2808.762738,-1110.308913,-9844.739029,2145.067394
2808.763066,-1702.473667,-10584.944971,766.095498
2808.763393,-740.205942,-9400.615463,-1991.848295
2808.763721,592.164754,-8216.285956,-3140.991542
2808.764049,1036.288319,-8364.327145,-766.095498
2808.764376,592.164754,-10955.047942,2451.505594
2808.764704,-222.061783,-10658.965565,2221.676944
2808.765031,592.164754,-9992.780217,-1149.143247
2808.765359,1184.329507,-9474.636058,-3677.258390
2808.765687,518.144159,-9326.594869,-2757.943793
2808.766014,-740.205942,-9844.739029,153.219100
2808.766342,-888.247130,-10732.986159,919.314598
2808.766670,962.267725,-10807.006753,-229.828649
2808.766997,2442.679609,-9400.615463,-1225.752797
2808.767325,1850.514855,-9104.533087,153.219100
2808.767653,222.061783,-9844.739029,2145.067394
2808.767980,-222.061783,-10881.027347,1455.581446
2808.768308,888.247130,-9622.677246,-1532.190996
2808.768636,962.267725,-7772.162391,-2145.067394
