#time,accel_x,accel_y,accel_z
2463.890779,444.123565,-9104.533087,76.609550
2463.891106,370.102971,-9252.574275,459.657299
2463.891434,0.000000,-8734.430116,306.438199
2463.891762,0.000000,-8734.430116,0.000000
2463.892089,0.000000,-8956.491898,-229.828649
2463.892417,0.000000,-8808.450710,0.000000
2463.892745,0.000000,-8586.388927,76.609550
2463.893072,370.102971,-9252.574275,229.828649
2463.893400,666.185348,-9696.697840,536.266849
2463.893728,740.205942,-9770.718434,229.828649
2463.894055,814.226536,-9622.677246,76.609550
2463.894383,666.185348,-9474.636058,229.828649
2463.894711,74.020594,-8808.450710,536.266849
2463.895039,666.185348,-9992.780217,76.609550
2463.895366,222.061783,-9178.553681,-229.828649
2463.895694,0.000000,-9696.697840,-459.657299
2463.896022,-148.041188,-9992.780217,-689.485948
2463.896349,0.000000,-10362.883188,-919.314598
2463.896677,444.123565,-10732.986159,-766.095498
2463.897005,370.102971,-10362.883188,0.000000
2463.897332,444.123565,-10510.924376,-383.047749
2463.897660,370.102971,-10214.842000,-306.438199
2463.897988,222.061783,-10140.821405,-383.047749
2463.898316,370.102971,-9844.739029,-536.266849
2463.898643,518.144159,-9770.718434,-306.438199
2463.898971,296.082377,-9474.636058,-612.876398
2463.899299,148.041188,-9474.636058,-536.266849
2463.899626,0.000000,-9548.656652,-1378.971896
2463.899954,74.020594,-9622.677246,-919.314598
2463.900282,74.020594,-9844.739029,-383.047749
2463.900609,296.082377,-9992.780217,-153.219100
2463.900937,518.144159,-10066.800811,0.000000
2463.901265,666.185348,-10066.800811,0.000000
2463.901592,888.247130,-9474.636058,-229.828649
2463.901920,740.205942,-9326.594869,919.314598
2463.902248,370.102971,-9178.553681,229.828649
2463.902576,148.041188,-9104.533087,306.438199
2463.902903,0.000000,-8586.388927,0.000000
2463.903231,-222.061783,-8882.471304,0.000000
2463.903559,0.000000,-9252.574275,0.000000
2463.903886,74.020594,-9474.636058,0.000000
2463.904214,222.061783,-9696.697840,0.000000
2463.904542,518.144159,-9326.594869,459.657299
2463.904869,888.247130,-9844.739029,0.000000
2463.905197,740.205942,-9844.739029,0.000000
2463.905525,814.226536,-9548.656652,76.609550
2463.905852,666.185348,-9400.615463,76.609550
2463.906180,740.205942,-9104.533087,229.828649
2463.906508,518.144159,-8734.430116,153.219100
2463.906836,1998.556043,-9548.656652,-306.438199
2463.907163,2368.659014,-9400.615463,-306.438199
2463.907491,3182.885551,-9696.697840,-995.924147
2463.907819,4441.235652,-10807.006753,-842.705048
2463.908146,4885.359217,-10881.027347,-536.266849
2463.908474,6439.791695,-10288.862594,-1072.533697
2463.908802,6809.894666,-10732.986159,-459.657299
2463.909129,7105.977043,-11251.130318,383.047749
2463.909457,7698.141797,-10807.006753,-153.219100
2463.909785,7402.059420,-9992.780217,0.000000
2463.910113,7328.038826,-9326.594869,76.609550
2463.910440,8660.409521,-8956.491898,-229.828649
2463.910768,8808.450710,-8882.471304,612.876398
2463.911096,9326.594869,-8586.388927,76.609550
2463.911423,11103.089130,-8882.471304,0.000000
2463.911751,11473.192101,-9622.677246,0.000000
2463.912079,10362.883188,-9918.759623,766.095498
2463.912406,9770.718434,-9770.718434,459.657299
2463.912734,9178.553681,-9696.697840,612.876398
2463.913062,9400.615463,-10658.965565,689.485948
2463.913389,9844.739029,-10881.027347,-1302.362347
2463.913717,8364.327145,-9252.574275,612.876398
2463.914045,7994.224174,-8956.491898,1149.143247
2463.914373,7920.203579,-7994.224174,229.828649
2463.914700,7402.059420,-7476.080014,0.000000
2463.915028,7328.038826,-7846.182985,459.657299
2463.915356,8290.306550,-8216.285956,306.438199
2463.915683,9400.615463,-9104.533087,766.095498
2463.916011,8808.450710,-9770.718434,919.314598
2463.916339,7772.162391,-11103.089130,1225.752797
2463.916666,6587.832884,-10955.047942,1072.533697
2463.916994,4737.318029,-10955.047942,459.657299
2463.917322,3775.050304,-10881.027347,-536.266849
2463.917649,2442.679609,-9992.780217,-689.485948
2463.917977,2294.638420,-10288.862594,-536.266849
2463.918305,1628.453072,-9770.718434,76.609550
2463.918633,888.247130,-9474.636058,229.828649
2463.918960,74.020594,-8734.430116,0.000000
2463.919288,-370.102971,-8364.327145,-842.705048
2463.919616,-592.164754,-9474.636058,-995.924147
2463.919943,-888.247130,-10288.862594,-689.485948
2463.920271,-740.205942,-10066.800811,-229.828649
2463.920599,0.000000,-10288.862594,612.876398
2463.920926,-370.102971,-11177.109724,383.047749
2463.921254,-1480.411884,-11177.109724,536.266849
2463.921582,-2516.700203,-11399.171507,-459.657299
2463.921909,-3330.926739,-10807.006753,-1302.362347
2463.922237,-5699.585753,-9918.759623,-1685.410096
2463.922565,-5773.606348,-8438.347739,-2757.943793
2463.922893,-6069.688724,-7550.100608,-1302.362347
2463.923220,-5995.668130,-7994.224174,-919.314598
2463.923548,-4293.194464,-7772.162391,-919.314598
2463.923876,-1258.350101,-8068.244768,-689.485948
2463.924203,740.205942,-8956.491898,0.000000
2463.924531,1628.453072,-9770.718434,306.438199
2463.924859,666.185348,-10066.800811,536.266849
2463.925186,-1110.308913,-10288.862594,612.876398
2463.925514,-1998.556043,-11695.253884,-459.657299
2463.925842,-2886.803174,-11399.171507,-1608.800546
2463.926170,-3404.947333,-9622.677246,-1378.971896
2463.926497,-2294.638420,-9474.636058,-842.705048
2463.926825,-1480.411884,-9400.615463,-536.266849
2463.927153,0.000000,-9178.553681,-383.047749
2463.927480,-888.247130,-6809.894666,0.000000
2463.927808,-888.247130,-5403.503377,-459.657299
2463.928136,148.041188,-6217.729913,-536.266849
2463.928463,1924.535449,-8438.347739,-612.876398
2463.928791,3775.050304,-9474.636058,-536.266849
2463.929119,6217.729913,-10288.862594,153.219100
2463.929446,6735.874072,-12139.377449,689.485948
2463.929774,6809.894666,-14804.118840,919.314598
2463.930102,5921.647536,-15618.345376,-612.876398
2463.930430,3256.906145,-13545.768739,-1915.238745
2463.930757,1406.391290,-11695.253884,-2757.943793
2463.931085,74.020594,-9696.697840,-2221.676944
2463.931413,0.000000,-7772.162391,0.000000
2463.931740,518.144159,-6365.771101,1532.190996
2463.932068,1998.556043,-5625.565159,2145.067394
2463.932396,2960.823768,-6365.771101,1838.629195
2463.932723,4071.132681,-8216.285956,689.485948
2463.933051,4663.297435,-9474.636058,0.000000
2463.933379,3997.112087,-10214.842000,-536.266849
2463.933706,3627.009116,-11103.089130,0.000000
2463.934034,3849.070898,-12953.603985,-612.876398
2463.934362,2960.823768,-13027.624579,-612.876398
2463.934690,2294.638420,-12657.521608,0.000000
2463.935017,1406.391290,-12287.418637,153.219100
2463.935345,518.144159,-11843.295072,0.000000
2463.935673,-518.144159,-9770.718434,306.438199
2463.936000,-2146.597232,-6957.935855,383.047749
2463.936328,-3330.926739,-4811.338623,842.705048
2463.936656,-2664.741391,-5329.482782,842.705048
2463.936983,-2294.638420,-5847.626942,1378.971896
2463.937311,-518.144159,-6587.832884,1532.190996
2463.937639,1110.308913,-8956.491898,1532.190996
2463.937967,1332.370696,-11029.068536,1532.190996
2463.938294,1258.350101,-12435.459826,76.609550
2463.938622,-666.185348,-12731.542202,-1072.533697
2463.938950,-2442.679609,-13397.727550,-2221.676944
2463.939277,-4293.194464,-12509.480420,-3217.601092
2463.939605,-5107.421000,-11177.109724,-3370.820191
2463.939933,-4737.318029,-9992.780217,-2221.676944
2463.940260,-3478.967927,-8216.285956,-842.705048
2463.940588,-1850.514855,-8142.265362,612.876398
2463.940916,-1554.432478,-7920.203579,1149.143247
2463.941243,-1184.329507,-7550.100608,766.095498
2463.941571,-518.144159,-7105.977043,-306.438199
2463.941899,-1406.391290,-7846.182985,536.266849
2463.942227,-962.267725,-9474.636058,229.828649
2463.942554,-592.164754,-10510.924376,76.609550
2463.942882,-518.144159,-10955.047942,0.000000
2463.943210,592.164754,-11843.295072,229.828649
2463.943537,222.061783,-12657.521608,-1915.238745
2463.943865,-1406.391290,-13175.665768,-2451.505594
2463.944193,-2442.679609,-12139.377449,-3140.991542
2463.944520,-2590.720797,-9622.677246,-3600.648841
2463.944848,-2368.659014,-7550.100608,-2757.943793
2463.945176,-1480.411884,-6587.832884,-383.047749
2463.945503,370.102971,-6513.812290,2068.457845
2463.945831,3256.906145,-7105.977043,2987.772442
2463.946159,5329.482782,-8586.388927,2528.115143
2463.946487,5699.585753,-9696.697840,1838.629195
2463.946814,4737.318029,-10288.862594,995.924147
2463.947142,3034.844362,-10510.924376,0.000000
2463.947470,1702.473667,-11177.109724,-995.924147
2463.947797,592.164754,-11843.295072,-1378.971896
2463.948125,222.061783,-11177.109724,-2145.067394
2463.948453,962.267725,-10510.924376,-1072.533697
2463.948780,1924.535449,-10140.821405,0.000000
2463.949108,2146.597232,-9918.759623,76.609550
2463.949436,2516.700203,-9770.718434,153.219100
2463.949764,2220.617826,-8512.368333,536.266849
2463.950091,1628.453072,-6587.832884,536.266849
2463.950419,1702.473667,-6957.935855,919.314598
2463.950747,2220.617826,-8216.285956,1762.019645
2463.951074,3256.906145,-8364.327145,1455.581446
2463.951402,3478.967927,-9252.574275,1149.143247
2463.951730,3775.050304,-12657.521608,306.438199
2463.952057,3478.967927,-13841.851115,306.438199
2463.952385,2146.597232,-13027.624579,-995.924147
2463.952713,-1332.370696,-11547.212695,-1608.800546
2463.953040,-1776.494261,-11177.109724,-1608.800546
2463.953368,-1924.535449,-9696.697840,-1072.533697
2463.953696,-2516.700203,-8068.244768,459.657299
2463.954023,-1480.411884,-7550.100608,1225.752797
2463.954351,444.123565,-8142.265362,995.924147
2463.954679,74.020594,-8290.306550,1302.362347
2463.955006,-888.247130,-7994.224174,1378.971896
2463.955334,-1258.350101,-8660.409521,0.000000
2463.955662,-1998.556043,-9326.594869,-2451.505594
2463.955989,-1998.556043,-10066.800811,-2451.505594
2463.956317,-1184.329507,-10955.047942,-1608.800546
2463.956645,-370.102971,-10288.862594,-306.438199
2463.956972,74.020594,-11177.109724,383.047749
2463.957300,962.267725,-11695.253884,612.876398
2463.957628,74.020594,-10436.903782,-153.219100
2463.957955,-592.164754,-9252.574275,-612.876398
2463.958283,-1776.494261,-7920.203579,-689.485948
2463.958611,-2516.700203,-7254.018232,-689.485948
2463.958938,-2664.741391,-6957.935855,0.000000
2463.959266,-1776.494261,-8068.244768,0.000000
2463.959594,-1332.370696,-8586.388927,689.485948
2463.959921,222.061783,-9474.636058,612.876398
2463.960249,518.144159,-9992.780217,0.000000
2463.960577,444.123565,-11547.212695,-1532.190996
2463.960904,-148.041188,-11843.295072,-2451.505594
2463.961232,-1184.329507,-11547.212695,-2298.286494
2463.961560,-1702.473667,-10584.944971,-1838.629195
2463.961887,-962.267725,-10584.944971,-1302.362347
2463.962215,74.020594,-9252.574275,0.000000
2463.962543,1184.329507,-8586.388927,306.438199
2463.962870,1924.535449,-9474.636058,995.924147
2463.963198,2368.659014,-9844.739029,1072.533697
2463.963526,2442.679609,-8808.450710,919.314598
2463.963853,1554.432478,-8956.491898,383.047749
2463.964181,1036.288319,-9622.677246,306.438199
2463.964509,296.082377,-10362.883188,383.047749
2463.964836,222.061783,-10436.903782,306.438199
2463.965164,1554.432478,-10510.924376,383.047749
2463.965492,2220.617826,-10658.965565,536.266849
2463.965819,1702.473667,-10066.800811,383.047749
2463.966147,1110.308913,-11621.233289,-229.828649
2463.966475,592.164754,-11325.150913,-1915.238745
2463.966802,-666.185348,-9400.615463,-1455.581446
2463.967130,0.000000,-9178.553681,-919.314598
2463.967458,740.205942,-8586.388927,536.266849
2463.967785,1258.350101,-7476.080014,1685.410096
2463.968113,2368.659014,-8290.306550,2451.505594
2463.968441,3108.864956,-9252.574275,1991.848295
2463.968768,3108.864956,-9770.718434,1762.019645
2463.969096,2220.617826,-9326.594869,536.266849
2463.969424,-222.061783,-9770.718434,-919.314598
2463.969751,-1628.453072,-10584.944971,-1762.019645
2463.970079,-1850.514855,-10807.006753,-1991.848295
2463.970407,-1702.473667,-10288.862594,-1225.752797
2463.970734,-370.102971,-9178.553681,-689.485948
2463.971062,814.226536,-10584.944971,-306.438199
2463.971390,1258.350101,-11547.212695,76.609550
2463.971717,296.082377,-10214.842000,0.000000
2463.972045,0.000000,-9474.636058,-1302.362347
2463.972373,-666.185348,-9326.594869,-1149.143247
2463.972700,-1110.308913,-8586.388927,-536.266849
2463.973028,-296.082377,-7994.224174,689.485948
2463.973356,814.226536,-8364.327145,459.657299
2463.973683,1480.411884,-9030.512492,459.657299
2463.974011,1406.391290,-10362.883188,-229.828649
2463.974339,666.185348,-11029.068536,-153.219100
2463.974666,0.000000,-10214.842000,-995.924147
2463.974994,-1258.350101,-10288.862594,-2221.676944
2463.975322,-1998.556043,-10732.986159,-1378.971896
2463.975649,-1924.535449,-9770.718434,-612.876398
2463.975977,-1036.288319,-8956.491898,153.219100
2463.976305,-814.226536,-8808.450710,1072.533697
2463.976632,0.000000,-8882.471304,995.924147
2463.976960,-296.082377,-8882.471304,153.219100
2463.977288,-1258.350101,-8882.471304,-919.314598
2463.977615,-1258.350101,-8734.430116,-1455.581446
2463.977943,-1406.391290,-8216.285956,-1302.362347
2463.978271,-1110.308913,-9400.615463,-306.438199
2463.978598,-444.123565,-9770.718434,689.485948
2463.978926,666.185348,-9474.636058,766.095498
2463.979254,1480.411884,-9992.780217,689.485948
2463.979581,1924.535449,-10658.965565,0.000000
2463.979909,1776.494261,-10436.903782,76.609550
2463.980237,740.205942,-10288.862594,-612.876398
2463.980564,0.000000,-9622.677246,-1302.362347
2463.980892,-962.267725,-9474.636058,-766.095498
2463.981220,-888.247130,-9474.636058,-689.485948
2463.981547,-666.185348,-9178.553681,0.000000
2463.981875,592.164754,-8956.491898,229.828649
2463.982203,1924.535449,-9770.718434,0.000000
2463.982530,1998.556043,-11399.171507,0.000000
2463.982858,1850.514855,-10658.965565,-612.876398
2463.983186,1702.473667,-10288.862594,-1455.581446
2463.983513,1110.308913,-11251.130318,-995.924147
2463.983841,1110.308913,-10510.924376,0.000000
2463.984169,2146.597232,-9252.574275,306.438199
2463.984496,1628.453072,-8956.491898,1149.143247
2463.984824,2516.700203,-9178.553681,383.047749
2463.985152,2368.659014,-9992.780217,0.000000
2463.985479,2294.638420,-10214.842000,-306.438199
2463.985807,2072.576638,-9770.718434,-612.876398
2463.986135,1702.473667,-9622.677246,-1072.533697
2463.986462,814.226536,-9992.780217,153.219100
2463.986790,518.144159,-10066.800811,612.876398
2463.987118,444.123565,-9474.636058,536.266849
2463.987445,888.247130,-8734.430116,612.876398
2463.987773,740.205942,-9030.512492,306.438199
2463.988101,962.267725,-9474.636058,0.000000
2463.988428,518.144159,-9474.636058,76.609550
2463.988756,148.041188,-9548.656652,0.000000
2463.989084,-666.185348,-9474.636058,-995.924147
2463.989411,-1628.453072,-8956.491898,-459.657299
2463.989739,-1850.514855,-8512.368333,-306.438199
2463.990067,-296.082377,-9030.512492,229.828649
2463.990394,592.164754,-9844.739029,536.266849
2463.990722,1776.494261,-10510.924376,536.266849
2463.991050,1554.432478,-10066.800811,306.438199
2463.991377,666.185348,-9844.739029,229.828649
2463.991705,-1036.288319,-9622.677246,-306.438199
2463.992033,-1924.535449,-9326.594869,-1225.752797
2463.992360,-2886.803174,-9474.636058,-1532.190996
2463.992688,-2590.720797,-8956.491898,-1225.752797
2463.993016,-1998.556043,-8586.388927,-689.485948
2463.993343,-1184.329507,-9770.718434,-612.876398
2463.993671,-592.164754,-11251.130318,612.876398
2463.993999,-296.082377,-10881.027347,-459.657299
2463.994326,-888.247130,-9992.780217,-2068.457845
2463.994654,-962.267725,-10140.821405,-1302.362347
2463.994982,-740.205942,-9844.739029,-536.266849
2463.995309,-740.205942,-9400.615463,689.485948
2463.995637,888.247130,-9844.739029,1072.533697
2463.995965,2220.617826,-9104.533087,0.000000
2463.996292,2146.597232,-9992.780217,689.485948
2463.996620,2072.576638,-11029.068536,0.000000
2463.996948,888.247130,-10214.842000,-612.876398
2463.997275,0.000000,-9992.780217,-1149.143247
2463.997603,-592.164754,-10066.800811,-1072.533697
2463.997931,-814.226536,-9696.697840,-612.876398
2463.998258,-370.102971,-8734.430116,153.219100
2463.998586,0.000000,-7994.224174,689.485948
2463.998914,1480.411884,-8216.285956,536.266849
2463.999241,1628.453072,-9474.636058,536.266849
2463.999569,888.247130,-9474.636058,76.609550
2463.999897,74.020594,-9252.574275,-459.657299
2464.000224,0.000000,-9104.533087,0.000000
2464.000552,-814.226536,-9326.594869,-612.876398
2464.000880,222.061783,-8586.388927,0.000000
2464.001207,1258.350101,-9104.533087,306.438199
2464.001535,2590.720797,-10288.862594,536.266849
2464.001863,3478.967927,-11251.130318,689.485948
2464.002190,3256.906145,-10732.986159,459.657299
2464.002518,1628.453072,-9326.594869,0.000000
2464.002846,0.000000,-9178.553681,-766.095498
2464.003173,0.000000,-9770.718434,-995.924147
2464.003501,-444.123565,-9400.615463,-689.485948
2464.003829,-222.061783,-8956.491898,0.000000
2464.004156,296.082377,-9104.533087,-306.438199
2464.004484,814.226536,-10362.883188,-383.047749
2464.004812,666.185348,-11695.253884,-153.219100
2464.005139,296.082377,-10510.924376,-1378.971896
2464.005467,592.164754,-9844.739029,-1532.190996
2464.005795,-296.082377,-10214.842000,-1225.752797
2464.006122,-592.164754,-10288.862594,-612.876398
2464.006450,296.082377,-9474.636058,306.438199
2464.006778,1480.411884,-8882.471304,689.485948
2464.007105,1998.556043,-9622.677246,306.438199
2464.007433,2368.659014,-10362.883188,0.000000
2464.007761,2072.576638,-10436.903782,995.924147
2464.008088,1480.411884,-9548.656652,76.609550
2464.008416,0.000000,-10140.821405,-306.438199
2464.008744,-888.247130,-9770.718434,-536.266849
2464.009071,-1554.432478,-9844.739029,153.219100
2464.009399,-1480.411884,-9326.594869,612.876398
2464.009727,-592.164754,-8142.265362,0.000000
2464.010054,0.000000,-8956.491898,536.266849
2464.010382,0.000000,-9178.553681,153.219100
2464.010710,-296.082377,-8882.471304,0.000000
2464.011037,-1480.411884,-8586.388927,0.000000
2464.011365,-2146.597232,-9030.512492,-383.047749
2464.011693,-1850.514855,-9104.533087,-306.438199
2464.012020,-1406.391290,-8512.368333,-995.924147
2464.012348,0.000000,-8956.491898,459.657299
2464.012676,1406.391290,-10584.944971,153.219100
2464.013003,2220.617826,-11695.253884,842.705048
2464.013331,2072.576638,-11029.068536,459.657299
2464.013659,962.267725,-9992.780217,-306.438199
2464.013986,-740.205942,-9622.677246,-536.266849
2464.014314,-1332.370696,-10066.800811,-459.657299
2464.014642,-1110.308913,-9844.739029,-612.876398
2464.014969,-148.041188,-8808.450710,-766.095498
2464.015297,148.041188,-8438.347739,0.000000
2464.015625,888.247130,-10066.800811,153.219100
2464.015952,1332.370696,-11547.212695,306.438199
2464.016280,1332.370696,-9992.780217,-919.314598
2464.016608,1110.308913,-9622.677246,-1302.362347
2464.016935,0.000000,-9696.697840,-1838.629195
2464.017263,0.000000,-9770.718434,-919.314598
2464.017591,444.123565,-9622.677246,229.828649
2464.017918,1850.514855,-9252.574275,612.876398
2464.018246,3182.885551,-9918.759623,383.047749
2464.018574,3404.947333,-11251.130318,0.000000
2464.018901,2812.782580,-10658.965565,459.657299
2464.019229,2146.597232,-9918.759623,-306.438199
2464.019557,888.247130,-9696.697840,0.000000
2464.019884,-370.102971,-9918.759623,0.000000
2464.020212,-814.226536,-9030.512492,153.219100
2464.020540,-518.144159,-8512.368333,306.438199
2464.020867,222.061783,-8808.450710,0.000000
2464.021195,666.185348,-8808.450710,153.219100
2464.021523,518.144159,-9178.553681,-153.219100
2464.021850,-814.226536,-8734.430116,0.000000
2464.022178,-1184.329507,-9104.533087,-995.924147
2464.022506,-1184.329507,-9474.636058,-1378.971896
2464.022833,-1258.350101,-9474.636058,-612.876398
2464.023161,-592.164754,-9030.512492,0.000000
2464.023489,1036.288319,-9844.739029,919.314598
2464.023816,2146.597232,-11251.130318,766.095498
2464.024144,2072.576638,-10955.047942,459.657299
2464.024472,2294.638420,-10807.006753,0.000000
2464.024799,814.226536,-10140.821405,-536.266849
2464.025127,-518.144159,-9474.636058,-459.657299
2464.025455,-1036.288319,-9474.636058,-612.876398
2464.025782,-1554.432478,-9178.553681,-612.876398
2464.026110,-1110.308913,-8586.388927,-306.438199
2464.026438,-444.123565,-8438.347739,229.828649
2464.026765,-740.205942,-9696.697840,0.000000
2464.027093,-370.102971,-10881.027347,-229.828649
2464.027421,74.020594,-10066.800811,-1378.971896
2464.027748,-518.144159,-9548.656652,-2221.676944
2464.028076,-592.164754,-10436.903782,-766.095498
2464.028404,-296.082377,-9770.718434,-689.485948
2464.028731,814.226536,-10140.821405,0.000000
2464.029059,1924.535449,-9252.574275,919.314598
2464.029387,2738.761985,-9770.718434,459.657299
2464.029714,2664.741391,-11103.089130,842.705048
2464.030042,2368.659014,-10732.986159,919.314598
2464.030370,1110.308913,-9474.636058,0.000000
2464.030697,-296.082377,-9474.636058,229.828649
2464.031025,-1184.329507,-8882.471304,0.000000
2464.031353,-1184.329507,-9326.594869,229.828649
2464.031680,-1554.432478,-8586.388927,995.924147
2464.032008,-888.247130,-8364.327145,536.266849
2464.032336,-222.061783,-8956.491898,-536.266849
2464.032663,0.000000,-8956.491898,-306.438199
2464.032991,-592.164754,-8882.471304,-1302.362347
2464.033319,-1406.391290,-9178.553681,-766.095498
2464.033646,-1258.350101,-10066.800811,-995.924147
2464.033974,-296.082377,-9844.739029,-1072.533697
2464.034302,518.144159,-9474.636058,-612.876398
2464.034629,1480.411884,-9992.780217,229.828649
2464.034957,2664.741391,-10881.027347,1072.533697
2464.035285,3849.070898,-11621.233289,0.000000
2464.035612,3182.885551,-10510.924376,-383.047749
2464.035940,1850.514855,-9400.615463,306.438199
2464.036268,0.000000,-8956.491898,459.657299
2464.036595,-740.205942,-9474.636058,306.438199
2464.036923,-1406.391290,-8586.388927,536.266849
2464.037251,-1332.370696,-7846.182985,-459.657299
2464.037578,-962.267725,-8734.430116,-612.876398
2464.037906,-1258.350101,-10140.821405,-995.924147
2464.038234,-666.185348,-10807.006753,-842.705048
2464.038561,-444.123565,-10362.883188,-1608.800546
2464.038889,-370.102971,-10288.862594,-2221.676944
2464.039217,0.000000,-10807.006753,-2068.457845
2464.039544,888.247130,-10732.986159,-1072.533697
2464.039872,1998.556043,-10288.862594,536.266849
2464.040200,3404.947333,-10436.903782,1762.019645
2464.040527,3849.070898,-9474.636058,1302.362347
2464.040855,3108.864956,-10584.944971,1225.752797
2464.041183,2664.741391,-10658.965565,995.924147
2464.041510,1406.391290,-9030.512492,153.219100
2464.041838,-444.123565,-8216.285956,229.828649
2464.042166,-1554.432478,-9474.636058,-459.657299
2464.042493,-1628.453072,-9474.636058,0.000000
2464.042821,-1258.350101,-8734.430116,612.876398
2464.043149,-666.185348,-8808.450710,383.047749
2464.043476,-296.082377,-8438.347739,0.000000
2464.043804,0.000000,-9104.533087,-995.924147
2464.044132,-592.164754,-9030.512492,-1149.143247
2464.044459,-962.267725,-9030.512492,-689.485948
2464.044787,-444.123565,-10066.800811,-306.438199
2464.045115,0.000000,-10214.842000,-689.485948
2464.045442,296.082377,-9770.718434,0.000000
2464.045770,1258.350101,-9474.636058,919.314598
2464.046098,1998.556043,-10214.842000,689.485948
2464.046425,2886.803174,-11103.089130,383.047749
2464.046753,2294.638420,-10658.965565,229.828649
2464.047081,740.205942,-8660.409521,459.657299
2464.047408,-74.020594,-9400.615463,0.000000
2464.047736,-1110.308913,-9548.656652,229.828649
2464.048064,-1702.473667,-9252.574275,0.000000
2464.048391,-2368.659014,-8290.306550,-306.438199
2464.048719,-1480.411884,-8956.491898,-536.266849
2464.049047,-518.144159,-10807.006753,-1302.362347
2464.049374,-740.205942,-11695.253884,-1608.800546
2464.049702,-518.144159,-10881.027347,-2068.457845
2464.050030,-814.226536,-10955.047942,-2221.676944
2464.050357,-518.144159,-11251.130318,-1685.410096
2464.050685,148.041188,-10510.924376,-612.876398
2464.051013,962.267725,-9400.615463,306.438199
2464.051340,2368.659014,-9178.553681,1378.971896
2464.051668,3182.885551,-9474.636058,1302.362347
2464.051995,2516.700203,-9474.636058,1455.581446
2464.052323,2368.659014,-9770.718434,995.924147
2464.052650,1036.288319,-9104.533087,536.266849
2464.052978,74.020594,-9474.636058,-306.438199
2464.053305,-592.164754,-9992.780217,-306.438199
2464.053632,-1480.411884,-9030.512492,-995.924147
2464.053960,-1184.329507,-8512.368333,306.438199
2464.054287,-222.061783,-9326.594869,-229.828649
2464.054615,-148.041188,-9400.615463,-612.876398
2464.054942,370.102971,-9252.574275,-612.876398
2464.055269,74.020594,-9178.553681,-842.705048
2464.055597,-296.082377,-8956.491898,-536.266849
2464.055924,0.000000,-9252.574275,-229.828649
2464.056252,518.144159,-8956.491898,0.000000
2464.056579,2072.576638,-8808.450710,306.438199
2464.056906,2442.679609,-9252.574275,919.314598
2464.057234,3404.947333,-10362.883188,1532.190996
2464.057561,3404.947333,-11177.109724,842.705048
2464.057889,2664.741391,-10955.047942,459.657299
2464.058216,1480.411884,-10436.903782,0.000000
2464.058543,-222.061783,-9178.553681,-612.876398
2464.058871,-1406.391290,-9474.636058,0.000000
2464.059198,-1554.432478,-9770.718434,-306.438199
2464.059526,-814.226536,-9326.594869,-766.095498
2464.059853,-592.164754,-9252.574275,-689.485948
2464.060180,-518.144159,-10066.800811,-766.095498
2464.060508,0.000000,-10807.006753,-1302.362347
2464.060835,-148.041188,-10732.986159,-2374.896044
2464.061163,-1480.411884,-9548.656652,-1838.629195
2464.061490,-888.247130,-9548.656652,-1302.362347
2464.061818,-370.102971,-9696.697840,-842.705048
2464.062145,148.041188,-9474.636058,383.047749
2464.062472,1406.391290,-9030.512492,995.924147
2464.062800,2516.700203,-9400.615463,1685.410096
2464.063127,2516.700203,-10362.883188,1225.752797
2464.063455,2146.597232,-10362.883188,612.876398
2464.063782,814.226536,-9844.739029,76.609550
2464.064109,-1036.288319,-9844.739029,0.000000
2464.064437,-1850.514855,-9844.739029,-229.828649
2464.064764,-2368.659014,-8882.471304,0.000000
2464.065092,-1850.514855,-8438.347739,76.609550
2464.065419,-592.164754,-8882.471304,0.000000
2464.065746,-592.164754,-8660.409521,229.828649
2464.066074,-148.041188,-9474.636058,0.000000
2464.066401,-222.061783,-9178.553681,-383.047749
2464.066729,-1036.288319,-9104.533087,-1149.143247
2464.067056,-814.226536,-9474.636058,-383.047749
2464.067383,0.000000,-9474.636058,153.219100
2464.067711,1258.350101,-9252.574275,306.438199
2464.068038,2072.576638,-9992.780217,919.314598
2464.068366,3108.864956,-11325.150913,766.095498
2464.068693,3404.947333,-11621.233289,536.266849
2464.069021,2442.679609,-10881.027347,153.219100
2464.069348,740.205942,-9474.636058,0.000000
2464.069675,-962.267725,-8808.450710,-919.314598
2464.070003,-2072.576638,-8882.471304,-612.876398
2464.070330,-1702.473667,-8586.388927,-919.314598
2464.070658,-1036.288319,-8068.244768,0.000000
2464.070985,-444.123565,-8956.491898,-383.047749
2464.071312,74.020594,-10140.821405,-459.657299
2464.071640,592.164754,-10807.006753,-995.924147
2464.071967,222.061783,-10066.800811,-1608.800546
2464.072295,0.000000,-10732.986159,-2145.067394
2464.072622,518.144159,-10955.047942,-1302.362347
2464.072949,1480.411884,-10881.027347,-612.876398
2464.073277,1702.473667,-9622.677246,842.705048
2464.073604,2960.823768,-9474.636058,919.314598
2464.073932,3478.967927,-9992.780217,1455.581446
2464.074259,2072.576638,-10066.800811,1225.752797
2464.074586,2294.638420,-9622.677246,536.266849
2464.074914,518.144159,-8956.491898,0.000000
2464.075241,-888.247130,-8364.327145,-536.266849
2464.075569,-1554.432478,-8956.491898,-306.438199
2464.075896,-1406.391290,-9548.656652,0.000000
2464.076223,-1110.308913,-9252.574275,0.000000
2464.076551,444.123565,-9326.594869,0.000000
2464.076878,1406.391290,-9474.636058,459.657299
2464.077206,814.226536,-10066.800811,306.438199
2464.077533,592.164754,-9918.759623,-536.266849
2464.077861,-666.185348,-9844.739029,-612.876398
2464.078188,-1332.370696,-9474.636058,-689.485948
2464.078515,-518.144159,-8956.491898,-612.876398
2464.078843,148.041188,-9104.533087,536.266849
2464.079170,888.247130,-9178.553681,229.828649
2464.079498,2294.638420,-10214.842000,842.705048
2464.079825,2220.617826,-11103.089130,306.438199
2464.080152,1332.370696,-10066.800811,153.219100
2464.080480,0.000000,-8956.491898,0.000000
2464.080807,-1554.432478,-9030.512492,-536.266849
2464.081135,-1776.494261,-10066.800811,0.000000
2464.081462,-1332.370696,-9178.553681,-459.657299
2464.081789,-740.205942,-8512.368333,-536.266849
2464.082117,-666.185348,-9696.697840,-459.657299
2464.082444,-222.061783,-11251.130318,-459.657299
2464.082772,-370.102971,-10732.986159,-1455.581446
2464.083099,-888.247130,-9474.636058,-2221.676944
2464.083426,-592.164754,-9548.656652,-2451.505594
2464.083754,-148.041188,-9992.780217,-536.266849
2464.084081,962.267725,-9696.697840,0.000000
2464.084409,2368.659014,-9030.512492,995.924147
2464.084736,3182.885551,-9030.512492,1302.362347
2464.085064,3478.967927,-9770.718434,1685.410096
2464.085391,2886.803174,-10066.800811,1608.800546
2464.085718,1480.411884,-9696.697840,995.924147
2464.086046,518.144159,-10214.842000,-689.485948
2464.086373,-1036.288319,-9474.636058,-1225.752797
2464.086701,-1850.514855,-9844.739029,-1225.752797
2464.087028,-1702.473667,-9474.636058,-919.314598
2464.087355,-666.185348,-9548.656652,0.000000
2464.087683,888.247130,-9548.656652,153.219100
2464.088010,1036.288319,-9400.615463,0.000000
2464.088338,1480.411884,-8882.471304,229.828649
2464.088665,1110.308913,-9474.636058,-306.438199
2464.088992,0.000000,-9252.574275,0.000000
2464.089320,-370.102971,-9474.636058,153.219100
2464.089647,0.000000,-9474.636058,76.609550
2464.089975,592.164754,-9548.656652,536.266849
2464.090302,1554.432478,-10362.883188,612.876398
2464.090629,1702.473667,-10807.006753,229.828649
2464.090957,1924.535449,-11251.130318,0.000000
2464.091284,1332.370696,-10436.903782,-689.485948
2464.091612,-296.082377,-9474.636058,-306.438199
2464.091939,-1332.370696,-9252.574275,0.000000
2464.092266,-1480.411884,-8956.491898,306.438199
2464.092594,-1480.411884,-8216.285956,153.219100
2464.092921,-666.185348,-8438.347739,0.000000
2464.093249,0.000000,-9770.718434,0.000000
2464.093576,0.000000,-10510.924376,-459.657299
2464.093904,518.144159,-10807.006753,-1532.190996
2464.094231,222.061783,-10732.986159,-2068.457845
2464.094558,-370.102971,-10510.924376,-1608.800546
2464.094886,148.041188,-10658.965565,-766.095498
2464.095213,296.082377,-10066.800811,-842.705048
2464.095541,740.205942,-8660.409521,1225.752797
2464.095868,1702.473667,-8512.368333,1149.143247
2464.096195,2516.700203,-9548.656652,1149.143247
2464.096523,2442.679609,-9844.739029,1225.752797
2464.096850,1628.453072,-9474.636058,459.657299
2464.097178,74.020594,-8734.430116,0.000000
2464.097505,-666.185348,-8956.491898,-919.314598
2464.097832,-962.267725,-9326.594869,0.000000
2464.098160,-962.267725,-9696.697840,0.000000
2464.098487,-592.164754,-9400.615463,76.609550
2464.098815,814.226536,-10066.800811,-536.266849
2464.099142,1184.329507,-10584.944971,-383.047749
2464.099469,740.205942,-9918.759623,0.000000
2464.099797,0.000000,-9252.574275,-536.266849
2464.100124,-962.267725,-9030.512492,0.000000
2464.100452,-1258.350101,-9474.636058,-612.876398
2464.100779,-1184.329507,-8808.450710,0.000000
2464.101107,-370.102971,-8734.430116,612.876398
2464.101434,444.123565,-9474.636058,612.876398
2464.101761,814.226536,-10288.862594,229.828649
2464.102089,740.205942,-10881.027347,-153.219100
2464.102416,74.020594,-10066.800811,-1072.533697
2464.102744,0.000000,-10066.800811,-1149.143247
2464.103071,-888.247130,-10214.842000,-612.876398
2464.103398,-740.205942,-10288.862594,0.000000
2464.103726,-444.123565,-9548.656652,306.438199
2464.104053,0.000000,-9178.553681,76.609550
2464.104381,518.144159,-9178.553681,-306.438199
2464.104708,888.247130,-9992.780217,-153.219100
2464.105035,1110.308913,-10214.842000,-766.095498
2464.105363,666.185348,-9548.656652,-1302.362347
2464.105690,296.082377,-9622.677246,-995.924147
2464.106018,222.061783,-9622.677246,0.000000
2464.106345,592.164754,-9474.636058,459.657299
2464.106672,1110.308913,-8956.491898,689.485948
2464.107000,1406.391290,-8290.306550,612.876398
2464.107327,1628.453072,-9400.615463,383.047749
2464.107655,1702.473667,-10140.821405,0.000000
2464.107982,592.164754,-9770.718434,0.000000
2464.108309,-592.164754,-9548.656652,-383.047749
2464.108637,-1184.329507,-9474.636058,-766.095498
2464.108964,-592.164754,-10140.821405,-1225.752797
2464.109292,-518.144159,-9918.759623,-459.657299
2464.109619,518.144159,-9474.636058,229.828649
2464.109947,1924.535449,-9918.759623,0.000000
2464.110274,2516.700203,-10510.924376,229.828649
2464.110601,1776.494261,-10140.821405,383.047749
2464.110929,740.205942,-9400.615463,76.609550
2464.111256,-592.164754,-9474.636058,76.609550
2464.111584,-1554.432478,-9326.594869,-995.924147
2464.111911,-1036.288319,-9030.512492,-919.314598
2464.112238,-222.061783,-9104.533087,-306.438199
2464.112566,888.247130,-9770.718434,0.000000
2464.112893,1554.432478,-11029.068536,0.000000
2464.113221,1554.432478,-10881.027347,76.609550
2464.113548,1406.391290,-10362.883188,-383.047749
2464.113875,296.082377,-10140.821405,-689.485948
2464.114203,-740.205942,-9844.739029,-383.047749
2464.114530,-962.267725,-9844.739029,76.609550
2464.114858,-888.247130,-9400.615463,459.657299
2464.115185,0.000000,-8660.409521,536.266849
2464.115512,370.102971,-8956.491898,153.219100
2464.115840,222.061783,-9770.718434,919.314598
2464.116167,740.205942,-10214.842000,-1455.581446
2464.116495,0.000000,-9770.718434,-1838.629195
2464.116822,-666.185348,-9474.636058,-1225.752797
2464.117150,-370.102971,-9696.697840,-306.438199
2464.117477,148.041188,-9474.636058,383.047749
2464.117804,1184.329507,-9474.636058,383.047749
2464.118132,1924.535449,-9178.553681,1302.362347
2464.118459,1702.473667,-9918.759623,766.095498
2464.118787,1036.288319,-10288.862594,153.219100
2464.119114,444.123565,-9770.718434,-383.047749
2464.119441,-962.267725,-9622.677246,-1225.752797
2464.119769,-1628.453072,-9992.780217,-1149.143247
2464.120096,-814.226536,-10807.006753,-689.485948
2464.120424,-1332.370696,-9178.553681,0.000000
2464.120751,-370.102971,-9104.533087,612.876398
2464.121078,888.247130,-9770.718434,-153.219100
2464.121406,814.226536,-9918.759623,0.000000
2464.121733,370.102971,-9770.718434,76.609550
2464.122061,0.000000,-9104.533087,0.000000
2464.122388,-592.164754,-9252.574275,0.000000
2464.122715,-666.185348,-9474.636058,-842.705048
2464.123043,-814.226536,-9104.533087,-306.438199
2464.123370,-518.144159,-9030.512492,0.000000
2464.123698,518.144159,-10066.800811,-536.266849
2464.124025,1406.391290,-10881.027347,-689.485948
2464.124352,1406.391290,-10584.944971,-766.095498
2464.124680,1554.432478,-10066.800811,-459.657299
2464.125007,888.247130,-9548.656652,229.828649
2464.125335,444.123565,-9474.636058,766.095498
2464.125662,0.000000,-9474.636058,306.438199
2464.125990,592.164754,-9252.574275,612.876398
2464.126317,740.205942,-8586.388927,459.657299
2464.126644,962.267725,-9030.512492,459.657299
2464.126972,888.247130,-9844.739029,0.000000
2464.127299,888.247130,-10510.924376,-919.314598
2464.127627,0.000000,-8956.491898,-1072.533697
2464.127954,0.000000,-9770.718434,-1991.848295
2464.128281,444.123565,-10584.944971,-1149.143247
2464.128609,1110.308913,-10362.883188,0.000000
2464.128936,1924.535449,-9474.636058,689.485948
2464.129264,2590.720797,-9844.739029,536.266849
2464.129591,3034.844362,-10436.903782,229.828649
2464.129918,2294.638420,-10436.903782,383.047749
2464.130246,1184.329507,-9622.677246,-612.876398
2464.130573,0.000000,-9696.697840,-536.266849
2464.130901,-1406.391290,-10214.842000,-689.485948
2464.131228,-1998.556043,-9770.718434,-1225.752797
2464.131555,-2220.617826,-9474.636058,-689.485948
2464.131883,-1036.288319,-9400.615463,-536.266849
2464.132210,666.185348,-9622.677246,-306.438199
2464.132538,740.205942,-10140.821405,-153.219100
2464.132865,1036.288319,-9992.780217,153.219100
2464.133193,148.041188,-9326.594869,306.438199
2464.133520,-1036.288319,-9030.512492,306.438199
2464.133847,-962.267725,-8882.471304,229.828649
2464.134175,-1184.329507,-8956.491898,-229.828649
2464.134502,-1184.329507,-8586.388927,459.657299
2464.134830,0.000000,-9548.656652,0.000000
2464.135157,888.247130,-10732.986159,0.000000
2464.135484,1036.288319,-10584.944971,0.000000
2464.135812,666.185348,-9770.718434,-229.828649
2464.136139,0.000000,-9770.718434,153.219100
2464.136467,-518.144159,-9326.594869,0.000000
2464.136794,-740.205942,-8956.491898,153.219100
2464.137121,-666.185348,-8808.450710,689.485948
2464.137449,-296.082377,-8660.409521,766.095498
2464.137776,740.205942,-9474.636058,153.219100
2464.138104,296.082377,-10510.924376,-383.047749
2464.138431,0.000000,-10510.924376,-919.314598
2464.138758,-740.205942,-9548.656652,-2451.505594
2464.139086,-1036.288319,-9548.656652,-2604.724693
2464.139413,-962.267725,-10658.965565,-1455.581446
2464.139741,444.123565,-9770.718434,-153.219100
2464.140068,1258.350101,-9030.512492,689.485948
2464.140395,2368.659014,-9474.636058,1072.533697
2464.140723,3108.864956,-9992.780217,919.314598
2464.141050,3182.885551,-10436.903782,153.219100
2464.141378,1776.494261,-9400.615463,0.000000
2464.141705,148.041188,-9770.718434,0.000000
2464.142033,-370.102971,-10140.821405,-459.657299
2464.142360,-666.185348,-9992.780217,-689.485948
2464.142687,-592.164754,-9844.739029,-689.485948
2464.143015,296.082377,-9992.780217,-536.266849
2464.143342,1184.329507,-10140.821405,-306.438199
2464.143670,1258.350101,-10066.800811,229.828649
2464.143997,370.102971,-9252.574275,229.828649
2464.144324,74.020594,-8956.491898,76.609550
2464.144652,0.000000,-8512.368333,153.219100
2464.144979,-962.267725,-8290.306550,229.828649
2464.145307,-444.123565,-8068.244768,612.876398
2464.145634,666.185348,-8808.450710,1072.533697
2464.145961,1776.494261,-9400.615463,229.828649
2464.146289,2590.720797,-10732.986159,153.219100
2464.146616,2516.700203,-10658.965565,0.000000
2464.146944,1998.556043,-10584.944971,0.000000
2464.147271,592.164754,-10362.883188,-383.047749
2464.147598,-518.144159,-9770.718434,0.000000
2464.147926,-962.267725,-9326.594869,0.000000
2464.148253,-962.267725,-8364.327145,689.485948
2464.148581,0.000000,-9030.512492,-306.438199
2464.148908,222.061783,-9400.615463,0.000000
2464.149236,0.000000,-9696.697840,0.000000
2464.149563,-370.102971,-9548.656652,-1225.752797
2464.149890,-962.267725,-9770.718434,-2221.676944
2464.150218,-1036.288319,-10214.842000,-1608.800546
2464.150545,-222.061783,-10732.986159,-1225.752797
2464.150873,444.123565,-10436.903782,-306.438199
2464.151200,1480.411884,-9992.780217,459.657299
2464.151527,2220.617826,-10362.883188,842.705048
2464.151855,2146.597232,-11103.089130,306.438199
2464.152182,1480.411884,-10881.027347,-383.047749
2464.152510,740.205942,-9770.718434,-306.438199
2464.152837,-370.102971,-8956.491898,-1225.752797
2464.153164,-1110.308913,-9326.594869,-612.876398
2464.153492,-1406.391290,-9770.718434,0.000000
2464.153819,-962.267725,-9474.636058,229.828649
2464.154147,0.000000,-9178.553681,229.828649
2464.154474,1036.288319,-9326.594869,-306.438199
2464.154802,814.226536,-9622.677246,76.609550
2464.155129,222.061783,-9400.615463,612.876398
2464.155457,0.000000,-8956.491898,76.609550
2464.155784,-740.205942,-9178.553681,0.000000
2464.156112,-1332.370696,-9030.512492,-153.219100
2464.156439,-740.205942,-8882.471304,-229.828649
2464.156767,74.020594,-8808.450710,995.924147
2464.157094,1332.370696,-8956.491898,766.095498
2464.157422,2368.659014,-9770.718434,229.828649
2464.157749,2220.617826,-9474.636058,229.828649
2464.158077,1406.391290,-9770.718434,0.000000
2464.158404,592.164754,-9696.697840,0.000000
2464.158732,0.000000,-10066.800811,76.609550
2464.159059,-592.164754,-9178.553681,229.828649
2464.159387,-814.226536,-8882.471304,383.047749
2464.159714,-222.061783,-8734.430116,153.219100
2464.160042,0.000000,-9548.656652,0.000000
2464.160369,0.000000,-10362.883188,-842.705048
2464.160697,-444.123565,-9844.739029,-1838.629195
2464.161024,-1110.308913,-9474.636058,-2374.896044
2464.161352,-962.267725,-9844.739029,-1838.629195
2464.161679,0.000000,-10288.862594,-1455.581446
2464.162007,962.267725,-10066.800811,153.219100
2464.162334,1850.514855,-9992.780217,-153.219100
2464.162662,2590.720797,-10288.862594,153.219100
2464.162989,3034.844362,-11251.130318,306.438199
2464.163317,2812.782580,-11473.192101,76.609550
2464.163644,1258.350101,-10214.842000,-536.266849
2464.163971,0.000000,-9474.636058,-919.314598
2464.164299,-592.164754,-10214.842000,-383.047749
2464.164626,-1110.308913,-9844.739029,-1072.533697
2464.164954,-814.226536,-9696.697840,-229.828649
2464.165281,-296.082377,-8956.491898,0.000000
2464.165609,518.144159,-8808.450710,0.000000
2464.165936,592.164754,-9474.636058,536.266849
2464.166264,0.000000,-9326.594869,689.485948
2464.166591,0.000000,-8216.285956,536.266849
2464.166919,-740.205942,-7846.182985,76.609550
2464.167246,-518.144159,-9252.574275,0.000000
2464.167574,-370.102971,-8956.491898,306.438199
2464.167901,0.000000,-8660.409521,689.485948
2464.168229,1406.391290,-9770.718434,306.438199
2464.168556,2590.720797,-10881.027347,153.219100
2464.168884,2368.659014,-10955.047942,-459.657299
2464.169211,814.226536,-9474.636058,229.828649
2464.169539,0.000000,-9622.677246,-306.438199
2464.169866,-814.226536,-9474.636058,0.000000
2464.170194,-1924.535449,-9104.533087,766.095498
2464.170521,-2442.679609,-7994.224174,1302.362347
2464.170849,-1258.350101,-7476.080014,383.047749
2464.171176,-296.082377,-9252.574275,-612.876398
2464.171504,0.000000,-10436.903782,-1072.533697
2464.171831,-370.102971,-10066.800811,-1838.629195
2464.172159,-888.247130,-9992.780217,-2298.286494
2464.172486,-740.205942,-11177.109724,-2221.676944
2464.172814,222.061783,-11473.192101,-1072.533697
2464.173141,1110.308913,-11029.068536,-1149.143247
2464.173469,2220.617826,-10214.842000,0.000000
2464.173796,3478.967927,-10732.986159,76.609550
2464.174124,3701.029710,-11695.253884,612.876398
2464.174451,3404.947333,-11103.089130,612.876398
2464.174779,2368.659014,-9400.615463,306.438199
2464.175106,370.102971,-8734.430116,-229.828649
2464.175433,-888.247130,-9030.512492,459.657299
2464.175761,-1554.432478,-8956.491898,383.047749
2464.176088,-1554.432478,-8956.491898,-306.438199
2464.176416,-740.205942,-9030.512492,-306.438199
2464.176743,-370.102971,-9178.553681,0.000000
2464.177071,0.000000,-9696.697840,76.609550
2464.177398,222.061783,-9770.718434,76.609550
2464.177726,296.082377,-9622.677246,-919.314598
2464.178053,-148.041188,-8808.450710,-306.438199
2464.178381,222.061783,-9104.533087,0.000000
2464.178708,518.144159,-9178.553681,1072.533697
2464.179036,1184.329507,-9104.533087,1225.752797
2464.179363,2442.679609,-9474.636058,766.095498
2464.179691,2886.803174,-10584.944971,229.828649
2464.180018,2368.659014,-10436.903782,612.876398
2464.180346,962.267725,-9178.553681,-229.828649
2464.180673,-1036.288319,-8734.430116,0.000000
2464.181001,-1480.411884,-9474.636058,76.609550
2464.181328,-1258.350101,-9770.718434,0.000000
2464.181656,-1406.391290,-8956.491898,0.000000
2464.181983,-962.267725,-8586.388927,0.000000
2464.182311,-370.102971,-9030.512492,-766.095498
2464.182638,-296.082377,-10584.944971,-995.924147
2464.182966,-962.267725,-10066.800811,-2068.457845
2464.183293,-1258.350101,-9992.780217,-1991.848295
2464.183621,-814.226536,-11177.109724,-1608.800546
2464.183948,592.164754,-11473.192101,-1532.190996
2464.184276,1332.370696,-10510.924376,-995.924147
2464.184603,2294.638420,-9474.636058,306.438199
2464.184931,2664.741391,-9770.718434,1149.143247
2464.185258,3182.885551,-10584.944971,766.095498
2464.185586,2368.659014,-10955.047942,459.657299
2464.185913,1036.288319,-9400.615463,76.609550
2464.186241,-296.082377,-9400.615463,-383.047749
2464.186568,-1036.288319,-10362.883188,0.000000
2464.186895,-2294.638420,-9548.656652,-536.266849
2464.187223,-1702.473667,-9252.574275,-306.438199
2464.187550,-1036.288319,-9252.574275,0.000000
2464.187878,-444.123565,-9474.636058,-383.047749
2464.188205,370.102971,-9770.718434,-306.438199
2464.188533,-296.082377,-9696.697840,-383.047749
2464.188860,-740.205942,-9474.636058,-306.438199
2464.189188,-962.267725,-9178.553681,0.000000
2464.189515,-814.226536,-8660.409521,0.000000
2464.189843,-148.041188,-9252.574275,306.438199
2464.190170,518.144159,-8660.409521,459.657299
2464.190498,1258.350101,-9474.636058,459.657299
2464.190825,2294.638420,-10732.986159,536.266849
2464.191153,2516.700203,-10288.862594,536.266849
2464.191480,1110.308913,-9474.636058,842.705048
2464.191808,222.061783,-9770.718434,306.438199
2464.192135,-296.082377,-9992.780217,0.000000
2464.192463,-1184.329507,-9770.718434,0.000000
2464.192790,-1998.556043,-8438.347739,0.000000
2464.193118,-888.247130,-8734.430116,-536.266849
2464.193445,0.000000,-9474.636058,-919.314598
2464.193773,888.247130,-9844.739029,-1072.533697
2464.194100,592.164754,-10066.800811,-1532.190996
2464.194428,0.000000,-10214.842000,-1762.019645
2464.194755,518.144159,-10807.006753,-1838.629195
2464.195083,1332.370696,-10658.965565,-995.924147
2464.195410,1998.556043,-10066.800811,-153.219100
2464.195738,2664.741391,-9622.677246,842.705048
2464.196065,3627.009116,-9844.739029,1072.533697
2464.196393,3701.029710,-11177.109724,1072.533697
2464.196720,4071.132681,-11177.109724,842.705048
2464.197048,2072.576638,-9918.759623,0.000000
2464.197375,74.020594,-9474.636058,-612.876398
2464.197702,-1628.453072,-10140.821405,-1149.143247
2464.198030,-1998.556043,-9992.780217,-689.485948
2464.198357,-1036.288319,-8882.471304,-306.438199
2464.198685,74.020594,-9104.533087,0.000000
2464.199012,666.185348,-9474.636058,459.657299
2464.199340,1110.308913,-10362.883188,306.438199
2464.199667,222.061783,-10362.883188,0.000000
2464.199995,-1702.473667,-9474.636058,-306.438199
2464.200322,-2146.597232,-8216.285956,-689.485948
2464.200650,-2368.659014,-8438.347739,-459.657299
2464.200977,-740.205942,-9178.553681,-229.828649
2464.201305,444.123565,-9178.553681,536.266849
2464.201632,1406.391290,-9696.697840,459.657299
2464.201960,1628.453072,-10955.047942,383.047749
2464.202287,1406.391290,-10658.965565,0.000000
2464.202615,0.000000,-9474.636058,0.000000
2464.202942,-1406.391290,-9400.615463,0.000000
2464.203270,-1184.329507,-8956.491898,0.000000
2464.203597,-1332.370696,-9104.533087,842.705048
2464.203925,-962.267725,-8438.347739,766.095498
2464.204252,-1110.308913,-8586.388927,383.047749
2464.204580,0.000000,-9696.697840,-383.047749
2464.204907,-518.144159,-10510.924376,-1149.143247
2464.205235,-592.164754,-9992.780217,-1685.410096
2464.205562,-814.226536,-9622.677246,-2374.896044
2464.205890,-296.082377,-10362.883188,-2298.286494
2464.206217,444.123565,-10436.903782,-842.705048
2464.206545,1554.432478,-9992.780217,612.876398
2464.206872,2738.761985,-10214.842000,1149.143247
2464.207200,3256.906145,-10807.006753,766.095498
2464.207527,3330.926739,-11325.150913,76.609550
2464.207855,2294.638420,-10881.027347,536.266849
2464.208182,740.205942,-8956.491898,76.609550
2464.208510,-740.205942,-8586.388927,-383.047749
2464.208837,-1480.411884,-10066.800811,-306.438199
2464.209164,-1702.473667,-9622.677246,-229.828649
2464.209492,-1332.370696,-8660.409521,-766.095498
2464.209819,-370.102971,-8882.471304,153.219100
2464.210147,666.185348,-9474.636058,689.485948
2464.210474,1850.514855,-10140.821405,0.000000
2464.210802,1036.288319,-10214.842000,-229.828649
2464.211129,222.061783,-9474.636058,0.000000
2464.211457,666.185348,-9326.594869,-459.657299
2464.211784,0.000000,-9622.677246,0.000000
2464.212112,222.061783,-8882.471304,1072.533697
2464.212439,1406.391290,-8660.409521,1149.143247
2464.212767,2146.597232,-9918.759623,1072.533697
2464.213094,2220.617826,-11029.068536,536.266849
2464.213422,1628.453072,-10140.821405,0.000000
2464.213749,444.123565,-9252.574275,0.000000
2464.214077,-814.226536,-8808.450710,76.609550
2464.214404,-1036.288319,-8956.491898,-1072.533697
2464.214732,-1184.329507,-9030.512492,842.705048
2464.215059,-740.205942,-8660.409521,1762.019645
2464.215387,1406.391290,-8956.491898,0.000000
2464.215714,1184.329507,-10140.821405,-306.438199
2464.216042,740.205942,-10955.047942,-306.438199
2464.216369,148.041188,-10955.047942,-1685.410096
2464.216697,-666.185348,-10658.965565,-1532.190996
2464.217024,-1184.329507,-11325.150913,-2221.676944
2464.217352,0.000000,-10584.944971,-1532.190996
2464.217679,1036.288319,-10066.800811,-383.047749
2464.218007,1850.514855,-10140.821405,536.266849
2464.218334,2664.741391,-10214.842000,919.314598
2464.218662,2516.700203,-10436.903782,383.047749
2464.218989,1406.391290,-9844.739029,459.657299
2464.219317,518.144159,-8512.368333,229.828649
2464.219644,-1258.350101,-8216.285956,76.609550
2464.219972,-2368.659014,-9622.677246,0.000000
2464.220299,-1702.473667,-9622.677246,-306.438199
2464.220626,-1036.288319,-9252.574275,-536.266849
2464.220954,-740.205942,-9474.636058,-459.657299
2464.221281,74.020594,-10066.800811,306.438199
2464.221609,0.000000,-10140.821405,-383.047749
2464.221936,-740.205942,-9326.594869,-995.924147
2464.222264,-1258.350101,-8364.327145,-1378.971896
2464.222591,-592.164754,-8956.491898,-383.047749
2464.222919,0.000000,-9030.512492,995.924147
2464.223246,296.082377,-8512.368333,1378.971896
2464.223574,1406.391290,-8586.388927,1378.971896
2464.223901,2072.576638,-9252.574275,1532.190996
2464.224229,2368.659014,-10732.986159,0.000000
2464.224556,1628.453072,-10436.903782,0.000000
2464.224884,370.102971,-9770.718434,-306.438199
2464.225211,-592.164754,-9770.718434,-459.657299
2464.225539,-1036.288319,-10140.821405,-689.485948
2464.225866,-1554.432478,-8882.471304,0.000000
2464.226194,-370.102971,-8586.388927,536.266849
2464.226521,0.000000,-8956.491898,536.266849
2464.226849,1184.329507,-10288.862594,-766.095498
2464.227176,666.185348,-10362.883188,-1072.533697
2464.227504,518.144159,-10066.800811,-995.924147
2464.227831,0.000000,-10436.903782,-995.924147
2464.228159,-148.041188,-11325.150913,-1149.143247
2464.228486,518.144159,-10881.027347,-383.047749
2464.228814,1258.350101,-10362.883188,-229.828649
2464.229141,1998.556043,-10510.924376,-306.438199
2464.229469,2590.720797,-10658.965565,229.828649
2464.229796,2516.700203,-10584.944971,612.876398
2464.230124,1702.473667,-9548.656652,612.876398
2464.230451,518.144159,-9622.677246,153.219100
2464.230779,-740.205942,-9252.574275,-306.438199
2464.231106,-1850.514855,-8882.471304,-459.657299
2464.231433,-1480.411884,-9030.512492,383.047749
2464.231761,-740.205942,-8956.491898,0.000000
2464.232088,74.020594,-9622.677246,0.000000
2464.232416,814.226536,-10362.883188,0.000000
2464.232743,1406.391290,-10362.883188,0.000000
2464.233071,666.185348,-9918.759623,-1225.752797
2464.233398,74.020594,-9548.656652,-383.047749
2464.233726,-370.102971,-9104.533087,-383.047749
2464.234053,0.000000,-8660.409521,229.828649
2464.234381,0.000000,-8364.327145,1149.143247
2464.234708,666.185348,-8364.327145,1378.971896
2464.235036,1776.494261,-9252.574275,1302.362347
2464.235363,2516.700203,-10732.986159,1072.533697
2464.235691,1036.288319,-9474.636058,229.828649
2464.236018,148.041188,-9474.636058,-459.657299
2464.236346,-962.267725,-9474.636058,-689.485948
2464.236673,-1480.411884,-9770.718434,-229.828649
2464.237001,-1258.350101,-9696.697840,-306.438199
2464.237328,-740.205942,-9400.615463,459.657299
2464.237656,370.102971,-9326.594869,0.000000
2464.237983,740.205942,-9918.759623,-459.657299
2464.238311,222.061783,-10584.944971,-536.266849
2464.238638,0.000000,-10436.903782,-995.924147
2464.238966,-592.164754,-10140.821405,-1608.800546
2464.239293,-1184.329507,-10288.862594,-1378.971896
2464.239621,-740.205942,-10214.842000,-919.314598
2464.239948,0.000000,-9548.656652,-536.266849
2464.240276,1110.308913,-9252.574275,229.828649
2464.240603,1628.453072,-10436.903782,459.657299
2464.240931,2220.617826,-10955.047942,459.657299
2464.241258,1554.432478,-9992.780217,0.000000
2464.241586,74.020594,-9622.677246,-383.047749
2464.241913,-962.267725,-9696.697840,-842.705048
2464.242241,-1850.514855,-9474.636058,0.000000
2464.242568,-1184.329507,-9696.697840,-229.828649
2464.242895,-444.123565,-9548.656652,-306.438199
2464.243223,666.185348,-9770.718434,-306.438199
2464.243550,1998.556043,-10214.842000,-229.828649
2464.243878,1480.411884,-10362.883188,-153.219100
2464.244205,518.144159,-9474.636058,153.219100
2464.244533,-518.144159,-8290.306550,229.828649
2464.244860,-518.144159,-8142.265362,612.876398
2464.245188,0.000000,-8660.409521,689.485948
2464.245515,-222.061783,-8142.265362,1225.752797
2464.245843,148.041188,-8364.327145,1149.143247
2464.246170,1110.308913,-9770.718434,229.828649
2464.246498,1258.350101,-10584.944971,-383.047749
2464.246825,444.123565,-9696.697840,-459.657299
2464.247153,-222.061783,-10066.800811,-995.924147
2464.247480,-666.185348,-9992.780217,-919.314598
2464.247808,0.000000,-10510.924376,-612.876398
2464.248135,518.144159,-9992.780217,306.438199
2464.248463,1332.370696,-9474.636058,766.095498
2464.248790,1776.494261,-9474.636058,689.485948
2464.249118,1850.514855,-10658.965565,76.609550
2464.249445,1332.370696,-10807.006753,-1225.752797
2464.249773,74.020594,-9400.615463,-1762.019645
2464.250100,-222.061783,-9474.636058,-1608.800546
2464.250428,-592.164754,-9992.780217,-1149.143247
2464.250755,-296.082377,-10140.821405,-383.047749
2464.251083,888.247130,-9474.636058,-153.219100
2464.251410,1924.535449,-9400.615463,383.047749
2464.251738,2220.617826,-10362.883188,0.000000
2464.252065,1924.535449,-10807.006753,0.000000
2464.252393,1554.432478,-10140.821405,-153.219100
2464.252720,814.226536,-9770.718434,-383.047749
2464.253048,-518.144159,-9474.636058,0.000000
2464.253375,-814.226536,-9474.636058,0.000000
2464.253703,-592.164754,-9104.533087,0.000000
2464.254030,-222.061783,-8882.471304,76.609550
2464.254357,148.041188,-9326.594869,-459.657299
2464.254685,666.185348,-9770.718434,-459.657299
2464.255013,592.164754,-9770.718434,0.000000
2464.255340,148.041188,-9030.512492,153.219100
2464.255668,-592.164754,-8660.409521,0.000000
2464.255995,-222.061783,-9104.533087,383.047749
2464.256323,-962.267725,-8142.265362,459.657299
2464.256650,-1036.288319,-8364.327145,612.876398
2464.256978,-444.123565,-9326.594869,536.266849
2464.257306,74.020594,-10288.862594,-383.047749
2464.257633,-296.082377,-10362.883188,-766.095498
2464.257961,-518.144159,-9844.739029,-842.705048
2464.258288,-1110.308913,-9918.759623,-766.095498
2464.258616,-1184.329507,-10362.883188,-1608.800546
2464.258943,-1332.370696,-10807.006753,-689.485948
2464.259271,-1110.308913,-10288.862594,0.000000
2464.259598,0.000000,-8734.430116,229.828649
2464.259926,518.144159,-9104.533087,153.219100
2464.260254,222.061783,-9622.677246,229.828649
2464.260581,444.123565,-9770.718434,0.000000
2464.260909,148.041188,-9252.574275,-919.314598
2464.261236,-222.061783,-9844.739029,-1225.752797
2464.261564,-148.041188,-10658.965565,-1072.533697
2464.261891,296.082377,-10436.903782,-766.095498
2464.262219,1110.308913,-9992.780217,-383.047749
2464.262547,1554.432478,-9918.759623,-536.266849
2464.262874,2886.803174,-10881.027347,0.000000
2464.263202,2664.741391,-10214.842000,766.095498
2464.263529,2368.659014,-9400.615463,536.266849
2464.263857,2072.576638,-8956.491898,153.219100
2464.264184,814.226536,-9104.533087,842.705048
2464.264512,222.061783,-9030.512492,689.485948
2464.264839,518.144159,-8882.471304,0.000000
2464.265167,814.226536,-7772.162391,995.924147
2464.265495,1776.494261,-8956.491898,0.000000
2464.265822,2294.638420,-9548.656652,0.000000
2464.266150,2368.659014,-10214.842000,76.609550
2464.266477,1702.473667,-9918.759623,0.000000
2464.266805,888.247130,-9844.739029,-536.266849
2464.267132,296.082377,-9844.739029,-689.485948
2464.267460,222.061783,-9548.656652,-1072.533697
2464.267788,592.164754,-8216.285956,459.657299
2464.268115,1406.391290,-9252.574275,76.609550
2464.268443,2072.576638,-10658.965565,153.219100
2464.268770,2072.576638,-10732.986159,76.609550
2464.269098,592.164754,-10436.903782,-536.266849
2464.269425,-1110.308913,-9992.780217,-612.876398
2464.269753,-1850.514855,-9992.780217,-1685.410096
2464.270080,-2664.741391,-9844.739029,-1072.533697
2464.270408,-2146.597232,-10140.821405,-689.485948
2464.270736,-1332.370696,-9548.656652,0.000000
2464.271063,-296.082377,-9696.697840,153.219100
2464.271391,0.000000,-10510.924376,0.000000
2464.271718,-666.185348,-9992.780217,0.000000
2464.272046,-1850.514855,-9400.615463,-1685.410096
2464.272373,-2072.576638,-9178.553681,-536.266849
2464.272701,-1554.432478,-9696.697840,-842.705048
2464.273029,-1036.288319,-9474.636058,-459.657299
2464.273356,0.000000,-9474.636058,536.266849
2464.273684,1036.288319,-9696.697840,919.314598
2464.274011,1998.556043,-10510.924376,766.095498
2464.274339,1332.370696,-10140.821405,76.609550
2464.274666,518.144159,-9622.677246,306.438199
2464.274994,-518.144159,-9178.553681,-229.828649
2464.275321,-1480.411884,-8808.450710,0.000000
2464.275649,-2146.597232,-9104.533087,459.657299
2464.275977,-1110.308913,-9252.574275,306.438199
2464.276304,-814.226536,-8734.430116,229.828649
2464.276632,370.102971,-9030.512492,-383.047749
2464.276959,1036.288319,-10436.903782,-459.657299
2464.277287,814.226536,-10362.883188,-689.485948
2464.277614,0.000000,-9474.636058,-459.657299
2464.277942,-296.082377,-9326.594869,-383.047749
2464.278269,-222.061783,-9474.636058,0.000000
2464.278597,148.041188,-8586.388927,306.438199
2464.278925,296.082377,-8142.265362,536.266849
2464.279252,1406.391290,-9400.615463,536.266849
2464.279580,2516.700203,-10658.965565,0.000000
2464.279907,2368.659014,-11103.089130,-306.438199
2464.280235,1628.453072,-10510.924376,-766.095498
2464.280562,814.226536,-9844.739029,-1225.752797
2464.280890,518.144159,-9844.739029,-1762.019645
2464.281218,518.144159,-9770.718434,229.828649
2464.281545,444.123565,-9992.780217,153.219100
2464.281873,1998.556043,-9844.739029,689.485948
2464.282200,1998.556043,-9844.739029,383.047749
2464.282528,1554.432478,-10362.883188,0.000000
2464.282855,888.247130,-10066.800811,-919.314598
2464.283183,0.000000,-9474.636058,-1302.362347
2464.283510,-666.185348,-9400.615463,-1225.752797
2464.283838,148.041188,-9474.636058,-1991.848295
2464.284166,666.185348,-9622.677246,-689.485948
2464.284493,1776.494261,-9474.636058,459.657299
2464.284821,3256.906145,-10066.800811,842.705048
2464.285148,3627.009116,-10510.924376,612.876398
2464.285476,3034.844362,-10214.842000,919.314598
2464.285803,2368.659014,-9770.718434,383.047749
2464.286131,592.164754,-9548.656652,459.657299
2464.286459,-962.267725,-9252.574275,842.705048
2464.286786,-1406.391290,-9252.574275,76.609550
2464.287114,-1480.411884,-9474.636058,0.000000
2464.287441,-1702.473667,-8956.491898,-383.047749
2464.287769,-962.267725,-9326.594869,-1302.362347
2464.288096,74.020594,-10214.842000,-306.438199
2464.288424,0.000000,-9474.636058,-306.438199
2464.288751,-296.082377,-9474.636058,-612.876398
2464.289079,-1110.308913,-8956.491898,76.609550
2464.289407,-1332.370696,-8882.471304,536.266849
2464.289734,-888.247130,-8808.450710,612.876398
2464.290062,-518.144159,-8586.388927,1149.143247
2464.290389,148.041188,-9844.739029,-766.095498
2464.290717,740.205942,-10436.903782,0.000000
2464.291044,666.185348,-10732.986159,-1302.362347
2464.291372,-148.041188,-10807.006753,-1685.410096
2464.291700,-888.247130,-10807.006753,-1915.238745
2464.292027,-1332.370696,-10214.842000,-1532.190996
2464.292355,-1924.535449,-9622.677246,-306.438199
2464.292682,-888.247130,-9548.656652,229.828649
2464.293010,74.020594,-8808.450710,229.828649
2464.293337,888.247130,-9400.615463,612.876398
2464.293665,444.123565,-9474.636058,612.876398
2464.293992,0.000000,-9918.759623,-229.828649
2464.294320,-518.144159,-9474.636058,-1072.533697
2464.294648,-1110.308913,-9474.636058,-1532.190996
2464.294975,-962.267725,-9992.780217,-1915.238745
2464.295303,222.061783,-10066.800811,-1149.143247
2464.295630,1480.411884,-9696.697840,229.828649
2464.295958,2960.823768,-9992.780217,536.266849
2464.296285,3849.070898,-10436.903782,689.485948
2464.296613,3404.947333,-10362.883188,995.924147
2464.296941,2738.761985,-9548.656652,1302.362347
2464.297268,1406.391290,-10140.821405,689.485948
2464.297596,-666.185348,-9326.594869,612.876398
2464.297923,-962.267725,-9178.553681,229.828649
2464.298251,-1406.391290,-9030.512492,-76.609550
2464.298578,-592.164754,-9326.594869,-842.705048
2464.298906,0.000000,-9474.636058,-766.095498
2464.299233,814.226536,-9548.656652,-536.266849
2464.299561,370.102971,-9548.656652,-383.047749
2464.299889,444.123565,-9548.656652,-536.266849
2464.300216,148.041188,-9178.553681,-306.438199
2464.300544,74.020594,-9252.574275,229.828649
2464.300871,370.102971,-9326.594869,536.266849
2464.301199,1406.391290,-9400.615463,306.438199
2464.301526,1850.514855,-9918.759623,612.876398
2464.301854,1998.556043,-11399.171507,306.438199
2464.302182,2146.597232,-11695.253884,-1149.143247
2464.302509,1628.453072,-10881.027347,-1149.143247
2464.302837,222.061783,-10732.986159,-1685.410096
2464.303164,-814.226536,-10066.800811,-995.924147
2464.303492,-592.164754,-9918.759623,-383.047749
2464.303819,-518.144159,-9104.533087,842.705048
2464.304147,148.041188,-8808.450710,536.266849
2464.304474,518.144159,-8882.471304,1532.190996
2464.304802,296.082377,-10066.800811,995.924147
2464.305130,0.000000,-9400.615463,0.000000
2464.305457,-962.267725,-9252.574275,-1302.362347
2464.305785,-1554.432478,-9474.636058,-1685.410096
2464.306112,-814.226536,-9992.780217,-1685.410096
2464.306440,-222.061783,-9252.574275,-612.876398
2464.306767,1332.370696,-9770.718434,-229.828649
2464.307095,2442.679609,-10510.924376,766.095498
2464.307423,2442.679609,-10658.965565,689.485948
2464.307750,2146.597232,-10214.842000,689.485948
2464.308078,1036.288319,-9548.656652,536.266849
2464.308405,0.000000,-9474.636058,153.219100
2464.308733,-2220.617826,-8808.450710,1149.143247
2464.309060,-2368.659014,-8660.409521,689.485948
2464.309388,-2886.803174,-8438.347739,-306.438199
2464.309715,-2368.659014,-8882.471304,-995.924147
2464.310043,-1406.391290,-9178.553681,-1608.800546
2464.310371,-370.102971,-10214.842000,-1378.971896
2464.310698,0.000000,-9992.780217,-766.095498
2464.311026,-888.247130,-9474.636058,-459.657299
2464.311353,0.000000,-10658.965565,-306.438199
2464.311681,0.000000,-10214.842000,-459.657299
2464.312008,370.102971,-9844.739029,0.000000
2464.312336,1110.308913,-9548.656652,0.000000
2464.312663,1776.494261,-9992.780217,0.000000
2464.312991,2738.761985,-10955.047942,383.047749
2464.313319,2590.720797,-10658.965565,0.000000
2464.313646,1480.411884,-9770.718434,-153.219100
2464.313974,0.000000,-10288.862594,-766.095498
2464.314301,0.000000,-9474.636058,-919.314598
2464.314629,-518.144159,-9400.615463,-306.438199
2464.314956,-370.102971,-9918.759623,689.485948
2464.315284,740.205942,-9252.574275,766.095498
2464.315612,518.144159,-8290.306550,1072.533697
2464.315939,444.123565,-9474.636058,459.657299
2464.316267,0.000000,-9548.656652,-459.657299
2464.316594,-370.102971,-9252.574275,-1762.019645
2464.316922,-518.144159,-9548.656652,-2068.457845
2464.317249,222.061783,-9918.759623,-1455.581446
2464.317577,1332.370696,-9622.677246,0.000000
2464.317904,2516.700203,-9474.636058,1455.581446
2464.318232,3849.070898,-10140.821405,1302.362347
2464.318560,4663.297435,-10732.986159,1072.533697
2464.318887,3775.050304,-10436.903782,689.485948
2464.319215,2146.597232,-9770.718434,766.095498
2464.319542,814.226536,-9474.636058,689.485948
2464.319870,0.000000,-9326.594869,459.657299
2464.320197,-1110.308913,-9474.636058,-306.438199
2464.320525,-1332.370696,-9326.594869,-1532.190996
2464.320853,-1332.370696,-8364.327145,-1225.752797
2464.321180,-888.247130,-9252.574275,-1302.362347
2464.321508,0.000000,-9696.697840,-1302.362347
2464.321835,0.000000,-9770.718434,-1072.533697
2464.322163,-962.267725,-9030.512492,-536.266849
2464.322490,0.000000,-9844.739029,76.609550
2464.322818,296.082377,-10584.944971,-536.266849
2464.323145,444.123565,-10066.800811,459.657299
2464.323473,1480.411884,-9326.594869,459.657299
2464.323801,1628.453072,-9622.677246,229.828649
2464.324128,2146.597232,-11251.130318,383.047749
2464.324456,1480.411884,-10510.924376,229.828649
2464.324783,592.164754,-8956.491898,459.657299
2464.325111,-1184.329507,-9622.677246,-1072.533697
2464.325438,-2442.679609,-9400.615463,-919.314598
2464.325766,-1924.535449,-10066.800811,-306.438199
2464.326094,-1776.494261,-9548.656652,459.657299
2464.326421,-814.226536,-8808.450710,536.266849
2464.326749,-962.267725,-8586.388927,766.095498
2464.327076,-370.102971,-9844.739029,306.438199
2464.327404,-962.267725,-9400.615463,-995.924147
2464.327731,-1554.432478,-8956.491898,-1991.848295
2464.328059,-1776.494261,-10140.821405,-1915.238745
2464.328386,-666.185348,-10436.903782,-1149.143247
2464.328714,518.144159,-9844.739029,-306.438199
2464.329042,1332.370696,-9844.739029,689.485948
2464.329369,2738.761985,-9474.636058,766.095498
2464.329697,3404.947333,-10288.862594,536.266849
2464.330024,2812.782580,-10214.842000,612.876398
2464.330352,1480.411884,-9474.636058,1149.143247
2464.330679,0.000000,-8808.450710,919.314598
2464.331007,-1036.288319,-9030.512492,612.876398
2464.331335,-1628.453072,-9400.615463,0.000000
2464.331662,-1850.514855,-9030.512492,-229.828649
2464.331990,-814.226536,-8808.450710,-1302.362347
2464.332317,74.020594,-9622.677246,-1532.190996
2464.332645,962.267725,-10362.883188,-1455.581446
2464.332972,1332.370696,-10214.842000,-919.314598
2464.333300,740.205942,-9770.718434,-229.828649
2464.333627,814.226536,-10214.842000,306.438199
2464.333955,1924.535449,-9844.739029,459.657299
2464.334283,2516.700203,-9178.553681,76.609550
2464.334610,2664.741391,-9104.533087,995.924147
2464.334938,3182.885551,-10066.800811,766.095498
2464.335265,2960.823768,-11399.171507,229.828649
2464.335593,2442.679609,-10732.986159,-383.047749
2464.335920,1554.432478,-9992.780217,-689.485948
2464.336248,1110.308913,-10066.800811,-1915.238745
2464.336576,-592.164754,-10066.800811,-1072.533697
2464.336903,-444.123565,-10214.842000,0.000000
2464.337231,0.000000,-9474.636058,536.266849
2464.337558,296.082377,-8882.471304,536.266849
2464.337886,444.123565,-8882.471304,306.438199
2464.338213,74.020594,-10288.862594,0.000000
2464.338541,0.000000,-9844.739029,-1072.533697
2464.338868,-592.164754,-9326.594869,-1532.190996
2464.339196,-1776.494261,-9548.656652,-1838.629195
2464.339524,-1776.494261,-9622.677246,-1225.752797
2464.339851,-888.247130,-9474.636058,-459.657299
2464.340179,74.020594,-9400.615463,0.000000
2464.340506,1480.411884,-9844.739029,153.219100
2464.340834,1998.556043,-10288.862594,0.000000
2464.341161,1776.494261,-10362.883188,1302.362347
2464.341489,888.247130,-9030.512492,1225.752797
2464.341817,-370.102971,-9178.553681,1302.362347
2464.342144,-1850.514855,-9326.594869,689.485948
2464.342472,-2442.679609,-9030.512492,76.609550
2464.342799,-2146.597232,-9252.574275,-919.314598
2464.343127,-1850.514855,-8660.409521,-536.266849
2464.343454,-740.205942,-9252.574275,-1225.752797
2464.343782,0.000000,-9918.759623,-1532.190996
2464.344109,-370.102971,-9622.677246,-612.876398
2464.344437,-592.164754,-9030.512492,-459.657299
2464.344765,-370.102971,-9770.718434,-383.047749
2464.345092,0.000000,-10066.800811,0.000000
2464.345420,666.185348,-9474.636058,842.705048
2464.345747,1332.370696,-8956.491898,306.438199
2464.346075,1776.494261,-10066.800811,306.438199
2464.346402,1998.556043,-11177.109724,306.438199
2464.346730,1480.411884,-10658.965565,-612.876398
2464.347057,814.226536,-9992.780217,-1149.143247
2464.347385,0.000000,-9918.759623,-536.266849
2464.347713,-1184.329507,-9400.615463,-1072.533697
2464.348040,-740.205942,-9622.677246,-612.876398
2464.348368,-148.041188,-9178.553681,0.000000
2464.348695,518.144159,-8512.368333,383.047749
2464.349023,1110.308913,-9326.594869,0.000000
2464.349350,1258.350101,-10066.800811,0.000000
2464.349678,1110.308913,-9844.739029,-919.314598
2464.350006,740.205942,-9696.697840,-1608.800546
2464.350333,444.123565,-10066.800811,-1762.019645
2464.350661,666.185348,-9918.759623,-1762.019645
2464.350988,1332.370696,-9918.759623,-459.657299
2464.351316,2072.576638,-9696.697840,153.219100
2464.351643,3182.885551,-10288.862594,459.657299
2464.351971,3627.009116,-10584.944971,459.657299
2464.352298,2442.679609,-9548.656652,1378.971896
2464.352626,1628.453072,-9252.574275,1685.410096
2464.352954,370.102971,-8734.430116,229.828649
2464.353281,-888.247130,-9104.533087,229.828649
2464.353609,-1332.370696,-8734.430116,0.000000
2464.353936,-1332.370696,-8512.368333,-153.219100
2464.354264,-888.247130,-8734.430116,-229.828649
2464.354591,592.164754,-9844.739029,-459.657299
2464.354919,1110.308913,-10510.924376,-919.314598
2464.355247,444.123565,-10658.965565,-995.924147
2464.355574,-370.102971,-10140.821405,-689.485948
2464.355902,-962.267725,-10436.903782,-766.095498
2464.356229,-814.226536,-9696.697840,-306.438199
2464.356557,-296.082377,-9326.594869,153.219100
2464.356884,518.144159,-9104.533087,919.314598
2464.357212,1554.432478,-9844.739029,1149.143247
2464.357540,2146.597232,-10584.944971,536.266849
2464.357867,1036.288319,-9770.718434,-689.485948
2464.358195,-222.061783,-9770.718434,-383.047749
2464.358522,-1332.370696,-9474.636058,-919.314598
2464.358850,-1924.535449,-10066.800811,-766.095498
2464.359177,-2368.659014,-9696.697840,-153.219100
2464.359505,-1110.308913,-9030.512492,536.266849
2464.359833,-222.061783,-9400.615463,0.000000
2464.360160,-296.082377,-9918.759623,153.219100
2464.360488,-296.082377,-10066.800811,-153.219100
2464.360815,-370.102971,-9770.718434,-1532.190996
2464.361143,-1036.288319,-9178.553681,-1915.238745
2464.361470,-1036.288319,-9104.533087,-842.705048
2464.361798,-518.144159,-9030.512492,-459.657299
2464.362126,74.020594,-8882.471304,306.438199
2464.362453,2072.576638,-9622.677246,536.266849
2464.362781,3108.864956,-10140.821405,536.266849
2464.363108,3404.947333,-10955.047942,689.485948
2464.363436,2368.659014,-10807.006753,1149.143247
2464.363763,1480.411884,-9844.739029,919.314598
2464.364091,0.000000,-9178.553681,-766.095498
2464.364418,-1406.391290,-8512.368333,-536.266849
2464.364746,-1850.514855,-8142.265362,0.000000
2464.365074,-1258.350101,-8660.409521,-306.438199
2464.365401,-296.082377,-8956.491898,-766.095498
2464.365729,740.205942,-9548.656652,-1072.533697
2464.366056,1036.288319,-10510.924376,-1532.190996
2464.366384,518.144159,-9992.780217,-766.095498
2464.366711,740.205942,-9178.553681,0.000000
2464.367039,518.144159,-10362.883188,0.000000
2464.367367,518.144159,-10807.006753,306.438199
2464.367694,1110.308913,-9474.636058,153.219100
2464.368022,1406.391290,-9178.553681,383.047749
2464.368349,1258.350101,-10288.862594,1149.143247
2464.368677,1702.473667,-10658.965565,459.657299
2464.369004,1332.370696,-9992.780217,-383.047749
2464.369332,-148.041188,-9252.574275,-766.095498
2464.369660,-740.205942,-8882.471304,-842.705048
2464.369987,-888.247130,-9770.718434,0.000000
2464.370315,-1258.350101,-9770.718434,612.876398
2464.370642,0.000000,-9030.512492,229.828649
2464.370970,814.226536,-9252.574275,-536.266849
2464.371297,740.205942,-9770.718434,306.438199
2464.371625,1110.308913,-10732.986159,-612.876398
2464.371953,592.164754,-10214.842000,-1302.362347
2464.372280,0.000000,-10288.862594,-1838.629195
2464.372608,-592.164754,-9992.780217,-1225.752797
2464.372935,-444.123565,-9474.636058,-459.657299
2464.373263,0.000000,-8364.327145,76.609550
2464.373590,1554.432478,-9548.656652,612.876398
2464.373918,2368.659014,-9918.759623,536.266849
2464.374246,2590.720797,-10362.883188,842.705048
2464.374573,2072.576638,-9326.594869,1378.971896
2464.374901,740.205942,-8586.388927,842.705048
2464.375228,-370.102971,-9474.636058,229.828649
2464.375556,-962.267725,-10881.027347,-612.876398
2464.375883,-1332.370696,-9104.533087,-383.047749
2464.376211,-666.185348,-9548.656652,-612.876398
2464.376539,-444.123565,-9548.656652,-306.438199
2464.376866,0.000000,-10066.800811,-1072.533697
2464.377194,0.000000,-10658.965565,-919.314598
2464.377521,-962.267725,-10214.842000,-766.095498
2464.377849,-1480.411884,-9252.574275,-919.314598
2464.378176,-1406.391290,-9474.636058,-919.314598
2464.378504,-1184.329507,-9474.636058,0.000000
2464.378832,-370.102971,-9252.574275,919.314598
2464.379159,814.226536,-8808.450710,1455.581446
2464.379487,1184.329507,-9326.594869,842.705048
2464.379814,1628.453072,-9844.739029,0.000000
2464.380142,518.144159,-10140.821405,-766.095498
2464.380469,0.000000,-9622.677246,-1149.143247
2464.380797,-962.267725,-9696.697840,-1225.752797
2464.381125,-740.205942,-9992.780217,-995.924147
2464.381452,-814.226536,-10140.821405,0.000000
2464.381780,518.144159,-9770.718434,459.657299
2464.382107,1406.391290,-9770.718434,306.438199
2464.382435,1628.453072,-10066.800811,229.828649
2464.382762,1406.391290,-10066.800811,0.000000
2464.383090,0.000000,-9252.574275,-1532.190996
2464.383418,-296.082377,-8956.491898,-1149.143247
2464.383745,-370.102971,-9178.553681,-612.876398
2464.384073,222.061783,-9474.636058,383.047749
2464.384400,1184.329507,-9030.512492,612.876398
2464.384728,1998.556043,-9844.739029,383.047749
2464.385055,2664.741391,-10732.986159,0.000000
2464.385383,2368.659014,-11473.192101,-229.828649
2464.385711,1110.308913,-10658.965565,0.000000
2464.386038,370.102971,-9252.574275,-229.828649
2464.386366,-222.061783,-9326.594869,-612.876398
2464.386693,-518.144159,-9696.697840,383.047749
2464.387021,-296.082377,-9252.574275,689.485948
2464.387348,444.123565,-8586.388927,689.485948
2464.387676,1406.391290,-9548.656652,-306.438199
2464.388004,1184.329507,-9622.677246,-306.438199
2464.388331,962.267725,-9992.780217,-766.095498
2464.388659,74.020594,-9770.718434,-919.314598
2464.388986,74.020594,-9548.656652,-459.657299
2464.389314,-518.144159,-9474.636058,-153.219100
2464.389641,0.000000,-9770.718434,459.657299
2464.389969,592.164754,-9252.574275,536.266849
2464.390297,1332.370696,-9252.574275,459.657299
2464.390624,1110.308913,-9918.759623,0.000000
2464.390952,592.164754,-9918.759623,-383.047749
2464.391279,740.205942,-9326.594869,-536.266849
2464.391607,0.000000,-9030.512492,-1072.533697
2464.391934,-444.123565,-9770.718434,-919.314598
2464.392262,-592.164754,-9844.739029,0.000000
2464.392590,-370.102971,-10140.821405,689.485948
2464.392917,74.020594,-9844.739029,306.438199
2464.393245,814.226536,-9548.656652,0.000000
2464.393572,1332.370696,-10066.800811,0.000000
2464.393900,370.102971,-9770.718434,-766.095498
2464.394227,-296.082377,-9104.533087,-919.314598
2464.394555,-888.247130,-8882.471304,-842.705048
2464.394883,-814.226536,-9696.697840,-995.924147
2464.395210,-666.185348,-9844.739029,-536.266849
2464.395538,-740.205942,-9474.636058,-536.266849
2464.395865,370.102971,-9918.759623,-1302.362347
2464.396193,962.267725,-10140.821405,0.000000
2464.396520,1036.288319,-10658.965565,0.000000
2464.396848,814.226536,-9992.780217,306.438199
2464.397176,0.000000,-9844.739029,459.657299
2464.397503,-592.164754,-10436.903782,383.047749
2464.397831,-962.267725,-10732.986159,76.609550
2464.398158,-888.247130,-9844.739029,153.219100
2464.398486,-1258.350101,-8364.327145,0.000000
2464.398813,-148.041188,-8808.450710,0.000000
2464.399141,148.041188,-9548.656652,-1225.752797
2464.399469,370.102971,-9918.759623,-612.876398
2464.399796,-222.061783,-9474.636058,0.000000
2464.400124,-666.185348,-9104.533087,459.657299
2464.400451,-370.102971,-9400.615463,383.047749
2464.400779,0.000000,-9622.677246,536.266849
2464.401106,592.164754,-9030.512492,1225.752797
2464.401434,888.247130,-8734.430116,689.485948
2464.401762,2072.576638,-9622.677246,306.438199
2464.402089,2220.617826,-10066.800811,0.000000
2464.402417,1998.556043,-9696.697840,0.000000
2464.402744,1036.288319,-9104.533087,-383.047749
2464.403072,962.267725,-9474.636058,0.000000
2464.403399,592.164754,-9918.759623,-766.095498
2464.403727,592.164754,-9622.677246,612.876398
2464.404055,1554.432478,-9252.574275,383.047749
2464.404382,1924.535449,-9326.594869,383.047749
2464.404710,1924.535449,-9992.780217,0.000000
2464.405037,1702.473667,-9918.759623,-306.438199
2464.405365,1110.308913,-9844.739029,-1225.752797
2464.405692,592.164754,-9474.636058,-1762.019645
2464.406020,148.041188,-9770.718434,-995.924147
2464.406347,222.061783,-10140.821405,-459.657299
2464.406675,666.185348,-9992.780217,-689.485948
2464.407003,1406.391290,-9918.759623,-995.924147
2464.407330,1850.514855,-10955.047942,-919.314598
2464.407658,2368.659014,-11547.212695,-766.095498
2464.407985,814.226536,-10288.862594,-383.047749
2464.408313,0.000000,-9770.718434,0.000000
2464.408640,-740.205942,-10140.821405,-459.657299
2464.408968,-1554.432478,-10140.821405,-383.047749
2464.409296,-1702.473667,-9400.615463,-383.047749
2464.409623,-1036.288319,-9104.533087,-612.876398
2464.409951,-592.164754,-9992.780217,-689.485948
2464.410278,74.020594,-9770.718434,-842.705048
2464.410606,-296.082377,-9770.718434,0.000000
2464.410933,-592.164754,-9770.718434,306.438199
2464.411261,-1406.391290,-9178.553681,229.828649
2464.411589,-2072.576638,-9474.636058,0.000000
2464.411916,-2146.597232,-9400.615463,689.485948
2464.412244,-1480.411884,-7846.182985,919.314598
2464.412571,-740.205942,-8142.265362,383.047749
2464.412899,296.082377,-9104.533087,306.438199
2464.413226,592.164754,-9400.615463,306.438199
2464.413554,370.102971,-9104.533087,0.000000
2464.413882,0.000000,-9622.677246,-383.047749
2464.414209,-666.185348,-10066.800811,153.219100
2464.414537,-1184.329507,-10214.842000,536.266849
2464.414864,-1036.288319,-9548.656652,-153.219100
2464.415192,-296.082377,-9622.677246,0.000000
2464.415519,1184.329507,-10214.842000,76.609550
2464.415847,1702.473667,-10584.944971,76.609550
2464.416175,1332.370696,-10140.821405,-459.657299
2464.416502,74.020594,-9104.533087,-919.314598
2464.416830,-444.123565,-8586.388927,-1608.800546
2464.417157,-1110.308913,-8364.327145,-1149.143247
2464.417485,-296.082377,-9474.636058,-1302.362347
2464.417812,666.185348,-9400.615463,-766.095498
2464.418140,2294.638420,-10140.821405,-689.485948
2464.418468,3256.906145,-11547.212695,-306.438199
2464.418795,3404.947333,-11917.315666,-229.828649
2464.419123,3108.864956,-11399.171507,-612.876398
2464.419450,1332.370696,-10584.944971,-919.314598
2464.419778,444.123565,-10140.821405,-1149.143247
2464.420105,74.020594,-10140.821405,-459.657299
2464.420433,0.000000,-9252.574275,229.828649
2464.420761,-370.102971,-8586.388927,612.876398
2464.421088,148.041188,-9178.553681,76.609550
2464.421416,888.247130,-9844.739029,-536.266849
2464.421743,370.102971,-9178.553681,-612.876398
2464.422071,0.000000,-8808.450710,0.000000
2464.422398,0.000000,-8956.491898,0.000000
2464.422726,518.144159,-9030.512492,76.609550
2464.423054,296.082377,-9326.594869,766.095498
2464.423381,1184.329507,-9474.636058,1455.581446
2464.423709,2072.576638,-9326.594869,1455.581446
2464.424036,2294.638420,-9770.718434,689.485948
2464.424364,1776.494261,-9992.780217,459.657299
2464.424691,814.226536,-9400.615463,-459.657299
2464.425019,-148.041188,-8882.471304,-306.438199
2464.425347,-1036.288319,-9104.533087,-229.828649
2464.425674,-1110.308913,-9474.636058,536.266849
2464.426002,-888.247130,-9326.594869,1225.752797
2464.426329,0.000000,-8956.491898,536.266849
2464.426657,814.226536,-8956.491898,0.000000
2464.426984,518.144159,-10066.800811,229.828649
2464.427312,518.144159,-10214.842000,-306.438199
2464.427640,74.020594,-9770.718434,-1072.533697
2464.427967,-962.267725,-9548.656652,-1991.848295
2464.428295,-1332.370696,-9622.677246,-1149.143247
2464.428622,-1184.329507,-10288.862594,-1072.533697
2464.428950,-222.061783,-9918.759623,-459.657299
2464.429277,814.226536,-9992.780217,-842.705048
2464.429605,1332.370696,-11103.089130,-459.657299
2464.429933,1480.411884,-11325.150913,-153.219100
2464.430260,1406.391290,-9622.677246,-459.657299
2464.430588,740.205942,-9474.636058,-689.485948
2464.430915,0.000000,-10140.821405,-459.657299
2464.431243,-1110.308913,-9622.677246,536.266849
2464.431570,-1036.288319,-9400.615463,689.485948
2464.431898,-666.185348,-9030.512492,229.828649
2464.432226,296.082377,-9474.636058,-459.657299
2464.432553,518.144159,-9474.636058,-536.266849
2464.432881,74.020594,-10066.800811,306.438199
2464.433208,-518.144159,-10140.821405,-536.266849
2464.433536,-1184.329507,-9326.594869,-766.095498
2464.433863,-1036.288319,-9178.553681,0.000000
2464.434191,-592.164754,-8808.450710,153.219100
2464.434519,592.164754,-8586.388927,995.924147
2464.434846,1850.514855,-8882.471304,1149.143247
2464.435174,2294.638420,-9326.594869,1685.410096
2464.435501,2590.720797,-9622.677246,153.219100
2464.435829,1406.391290,-9474.636058,0.000000
2464.436156,148.041188,-9474.636058,-689.485948
2464.436484,-444.123565,-9622.677246,-383.047749
2464.436812,-962.267725,-10140.821405,-459.657299
2464.437139,-518.144159,-10140.821405,-229.828649
2464.437467,74.020594,-10140.821405,-306.438199
2464.437794,592.164754,-9770.718434,-536.266849
2464.438122,1554.432478,-10140.821405,-306.438199
2464.438449,814.226536,-9992.780217,-536.266849
2464.438777,740.205942,-9548.656652,-995.924147
2464.439105,0.000000,-9474.636058,-1072.533697
2464.439432,-148.041188,-9474.636058,-689.485948
2464.439760,444.123565,-9474.636058,-306.438199
2464.440087,888.247130,-9252.574275,0.000000
2464.440415,1554.432478,-9548.656652,-459.657299
2464.440742,2368.659014,-11843.295072,-766.095498
2464.441070,2590.720797,-12065.356855,-689.485948
2464.441398,1998.556043,-11251.130318,-689.485948
2464.441725,814.226536,-10658.965565,-612.876398
2464.442053,-444.123565,-9622.677246,-306.438199
2464.442380,-1036.288319,-9548.656652,1225.752797
2464.442708,-1036.288319,-8660.409521,689.485948
2464.443035,-518.144159,-8512.368333,459.657299
2464.443363,-296.082377,-8586.388927,153.219100
2464.443691,0.000000,-8734.430116,0.000000
2464.444018,-222.061783,-9252.574275,-229.828649
2464.444346,-814.226536,-9770.718434,-383.047749
2464.444673,-962.267725,-8882.471304,0.000000
2464.445001,0.000000,-9696.697840,-766.095498
2464.445328,0.000000,-9474.636058,153.219100
2464.445656,1036.288319,-9252.574275,766.095498
2464.445984,1850.514855,-9622.677246,842.705048
2464.446311,2146.597232,-10288.862594,612.876398
2464.446639,1776.494261,-9770.718434,459.657299
2464.446966,1110.308913,-9252.574275,0.000000
2464.447294,-666.185348,-9474.636058,-153.219100
2464.447621,-1702.473667,-9400.615463,-306.438199
2464.447949,-2294.638420,-9474.636058,-306.438199
2464.448277,-1998.556043,-9696.697840,-153.219100
2464.448604,-1184.329507,-9474.636058,-229.828649
2464.448932,-370.102971,-9474.636058,-1225.752797
2464.449259,0.000000,-10066.800811,-766.095498
2464.449587,0.000000,-9770.718434,-383.047749
2464.449914,222.061783,-10066.800811,-1532.190996
2464.450242,0.000000,-10288.862594,-1532.190996
2464.450569,0.000000,-10881.027347,-995.924147
2464.450897,740.205942,-10288.862594,-612.876398
2464.451225,1850.514855,-9770.718434,0.000000
2464.451552,2812.782580,-10140.821405,-536.266849
2464.451880,3330.926739,-11029.068536,-229.828649
2464.452207,3552.988522,-11029.068536,0.000000
2464.452535,2738.761985,-10140.821405,306.438199
2464.452862,1776.494261,-9474.636058,76.609550
2464.453190,222.061783,-9178.553681,536.266849
2464.453518,-592.164754,-8364.327145,842.705048
2464.453845,-592.164754,-8734.430116,0.000000
2464.454173,-814.226536,-8364.327145,0.000000
2464.454500,-296.082377,-8216.285956,76.609550
2464.454828,0.000000,-9104.533087,-689.485948
2464.455155,-148.041188,-9844.739029,-842.705048
2464.455483,-814.226536,-9622.677246,-612.876398
2464.455811,0.000000,-9252.574275,-1225.752797
2464.456138,592.164754,-9844.739029,0.000000
2464.456466,1332.370696,-10288.862594,995.924147
2464.456793,1776.494261,-9178.553681,1532.190996
2464.457121,3182.885551,-9326.594869,1225.752797
2464.457448,2812.782580,-10214.842000,995.924147
2464.457776,2072.576638,-9992.780217,612.876398
2464.458104,370.102971,-9178.553681,0.000000
2464.458431,-1036.288319,-9400.615463,0.000000
2464.458759,-2368.659014,-9400.615463,-306.438199
2464.459086,-1850.514855,-9622.677246,-919.314598
2464.459414,-1406.391290,-9844.739029,-459.657299
2464.459741,74.020594,-9992.780217,-995.924147
2464.460069,370.102971,-10140.821405,-842.705048
2464.460396,148.041188,-10807.006753,-1302.362347
2464.460724,-370.102971,-9770.718434,-995.924147
2464.461051,-518.144159,-9400.615463,-2451.505594
2464.461379,0.000000,-10066.800811,-1762.019645
2464.461706,0.000000,-10732.986159,-612.876398
2464.462034,1258.350101,-10955.047942,229.828649
2464.462361,1702.473667,-9770.718434,0.000000
2464.462689,2442.679609,-10214.842000,-306.438199
2464.463016,2294.638420,-10436.903782,0.000000
2464.463344,1924.535449,-10510.924376,-383.047749
2464.463671,1110.308913,-9696.697840,153.219100
2464.463999,0.000000,-9770.718434,76.609550
2464.464327,-666.185348,-9844.739029,229.828649
2464.464654,-1628.453072,-9474.636058,612.876398
2464.464982,-1110.308913,-9030.512492,383.047749
2464.465309,-1628.453072,-8142.265362,-1149.143247
2464.465637,-1924.535449,-8512.368333,-459.657299
2464.465964,-1480.411884,-8882.471304,-1378.971896
2464.466292,-1184.329507,-9326.594869,-1072.533697
2464.466619,-1184.329507,-9474.636058,-306.438199
2464.466947,-1184.329507,-9622.677246,76.609550
2464.467274,0.000000,-9770.718434,689.485948
2464.467602,518.144159,-9918.759623,842.705048
2464.467929,1776.494261,-9400.615463,995.924147
2464.468257,1924.535449,-8956.491898,919.314598
2464.468584,2368.659014,-10140.821405,536.266849
2464.468912,1998.556043,-9474.636058,995.924147
2464.469239,888.247130,-8808.450710,383.047749
2464.469567,-1184.329507,-9696.697840,76.609550
2464.469894,-1110.308913,-10658.965565,-153.219100
2464.470222,-1184.329507,-9770.718434,-1149.143247
2464.470550,-1110.308913,-9770.718434,-995.924147
2464.470877,-222.061783,-9474.636058,-1149.143247
2464.471205,888.247130,-9770.718434,-1149.143247
2464.471532,888.247130,-10362.883188,-689.485948
2464.471860,740.205942,-9918.759623,-919.314598
2464.472187,1702.473667,-10214.842000,-995.924147
2464.472515,1702.473667,-10436.903782,-1532.190996
2464.472842,1406.391290,-10288.862594,76.609550
2464.473170,2442.679609,-10288.862594,459.657299
2464.473497,3108.864956,-10214.842000,459.657299
2464.473825,3034.844362,-10510.924376,0.000000
2464.474152,3701.029710,-11325.150913,-459.657299
2464.474480,2886.803174,-11399.171507,-229.828649
2464.474807,1776.494261,-9844.739029,153.219100
2464.475135,1184.329507,-9918.759623,229.828649
2464.475462,222.061783,-10436.903782,459.657299
2464.475790,-740.205942,-9770.718434,842.705048
2464.476117,-888.247130,-8660.409521,536.266849
2464.476445,-1184.329507,-7846.182985,76.609550
2464.476773,-666.185348,-8290.306550,-612.876398
2464.477100,-962.267725,-9030.512492,-766.095498
2464.477428,-1184.329507,-9474.636058,-766.095498
2464.477755,-1998.556043,-9030.512492,-383.047749
2464.478083,-1850.514855,-9622.677246,0.000000
2464.478410,-1332.370696,-9770.718434,0.000000
2464.478738,-296.082377,-9696.697840,459.657299
2464.479065,1036.288319,-9326.594869,0.000000
2464.479393,1628.453072,-8882.471304,689.485948
2464.479720,1924.535449,-9622.677246,1225.752797
2464.480048,1480.411884,-9844.739029,1378.971896
2464.480375,0.000000,-8956.491898,842.705048
2464.480703,-1998.556043,-8216.285956,0.000000
2464.481030,-1924.535449,-9548.656652,-766.095498
2464.481358,-2886.803174,-9844.739029,-919.314598
2464.481685,-2220.617826,-9770.718434,-1072.533697
2464.482013,-1998.556043,-8586.388927,-612.876398
2464.482340,-592.164754,-9622.677246,-612.876398
2464.482668,-296.082377,-10140.821405,-766.095498
2464.482996,-296.082377,-9770.718434,-1378.971896
2464.483323,222.061783,-9696.697840,-1762.019645
2464.483651,888.247130,-10881.027347,-1762.019645
2464.483978,0.000000,-10955.047942,229.828649
2464.484306,962.267725,-10584.944971,0.000000
2464.484633,1628.453072,-10362.883188,153.219100
2464.484961,2072.576638,-10807.006753,0.000000
2464.485288,2812.782580,-11695.253884,-995.924147
2464.485616,2664.741391,-11843.295072,-766.095498
2464.485943,1850.514855,-9400.615463,153.219100
2464.486271,740.205942,-9474.636058,1302.362347
2464.486598,-518.144159,-9918.759623,1225.752797
2464.486926,-1258.350101,-9104.533087,995.924147
2464.487253,-962.267725,-7846.182985,153.219100
2464.487581,-296.082377,-7402.059420,-306.438199
2464.487908,518.144159,-8956.491898,-689.485948
2464.488236,1406.391290,-9844.739029,-153.219100
2464.488563,222.061783,-9622.677246,-306.438199
2464.488891,296.082377,-9844.739029,-842.705048
2464.489219,222.061783,-9770.718434,-689.485948
2464.489546,370.102971,-9844.739029,-306.438199
2464.489874,814.226536,-9030.512492,612.876398
2464.490201,2368.659014,-9030.512492,1072.533697
2464.490529,2886.803174,-8956.491898,919.314598
2464.490856,2812.782580,-9474.636058,1608.800546
2464.491184,2368.659014,-9548.656652,1455.581446
2464.491511,518.144159,-8882.471304,689.485948
2464.491839,-666.185348,-9030.512492,0.000000
2464.492166,-1036.288319,-9474.636058,-1072.533697
2464.492494,-1480.411884,-9400.615463,-1149.143247
2464.492821,-740.205942,-9622.677246,-1378.971896
2464.493149,0.000000,-9030.512492,-306.438199
2464.493476,518.144159,-10066.800811,-689.485948
2464.493804,518.144159,-10658.965565,-1225.752797
2464.494131,296.082377,-10510.924376,-1838.629195
2464.494459,222.061783,-10066.800811,-1838.629195
2464.494786,370.102971,-10362.883188,-1455.581446
2464.495114,0.000000,-10658.965565,-383.047749
2464.495442,74.020594,-9770.718434,0.000000
2464.495769,888.247130,-9252.574275,0.000000
2464.496097,1850.514855,-10658.965565,-383.047749
2464.496424,2294.638420,-11547.212695,-306.438199
2464.496752,1998.556043,-10881.027347,0.000000
2464.497079,814.226536,-10362.883188,229.828649
2464.497407,-444.123565,-10140.821405,-153.219100
2464.497734,-1258.350101,-10362.883188,76.609550
2464.498062,-2368.659014,-9252.574275,76.609550
2464.498389,-2442.679609,-8142.265362,0.000000
2464.498717,-1702.473667,-8290.306550,-612.876398
2464.499044,-888.247130,-8808.450710,-766.095498
2464.499372,-592.164754,-9178.553681,-842.705048
2464.499699,-592.164754,-9474.636058,-612.876398
2464.500027,-740.205942,-9326.594869,-842.705048
2464.500354,-888.247130,-9252.574275,-153.219100
2464.500682,-444.123565,-9178.553681,383.047749
2464.501009,666.185348,-8882.471304,766.095498
2464.501337,1702.473667,-8734.430116,1455.581446
2464.501665,2516.700203,-9030.512492,1608.800546
2464.501992,2960.823768,-9992.780217,1225.752797
2464.502320,2368.659014,-9770.718434,1072.533697
2464.502647,0.000000,-9104.533087,229.828649
2464.502975,-888.247130,-9252.574275,-689.485948
2464.503302,-1480.411884,-9844.739029,-1532.190996
2464.503630,-1554.432478,-9548.656652,-1225.752797
2464.503957,-592.164754,-9252.574275,-766.095498
2464.504285,0.000000,-8808.450710,-1225.752797
2464.504612,814.226536,-9622.677246,-459.657299
2464.504940,1628.453072,-10658.965565,-536.266849
2464.505267,1554.432478,-10584.944971,-995.924147
2464.505595,1406.391290,-10066.800811,-1302.362347
2464.505922,1110.308913,-10584.944971,-1149.143247
2464.506250,222.061783,-10881.027347,-306.438199
2464.506577,518.144159,-10214.842000,0.000000
2464.506905,1480.411884,-9622.677246,0.000000
2464.507232,2442.679609,-10732.986159,-383.047749
2464.507560,2368.659014,-11325.150913,-383.047749
2464.507888,2072.576638,-11251.130318,-229.828649
2464.508215,1036.288319,-10140.821405,153.219100
2464.508543,74.020594,-9400.615463,383.047749
2464.508870,-888.247130,-9252.574275,153.219100
2464.509198,-1628.453072,-9252.574275,689.485948
2464.509525,-592.164754,-8808.450710,459.657299
2464.509853,74.020594,-8290.306550,-153.219100
2464.510180,296.082377,-9252.574275,-383.047749
2464.510508,444.123565,-10066.800811,-919.314598
2464.510835,0.000000,-9696.697840,-1225.752797
2464.511163,-740.205942,-9030.512492,0.000000
2464.511490,-370.102971,-8956.491898,0.000000
2464.511818,-370.102971,-8882.471304,689.485948
2464.512145,296.082377,-8660.409521,995.924147
2464.512473,1258.350101,-8808.450710,1685.410096
2464.512800,1850.514855,-9252.574275,1915.238745
2464.513128,2220.617826,-10140.821405,1149.143247
2464.513455,1110.308913,-9178.553681,229.828649
2464.513783,-740.205942,-8586.388927,0.000000
2464.514111,-1850.514855,-9030.512492,-766.095498
2464.514438,-1850.514855,-10214.842000,-842.705048
2464.514766,-1554.432478,-10140.821405,-766.095498
2464.515093,-888.247130,-9696.697840,-612.876398
2464.515421,-444.123565,-10066.800811,-689.485948
2464.515748,0.000000,-10510.924376,-689.485948
2464.516076,296.082377,-10807.006753,-1225.752797
2464.516403,-814.226536,-9622.677246,-1378.971896
2464.516731,-888.247130,-9400.615463,-1378.971896
2464.517058,-962.267725,-9844.739029,-1302.362347
2464.517386,-888.247130,-9918.759623,0.000000
2464.517713,148.041188,-9326.594869,383.047749
2464.518041,1702.473667,-9770.718434,76.609550
2464.518368,1850.514855,-9918.759623,229.828649
2464.518696,2516.700203,-10807.006753,-612.876398
2464.519023,1554.432478,-10881.027347,-536.266849
2464.519351,666.185348,-10436.903782,-536.266849
2464.519678,74.020594,-9622.677246,-306.438199
2464.520006,0.000000,-9770.718434,-229.828649
2464.520334,-148.041188,-9622.677246,766.095498
2464.520661,-444.123565,-9104.533087,612.876398
2464.520989,296.082377,-8808.450710,0.000000
2464.521316,444.123565,-8438.347739,-536.266849
2464.521644,444.123565,-8586.388927,-995.924147
2464.521971,0.000000,-9326.594869,-612.876398
2464.522299,0.000000,-8956.491898,0.000000
2464.522626,222.061783,-8882.471304,0.000000
2464.522954,814.226536,-9030.512492,766.095498
2464.523281,296.082377,-8882.471304,1302.362347
2464.523609,1110.308913,-9474.636058,919.314598
2464.523936,1850.514855,-9918.759623,76.609550
2464.524264,1554.432478,-10510.924376,-153.219100
2464.524591,1110.308913,-9474.636058,-383.047749
2464.524919,-222.061783,-9104.533087,-153.219100
2464.525246,-1036.288319,-8956.491898,0.000000
2464.525574,-592.164754,-10066.800811,-383.047749
2464.525901,-1036.288319,-10214.842000,-612.876398
2464.526229,0.000000,-9696.697840,-766.095498
2464.526557,814.226536,-9844.739029,-995.924147
2464.526884,1332.370696,-10436.903782,-919.314598
2464.527212,1406.391290,-11103.089130,-306.438199
2464.527539,962.267725,-9918.759623,-766.095498
2464.527867,740.205942,-10066.800811,-1072.533697
2464.528194,0.000000,-10288.862594,-689.485948
2464.528522,-296.082377,-9844.739029,-459.657299
2464.528849,222.061783,-9548.656652,-383.047749
2464.529177,1480.411884,-9696.697840,0.000000
2464.529504,1480.411884,-9474.636058,-842.705048
2464.529832,1776.494261,-10214.842000,0.000000
2464.530159,1628.453072,-10288.862594,0.000000
2464.530487,1406.391290,-9622.677246,76.609550
2464.530814,592.164754,-9622.677246,76.609550
2464.531142,-592.164754,-9992.780217,612.876398
2464.531469,-666.185348,-9400.615463,1225.752797
2464.531797,-518.144159,-8882.471304,229.828649
2464.532124,0.000000,-8512.368333,0.000000
2464.532452,0.000000,-8586.388927,-306.438199
2464.532780,0.000000,-9326.594869,-612.876398
2464.533107,-888.247130,-9178.553681,-459.657299
2464.533435,-1110.308913,-8734.430116,-612.876398
2464.533762,-962.267725,-9104.533087,0.000000
2464.534090,-1110.308913,-9326.594869,0.000000
2464.534417,-370.102971,-8956.491898,919.314598
2464.534745,740.205942,-9104.533087,459.657299
2464.535072,1332.370696,-9844.739029,306.438199
2464.535400,1406.391290,-10140.821405,76.609550
2464.535727,296.082377,-9770.718434,153.219100
2464.536055,-666.185348,-9326.594869,0.000000
2464.536382,-888.247130,-10140.821405,-459.657299
2464.536710,-1480.411884,-11029.068536,-1149.143247
2464.537037,-1628.453072,-10658.965565,-919.314598
2464.537365,-592.164754,-9918.759623,-995.924147
2464.537692,74.020594,-10214.842000,-842.705048
2464.538020,592.164754,-10807.006753,-536.266849
2464.538347,1036.288319,-10288.862594,-612.876398
2464.538675,1480.411884,-9918.759623,-306.438199
2464.539003,888.247130,-9622.677246,-842.705048
2464.539330,370.102971,-9400.615463,-306.438199
2464.539658,0.000000,-10214.842000,0.000000
2464.539985,444.123565,-9474.636058,0.000000
2464.540313,1332.370696,-9252.574275,-459.657299
2464.540640,1924.535449,-9696.697840,-383.047749
2464.540968,2146.597232,-10436.903782,-536.266849
2464.541295,2220.617826,-10214.842000,612.876398
2464.541623,1924.535449,-9770.718434,0.000000
2464.541950,740.205942,-9696.697840,919.314598
2464.542278,370.102971,-9844.739029,995.924147
2464.542605,74.020594,-9104.533087,1149.143247
2464.542933,222.061783,-7920.203579,995.924147
2464.543260,814.226536,-7476.080014,536.266849
2464.543588,1406.391290,-8808.450710,0.000000
2464.543915,666.185348,-9622.677246,-612.876398
2464.544243,296.082377,-9400.615463,-766.095498
2464.544570,-370.102971,-9030.512492,-766.095498
2464.544898,-666.185348,-9992.780217,-766.095498
2464.545226,-962.267725,-9992.780217,0.000000
2464.545553,-1036.288319,-8364.327145,536.266849
2464.545881,1406.391290,-9474.636058,76.609550
2464.546208,1628.453072,-10066.800811,536.266849
2464.546536,2368.659014,-10955.047942,383.047749
2464.546863,1258.350101,-10214.842000,306.438199
2464.547191,148.041188,-9844.739029,-383.047749
2464.547518,-740.205942,-9844.739029,-459.657299
2464.547846,-1702.473667,-10362.883188,-766.095498
2464.548173,-1628.453072,-10436.903782,-842.705048
2464.548501,-444.123565,-9252.574275,-919.314598
2464.548828,-296.082377,-10362.883188,-995.924147
2464.549156,0.000000,-10807.006753,-766.095498
2464.549483,74.020594,-10807.006753,-919.314598
2464.549811,0.000000,-9844.739029,-919.314598
2464.550138,148.041188,-9474.636058,-766.095498
2464.550466,-740.205942,-9474.636058,-919.314598
2464.550794,-1110.308913,-9252.574275,306.438199
2464.551121,-222.061783,-9030.512492,306.438199
2464.551449,1036.288319,-9178.553681,306.438199
2464.551776,1702.473667,-9696.697840,0.000000
2464.552104,1850.514855,-10362.883188,-229.828649
2464.552431,1332.370696,-9474.636058,153.219100
2464.552759,592.164754,-9178.553681,229.828649
2464.553086,-370.102971,-10066.800811,536.266849
2464.553414,-814.226536,-10066.800811,689.485948
2464.553741,-740.205942,-9030.512492,612.876398
2464.554069,-666.185348,-8808.450710,536.266849
2464.554396,370.102971,-8660.409521,306.438199
2464.554724,1258.350101,-9474.636058,-612.876398
2464.555051,370.102971,-9104.533087,0.000000
2464.555379,-518.144159,-8660.409521,-229.828649
2464.555706,-1036.288319,-8660.409521,-459.657299
2464.556034,-1110.308913,-9178.553681,-612.876398
2464.556361,-1036.288319,-9326.594869,-229.828649
2464.556689,518.144159,-9696.697840,-306.438199
2464.557017,2146.597232,-9474.636058,-383.047749
2464.557344,2368.659014,-10732.986159,689.485948
2464.557672,3034.844362,-11325.150913,536.266849
2464.557999,1998.556043,-10732.986159,0.000000
2464.558327,666.185348,-10066.800811,-459.657299
2464.558654,-444.123565,-9918.759623,-1072.533697
2464.558982,-1110.308913,-10436.903782,-612.876398
2464.559309,-518.144159,-9918.759623,0.000000
2464.559637,0.000000,-9622.677246,-459.657299
2464.559964,148.041188,-9622.677246,459.657299
2464.560292,370.102971,-10584.944971,-383.047749
2464.560619,1110.308913,-10807.006753,-1072.533697
2464.560947,296.082377,-9992.780217,-1302.362347
2464.561274,0.000000,-9178.553681,-1302.362347
2464.561602,148.041188,-9030.512492,-689.485948
2464.561929,74.020594,-10140.821405,612.876398
2464.562257,814.226536,-9030.512492,995.924147
2464.562584,1924.535449,-9400.615463,229.828649
2464.562912,2442.679609,-10066.800811,-383.047749
2464.563239,2294.638420,-10658.965565,-766.095498
2464.563567,1776.494261,-10140.821405,0.000000
2464.563894,296.082377,-9252.574275,76.609550
2464.564222,666.185348,-9992.780217,1149.143247
2464.564549,0.000000,-10066.800811,1149.143247
2464.564877,-592.164754,-9104.533087,766.095498
2464.565204,-740.205942,-8364.327145,306.438199
2464.565532,0.000000,-8586.388927,-229.828649
2464.565859,148.041188,-8808.450710,-1072.533697
2464.566187,74.020594,-8956.491898,-383.047749
2464.566514,-518.144159,-9326.594869,-536.266849
2464.566842,-888.247130,-8438.347739,-229.828649
2464.567169,-1332.370696,-9548.656652,-536.266849
2464.567497,-1554.432478,-9770.718434,-229.828649
2464.567824,-740.205942,-9474.636058,-383.047749
2464.568152,666.185348,-9622.677246,0.000000
2464.568479,1924.535449,-11103.089130,76.609550
2464.568807,2220.617826,-11029.068536,459.657299
2464.569134,1480.411884,-10066.800811,76.609550
2464.569461,222.061783,-9252.574275,-229.828649
2464.569789,-1036.288319,-9622.677246,-612.876398
2464.570116,-1628.453072,-10362.883188,-459.657299
2464.570444,-1332.370696,-9770.718434,0.000000
2464.570771,-296.082377,-9104.533087,0.000000
2464.571099,296.082377,-9548.656652,229.828649
2464.571426,592.164754,-10658.965565,0.000000
2464.571754,666.185348,-10658.965565,-536.266849
2464.572081,370.102971,-9622.677246,-1072.533697
2464.572409,-222.061783,-9326.594869,-1455.581446
2464.572736,-296.082377,-9548.656652,-995.924147
2464.573064,-222.061783,-9474.636058,229.828649
2464.573391,888.247130,-8512.368333,1378.971896
2464.573719,1776.494261,-8438.347739,1225.752797
2464.574046,2664.741391,-10066.800811,0.000000
2464.574374,2738.761985,-10362.883188,-306.438199
2464.574701,2072.576638,-9844.739029,0.000000
2464.575029,962.267725,-9992.780217,0.000000
2464.575356,0.000000,-10732.986159,306.438199
2464.575684,-518.144159,-10584.944971,995.924147
2464.576011,-1184.329507,-9178.553681,612.876398
2464.576339,-444.123565,-8586.388927,0.000000
2464.576666,74.020594,-9252.574275,-689.485948
2464.576994,814.226536,-9770.718434,-842.705048
2464.577321,148.041188,-9548.656652,-689.485948
2464.577649,-1258.350101,-8512.368333,-153.219100
2464.577976,-1480.411884,-8512.368333,-612.876398
2464.578304,-1184.329507,-8734.430116,-612.876398
2464.578631,-1036.288319,-9474.636058,-383.047749
2464.578959,148.041188,-9770.718434,-306.438199
2464.579286,1776.494261,-10732.986159,0.000000
2464.579614,2664.741391,-11917.315666,383.047749
2464.579941,2960.823768,-11547.212695,383.047749
2464.580269,1702.473667,-9770.718434,0.000000
2464.580596,296.082377,-9252.574275,-536.266849
2464.580924,-1184.329507,-9770.718434,-536.266849
2464.581251,-1850.514855,-9770.718434,-459.657299
2464.581579,-1258.350101,-9326.594869,0.000000
2464.581906,-666.185348,-8882.471304,76.609550
2464.582234,0.000000,-9400.615463,229.828649
2464.582561,518.144159,-10362.883188,0.000000
2464.582889,222.061783,-9770.718434,-689.485948
2464.583216,-148.041188,-9326.594869,-1072.533697
2464.583544,-370.102971,-9178.553681,-1149.143247
2464.583871,296.082377,-9178.553681,-536.266849
2464.584199,370.102971,-9548.656652,536.266849
2464.584526,1776.494261,-9326.594869,612.876398
2464.584854,2590.720797,-9474.636058,383.047749
2464.585181,2664.741391,-10881.027347,0.000000
2464.585509,1776.494261,-10658.965565,-306.438199
2464.585836,666.185348,-9844.739029,-306.438199
2464.586164,-518.144159,-9770.718434,0.000000
2464.586491,-1184.329507,-10066.800811,76.609550
2464.586819,-1036.288319,-9918.759623,153.219100
2464.587146,-1184.329507,-9030.512492,0.000000
2464.587474,-296.082377,-8364.327145,306.438199
2464.587801,444.123565,-8734.430116,-383.047749
2464.588129,296.082377,-9474.636058,-536.266849
2464.588456,-518.144159,-9326.594869,-536.266849
2464.588784,-1110.308913,-8956.491898,-766.095498
2464.589111,-518.144159,-9474.636058,-766.095498
2464.589439,0.000000,-9474.636058,-536.266849
2464.589766,148.041188,-10658.965565,-229.828649
2464.590094,518.144159,-9918.759623,76.609550
2464.590421,1850.514855,-10436.903782,76.609550
2464.590749,2516.700203,-11325.150913,0.000000
2464.591076,2590.720797,-10436.903782,76.609550
2464.591404,1702.473667,-9474.636058,153.219100
2464.591731,444.123565,-9104.533087,459.657299
2464.592059,-518.144159,-9400.615463,76.609550
2464.592386,-1406.391290,-9844.739029,459.657299
2464.592714,-1332.370696,-9178.553681,306.438199
2464.593041,-1110.308913,-9326.594869,-383.047749
2464.593369,-296.082377,-9992.780217,-995.924147
2464.593696,0.000000,-10732.986159,-1149.143247
2464.594024,0.000000,-9770.718434,-689.485948
2464.594351,666.185348,-9474.636058,-766.095498
2464.594679,444.123565,-10066.800811,-536.266849
2464.595006,518.144159,-10214.842000,153.219100
2464.595334,814.226536,-9474.636058,612.876398
2464.595661,1702.473667,-8734.430116,536.266849
2464.595989,2220.617826,-8956.491898,229.828649
2464.596316,2664.741391,-9844.739029,229.828649
2464.596644,2368.659014,-9844.739029,306.438199
2464.596971,1406.391290,-9548.656652,76.609550
2464.597299,148.041188,-9844.739029,0.000000
2464.597626,-740.205942,-10436.903782,0.000000
2464.597954,-1110.308913,-10436.903782,0.000000
2464.598281,-1258.350101,-9104.533087,383.047749
2464.598609,-740.205942,-8512.368333,-536.266849
2464.598936,222.061783,-8586.388927,-536.266849
2464.599264,222.061783,-9030.512492,-689.485948
2464.599591,148.041188,-9474.636058,-459.657299
2464.599919,-666.185348,-8956.491898,0.000000
2464.600246,-296.082377,-9326.594869,-383.047749
2464.600574,-370.102971,-10066.800811,-459.657299
2464.600901,74.020594,-10362.883188,-536.266849
2464.601229,962.267725,-9252.574275,306.438199
2464.601556,1924.535449,-10066.800811,76.609550
2464.601883,2516.700203,-11399.171507,536.266849
2464.602211,2886.803174,-11177.109724,229.828649
2464.602538,1406.391290,-9622.677246,0.000000
2464.602866,0.000000,-9326.594869,536.266849
2464.603193,-1480.411884,-9326.594869,306.438199
2464.603521,-2442.679609,-9696.697840,-229.828649
2464.603848,-2960.823768,-8956.491898,0.000000
2464.604176,-2220.617826,-8586.388927,-1072.533697
2464.604503,-1258.350101,-9326.594869,-1225.752797
2464.604831,-666.185348,-10658.965565,-1302.362347
2464.605158,0.000000,-10066.800811,-995.924147
2464.605486,-740.205942,-9326.594869,-919.314598
2464.605813,444.123565,-9844.739029,-1302.362347
2464.606141,1036.288319,-10510.924376,0.000000
2464.606468,1406.391290,-10362.883188,689.485948
2464.606796,2220.617826,-9474.636058,1072.533697
2464.607123,2664.741391,-9252.574275,612.876398
2464.607451,2516.700203,-9474.636058,0.000000
2464.607778,2368.659014,-10288.862594,229.828649
2464.608106,1332.370696,-9622.677246,76.609550
2464.608433,148.041188,-9400.615463,153.219100
2464.608761,-518.144159,-9770.718434,153.219100
2464.609088,-592.164754,-10140.821405,0.000000
2464.609416,-1332.370696,-9104.533087,-229.828649
2464.609743,-814.226536,-8068.244768,-306.438199
2464.610071,740.205942,-8364.327145,-1685.410096
2464.610398,1184.329507,-9474.636058,-1225.752797
2464.610726,592.164754,-9252.574275,0.000000
2464.611053,222.061783,-9474.636058,306.438199
2464.611381,444.123565,-10140.821405,76.609550
2464.611708,444.123565,-10288.862594,76.609550
2464.612036,444.123565,-9622.677246,-153.219100
2464.612363,1110.308913,-9400.615463,-766.095498
2464.612691,1776.494261,-9770.718434,-459.657299
2464.613018,2220.617826,-11177.109724,0.000000
2464.613346,2368.659014,-10955.047942,0.000000
2464.613673,1184.329507,-9474.636058,306.438199
2464.614001,-370.102971,-8660.409521,0.000000
2464.614328,-2220.617826,-9030.512492,-612.876398
2464.614656,-3034.844362,-9770.718434,0.000000
2464.614983,-2960.823768,-8438.347739,-766.095498
2464.615311,-1998.556043,-8660.409521,-766.095498
2464.615638,-1184.329507,-10140.821405,-1149.143247
2464.615966,-444.123565,-11251.130318,-842.705048
2464.616293,-296.082377,-10732.986159,-1455.581446
2464.616621,-296.082377,-9992.780217,-1225.752797
2464.616948,-222.061783,-10658.965565,-1225.752797
2464.617276,74.020594,-10584.944971,-766.095498
2464.617603,814.226536,-9622.677246,-153.219100
2464.617931,1554.432478,-9548.656652,306.438199
2464.618258,2220.617826,-9474.636058,766.095498
2464.618586,2368.659014,-9844.739029,842.705048
2464.618913,1702.473667,-9474.636058,766.095498
2464.619241,444.123565,-9104.533087,0.000000
2464.619568,-370.102971,-9252.574275,-612.876398
2464.619896,-1258.350101,-10066.800811,0.000000
2464.620223,-1480.411884,-9770.718434,76.609550
2464.620551,-1036.288319,-9252.574275,0.000000
2464.620878,-740.205942,-8438.347739,-306.438199
2464.621206,518.144159,-9030.512492,-383.047749
2464.621533,888.247130,-9474.636058,-306.438199
2464.621861,962.267725,-9400.615463,0.000000
2464.622188,518.144159,-9474.636058,0.000000
2464.622516,518.144159,-9622.677246,153.219100
2464.622843,296.082377,-9992.780217,383.047749
2464.623171,740.205942,-9474.636058,229.828649
2464.623498,1480.411884,-8734.430116,0.000000
2464.623826,2072.576638,-9770.718434,153.219100
2464.624153,3034.844362,-11325.150913,0.000000
2464.624481,2812.782580,-10510.924376,536.266849
2464.624808,2294.638420,-9252.574275,459.657299
2464.625136,370.102971,-9104.533087,306.438199
2464.625463,-814.226536,-9400.615463,-306.438199
2464.625791,-1850.514855,-9474.636058,0.000000
2464.626118,-1628.453072,-9622.677246,-612.876398
2464.626446,-1110.308913,-9104.533087,-1608.800546
2464.626773,148.041188,-10214.842000,-919.314598
2464.627101,518.144159,-11177.109724,-1149.143247
2464.627428,74.020594,-10732.986159,-1149.143247
2464.627756,296.082377,-10066.800811,-1149.143247
2464.628083,222.061783,-10436.903782,-1302.362347
2464.628411,-148.041188,-9622.677246,306.438199
2464.628738,444.123565,-9178.553681,383.047749
2464.629066,1110.308913,-8438.347739,612.876398
2464.629393,1702.473667,-9104.533087,1149.143247
2464.629721,2294.638420,-10214.842000,689.485948
2464.630048,2072.576638,-10732.986159,229.828649
2464.630376,740.205942,-9992.780217,76.609550
2464.630703,0.000000,-9474.636058,-306.438199
2464.631031,-1406.391290,-9474.636058,-536.266849
2464.631358,-1554.432478,-10066.800811,-536.266849
2464.631686,-1480.411884,-8882.471304,0.000000
2464.632013,-740.205942,-8438.347739,0.000000
2464.632341,296.082377,-9178.553681,-536.266849
2464.632668,592.164754,-9474.636058,-306.438199
2464.632996,74.020594,-9030.512492,0.000000
2464.633323,-666.185348,-9030.512492,0.000000
2464.633650,-1480.411884,-9474.636058,0.000000
2464.633978,-962.267725,-9844.739029,0.000000
2464.634305,-370.102971,-9622.677246,76.609550
2464.634633,666.185348,-9474.636058,-383.047749
2464.634960,2072.576638,-10584.944971,536.266849
2464.635288,2442.679609,-11251.130318,536.266849
2464.635615,2738.761985,-10140.821405,306.438199
2464.635943,962.267725,-9104.533087,-306.438199
2464.636270,-1110.308913,-9104.533087,0.000000
2464.636598,-1924.535449,-9104.533087,-383.047749
2464.636925,-2368.659014,-9400.615463,-612.876398
2464.637253,-2146.597232,-9030.512492,-459.657299
2464.637580,-740.205942,-9696.697840,-1685.410096
2464.637908,296.082377,-9918.759623,-1225.752797
2464.638235,1110.308913,-10732.986159,-995.924147
2464.638563,1184.329507,-10214.842000,-1149.143247
2464.638890,888.247130,-9696.697840,-1225.752797
2464.639218,518.144159,-9844.739029,-766.095498
2464.639545,1110.308913,-9844.739029,0.000000
2464.639873,1924.535449,-9104.533087,459.657299
2464.640200,1998.556043,-9030.512492,1072.533697
2464.640528,3404.947333,-10584.944971,536.266849
2464.640855,3404.947333,-10807.006753,153.219100
2464.641183,2368.659014,-10732.986159,153.219100
2464.641510,1110.308913,-9696.697840,0.000000
2464.641838,148.041188,-9474.636058,-612.876398
2464.642165,-814.226536,-9844.739029,-383.047749
2464.642493,-1110.308913,-8956.491898,306.438199
2464.642820,-666.185348,-8956.491898,76.609550
2464.643148,0.000000,-8734.430116,153.219100
2464.643475,1184.329507,-9252.574275,-383.047749
2464.643803,1480.411884,-10214.842000,-306.438199
2464.644130,370.102971,-9918.759623,306.438199
2464.644458,-296.082377,-8808.450710,306.438199
2464.644785,-740.205942,-9474.636058,306.438199
2464.645113,-962.267725,-10807.006753,0.000000
2464.645440,-740.205942,-9622.677246,0.000000
2464.645768,444.123565,-9622.677246,-306.438199
2464.646095,1184.329507,-10288.862594,0.000000
2464.646423,2368.659014,-9844.739029,153.219100
2464.646750,1850.514855,-9474.636058,919.314598
2464.647078,74.020594,-8142.265362,919.314598
2464.647405,-814.226536,-8882.471304,383.047749
2464.647733,-1850.514855,-8882.471304,76.609550
2464.648060,-2442.679609,-9252.574275,-153.219100
2464.648388,-1924.535449,-9474.636058,-536.266849
2464.648715,-666.185348,-9844.739029,-689.485948
2464.649043,0.000000,-10732.986159,-1072.533697
2464.649370,814.226536,-11251.130318,-1225.752797
2464.649698,444.123565,-10881.027347,-1762.019645
2464.650025,0.000000,-9918.759623,-1608.800546
2464.650353,0.000000,-9992.780217,-1072.533697
2464.650680,-148.041188,-9844.739029,-229.828649
2464.651008,370.102971,-8882.471304,306.438199
2464.651335,1036.288319,-8068.244768,995.924147
2464.651663,1702.473667,-8734.430116,689.485948
2464.651990,2368.659014,-10658.965565,229.828649
2464.652318,1998.556043,-10510.924376,0.000000
2464.652645,888.247130,-9548.656652,-459.657299
2464.652973,0.000000,-10066.800811,-766.095498
2464.653300,-666.185348,-10658.965565,-459.657299
2464.653628,-666.185348,-10066.800811,0.000000
2464.653955,-444.123565,-9696.697840,-229.828649
2464.654283,74.020594,-9474.636058,-612.876398
2464.654610,1184.329507,-9696.697840,-1302.362347
2464.654938,1628.453072,-10140.821405,-612.876398
2464.655265,296.082377,-9770.718434,536.266849
2464.655593,-666.185348,-9178.553681,306.438199
2464.655920,-1258.350101,-9400.615463,0.000000
2464.656248,-1554.432478,-9030.512492,-459.657299
2464.656575,-888.247130,-8882.471304,-612.876398
2464.656903,370.102971,-9844.739029,0.000000
2464.657230,1628.453072,-10288.862594,0.000000
2464.657558,2590.720797,-10584.944971,459.657299
2464.657885,1776.494261,-9918.759623,612.876398
2464.658213,962.267725,-8956.491898,536.266849
2464.658540,0.000000,-9030.512492,76.609550
2464.658868,-444.123565,-9178.553681,-306.438199
2464.659195,-1332.370696,-9548.656652,229.828649
2464.659523,-592.164754,-9178.553681,0.000000
2464.659850,518.144159,-9770.718434,0.000000
2464.660178,1258.350101,-10881.027347,76.609550
2464.660505,1924.535449,-10955.047942,0.000000
2464.660833,1258.350101,-9474.636058,-919.314598
2464.661160,518.144159,-9104.533087,-612.876398
2464.661488,518.144159,-9548.656652,-995.924147
2464.661815,592.164754,-9474.636058,306.438199
2464.662143,1110.308913,-9030.512492,919.314598
2464.662470,1628.453072,-9252.574275,1685.410096
2464.662798,2146.597232,-9992.780217,536.266849
2464.663125,2368.659014,-10881.027347,-612.876398
2464.663453,1554.432478,-10436.903782,-995.924147
2464.663780,370.102971,-9770.718434,-1532.190996
2464.664108,-444.123565,-9918.759623,-1149.143247
2464.664435,-814.226536,-10362.883188,-383.047749
2464.664763,-814.226536,-10288.862594,0.000000
2464.665090,-222.061783,-9548.656652,-153.219100
2464.665418,296.082377,-9326.594869,-459.657299
2464.665745,888.247130,-9696.697840,0.000000
2464.666073,592.164754,-9474.636058,0.000000
2464.666400,0.000000,-9178.553681,306.438199
2464.666728,-962.267725,-9326.594869,153.219100
2464.667055,-1184.329507,-9844.739029,-306.438199
2464.667383,-1258.350101,-9918.759623,-459.657299
2464.667710,-370.102971,-9918.759623,-306.438199
2464.668038,0.000000,-10140.821405,-536.266849
2464.668365,814.226536,-9918.759623,-536.266849
2464.668693,1036.288319,-9770.718434,-229.828649
2464.669021,1110.308913,-9548.656652,306.438199
2464.669348,444.123565,-8808.450710,842.705048
2464.669676,74.020594,-8660.409521,766.095498
2464.670003,-740.205942,-9548.656652,306.438199
2464.670331,-1554.432478,-9178.553681,1072.533697
2464.670658,-1184.329507,-8734.430116,0.000000
2464.670986,-296.082377,-9474.636058,0.000000
2464.671313,814.226536,-10732.986159,-612.876398
2464.671641,1332.370696,-10658.965565,-1072.533697
2464.671968,888.247130,-9696.697840,-306.438199
2464.672296,444.123565,-10066.800811,-1149.143247
2464.672623,0.000000,-9844.739029,-612.876398
2464.672951,-444.123565,-9474.636058,0.000000
2464.673278,-370.102971,-8956.491898,229.828649
2464.673606,222.061783,-9252.574275,0.000000
2464.673933,1036.288319,-9918.759623,-383.047749
2464.674261,2220.617826,-10066.800811,-459.657299
2464.674588,1110.308913,-9400.615463,0.000000
2464.674916,962.267725,-9474.636058,-536.266849
2464.675243,592.164754,-9918.759623,-612.876398
2464.675571,0.000000,-11029.068536,-306.438199
2464.675898,74.020594,-10807.006753,-306.438199
2464.676226,814.226536,-9622.677246,-459.657299
2464.676553,1702.473667,-9622.677246,-383.047749
2464.676881,1702.473667,-9844.739029,229.828649
2464.677208,1480.411884,-9696.697840,459.657299
2464.677536,1036.288319,-9178.553681,229.828649
2464.677863,0.000000,-8882.471304,0.000000
2464.678191,-518.144159,-9400.615463,0.000000
2464.678518,-962.267725,-9178.553681,0.000000
2464.678846,-444.123565,-8808.450710,-229.828649
2464.679173,296.082377,-8808.450710,612.876398
2464.679501,1924.535449,-10140.821405,-306.438199
2464.679828,2516.700203,-10510.924376,-612.876398
2464.680156,2368.659014,-10140.821405,229.828649
2464.680483,1480.411884,-9326.594869,76.609550
2464.680811,592.164754,-9104.533087,536.266849
2464.681138,-222.061783,-9252.574275,1149.143247
2464.681466,-962.267725,-9104.533087,1302.362347
2464.681793,0.000000,-8660.409521,0.000000
2464.682121,0.000000,-9252.574275,-612.876398
2464.682448,0.000000,-9696.697840,-1072.533697
2464.682776,0.000000,-10214.842000,-919.314598
2464.683103,-222.061783,-9770.718434,-689.485948
2464.683431,0.000000,-9252.574275,-1455.581446
2464.683758,-592.164754,-9622.677246,153.219100
2464.684086,-296.082377,-10066.800811,536.266849
2464.684413,222.061783,-9400.615463,153.219100
2464.684741,444.123565,-9104.533087,0.000000
2464.685068,814.226536,-10436.903782,-153.219100
2464.685396,814.226536,-10881.027347,-612.876398
2464.685723,592.164754,-10140.821405,-1225.752797
2464.686051,0.000000,-9548.656652,-383.047749
2464.686378,-518.144159,-10584.944971,-689.485948
2464.686706,-518.144159,-11769.274478,-689.485948
2464.687034,-592.164754,-10807.006753,0.000000
2464.687361,-518.144159,-9030.512492,-459.657299
2464.687689,0.000000,-9104.533087,-919.314598
2464.688016,296.082377,-8956.491898,-383.047749
2464.688344,0.000000,-9030.512492,0.000000
2464.688671,-814.226536,-8956.491898,766.095498
2464.688999,-888.247130,-9030.512492,229.828649
2464.689326,-1184.329507,-9400.615463,-306.438199
2464.689654,-1702.473667,-9844.739029,-919.314598
2464.689981,-1554.432478,-9400.615463,-689.485948
2464.690309,222.061783,-9474.636058,-995.924147
2464.690636,2146.597232,-9918.759623,-229.828649
2464.690964,2368.659014,-10436.903782,76.609550
2464.691291,2294.638420,-9918.759623,612.876398
2464.691619,1702.473667,-9030.512492,1378.971896
2464.691946,888.247130,-9104.533087,1225.752797
2464.692274,-222.061783,-9252.574275,536.266849
2464.692601,-592.164754,-9178.553681,229.828649
2464.692929,-370.102971,-8660.409521,-689.485948
2464.693256,888.247130,-9252.574275,-383.047749
2464.693584,1924.535449,-10288.862594,-1378.971896
2464.693911,1776.494261,-10510.924376,-689.485948
2464.694239,1258.350101,-9992.780217,-766.095498
2464.694566,888.247130,-9696.697840,-1302.362347
2464.694894,888.247130,-10066.800811,-1149.143247
2464.695221,740.205942,-9918.759623,0.000000
2464.695549,1036.288319,-9400.615463,76.609550
2464.695876,2072.576638,-9104.533087,76.609550
2464.696204,3034.844362,-10584.944971,-383.047749
2464.696531,3108.864956,-11399.171507,-536.266849
2464.696859,2516.700203,-11103.089130,-306.438199
2464.697186,1258.350101,-9844.739029,-612.876398
2464.697514,148.041188,-9770.718434,-153.219100
2464.697841,-1258.350101,-10436.903782,-459.657299
2464.698169,-1184.329507,-10140.821405,-306.438199
2464.698496,-518.144159,-9252.574275,-229.828649
2464.698824,222.061783,-9178.553681,0.000000
2464.699151,888.247130,-9844.739029,76.609550
2464.699479,888.247130,-9326.594869,459.657299
2464.699806,-222.061783,-8956.491898,0.000000
2464.700134,-1258.350101,-8142.265362,1455.581446
2464.700461,-1776.494261,-9030.512492,-306.438199
2464.700789,-2146.597232,-9178.553681,-459.657299
2464.701116,-1702.473667,-9030.512492,-383.047749
2464.701444,0.000000,-9696.697840,-612.876398
2464.701771,1332.370696,-9992.780217,0.000000
2464.702099,1628.453072,-10362.883188,229.828649
2464.702426,1406.391290,-9548.656652,842.705048
2464.702754,0.000000,-9104.533087,689.485948
2464.703081,-814.226536,-9030.512492,459.657299
2464.703409,-2146.597232,-9474.636058,306.438199
2464.703736,-1998.556043,-8956.491898,229.828649
2464.704064,-1036.288319,-8808.450710,-229.828649
2464.704391,-370.102971,-9844.739029,-536.266849
