#time,accel_x,accel_y,accel_z
3232.113159,74.020594,-9474.636058,-306.438199
3232.113487,888.247130,-9548.656652,229.828649
3232.113814,1110.308913,-9474.636058,-306.438199
3232.114142,1036.288319,-9696.697840,-536.266849
3232.114469,592.164754,-9622.677246,0.000000
3232.114797,592.164754,-9474.636058,0.000000
3232.115124,74.020594,-9474.636058,0.000000
3232.115452,0.000000,-9548.656652,-306.438199
3232.115779,-296.082377,-9844.739029,0.000000
3232.116107,0.000000,-9770.718434,-842.705048
3232.116434,74.020594,-10214.842000,-995.924147
3232.116761,0.000000,-10362.883188,-536.266849
3232.117089,370.102971,-10362.883188,-459.657299
3232.117416,592.164754,-10214.842000,-153.219100
3232.117744,666.185348,-9844.739029,-229.828649
3232.118071,444.123565,-9474.636058,229.828649
3232.118399,0.000000,-9178.553681,0.000000
3232.118726,0.000000,-9178.553681,-306.438199
3232.119054,0.000000,-9252.574275,0.000000
3232.119381,-222.061783,-9400.615463,-459.657299
3232.119709,-222.061783,-9474.636058,-612.876398
3232.120036,0.000000,-9622.677246,-612.876398
3232.120364,74.020594,-10214.842000,-229.828649
3232.120691,148.041188,-9622.677246,76.609550
3232.121019,814.226536,-9992.780217,153.219100
3232.121346,962.267725,-9918.759623,306.438199
3232.121673,814.226536,-9622.677246,229.828649
3232.122001,740.205942,-9474.636058,536.266849
3232.122328,444.123565,-9326.594869,229.828649
3232.122656,148.041188,-9178.553681,229.828649
3232.122983,0.000000,-8956.491898,76.609550
3232.123311,0.000000,-9474.636058,-612.876398
3232.123638,0.000000,-9252.574275,-612.876398
3232.123966,296.082377,-9696.697840,-383.047749
3232.124293,592.164754,-9992.780217,-306.438199
3232.124621,740.205942,-10288.862594,-306.438199
3232.124948,740.205942,-10288.862594,0.000000
3232.125276,592.164754,-9770.718434,-995.924147
3232.125603,296.082377,-9622.677246,0.000000
3232.125931,518.144159,-9474.636058,-153.219100
3232.126258,370.102971,-9474.636058,0.000000
3232.126585,74.020594,-9548.656652,-536.266849
3232.126913,0.000000,-9770.718434,-612.876398
3232.127240,-296.082377,-9770.718434,-842.705048
3232.127568,0.000000,-9992.780217,-383.047749
3232.127895,0.000000,-9918.759623,-306.438199
3232.128223,296.082377,-10436.903782,-459.657299
3232.128550,444.123565,-10362.883188,0.000000
3232.128878,518.144159,-10214.842000,76.609550
3232.129205,222.061783,-9770.718434,0.000000
3232.129533,296.082377,-9326.594869,153.219100
3232.129860,296.082377,-9474.636058,76.609550
3232.130188,0.000000,-9252.574275,0.000000
3232.130515,296.082377,-8512.368333,-995.924147
3232.130843,666.185348,-9104.533087,-306.438199
3232.131170,1406.391290,-9104.533087,0.000000
3232.131497,2886.803174,-9178.553681,-153.219100
3232.131825,3923.091493,-8956.491898,383.047749
3232.132152,5107.421000,-9474.636058,-689.485948
3232.132480,5847.626942,-9992.780217,536.266849
3232.132807,6957.935855,-9696.697840,306.438199
3232.133135,7328.038826,-9622.677246,229.828649
3232.133462,7402.059420,-9770.718434,229.828649
3232.133790,7402.059420,-9770.718434,76.609550
3232.134117,7179.997637,-10066.800811,459.657299
3232.134445,7920.203579,-10510.924376,229.828649
3232.134772,8586.388927,-8956.491898,-459.657299
3232.135100,9326.594869,-9622.677246,-459.657299
3232.135427,9918.759623,-9252.574275,0.000000
3232.135755,10807.006753,-8956.491898,76.609550
3232.136082,11325.150913,-9474.636058,229.828649
3232.136409,11843.295072,-10066.800811,383.047749
3232.136737,11473.192101,-10214.842000,536.266849
3232.137064,11695.253884,-8956.491898,1149.143247
3232.137392,11769.274478,-8956.491898,459.657299
3232.137719,12805.562797,-11103.089130,-229.828649
3232.138047,12879.583391,-11103.089130,-306.438199
3232.138374,13767.830521,-9770.718434,0.000000
3232.138702,14508.036463,-8512.368333,0.000000
3232.139029,14211.954086,-9474.636058,459.657299
3232.139357,13397.727550,-8882.471304,1225.752797
3232.139684,14285.974681,-9548.656652,1225.752797
3232.140012,13841.851115,-10362.883188,1149.143247
3232.140339,13989.892304,-10436.903782,612.876398
3232.140667,13323.706956,-9104.533087,919.314598
3232.140994,12213.398043,-9030.512492,1608.800546
3232.141321,11917.315666,-9104.533087,1072.533697
3232.141649,11991.336260,-9178.553681,-229.828649
3232.141976,10955.047942,-10140.821405,76.609550
3232.142304,9992.780217,-10436.903782,153.219100
3232.142631,9474.636058,-10066.800811,-229.828649
3232.142959,8512.368333,-9326.594869,-383.047749
3232.143286,8660.409521,-9104.533087,0.000000
3232.143614,9770.718434,-8290.306550,-229.828649
3232.143941,10140.821405,-9178.553681,612.876398
3232.144269,10510.924376,-10807.006753,1072.533697
3232.144596,9178.553681,-10658.965565,1455.581446
3232.144924,8142.265362,-9030.512492,306.438199
3232.145251,6809.894666,-8586.388927,-153.219100
3232.145579,6883.915261,-7994.224174,-536.266849
3232.145906,8216.285956,-9918.759623,-612.876398
3232.146233,8660.409521,-11843.295072,-459.657299
3232.146561,9178.553681,-11547.212695,229.828649
3232.146888,8586.388927,-9030.512492,0.000000
3232.147216,7476.080014,-9326.594869,76.609550
3232.147543,6735.874072,-10362.883188,0.000000
3232.147871,6957.935855,-9622.677246,-1072.533697
3232.148198,8142.265362,-8956.491898,-766.095498
3232.148526,10584.944971,-8956.491898,-306.438199
3232.148853,10214.842000,-8956.491898,229.828649
3232.149181,7624.121203,-8586.388927,2451.505594
3232.149508,5847.626942,-8068.244768,1991.848295
3232.149836,8364.327145,-8956.491898,-1302.362347
3232.150163,10584.944971,-10436.903782,-3140.991542
3232.150491,10362.883188,-11177.109724,-1685.410096
3232.150818,9770.718434,-10362.883188,1072.533697
3232.151145,10584.944971,-11399.171507,1072.533697
3232.151473,8808.450710,-11103.089130,1149.143247
3232.151800,6957.935855,-9252.574275,0.000000
3232.152128,5477.523971,-7624.121203,-689.485948
3232.152455,6513.812290,-8142.265362,-612.876398
3232.152783,7624.121203,-9252.574275,-383.047749
3232.153110,6735.874072,-9622.677246,229.828649
3232.153438,5699.585753,-8956.491898,1149.143247
3232.153765,5107.421000,-8142.265362,0.000000
3232.154093,3552.988522,-8586.388927,-689.485948
3232.154420,3997.112087,-10140.821405,-1072.533697
3232.154748,7328.038826,-9696.697840,-1532.190996
3232.155075,8364.327145,-7994.224174,-306.438199
3232.155403,6365.771101,-10214.842000,1838.629195
3232.155730,5551.544565,-11251.130318,2451.505594
3232.156057,5995.668130,-9474.636058,0.000000
3232.156385,6661.853478,-9474.636058,-3294.210641
3232.156712,6809.894666,-10140.821405,-3753.867940
3232.157040,7254.018232,-10807.006753,-766.095498
3232.157367,8142.265362,-11399.171507,2604.724693
3232.157695,7624.121203,-10807.006753,2987.772442
3232.158022,5329.482782,-9326.594869,1225.752797
3232.158350,2368.659014,-10510.924376,76.609550
3232.158677,444.123565,-10510.924376,229.828649
3232.159005,814.226536,-8512.368333,-1532.190996
3232.159332,-444.123565,-8438.347739,-1915.238745
3232.159660,-1332.370696,-9992.780217,612.876398
3232.159987,-296.082377,-8956.491898,919.314598
3232.160315,-592.164754,-8290.306550,76.609550
3232.160642,-518.144159,-10807.006753,1149.143247
3232.160969,666.185348,-11029.068536,-1532.190996
3232.161297,0.000000,-10214.842000,-2834.553343
3232.161624,-1332.370696,-9622.677246,-842.705048
3232.161952,0.000000,-9474.636058,919.314598
3232.162279,-1850.514855,-10066.800811,2528.115143
3232.162607,-3108.864956,-10362.883188,2451.505594
3232.162934,-2368.659014,-9992.780217,-919.314598
3232.163262,-3256.906145,-9474.636058,-1302.362347
3232.163589,-2368.659014,-9548.656652,-689.485948
3232.163917,-2368.659014,-7846.182985,0.000000
3232.164244,-2220.617826,-6809.894666,1225.752797
3232.164572,-1554.432478,-7698.141797,459.657299
3232.164899,-1036.288319,-9992.780217,612.876398
3232.165227,148.041188,-10288.862594,-229.828649
3232.165554,1480.411884,-8216.285956,-1225.752797
3232.165881,888.247130,-10140.821405,229.828649
3232.166209,444.123565,-11843.295072,2068.457845
3232.166536,0.000000,-10881.027347,0.000000
3232.166864,-888.247130,-9400.615463,-1149.143247
3232.167191,-1924.535449,-9104.533087,-1915.238745
3232.167519,-1628.453072,-10807.006753,-2451.505594
3232.167846,-1924.535449,-9622.677246,-766.095498
3232.168174,-1628.453072,-9918.759623,153.219100
3232.168501,-1258.350101,-9770.718434,459.657299
3232.168829,-296.082377,-8882.471304,-919.314598
3232.169156,-666.185348,-8068.244768,-2298.286494
3232.169484,666.185348,-9918.759623,-919.314598
3232.169811,1554.432478,-10362.883188,-995.924147
3232.170139,1184.329507,-10214.842000,-383.047749
3232.170466,1850.514855,-10584.944971,-229.828649
3232.170794,3256.906145,-11103.089130,-1532.190996
3232.171121,2072.576638,-11843.295072,229.828649
3232.171448,2664.741391,-11547.212695,612.876398
3232.171776,1998.556043,-10955.047942,-995.924147
3232.172103,814.226536,-11029.068536,-689.485948
3232.172431,888.247130,-9178.553681,-766.095498
3232.172758,444.123565,-8290.306550,-153.219100
3232.173086,0.000000,-7254.018232,1072.533697
3232.173413,370.102971,-9104.533087,1685.410096
3232.173741,1184.329507,-9030.512492,689.485948
3232.174068,1998.556043,-7698.141797,459.657299
3232.174396,2368.659014,-7402.059420,76.609550
3232.174723,2368.659014,-8734.430116,1532.190996
3232.175051,2368.659014,-11177.109724,1838.629195
3232.175378,2220.617826,-12361.439231,229.828649
3232.175706,1850.514855,-11029.068536,0.000000
3232.176033,1332.370696,-10214.842000,-689.485948
3232.176360,814.226536,-11325.150913,-536.266849
3232.176688,-296.082377,-9622.677246,536.266849
3232.177015,296.082377,-9400.615463,536.266849
3232.177343,-740.205942,-8882.471304,842.705048
3232.177670,148.041188,-7476.080014,0.000000
3232.177998,1850.514855,-6069.688724,-612.876398
3232.178325,370.102971,-6883.915261,1915.238745
3232.178653,-592.164754,-9104.533087,2145.067394
3232.178980,-888.247130,-10658.965565,0.000000
3232.179308,-888.247130,-10658.965565,-1608.800546
3232.179635,814.226536,-10214.842000,-3447.429741
3232.179963,666.185348,-11695.253884,-3447.429741
3232.180290,-740.205942,-14656.077652,306.438199
3232.180617,-1258.350101,-13767.830521,459.657299
3232.180945,-222.061783,-11177.109724,-2298.286494
3232.181272,-1184.329507,-8956.491898,-2451.505594
3232.181600,-1628.453072,-8808.450710,-1455.581446
3232.181927,-1406.391290,-8290.306550,612.876398
3232.182255,-222.061783,-7476.080014,536.266849
3232.182582,-518.144159,-8216.285956,229.828649
3232.182910,0.000000,-7920.203579,229.828649
3232.183237,1110.308913,-7920.203579,612.876398
3232.183565,518.144159,-10732.986159,1378.971896
3232.183892,592.164754,-11695.253884,229.828649
3232.184220,-1036.288319,-11473.192101,-1991.848295
3232.184547,-2146.597232,-10510.924376,-2145.067394
3232.184875,-1628.453072,-10066.800811,-2681.334243
3232.185202,-1628.453072,-10140.821405,-383.047749
3232.185529,-1184.329507,-9474.636058,1991.848295
3232.185857,370.102971,-8734.430116,1149.143247
3232.186184,1036.288319,-8068.244768,-612.876398
3232.186512,-518.144159,-7994.224174,153.219100
3232.186839,-444.123565,-7846.182985,842.705048
3232.187167,962.267725,-8142.265362,229.828649
3232.187494,1332.370696,-10658.965565,612.876398
3232.187822,2368.659014,-11177.109724,383.047749
3232.188149,3182.885551,-8956.491898,766.095498
3232.188477,3034.844362,-9326.594869,536.266849
3232.188804,1850.514855,-11695.253884,612.876398
3232.189132,370.102971,-12065.356855,842.705048
3232.189459,296.082377,-10140.821405,-1455.581446
3232.189786,666.185348,-10066.800811,-2451.505594
3232.190114,1628.453072,-10436.903782,-1455.581446
3232.190441,666.185348,-10584.944971,0.000000
3232.190769,0.000000,-9400.615463,612.876398
3232.191096,1110.308913,-9104.533087,-306.438199
3232.191424,-370.102971,-9992.780217,-1455.581446
3232.191751,-370.102971,-8142.265362,-1455.581446
3232.192079,444.123565,-6291.750507,-459.657299
3232.192406,740.205942,-8734.430116,306.438199
3232.192734,1924.535449,-10732.986159,153.219100
3232.193061,2368.659014,-11325.150913,76.609550
3232.193389,2146.597232,-10807.006753,1225.752797
3232.193716,2664.741391,-11177.109724,612.876398
3232.194043,1036.288319,-10658.965565,-383.047749
3232.194371,-296.082377,-11103.089130,-766.095498
3232.194698,0.000000,-10732.986159,-1608.800546
3232.195026,-592.164754,-10066.800811,-1378.971896
3232.195353,-296.082377,-7105.977043,0.000000
3232.195681,592.164754,-7550.100608,689.485948
3232.196008,-148.041188,-8586.388927,2221.676944
3232.196336,0.000000,-8512.368333,2068.457845
3232.196663,-370.102971,-8068.244768,0.000000
3232.196991,-962.267725,-8142.265362,0.000000
3232.197318,0.000000,-9178.553681,-459.657299
3232.197646,222.061783,-11843.295072,-153.219100
3232.197973,-1184.329507,-11621.233289,689.485948
3232.198300,-1110.308913,-11843.295072,-1149.143247
3232.198628,-1332.370696,-10732.986159,-1608.800546
3232.198955,-888.247130,-10066.800811,-1378.971896
3232.199283,-296.082377,-9104.533087,-995.924147
3232.199610,-296.082377,-7698.141797,459.657299
3232.199938,0.000000,-8290.306550,1225.752797
3232.200265,148.041188,-8142.265362,1149.143247
3232.200593,-148.041188,-7105.977043,2298.286494
3232.200920,-1184.329507,-8290.306550,1991.848295
3232.201248,-1406.391290,-10584.944971,-229.828649
3232.201575,-1554.432478,-11399.171507,-3294.210641
3232.201903,-1332.370696,-11399.171507,-4596.572988
3232.202230,-740.205942,-10955.047942,-2911.162892
3232.202558,0.000000,-11695.253884,-689.485948
3232.202885,0.000000,-11843.295072,842.705048
3232.203212,1776.494261,-10362.883188,306.438199
3232.203540,2220.617826,-9252.574275,-842.705048
3232.203867,592.164754,-9178.553681,0.000000
3232.204195,444.123565,-8512.368333,1149.143247
3232.204522,888.247130,-7772.162391,689.485948
3232.204850,296.082377,-7846.182985,536.266849
3232.205177,296.082377,-10140.821405,1072.533697
3232.205505,74.020594,-10436.903782,689.485948
3232.205832,740.205942,-9474.636058,-383.047749
3232.206160,1406.391290,-8808.450710,-2604.724693
3232.206487,-370.102971,-10732.986159,-2221.676944
3232.206815,-592.164754,-9992.780217,-306.438199
3232.207142,814.226536,-9622.677246,306.438199
3232.207469,1554.432478,-9400.615463,1915.238745
3232.207797,2738.761985,-9252.574275,2145.067394
3232.208124,2812.782580,-7994.224174,1838.629195
3232.208452,962.267725,-8290.306550,1685.410096
3232.208779,-1258.350101,-10807.006753,153.219100
3232.209107,-1998.556043,-10881.027347,-1532.190996
3232.209434,0.000000,-8438.347739,-2528.115143
3232.209762,1850.514855,-8586.388927,-2145.067394
3232.210089,2220.617826,-10288.862594,689.485948
3232.210417,3108.864956,-10436.903782,2911.162892
3232.210744,3478.967927,-9474.636058,1149.143247
3232.211072,1776.494261,-10288.862594,919.314598
3232.211399,1184.329507,-9622.677246,0.000000
3232.211726,0.000000,-8364.327145,-306.438199
3232.212054,-1184.329507,-8364.327145,-612.876398
3232.212381,0.000000,-11843.295072,-689.485948
3232.212709,296.082377,-12731.542202,-689.485948
3232.213036,1406.391290,-10436.903782,-1915.238745
3232.213364,444.123565,-9770.718434,-2221.676944
3232.213691,-1110.308913,-10362.883188,-919.314598
3232.214019,-1406.391290,-9030.512492,-536.266849
3232.214346,-1702.473667,-8068.244768,-919.314598
3232.214674,-962.267725,-8068.244768,0.000000
3232.215001,370.102971,-8438.347739,-153.219100
3232.215329,296.082377,-9030.512492,1915.238745
3232.215656,814.226536,-11251.130318,2604.724693
3232.215984,296.082377,-11917.315666,536.266849
3232.216311,-1036.288319,-10362.883188,-1838.629195
3232.216638,-666.185348,-9548.656652,-3217.601092
3232.216966,-1258.350101,-9400.615463,-2068.457845
3232.217293,0.000000,-9030.512492,0.000000
3232.217621,0.000000,-7994.224174,1915.238745
3232.217948,74.020594,-9474.636058,2298.286494
3232.218276,74.020594,-8438.347739,1302.362347
3232.218603,518.144159,-7624.121203,0.000000
3232.218931,-1184.329507,-8956.491898,689.485948
3232.219258,-814.226536,-10584.944971,1072.533697
3232.219586,-1258.350101,-11251.130318,-306.438199
3232.219913,-592.164754,-10066.800811,-1532.190996
3232.220241,0.000000,-9622.677246,-2911.162892
3232.220568,444.123565,-10584.944971,-1378.971896
3232.220895,74.020594,-10288.862594,842.705048
3232.221223,1184.329507,-10214.842000,1378.971896
3232.221550,1184.329507,-8956.491898,306.438199
3232.221878,1702.473667,-8808.450710,0.000000
3232.222205,1850.514855,-8808.450710,-383.047749
3232.222533,1480.411884,-8586.388927,1608.800546
3232.222860,-518.144159,-9770.718434,2298.286494
3232.223188,-1406.391290,-11473.192101,0.000000
3232.223515,-962.267725,-10510.924376,-2987.772442
3232.223843,74.020594,-10066.800811,-4596.572988
3232.224170,666.185348,-9474.636058,-3140.991542
3232.224498,1554.432478,-11695.253884,76.609550
3232.224825,1702.473667,-12435.459826,1991.848295
3232.225152,2146.597232,-10436.903782,842.705048
3232.225480,2886.803174,-8586.388927,-766.095498
3232.225807,1702.473667,-8882.471304,0.000000
3232.226135,370.102971,-9178.553681,1378.971896
3232.226462,740.205942,-9474.636058,995.924147
3232.226790,296.082377,-9474.636058,-306.438199
3232.227117,0.000000,-7624.121203,-689.485948
3232.227445,740.205942,-8586.388927,0.000000
3232.227772,148.041188,-9474.636058,995.924147
3232.228100,444.123565,-9844.739029,1072.533697
3232.228427,518.144159,-10140.821405,-612.876398
3232.228755,-814.226536,-9104.533087,-2068.457845
3232.229082,74.020594,-8512.368333,-383.047749
3232.229409,814.226536,-8364.327145,612.876398
3232.229737,962.267725,-9474.636058,3064.381992
3232.230064,1850.514855,-10510.924376,2451.505594
3232.230392,666.185348,-9252.574275,-536.266849
3232.230719,-888.247130,-9326.594869,-2145.067394
3232.231047,-2072.576638,-10362.883188,-2451.505594
3232.231374,-1776.494261,-10140.821405,-1915.238745
3232.231702,0.000000,-9918.759623,-919.314598
3232.232029,1628.453072,-10362.883188,0.000000
3232.232357,1702.473667,-10140.821405,1608.800546
3232.232684,2368.659014,-9252.574275,1149.143247
3232.233012,1850.514855,-9548.656652,842.705048
3232.233339,222.061783,-10214.842000,689.485948
3232.233667,-888.247130,-10732.986159,0.000000
3232.233994,-1850.514855,-9548.656652,-919.314598
3232.234321,-222.061783,-8586.388927,-1762.019645
3232.234649,962.267725,-11251.130318,-2374.896044
3232.234976,518.144159,-13175.665768,0.000000
3232.235304,1110.308913,-11695.253884,689.485948
3232.235631,0.000000,-9252.574275,-1532.190996
3232.235959,-1036.288319,-9622.677246,-1455.581446
3232.236286,-1998.556043,-8808.450710,-1072.533697
3232.236614,-2146.597232,-7772.162391,-153.219100
3232.236941,-1036.288319,-8438.347739,842.705048
3232.237269,0.000000,-9400.615463,306.438199
3232.237596,0.000000,-9178.553681,229.828649
3232.237924,666.185348,-8882.471304,-383.047749
3232.238251,518.144159,-9918.759623,459.657299
3232.238578,1110.308913,-9696.697840,229.828649
3232.238906,1258.350101,-9326.594869,-612.876398
3232.239233,0.000000,-9474.636058,153.219100
3232.239561,1110.308913,-7846.182985,153.219100
3232.239888,1628.453072,-8216.285956,842.705048
3232.240216,962.267725,-10658.965565,1838.629195
3232.240543,-296.082377,-10807.006753,1838.629195
3232.240871,-444.123565,-9252.574275,-153.219100
3232.241198,-888.247130,-8438.347739,-1838.629195
3232.241526,-148.041188,-9474.636058,-1915.238745
3232.241853,-296.082377,-9918.759623,-1378.971896
3232.242181,0.000000,-10807.006753,306.438199
3232.242508,1554.432478,-10362.883188,0.000000
3232.242835,1998.556043,-10584.944971,-766.095498
3232.243163,2072.576638,-9770.718434,612.876398
3232.243490,1998.556043,-9992.780217,459.657299
3232.243818,962.267725,-10807.006753,842.705048
3232.244145,1406.391290,-11177.109724,0.000000
3232.244473,1258.350101,-9326.594869,-919.314598
3232.244800,666.185348,-8882.471304,229.828649
3232.245128,-296.082377,-9696.697840,76.609550
3232.245455,-1480.411884,-10066.800811,-536.266849
3232.245783,-222.061783,-10510.924376,-1915.238745
3232.246110,666.185348,-10881.027347,-3294.210641
3232.246438,296.082377,-10584.944971,-1302.362347
3232.246765,1480.411884,-9326.594869,1225.752797
3232.247092,1776.494261,-9474.636058,1378.971896
3232.247420,2072.576638,-9770.718434,1149.143247
3232.247747,1110.308913,-10436.903782,-459.657299
3232.248075,-592.164754,-9104.533087,-689.485948
3232.248402,74.020594,-7105.977043,-995.924147
3232.248730,0.000000,-7402.059420,-842.705048
3232.249057,0.000000,-8808.450710,153.219100
3232.249385,1406.391290,-9918.759623,2298.286494
3232.249712,2442.679609,-10881.027347,1838.629195
3232.250040,2368.659014,-9474.636058,76.609550
3232.250367,666.185348,-9252.574275,0.000000
3232.250695,-1258.350101,-8660.409521,0.000000
3232.251022,-1924.535449,-9178.553681,76.609550
3232.251350,-1258.350101,-10436.903782,-383.047749
3232.251677,-1110.308913,-9770.718434,-612.876398
3232.252004,-296.082377,-7846.182985,306.438199
3232.252332,666.185348,-8216.285956,76.609550
3232.252659,-518.144159,-9252.574275,306.438199
3232.252987,-1110.308913,-10658.965565,-229.828649
3232.253314,-1332.370696,-10510.924376,-2068.457845
3232.253642,592.164754,-9918.759623,-2681.334243
3232.253969,1406.391290,-9992.780217,-1072.533697
3232.254297,1110.308913,-11843.295072,1608.800546
3232.254624,1480.411884,-12213.398043,2451.505594
3232.254952,2294.638420,-11029.068536,-689.485948
3232.255279,296.082377,-9548.656652,-2298.286494
3232.255607,-1702.473667,-9030.512492,-1149.143247
3232.255934,-1850.514855,-7994.224174,-842.705048
3232.256261,-1036.288319,-7698.141797,0.000000
3232.256589,370.102971,-9104.533087,-612.876398
3232.256916,0.000000,-10140.821405,0.000000
3232.257244,1332.370696,-10362.883188,842.705048
3232.257571,2960.823768,-11399.171507,0.000000
3232.257899,1480.411884,-12287.418637,-153.219100
3232.258226,666.185348,-11325.150913,-1302.362347
3232.258554,-962.267725,-9770.718434,-2681.334243
3232.258881,-1628.453072,-9548.656652,-689.485948
3232.259209,-962.267725,-7994.224174,0.000000
3232.259536,-1184.329507,-7328.038826,995.924147
3232.259864,-518.144159,-8882.471304,1608.800546
3232.260191,-296.082377,-8956.491898,-383.047749
3232.260518,-814.226536,-8438.347739,-995.924147
3232.260846,-814.226536,-7772.162391,612.876398
3232.261173,666.185348,-8364.327145,229.828649
3232.261501,1628.453072,-9474.636058,842.705048
3232.261828,1702.473667,-10881.027347,1302.362347
3232.262156,1628.453072,-10510.924376,459.657299
3232.262483,2072.576638,-9918.759623,459.657299
3232.262811,1258.350101,-10362.883188,153.219100
3232.263138,-296.082377,-9622.677246,1225.752797
3232.263466,-1110.308913,-7920.203579,766.095498
3232.263793,-222.061783,-9770.718434,-1455.581446
3232.264121,-1332.370696,-10807.006753,-842.705048
3232.264448,-518.144159,-9104.533087,-995.924147
3232.264776,-740.205942,-7550.100608,-1072.533697
3232.265103,-814.226536,-9844.739029,536.266849
3232.265430,1406.391290,-11473.192101,-383.047749
3232.265758,814.226536,-11029.068536,-842.705048
3232.266085,2146.597232,-9622.677246,-306.438199
3232.266413,3478.967927,-9178.553681,-842.705048
3232.266740,666.185348,-9622.677246,1838.629195
3232.267068,-1480.411884,-10436.903782,2681.334243
3232.267395,-1258.350101,-10362.883188,-1225.752797
3232.267723,-962.267725,-9844.739029,-3524.039291
3232.268050,222.061783,-10436.903782,-3524.039291
3232.268378,518.144159,-11029.068536,-1149.143247
3232.268705,0.000000,-11029.068536,2374.896044
3232.269033,370.102971,-10140.821405,995.924147
3232.269360,148.041188,-9844.739029,-766.095498
3232.269687,-592.164754,-8290.306550,-1072.533697
3232.270015,148.041188,-5847.626942,-1378.971896
3232.270342,0.000000,-6809.894666,919.314598
3232.270670,444.123565,-10066.800811,2298.286494
3232.270997,-222.061783,-10066.800811,1915.238745
3232.271325,0.000000,-9622.677246,1455.581446
3232.271652,888.247130,-9918.759623,-1225.752797
3232.271980,-296.082377,-10807.006753,-1302.362347
3232.272307,-1480.411884,-10955.047942,-919.314598
3232.272635,-296.082377,-9696.697840,-1838.629195
3232.272962,370.102971,-9918.759623,-1532.190996
3232.273290,2146.597232,-7846.182985,306.438199
3232.273617,2516.700203,-7031.956449,2528.115143
3232.273944,2516.700203,-8438.347739,4826.401637
3232.274272,2294.638420,-7624.121203,2451.505594
3232.274599,-296.082377,-8586.388927,-536.266849
3232.274927,-2442.679609,-9548.656652,-1072.533697
3232.275254,-1850.514855,-8660.409521,-3370.820191
3232.275582,-592.164754,-10436.903782,-2145.067394
3232.275909,74.020594,-12361.439231,0.000000
3232.276237,888.247130,-13323.706956,-842.705048
3232.276564,2516.700203,-12509.480420,-1608.800546
3232.276892,3330.926739,-10288.862594,-2298.286494
3232.277219,2442.679609,-9918.759623,-995.924147
3232.277547,370.102971,-10288.862594,1915.238745
3232.277874,740.205942,-9400.615463,1685.410096
3232.278201,1332.370696,-8068.244768,-306.438199
3232.278529,1776.494261,-7846.182985,-766.095498
3232.278856,0.000000,-8956.491898,842.705048
3232.279184,-222.061783,-10807.006753,1838.629195
3232.279511,444.123565,-11177.109724,-612.876398
3232.279836,-888.247130,-11769.274478,-3064.381992
3232.280164,-1184.329507,-10362.883188,-3294.210641
3232.280491,222.061783,-8882.471304,-3753.867940
3232.280819,592.164754,-10288.862594,-536.266849
3232.281146,1554.432478,-11177.109724,2681.334243
3232.281473,1628.453072,-10436.903782,1378.971896
3232.281801,0.000000,-8660.409521,1608.800546
3232.282128,-444.123565,-8512.368333,-842.705048
3232.282456,-2220.617826,-8142.265362,-1532.190996
3232.282783,-3404.947333,-7624.121203,0.000000
3232.283111,-2146.597232,-8068.244768,-766.095498
3232.283438,-1406.391290,-8142.265362,-2145.067394
3232.283765,-666.185348,-7772.162391,-1225.752797
3232.284093,814.226536,-9474.636058,0.000000
3232.284420,1776.494261,-10658.965565,1455.581446
3232.284748,2220.617826,-9992.780217,2374.896044
3232.285075,1406.391290,-10510.924376,1225.752797
3232.285402,0.000000,-9844.739029,536.266849
3232.285730,222.061783,-8586.388927,-536.266849
3232.286057,-296.082377,-10436.903782,-459.657299
3232.286385,-1628.453072,-10955.047942,229.828649
3232.286712,-2072.576638,-10362.883188,-612.876398
3232.287040,-1850.514855,-9400.615463,-2221.676944
3232.287367,-518.144159,-8882.471304,-2987.772442
3232.287694,-222.061783,-9992.780217,-1991.848295
3232.288022,444.123565,-9326.594869,0.000000
3232.288349,2294.638420,-8290.306550,2451.505594
3232.288677,1628.453072,-9770.718434,2528.115143
3232.289004,1036.288319,-10584.944971,1532.190996
3232.289331,444.123565,-10214.842000,0.000000
3232.289659,-296.082377,-11251.130318,-1225.752797
3232.289986,296.082377,-11991.336260,-1685.410096
3232.290314,-518.144159,-11843.295072,-1915.238745
3232.290641,-962.267725,-10214.842000,-459.657299
3232.290969,1110.308913,-9622.677246,-1302.362347
3232.291296,1036.288319,-9326.594869,-1838.629195
3232.291623,518.144159,-9400.615463,229.828649
3232.291951,962.267725,-7772.162391,919.314598
3232.292278,1776.494261,-6587.832884,995.924147
3232.292606,1036.288319,-6291.750507,1838.629195
3232.292933,740.205942,-7994.224174,2068.457845
3232.293261,1332.370696,-9326.594869,2068.457845
3232.293588,2960.823768,-10807.006753,536.266849
3232.293915,1554.432478,-12731.542202,-1378.971896
3232.294243,148.041188,-12139.377449,-1378.971896
3232.294570,-148.041188,-9252.574275,-2451.505594
3232.294898,-444.123565,-8290.306550,-2451.505594
3232.295225,740.205942,-9252.574275,-383.047749
3232.295552,2368.659014,-9844.739029,1302.362347
3232.295880,3404.947333,-9622.677246,2681.334243
3232.296207,4441.235652,-7328.038826,2451.505594
3232.296535,1332.370696,-7550.100608,1991.848295
3232.296862,-2664.741391,-9178.553681,2145.067394
3232.297190,-2294.638420,-9326.594869,0.000000
3232.297517,-962.267725,-9474.636058,-3753.867940
3232.297844,-518.144159,-9474.636058,-2987.772442
3232.298172,74.020594,-11177.109724,-1915.238745
3232.298499,74.020594,-11917.315666,153.219100
3232.298827,1924.535449,-11473.192101,383.047749
3232.299154,1702.473667,-11843.295072,-919.314598
3232.299482,-370.102971,-10732.986159,-612.876398
3232.299809,-740.205942,-9326.594869,-1302.362347
3232.300136,-370.102971,-8438.347739,-1455.581446
3232.300464,-296.082377,-8586.388927,0.000000
3232.300791,-888.247130,-10881.027347,1838.629195
3232.301119,-740.205942,-10658.965565,1225.752797
3232.301446,666.185348,-8142.265362,-1685.410096
3232.301773,518.144159,-9326.594869,-2911.162892
3232.302101,-1110.308913,-9844.739029,-536.266849
3232.302428,-296.082377,-9770.718434,689.485948
3232.302756,-592.164754,-9548.656652,-229.828649
3232.303083,-740.205942,-8882.471304,459.657299
3232.303411,814.226536,-10510.924376,1072.533697
3232.303738,592.164754,-12065.356855,1455.581446
3232.304065,444.123565,-11177.109724,766.095498
3232.304393,444.123565,-10658.965565,-1608.800546
3232.304720,-1998.556043,-9548.656652,-2604.724693
3232.305048,-2294.638420,-8808.450710,-1762.019645
3232.305375,-2294.638420,-6217.729913,-766.095498
3232.305703,-1110.308913,-5625.565159,76.609550
3232.306030,1110.308913,-8882.471304,153.219100
3232.306357,1628.453072,-10881.027347,229.828649
3232.306685,1776.494261,-8956.491898,1225.752797
3232.307012,1776.494261,-9252.574275,1149.143247
3232.307340,1110.308913,-10732.986159,1532.190996
3232.307667,296.082377,-11695.253884,459.657299
3232.307994,0.000000,-11843.295072,-2068.457845
3232.308322,-296.082377,-10807.006753,-1991.848295
3232.308649,296.082377,-9474.636058,-2221.676944
3232.308977,-666.185348,-9178.553681,0.000000
3232.309304,-444.123565,-9326.594869,1302.362347
3232.309632,1110.308913,-9400.615463,-306.438199
3232.309959,1554.432478,-9622.677246,-1072.533697
3232.310286,2220.617826,-8882.471304,-995.924147
3232.310614,1406.391290,-7994.224174,76.609550
3232.310941,666.185348,-9474.636058,2145.067394
3232.311269,444.123565,-11177.109724,1149.143247
3232.311596,-296.082377,-11843.295072,-459.657299
3232.311924,0.000000,-11029.068536,-1915.238745
3232.312251,1554.432478,-10066.800811,-2451.505594
3232.312578,814.226536,-10584.944971,-612.876398
3232.312906,444.123565,-10288.862594,1532.190996
3232.313233,1776.494261,-9992.780217,306.438199
3232.313561,888.247130,-10066.800811,-229.828649
3232.313888,666.185348,-8216.285956,0.000000
3232.314215,74.020594,-6957.935855,459.657299
3232.314543,222.061783,-7402.059420,1225.752797
3232.314870,888.247130,-9474.636058,1378.971896
3232.315198,0.000000,-10658.965565,1149.143247
3232.315525,1258.350101,-9326.594869,536.266849
3232.315853,2072.576638,-9326.594869,-995.924147
3232.316180,148.041188,-9474.636058,-689.485948
3232.316507,0.000000,-10066.800811,-306.438199
3232.316835,740.205942,-9622.677246,-1915.238745
3232.317162,148.041188,-9326.594869,-1455.581446
3232.317490,1184.329507,-9770.718434,306.438199
3232.317817,2220.617826,-9030.512492,1685.410096
3232.318145,2072.576638,-9844.739029,2987.772442
3232.318472,2072.576638,-9622.677246,1225.752797
3232.318799,-1850.514855,-9104.533087,-536.266849
3232.319127,-3108.864956,-8956.491898,-2145.067394
3232.319454,-2442.679609,-9030.512492,-3294.210641
3232.319782,-1110.308913,-9400.615463,-2145.067394
3232.320109,-296.082377,-9918.759623,536.266849
3232.320436,666.185348,-11251.130318,1378.971896
3232.320764,1776.494261,-10732.986159,995.924147
3232.321091,1406.391290,-10510.924376,-2068.457845
3232.321419,-592.164754,-10881.027347,-1608.800546
3232.321746,-1776.494261,-10436.903782,-689.485948
3232.322074,-1184.329507,-10510.924376,-1225.752797
3232.322401,-222.061783,-9474.636058,-612.876398
3232.322728,74.020594,-8734.430116,0.000000
3232.323056,518.144159,-9474.636058,1072.533697
3232.323383,222.061783,-8956.491898,2068.457845
3232.323711,1628.453072,-9030.512492,-459.657299
3232.324038,370.102971,-9104.533087,-1991.848295
3232.324366,-888.247130,-8660.409521,-1225.752797
3232.324693,0.000000,-8734.430116,-1072.533697
3232.325020,-296.082377,-9326.594869,459.657299
3232.325348,444.123565,-11399.171507,1455.581446
3232.325675,962.267725,-12435.459826,766.095498
3232.326003,962.267725,-11325.150913,-306.438199
3232.326330,1332.370696,-9918.759623,-2298.286494
3232.326657,-148.041188,-9474.636058,-1991.848295
3232.326985,-1554.432478,-8364.327145,689.485948
3232.327312,-592.164754,-6809.894666,536.266849
3232.327640,0.000000,-7105.977043,0.000000
3232.327967,518.144159,-7254.018232,689.485948
3232.328295,888.247130,-9326.594869,229.828649
3232.328622,1850.514855,-10955.047942,229.828649
3232.328949,1850.514855,-12287.418637,153.219100
3232.329277,1110.308913,-12583.501014,229.828649
3232.329604,-740.205942,-10066.800811,-153.219100
3232.329932,148.041188,-10658.965565,-1225.752797
3232.330259,592.164754,-9844.739029,-2145.067394
3232.330587,222.061783,-8882.471304,0.000000
3232.330914,1110.308913,-10436.903782,536.266849
3232.331241,296.082377,-9622.677246,766.095498
3232.331569,222.061783,-8882.471304,153.219100
3232.331896,-222.061783,-8068.244768,-459.657299
3232.332224,-962.267725,-9770.718434,0.000000
3232.332551,1184.329507,-9918.759623,-1225.752797
3232.332878,0.000000,-8586.388927,-306.438199
3232.333206,-592.164754,-10288.862594,1225.752797
3232.333533,1184.329507,-11325.150913,-306.438199
3232.333861,666.185348,-9770.718434,-689.485948
3232.334188,1480.411884,-9844.739029,0.000000
3232.334516,518.144159,-10140.821405,-153.219100
3232.334843,-1110.308913,-10140.821405,306.438199
3232.335170,-296.082377,-8216.285956,0.000000
3232.335498,740.205942,-8364.327145,-1532.190996
3232.335825,74.020594,-9622.677246,306.438199
3232.336153,-814.226536,-10066.800811,1072.533697
3232.336480,0.000000,-8586.388927,0.000000
3232.336808,296.082377,-7476.080014,76.609550
3232.337135,222.061783,-8660.409521,-536.266849
3232.337462,296.082377,-9696.697840,383.047749
3232.337790,1258.350101,-10584.944971,1685.410096
3232.338117,1776.494261,-10436.903782,306.438199
3232.338445,1406.391290,-10214.842000,153.219100
3232.338772,888.247130,-10881.027347,-766.095498
3232.339099,-740.205942,-9770.718434,-536.266849
3232.339427,-666.185348,-9696.697840,-842.705048
3232.339754,-222.061783,-10288.862594,-842.705048
3232.340082,0.000000,-9770.718434,-306.438199
3232.340409,1406.391290,-9030.512492,612.876398
3232.340737,1332.370696,-7994.224174,153.219100
3232.341064,74.020594,-8364.327145,612.876398
3232.341391,-592.164754,-9400.615463,459.657299
3232.341719,0.000000,-9178.553681,-1225.752797
3232.342046,0.000000,-9696.697840,-612.876398
3232.342374,148.041188,-10881.027347,-229.828649
3232.342701,-888.247130,-10732.986159,76.609550
3232.343029,-444.123565,-10881.027347,-459.657299
3232.343356,666.185348,-11473.192101,-2145.067394
3232.343683,-814.226536,-10584.944971,-1455.581446
3232.344011,0.000000,-9770.718434,-689.485948
3232.344338,74.020594,-8438.347739,-842.705048
3232.344666,592.164754,-8882.471304,536.266849
3232.344993,888.247130,-9326.594869,919.314598
3232.345320,518.144159,-9622.677246,1455.581446
3232.345648,518.144159,-8734.430116,1072.533697
3232.345975,1258.350101,-8734.430116,-1838.629195
3232.346303,-666.185348,-9622.677246,-1532.190996
3232.346630,-740.205942,-10214.842000,-995.924147
3232.346958,-1184.329507,-10288.862594,-1225.752797
3232.347285,-888.247130,-10732.986159,-612.876398
3232.347612,148.041188,-9992.780217,-306.438199
3232.347940,1110.308913,-10214.842000,0.000000
3232.348267,1258.350101,-10732.986159,612.876398
3232.348595,2294.638420,-11103.089130,842.705048
3232.348922,814.226536,-9400.615463,76.609550
3232.349250,-148.041188,-7920.203579,-306.438199
3232.349577,-1332.370696,-8290.306550,-766.095498
3232.349904,-1924.535449,-8068.244768,0.000000
3232.350232,0.000000,-9030.512492,-919.314598
3232.350559,-148.041188,-10732.986159,-995.924147
3232.350887,592.164754,-10362.883188,-919.314598
3232.351214,1184.329507,-9474.636058,-1072.533697
3232.351541,888.247130,-10436.903782,0.000000
3232.351869,592.164754,-11621.233289,1149.143247
3232.352196,740.205942,-10362.883188,-153.219100
3232.352524,888.247130,-8882.471304,-1072.533697
3232.352851,1332.370696,-9400.615463,-1149.143247
3232.353179,0.000000,-8216.285956,0.000000
3232.353506,-740.205942,-8586.388927,1762.019645
3232.353833,148.041188,-10288.862594,766.095498
3232.354161,222.061783,-10066.800811,-1225.752797
3232.354488,888.247130,-8882.471304,-1915.238745
3232.354816,-296.082377,-7328.038826,-689.485948
3232.355143,-1110.308913,-8734.430116,1149.143247
3232.355471,0.000000,-11325.150913,1455.581446
3232.355798,148.041188,-10955.047942,-306.438199
3232.356125,1184.329507,-9992.780217,-1378.971896
3232.356453,2368.659014,-10288.862594,-1838.629195
3232.356780,740.205942,-11769.274478,459.657299
3232.357108,-222.061783,-10881.027347,2681.334243
3232.357435,666.185348,-9400.615463,-383.047749
3232.357762,-444.123565,-9030.512492,-1991.848295
3232.358090,-518.144159,-8512.368333,-1762.019645
3232.358417,-444.123565,-7179.997637,-1302.362347
3232.358745,0.000000,-7920.203579,459.657299
3232.359072,1480.411884,-9992.780217,1532.190996
3232.359400,1554.432478,-9992.780217,612.876398
3232.359727,2220.617826,-9252.574275,842.705048
3232.360054,2220.617826,-9918.759623,0.000000
3232.360382,814.226536,-10436.903782,76.609550
3232.360709,222.061783,-11251.130318,-306.438199
3232.361037,0.000000,-11621.233289,-1532.190996
3232.361364,-666.185348,-8956.491898,-1455.581446
3232.361691,518.144159,-7698.141797,-1302.362347
3232.362019,1332.370696,-9252.574275,0.000000
3232.362346,1184.329507,-10140.821405,2145.067394
3232.362674,2146.597232,-9696.697840,1302.362347
3232.363001,518.144159,-7994.224174,76.609550
3232.363329,-1184.329507,-8216.285956,0.000000
3232.363656,-1554.432478,-8882.471304,-1072.533697
3232.363983,-1184.329507,-9030.512492,306.438199
3232.364311,74.020594,-11325.150913,995.924147
3232.364638,444.123565,-11621.233289,-919.314598
3232.364966,148.041188,-10732.986159,-1072.533697
3232.365293,296.082377,-9622.677246,-1608.800546
3232.365621,296.082377,-10288.862594,-1072.533697
3232.365948,-666.185348,-9326.594869,306.438199
3232.366275,-444.123565,-8734.430116,-919.314598
3232.366603,444.123565,-9104.533087,0.000000
3232.366930,1628.453072,-10658.965565,229.828649
3232.367258,814.226536,-10362.883188,1455.581446
3232.367585,0.000000,-9474.636058,2451.505594
3232.367912,666.185348,-10658.965565,-383.047749
3232.368240,0.000000,-10584.944971,-3370.820191
3232.368567,-666.185348,-8808.450710,-2757.943793
3232.368895,-666.185348,-7846.182985,-1762.019645
3232.369222,74.020594,-9474.636058,-612.876398
3232.369550,814.226536,-11029.068536,1838.629195
3232.369877,1110.308913,-10510.924376,1225.752797
3232.370204,1110.308913,-10140.821405,995.924147
3232.370532,2220.617826,-11843.295072,0.000000
3232.370859,888.247130,-10658.965565,-919.314598
3232.371187,-370.102971,-8068.244768,-1378.971896
3232.371514,-1036.288319,-8660.409521,-1455.581446
3232.371842,-1702.473667,-9252.574275,-1608.800546
3232.372169,-666.185348,-7846.182985,-766.095498
3232.372496,444.123565,-7772.162391,-689.485948
3232.372824,-444.123565,-8808.450710,1149.143247
3232.373151,1480.411884,-11103.089130,766.095498
3232.373479,1776.494261,-11251.130318,-766.095498
3232.373806,1184.329507,-10658.965565,383.047749
3232.374133,1258.350101,-10807.006753,0.000000
3232.374461,592.164754,-9992.780217,153.219100
3232.374788,222.061783,-10658.965565,306.438199
3232.375116,370.102971,-11547.212695,-306.438199
3232.375443,222.061783,-8956.491898,-1225.752797
3232.375771,370.102971,-8364.327145,-1149.143247
3232.376098,-518.144159,-7772.162391,-995.924147
3232.376425,-296.082377,-8808.450710,229.828649
3232.376753,1628.453072,-8586.388927,76.609550
3232.377080,888.247130,-8068.244768,612.876398
3232.377408,-444.123565,-8882.471304,2528.115143
3232.377735,0.000000,-10140.821405,383.047749
3232.378063,-740.205942,-11547.212695,-153.219100
3232.378390,-296.082377,-11695.253884,-459.657299
3232.378717,1406.391290,-11473.192101,-2834.553343
3232.379045,296.082377,-11029.068536,-1455.581446
3232.379372,-222.061783,-9696.697840,383.047749
3232.379700,666.185348,-8068.244768,0.000000
3232.380027,1406.391290,-7994.224174,76.609550
3232.380354,666.185348,-8364.327145,-536.266849
3232.380682,-222.061783,-7698.141797,0.000000
3232.381009,0.000000,-7772.162391,766.095498
3232.381337,370.102971,-9474.636058,766.095498
3232.381664,1036.288319,-10584.944971,1149.143247
3232.381992,1480.411884,-11399.171507,1072.533697
3232.382319,1702.473667,-11399.171507,-1225.752797
3232.382647,1332.370696,-11177.109724,-1532.190996
3232.382974,592.164754,-9474.636058,-1455.581446
3232.383302,0.000000,-8956.491898,-1302.362347
3232.383629,-518.144159,-9104.533087,536.266849
3232.383956,222.061783,-9474.636058,689.485948
3232.384284,222.061783,-8734.430116,1378.971896
3232.384611,1776.494261,-10288.862594,1915.238745
3232.384939,2294.638420,-9400.615463,-383.047749
3232.385266,1258.350101,-9178.553681,383.047749
3232.385594,-888.247130,-9474.636058,0.000000
3232.385921,-1924.535449,-9918.759623,-1685.410096
3232.386249,-1332.370696,-9548.656652,-1149.143247
3232.386576,296.082377,-9030.512492,-536.266849
3232.386904,0.000000,-8438.347739,0.000000
3232.387231,1110.308913,-10436.903782,1302.362347
3232.387558,1258.350101,-11251.130318,0.000000
3232.387886,0.000000,-10362.883188,0.000000
3232.388213,-666.185348,-9326.594869,-229.828649
3232.388541,-666.185348,-8660.409521,-1378.971896
3232.388868,-592.164754,-9178.553681,306.438199
3232.389196,888.247130,-10214.842000,689.485948
3232.389523,1036.288319,-10436.903782,0.000000
3232.389851,592.164754,-10066.800811,995.924147
3232.390178,1480.411884,-9326.594869,-1072.533697
3232.390506,444.123565,-9104.533087,-919.314598
3232.390833,0.000000,-9474.636058,-229.828649
3232.391161,-222.061783,-8438.347739,-1225.752797
3232.391488,-962.267725,-9474.636058,612.876398
3232.391815,222.061783,-10955.047942,0.000000
3232.392143,370.102971,-9696.697840,766.095498
3232.392470,444.123565,-12287.418637,1685.410096
3232.392798,518.144159,-12657.521608,-536.266849
3232.393125,0.000000,-10955.047942,-2757.943793
3232.393453,0.000000,-8660.409521,-3064.381992
3232.393780,-296.082377,-8068.244768,-2987.772442
3232.394108,-222.061783,-7254.018232,229.828649
3232.394435,740.205942,-8068.244768,2451.505594
3232.394763,592.164754,-8586.388927,1455.581446
3232.395090,814.226536,-9400.615463,1072.533697
3232.395417,666.185348,-9548.656652,-229.828649
3232.395745,370.102971,-11325.150913,153.219100
3232.396072,740.205942,-11769.274478,0.000000
3232.396400,888.247130,-11399.171507,-1608.800546
3232.396727,0.000000,-10510.924376,-1685.410096
3232.397055,74.020594,-10362.883188,-842.705048
3232.397382,814.226536,-8216.285956,-842.705048
3232.397710,1036.288319,-6735.874072,383.047749
3232.398037,74.020594,-8734.430116,1378.971896
3232.398365,222.061783,-8882.471304,919.314598
3232.398692,1036.288319,-7994.224174,-306.438199
3232.399020,-370.102971,-8364.327145,0.000000
3232.399347,-1924.535449,-8808.450710,842.705048
3232.399674,-888.247130,-11917.315666,-459.657299
3232.400002,-962.267725,-13545.768739,-2681.334243
3232.400329,74.020594,-11695.253884,-2681.334243
3232.400657,2294.638420,-9918.759623,-2451.505594
3232.400984,2590.720797,-10658.965565,-995.924147
3232.401312,1332.370696,-11991.336260,2911.162892
3232.401639,1258.350101,-9178.553681,1762.019645
3232.401967,296.082377,-7772.162391,-919.314598
3232.402294,-444.123565,-9474.636058,-1225.752797
3232.402622,-814.226536,-8068.244768,-766.095498
3232.402949,-962.267725,-7105.977043,689.485948
3232.403276,-222.061783,-9992.780217,1838.629195
3232.403604,0.000000,-11473.192101,1302.362347
3232.403931,1406.391290,-10807.006753,-612.876398
3232.404259,1776.494261,-9770.718434,-1991.848295
3232.404586,740.205942,-9992.780217,-1149.143247
3232.404914,814.226536,-9696.697840,306.438199
3232.405241,148.041188,-9178.553681,-612.876398
3232.405569,518.144159,-8882.471304,919.314598
3232.405896,1776.494261,-8290.306550,536.266849
3232.406224,0.000000,-8660.409521,1991.848295
3232.406551,592.164754,-9844.739029,2145.067394
3232.406879,1406.391290,-11843.295072,0.000000
3232.407206,518.144159,-10140.821405,-1685.410096
3232.407533,-962.267725,-8364.327145,-1762.019645
3232.407861,-2368.659014,-7254.018232,-1302.362347
3232.408188,-814.226536,-7698.141797,-536.266849
3232.408516,962.267725,-10140.821405,1532.190996
3232.408843,666.185348,-11547.212695,1455.581446
3232.409171,-518.144159,-9992.780217,612.876398
3232.409498,222.061783,-9622.677246,-766.095498
3232.409826,-592.164754,-9030.512492,-1762.019645
3232.410153,-1480.411884,-11769.274478,-229.828649
3232.410481,-962.267725,-11991.336260,-1378.971896
3232.410808,0.000000,-9622.677246,-2145.067394
3232.411135,1628.453072,-9992.780217,-2145.067394
3232.411463,1554.432478,-10288.862594,-689.485948
3232.411790,296.082377,-9770.718434,2987.772442
3232.412118,1702.473667,-10436.903782,2298.286494
3232.412445,1406.391290,-9252.574275,-1455.581446
3232.412773,518.144159,-9252.574275,-2451.505594
3232.413100,-222.061783,-7920.203579,-1225.752797
3232.413428,-222.061783,-7994.224174,-306.438199
3232.413755,222.061783,-11473.192101,1915.238745
3232.414083,666.185348,-13027.624579,842.705048
3232.414410,814.226536,-10436.903782,-1225.752797
3232.414738,1406.391290,-11325.150913,-2221.676944
3232.415065,1628.453072,-10066.800811,-2451.505594
3232.415392,1628.453072,-9326.594869,0.000000
3232.415720,1554.432478,-8808.450710,459.657299
3232.416047,148.041188,-7846.182985,383.047749
3232.416375,74.020594,-7772.162391,1762.019645
3232.416702,-222.061783,-7402.059420,459.657299
3232.417030,-962.267725,-8882.471304,612.876398
3232.417357,888.247130,-10955.047942,306.438199
3232.417685,74.020594,-11473.192101,-842.705048
3232.418012,-370.102971,-10362.883188,-842.705048
3232.418340,1110.308913,-10807.006753,-1608.800546
3232.418667,740.205942,-9992.780217,-1302.362347
3232.418994,1110.308913,-9326.594869,1225.752797
3232.419322,962.267725,-9178.553681,766.095498
3232.419649,740.205942,-9178.553681,766.095498
3232.419977,814.226536,-8660.409521,536.266849
3232.420304,222.061783,-9030.512492,229.828649
3232.420632,-1110.308913,-9400.615463,919.314598
3232.420959,-592.164754,-9992.780217,-689.485948
3232.421287,-1110.308913,-9030.512492,-1915.238745
3232.421614,-1702.473667,-8956.491898,-1762.019645
3232.421942,-888.247130,-9252.574275,-1302.362347
3232.422269,296.082377,-10362.883188,536.266849
3232.422597,2294.638420,-10436.903782,766.095498
3232.422924,1480.411884,-9844.739029,383.047749
3232.423251,-962.267725,-10436.903782,459.657299
3232.423579,-1628.453072,-11029.068536,-842.705048
3232.423906,-1850.514855,-9548.656652,-2451.505594
3232.424234,-666.185348,-8734.430116,-2068.457845
3232.424561,296.082377,-10362.883188,-1302.362347
3232.424889,148.041188,-10807.006753,306.438199
3232.425216,666.185348,-10658.965565,1455.581446
3232.425544,1258.350101,-10066.800811,-306.438199
3232.425871,888.247130,-10510.924376,-1302.362347
3232.426199,296.082377,-9992.780217,0.000000
3232.426526,-592.164754,-7698.141797,-229.828649
3232.426853,-296.082377,-7476.080014,-153.219100
3232.427181,74.020594,-9474.636058,459.657299
3232.427508,0.000000,-9696.697840,1455.581446
3232.427836,592.164754,-10288.862594,2298.286494
3232.428163,1036.288319,-10881.027347,-306.438199
3232.428491,-370.102971,-10214.842000,-1378.971896
3232.428818,222.061783,-9918.759623,-1072.533697
3232.429146,0.000000,-8882.471304,-1608.800546
3232.429473,1110.308913,-7994.224174,76.609550
3232.429801,2294.638420,-7550.100608,2374.896044
3232.430128,1554.432478,-8438.347739,3370.820191
3232.430456,1036.288319,-9252.574275,2834.553343
3232.430783,1776.494261,-9252.574275,689.485948
3232.431110,740.205942,-7698.141797,-995.924147
3232.431438,-1258.350101,-8290.306550,-766.095498
3232.431765,-3775.050304,-9918.759623,-1149.143247
3232.432093,-2812.782580,-10066.800811,-1685.410096
3232.432420,1110.308913,-9918.759623,-2911.162892
3232.432748,2072.576638,-11029.068536,-1608.800546
3232.433075,1702.473667,-11177.109724,1685.410096
3232.433403,2812.782580,-11399.171507,1991.848295
3232.433730,1850.514855,-10140.821405,306.438199
3232.434058,0.000000,-9548.656652,-383.047749
3232.434385,-1184.329507,-8586.388927,-1378.971896
3232.434712,-1184.329507,-7476.080014,-1532.190996
3232.435040,-222.061783,-10214.842000,229.828649
3232.435367,222.061783,-11399.171507,229.828649
3232.435695,518.144159,-11843.295072,0.000000
3232.436022,1184.329507,-12731.542202,-536.266849
3232.436350,1628.453072,-10436.903782,-2221.676944
3232.436677,1480.411884,-9844.739029,-1608.800546
3232.437005,888.247130,-10436.903782,-612.876398
3232.437332,1554.432478,-9474.636058,459.657299
3232.437660,2072.576638,-9178.553681,1378.971896
3232.437987,666.185348,-8364.327145,1685.410096
3232.438314,-148.041188,-9326.594869,2221.676944
3232.438642,0.000000,-10658.965565,306.438199
3232.438969,-962.267725,-10436.903782,-2221.676944
3232.439297,-1258.350101,-9696.697840,-2604.724693
3232.439624,-666.185348,-7624.121203,-2528.115143
3232.439952,-1036.288319,-7328.038826,0.000000
3232.440279,666.185348,-8734.430116,2451.505594
3232.440607,1184.329507,-9548.656652,2681.334243
3232.440934,740.205942,-8808.450710,2145.067394
3232.441262,444.123565,-9252.574275,1072.533697
3232.441589,0.000000,-8438.347739,-306.438199
3232.441917,-518.144159,-8586.388927,229.828649
3232.442244,-740.205942,-10436.903782,76.609550
3232.442571,-740.205942,-10362.883188,-1302.362347
3232.442899,-592.164754,-9252.574275,-1532.190996
3232.443226,74.020594,-8364.327145,-1762.019645
3232.443554,0.000000,-8438.347739,0.000000
3232.443881,962.267725,-10732.986159,689.485948
3232.444209,0.000000,-11547.212695,612.876398
3232.444536,-148.041188,-10732.986159,306.438199
3232.444864,1628.453072,-10214.842000,-1149.143247
3232.445191,1184.329507,-9696.697840,-1149.143247
3232.445519,-148.041188,-10584.944971,1455.581446
3232.445846,-1258.350101,-10214.842000,383.047749
3232.446173,-1258.350101,-10362.883188,-2068.457845
3232.446501,148.041188,-9992.780217,-3140.991542
3232.446828,666.185348,-9696.697840,-3600.648841
3232.447156,222.061783,-9326.594869,-306.438199
3232.447483,962.267725,-11991.336260,1532.190996
3232.447811,1480.411884,-11769.274478,76.609550
3232.448138,1628.453072,-9548.656652,-919.314598
3232.448466,814.226536,-9104.533087,-766.095498
3232.448793,518.144159,-8734.430116,1072.533697
3232.449121,0.000000,-9844.739029,1149.143247
3232.449448,-444.123565,-9622.677246,229.828649
3232.449776,-888.247130,-8586.388927,-536.266849
3232.450103,370.102971,-7698.141797,-842.705048
3232.450430,296.082377,-8808.450710,-306.438199
3232.450758,666.185348,-9992.780217,1378.971896
3232.451085,1480.411884,-10362.883188,689.485948
3232.451413,962.267725,-8882.471304,-689.485948
3232.451740,2072.576638,-8734.430116,-612.876398
3232.452068,1406.391290,-9474.636058,1225.752797
3232.452395,740.205942,-8586.388927,3217.601092
3232.452723,1258.350101,-10510.924376,3294.210641
3232.453050,1628.453072,-10732.986159,0.000000
3232.453378,1184.329507,-8512.368333,-2451.505594
3232.453705,-148.041188,-7994.224174,-1532.190996
3232.454032,-1480.411884,-9178.553681,-689.485948
3232.454360,-1702.473667,-10807.006753,0.000000
3232.454687,814.226536,-11103.089130,-766.095498
3232.455015,1628.453072,-10140.821405,-612.876398
3232.455342,2220.617826,-10732.986159,842.705048
3232.455670,1850.514855,-10140.821405,689.485948
3232.455997,666.185348,-9992.780217,153.219100
3232.456325,518.144159,-11103.089130,-459.657299
3232.456652,-1036.288319,-8956.491898,-2451.505594
3232.456980,-2294.638420,-7105.977043,-2068.457845
3232.457307,-1258.350101,-8290.306550,-1532.190996
3232.457635,0.000000,-10214.842000,-383.047749
3232.457962,222.061783,-12805.562797,1072.533697
3232.458289,444.123565,-12213.398043,-383.047749
3232.458617,888.247130,-9770.718434,-1838.629195
3232.458944,1998.556043,-11251.130318,-2604.724693
3232.459272,444.123565,-11251.130318,-995.924147
3232.459599,0.000000,-9104.533087,842.705048
3232.459927,148.041188,-8586.388927,-153.219100
3232.460254,-222.061783,-9474.636058,-306.438199
3232.460582,-370.102971,-9548.656652,0.000000
3232.460909,74.020594,-8364.327145,-766.095498
3232.461237,-666.185348,-8068.244768,0.000000
3232.461564,1406.391290,-10732.986159,-689.485948
3232.461891,296.082377,-9474.636058,-1378.971896
3232.462219,-370.102971,-9030.512492,383.047749
3232.462546,-148.041188,-9918.759623,1455.581446
3232.462874,222.061783,-9622.677246,766.095498
3232.463201,0.000000,-10436.903782,1225.752797
3232.463529,74.020594,-10881.027347,0.000000
3232.463856,0.000000,-8882.471304,-995.924147
3232.464184,296.082377,-8660.409521,-842.705048
3232.464511,-1036.288319,-8512.368333,0.000000
3232.464839,-1036.288319,-7994.224174,766.095498
3232.465166,0.000000,-7105.977043,76.609550
3232.465494,-370.102971,-8142.265362,229.828649
3232.465821,0.000000,-10214.842000,536.266849
3232.466148,296.082377,-11843.295072,-383.047749
3232.466476,-222.061783,-10881.027347,383.047749
3232.466803,0.000000,-10955.047942,0.000000
3232.467131,-296.082377,-11473.192101,-766.095498
3232.467458,-814.226536,-10658.965565,-229.828649
3232.467786,592.164754,-8734.430116,-1072.533697
3232.468113,592.164754,-7105.977043,-919.314598
3232.468441,-148.041188,-8956.491898,1532.190996
3232.468768,-222.061783,-9992.780217,919.314598
3232.469096,-740.205942,-9474.636058,-919.314598
3232.469423,-370.102971,-10584.944971,-1225.752797
3232.469750,962.267725,-11547.212695,-3370.820191
3232.470078,518.144159,-9844.739029,-766.095498
3232.470405,1406.391290,-12213.398043,1225.752797
3232.470733,2146.597232,-11325.150913,0.000000
3232.471060,2590.720797,-10066.800811,-612.876398
3232.471388,1998.556043,-10436.903782,-306.438199
3232.471715,888.247130,-7402.059420,229.828649
3232.472043,1110.308913,-6291.750507,0.000000
3232.472370,222.061783,-7994.224174,1149.143247
3232.472698,-592.164754,-9252.574275,1302.362347
3232.473025,222.061783,-9696.697840,919.314598
3232.473353,888.247130,-9104.533087,-766.095498
3232.473680,666.185348,-9918.759623,0.000000
3232.474007,1184.329507,-11103.089130,0.000000
3232.474335,296.082377,-9104.533087,-306.438199
3232.474662,444.123565,-9104.533087,0.000000
3232.474990,740.205942,-8512.368333,-229.828649
3232.475317,518.144159,-7846.182985,306.438199
3232.475645,444.123565,-8438.347739,1991.848295
3232.475972,888.247130,-9696.697840,1072.533697
3232.476300,666.185348,-9400.615463,0.000000
3232.476627,740.205942,-10066.800811,0.000000
3232.476955,-2146.597232,-9992.780217,-536.266849
3232.477282,-1110.308913,-10214.842000,-306.438199
3232.477609,1110.308913,-11103.089130,-2374.896044
3232.477937,1036.288319,-10584.944971,-2298.286494
3232.478264,666.185348,-11473.192101,0.000000
3232.478592,1110.308913,-9548.656652,0.000000
3232.478919,2368.659014,-8142.265362,0.000000
3232.479247,1702.473667,-10066.800811,536.266849
3232.479574,-1036.288319,-9770.718434,0.000000
3232.479902,-1776.494261,-9622.677246,0.000000
3232.480229,222.061783,-9918.759623,-1455.581446
3232.480557,0.000000,-9918.759623,-1685.410096
3232.480884,0.000000,-12361.439231,536.266849
3232.481212,1258.350101,-13249.686362,536.266849
3232.481540,1480.411884,-9918.759623,-1685.410096
3232.481867,592.164754,-9030.512492,-2145.067394
3232.482195,-1258.350101,-7550.100608,-1532.190996
3232.482522,-1258.350101,-6513.812290,76.609550
3232.482850,0.000000,-7624.121203,995.924147
3232.483177,222.061783,-8660.409521,1072.533697
3232.483505,666.185348,-9030.512492,1072.533697
3232.483832,1184.329507,-10658.965565,612.876398
3232.484160,-370.102971,-10362.883188,-536.266849
3232.484487,-814.226536,-10955.047942,-766.095498
3232.484815,-888.247130,-10658.965565,-2068.457845
3232.485142,-1332.370696,-10140.821405,-995.924147
3232.485470,296.082377,-9696.697840,-306.438199
3232.485797,962.267725,-8142.265362,0.000000
3232.486125,666.185348,-8142.265362,2374.896044
3232.486453,814.226536,-8734.430116,1991.848295
3232.486780,-888.247130,-8438.347739,919.314598
3232.487108,-444.123565,-7846.182985,-689.485948
3232.487435,-518.144159,-8068.244768,-1149.143247
3232.487763,-666.185348,-11103.089130,-766.095498
3232.488090,0.000000,-13471.748144,536.266849
3232.488418,148.041188,-11991.336260,-536.266849
3232.488745,962.267725,-10288.862594,-1608.800546
3232.489073,740.205942,-11325.150913,-1685.410096
3232.489400,1184.329507,-10658.965565,-842.705048
3232.489728,1702.473667,-8660.409521,229.828649
3232.490055,666.185348,-8290.306550,1378.971896
3232.490383,-1184.329507,-9326.594869,1762.019645
3232.490710,-962.267725,-8956.491898,536.266849
3232.491038,-1332.370696,-7920.203579,-1762.019645
3232.491366,-1036.288319,-8364.327145,-1532.190996
3232.491693,0.000000,-11695.253884,-1302.362347
3232.492021,592.164754,-12509.480420,-919.314598
3232.492348,1554.432478,-11473.192101,-306.438199
3232.492676,2516.700203,-9030.512492,-1225.752797
3232.493003,1924.535449,-9252.574275,-1072.533697
3232.493331,962.267725,-10732.986159,1378.971896
3232.493658,0.000000,-8364.327145,536.266849
3232.493986,148.041188,-6587.832884,0.000000
3232.494313,444.123565,-8216.285956,459.657299
3232.494641,-296.082377,-9400.615463,1532.190996
3232.494968,740.205942,-10362.883188,1685.410096
3232.495296,814.226536,-11843.295072,0.000000
3232.495624,74.020594,-10140.821405,-2451.505594
3232.495951,-222.061783,-9030.512492,-2451.505594
3232.496279,222.061783,-7772.162391,-2145.067394
3232.496606,1184.329507,-8068.244768,612.876398
3232.496934,2220.617826,-10732.986159,2528.115143
3232.497261,1628.453072,-11029.068536,2298.286494
3232.497589,1110.308913,-9326.594869,1302.362347
3232.497916,1406.391290,-8512.368333,-766.095498
3232.498244,-1184.329507,-9400.615463,-919.314598
3232.498571,-2664.741391,-11843.295072,229.828649
3232.498899,-814.226536,-11029.068536,-1762.019645
3232.499226,814.226536,-8956.491898,-2604.724693
3232.499554,1480.411884,-10066.800811,-536.266849
3232.499881,222.061783,-10436.903782,1302.362347
3232.500209,148.041188,-9622.677246,1991.848295
3232.500537,2220.617826,-8808.450710,-612.876398
3232.500864,1036.288319,-9178.553681,-1225.752797
3232.501192,-814.226536,-8734.430116,229.828649
3232.501519,-666.185348,-7920.203579,919.314598
3232.501847,888.247130,-9104.533087,919.314598
3232.502174,1258.350101,-12657.521608,-536.266849
3232.502502,-296.082377,-13101.645173,153.219100
3232.502829,370.102971,-11473.192101,-612.876398
3232.503157,888.247130,-10140.821405,-2451.505594
3232.503484,0.000000,-9252.574275,-2834.553343
3232.503812,-1332.370696,-8364.327145,-766.095498
3232.504139,-1332.370696,-7920.203579,536.266849
3232.504467,-518.144159,-7476.080014,766.095498
3232.504794,962.267725,-8068.244768,766.095498
3232.505122,370.102971,-9178.553681,1455.581446
3232.505450,0.000000,-10362.883188,2068.457845
3232.505777,888.247130,-11621.233289,689.485948
3232.506105,518.144159,-11029.068536,-1915.238745
3232.506432,296.082377,-9844.739029,-1838.629195
3232.506760,-740.205942,-9326.594869,-1915.238745
3232.507087,-518.144159,-9178.553681,0.000000
3232.507415,222.061783,-10436.903782,842.705048
3232.507742,370.102971,-9474.636058,766.095498
3232.508070,74.020594,-8512.368333,383.047749
3232.508397,444.123565,-8882.471304,229.828649
3232.508725,-666.185348,-8586.388927,0.000000
3232.509052,-592.164754,-9030.512492,306.438199
3232.509380,-592.164754,-9844.739029,-459.657299
3232.509708,-888.247130,-9844.739029,-1838.629195
3232.510035,0.000000,-10140.821405,-1225.752797
3232.510363,296.082377,-9992.780217,-919.314598
3232.510690,592.164754,-10436.903782,-612.876398
3232.511018,1554.432478,-10955.047942,-306.438199
3232.511345,1776.494261,-10807.006753,-842.705048
3232.511673,962.267725,-9178.553681,383.047749
3232.512000,444.123565,-8882.471304,1455.581446
3232.512328,-370.102971,-8882.471304,1608.800546
3232.512655,-592.164754,-9622.677246,229.828649
3232.512983,-1258.350101,-10140.821405,-1072.533697
3232.513310,-296.082377,-8586.388927,-2221.676944
3232.513638,1702.473667,-9474.636058,-1762.019645
3232.513965,1702.473667,-10807.006753,-536.266849
3232.514293,740.205942,-9844.739029,1378.971896
3232.514621,1998.556043,-10066.800811,153.219100
3232.514948,1850.514855,-10510.924376,-766.095498
3232.515276,1258.350101,-9770.718434,-536.266849
3232.515603,1036.288319,-8882.471304,229.828649
3232.515931,444.123565,-7846.182985,689.485948
3232.516258,814.226536,-8882.471304,2068.457845
3232.516586,888.247130,-11177.109724,1149.143247
3232.516913,0.000000,-10436.903782,0.000000
3232.517241,444.123565,-9474.636058,-1455.581446
3232.517568,518.144159,-8364.327145,-2451.505594
3232.517896,0.000000,-7624.121203,-612.876398
3232.518223,148.041188,-8290.306550,459.657299
3232.518551,592.164754,-8586.388927,1149.143247
3232.518878,1628.453072,-9622.677246,1302.362347
3232.519206,1406.391290,-10732.986159,689.485948
3232.519534,1258.350101,-9770.718434,0.000000
3232.519861,444.123565,-10066.800811,0.000000
3232.520189,-1110.308913,-11029.068536,-1072.533697
3232.520516,-1480.411884,-10881.027347,-995.924147
3232.520844,-148.041188,-10214.842000,-2298.286494
3232.521171,1258.350101,-9400.615463,-1762.019645
3232.521499,1110.308913,-9770.718434,1149.143247
3232.521826,814.226536,-11177.109724,1685.410096
3232.522154,296.082377,-9548.656652,0.000000
3232.522481,74.020594,-8290.306550,-1378.971896
3232.522809,-370.102971,-8438.347739,-1149.143247
3232.523136,-1480.411884,-9104.533087,689.485948
3232.523464,-888.247130,-9474.636058,536.266849
3232.523792,0.000000,-10807.006753,-1149.143247
3232.524119,444.123565,-11177.109724,-612.876398
3232.524447,814.226536,-11621.233289,-459.657299
3232.524774,888.247130,-10732.986159,0.000000
3232.525102,666.185348,-9992.780217,0.000000
3232.525429,-222.061783,-8734.430116,-612.876398
3232.525757,-1480.411884,-7846.182985,-842.705048
3232.526084,-888.247130,-7624.121203,-536.266849
3232.526412,-962.267725,-8660.409521,-229.828649
3232.526739,-740.205942,-9252.574275,1762.019645
3232.527067,-370.102971,-10140.821405,1072.533697
3232.527394,962.267725,-10066.800811,-1302.362347
3232.527722,296.082377,-9992.780217,-1455.581446
3232.528049,0.000000,-9400.615463,-1225.752797
3232.528377,518.144159,-8512.368333,-459.657299
3232.528705,814.226536,-9474.636058,1072.533697
3232.529032,0.000000,-9696.697840,459.657299
3232.529360,148.041188,-10881.027347,536.266849
3232.529687,740.205942,-10362.883188,229.828649
3232.530015,222.061783,-8586.388927,-229.828649
3232.530342,148.041188,-9474.636058,0.000000
3232.530670,222.061783,-10807.006753,-536.266849
3232.530997,-666.185348,-10214.842000,-919.314598
3232.531325,0.000000,-9548.656652,-1149.143247
3232.531652,814.226536,-7402.059420,-842.705048
3232.531980,1998.556043,-8882.471304,1072.533697
3232.532307,1628.453072,-11029.068536,1532.190996
3232.532635,518.144159,-11473.192101,1378.971896
3232.532962,-222.061783,-9548.656652,0.000000
3232.533290,370.102971,-10140.821405,-1685.410096
3232.533618,444.123565,-10362.883188,-1762.019645
3232.533945,222.061783,-9252.574275,689.485948
3232.534273,-666.185348,-9400.615463,1378.971896
3232.534600,-370.102971,-9548.656652,0.000000
3232.534928,518.144159,-10140.821405,-2068.457845
3232.535255,0.000000,-7772.162391,-1685.410096
3232.535583,296.082377,-7105.977043,-306.438199
3232.535910,962.267725,-10362.883188,1378.971896
3232.536238,1480.411884,-11695.253884,1149.143247
3232.536565,1924.535449,-9844.739029,-229.828649
3232.536893,1924.535449,-9474.636058,-1532.190996
3232.537220,1036.288319,-9770.718434,229.828649
3232.537548,1184.329507,-10732.986159,766.095498
3232.537876,370.102971,-9992.780217,-536.266849
3232.538203,-518.144159,-9178.553681,-842.705048
3232.538531,-444.123565,-8956.491898,-383.047749
3232.538858,518.144159,-9326.594869,-306.438199
3232.539186,1110.308913,-9178.553681,0.000000
3232.539513,444.123565,-9844.739029,229.828649
3232.539841,148.041188,-9400.615463,-153.219100
3232.540168,592.164754,-8216.285956,-1225.752797
3232.540496,222.061783,-8660.409521,-612.876398
3232.540823,666.185348,-9770.718434,1455.581446
3232.541151,370.102971,-11843.295072,2374.896044
3232.541478,1332.370696,-11547.212695,306.438199
3232.541806,666.185348,-10288.862594,-1838.629195
3232.542133,-370.102971,-9474.636058,-2145.067394
3232.542461,-1776.494261,-8586.388927,-919.314598
3232.542789,-1258.350101,-9474.636058,-306.438199
3232.543116,74.020594,-10140.821405,-306.438199
3232.543444,444.123565,-9696.697840,0.000000
3232.543771,1110.308913,-9770.718434,1149.143247
3232.544099,222.061783,-9622.677246,1685.410096
3232.544426,0.000000,-9622.677246,1149.143247
3232.544754,370.102971,-11103.089130,-536.266849
3232.545081,-666.185348,-9474.636058,-2145.067394
3232.545409,-518.144159,-8068.244768,-2451.505594
3232.545736,0.000000,-8586.388927,-2528.115143
3232.546064,518.144159,-9548.656652,766.095498
3232.546391,444.123565,-10807.006753,2298.286494
3232.546719,888.247130,-10881.027347,1378.971896
3232.547046,740.205942,-9992.780217,229.828649
3232.547374,-222.061783,-10955.047942,76.609550
3232.547702,-592.164754,-8956.491898,0.000000
3232.548029,-592.164754,-7772.162391,-1302.362347
3232.548357,0.000000,-10214.842000,-1302.362347
3232.548684,-666.185348,-10658.965565,-229.828649
3232.549012,222.061783,-9548.656652,-229.828649
3232.549339,1332.370696,-8734.430116,-1149.143247
3232.549667,1924.535449,-9400.615463,-766.095498
3232.549994,888.247130,-11251.130318,1149.143247
3232.550322,740.205942,-9844.739029,842.705048
3232.550649,518.144159,-9030.512492,919.314598
3232.550977,370.102971,-9770.718434,229.828649
3232.551304,0.000000,-9474.636058,0.000000
3232.551632,-370.102971,-10807.006753,459.657299
3232.551960,-370.102971,-10584.944971,-612.876398
3232.552287,-444.123565,-9548.656652,-1532.190996
3232.552615,-148.041188,-9400.615463,-1225.752797
3232.552942,-370.102971,-7328.038826,-1302.362347
3232.553270,1258.350101,-8438.347739,0.000000
3232.553597,518.144159,-9918.759623,1455.581446
3232.553925,0.000000,-10436.903782,766.095498
3232.554252,222.061783,-9030.512492,153.219100
3232.554580,814.226536,-9622.677246,-689.485948
3232.554907,814.226536,-11103.089130,-689.485948
3232.555235,148.041188,-11547.212695,1455.581446
3232.555562,518.144159,-10955.047942,0.000000
3232.555890,1110.308913,-9992.780217,-2374.896044
3232.556217,370.102971,-9992.780217,-2451.505594
3232.556545,-814.226536,-7254.018232,76.609550
3232.556873,-1184.329507,-6587.832884,1532.190996
3232.557200,-1332.370696,-8142.265362,1149.143247
3232.557528,-740.205942,-9326.594869,-1072.533697
3232.557855,-222.061783,-9622.677246,-995.924147
3232.558183,888.247130,-9844.739029,-306.438199
3232.558510,1850.514855,-10881.027347,1149.143247
3232.558838,1480.411884,-12657.521608,1225.752797
3232.559165,888.247130,-11325.150913,-919.314598
3232.559493,1258.350101,-10510.924376,-2604.724693
3232.559820,1332.370696,-10288.862594,-2604.724693
3232.560148,592.164754,-8882.471304,-612.876398
3232.560475,370.102971,-7920.203579,689.485948
3232.560803,-370.102971,-9030.512492,1762.019645
3232.561130,-666.185348,-9104.533087,1838.629195
3232.561458,0.000000,-9622.677246,1072.533697
3232.561786,222.061783,-8956.491898,0.000000
3232.562113,518.144159,-8956.491898,-612.876398
3232.562441,370.102971,-10288.862594,-1149.143247
3232.562768,222.061783,-10807.006753,-1225.752797
3232.563096,1258.350101,-10510.924376,-1225.752797
3232.563423,2368.659014,-9548.656652,-1378.971896
3232.563751,1924.535449,-9252.574275,919.314598
3232.564078,1258.350101,-9474.636058,2757.943793
3232.564406,0.000000,-8512.368333,1302.362347
3232.564733,-518.144159,-9770.718434,229.828649
3232.565061,-1998.556043,-10066.800811,-766.095498
3232.565388,-2072.576638,-8734.430116,-1455.581446
3232.565716,-1036.288319,-8808.450710,-459.657299
3232.566044,888.247130,-9622.677246,-612.876398
3232.566371,666.185348,-10807.006753,-306.438199
3232.566699,1702.473667,-10881.027347,0.000000
3232.567026,740.205942,-9622.677246,-383.047749
3232.567354,1036.288319,-8882.471304,306.438199
3232.567681,1036.288319,-8734.430116,0.000000
3232.568009,0.000000,-9844.739029,919.314598
3232.568336,-592.164754,-9548.656652,1532.190996
3232.568664,666.185348,-9770.718434,383.047749
3232.568991,666.185348,-11103.089130,459.657299
3232.569319,370.102971,-11399.171507,612.876398
3232.569646,0.000000,-11251.130318,-459.657299
3232.569974,-592.164754,-9104.533087,-2221.676944
3232.570301,-962.267725,-8734.430116,-3217.601092
3232.570629,-1554.432478,-8438.347739,-2604.724693
3232.570957,888.247130,-7698.141797,-612.876398
3232.571284,1184.329507,-8808.450710,1378.971896
3232.571612,1480.411884,-10436.903782,1685.410096
3232.571939,1628.453072,-11621.233289,766.095498
3232.572267,888.247130,-11251.130318,0.000000
3232.572594,148.041188,-9474.636058,0.000000
3232.572922,148.041188,-9548.656652,153.219100
3232.573249,-962.267725,-10436.903782,1225.752797
3232.573577,-962.267725,-9992.780217,-459.657299
3232.573904,-592.164754,-9252.574275,-2374.896044
3232.574232,-444.123565,-9474.636058,-2374.896044
3232.574559,0.000000,-7846.182985,-689.485948
3232.574887,444.123565,-8512.368333,612.876398
3232.575214,0.000000,-8734.430116,2145.067394
3232.575542,518.144159,-8734.430116,1302.362347
3232.575870,814.226536,-8586.388927,536.266849
3232.576197,666.185348,-9400.615463,1685.410096
3232.576525,148.041188,-11029.068536,1608.800546
3232.576852,296.082377,-11251.130318,-612.876398
3232.577180,0.000000,-11399.171507,-2221.676944
3232.577507,-370.102971,-10436.903782,-2911.162892
3232.577835,1110.308913,-8290.306550,-2834.553343
3232.578162,1628.453072,-8734.430116,76.609550
3232.578490,-222.061783,-9178.553681,2681.334243
3232.578817,-1480.411884,-8512.368333,2068.457845
3232.579145,-1480.411884,-9400.615463,0.000000
3232.579472,-592.164754,-9030.512492,-1455.581446
3232.579800,1036.288319,-8364.327145,-995.924147
3232.580128,666.185348,-9622.677246,459.657299
3232.580455,1110.308913,-11843.295072,1762.019645
3232.580783,2590.720797,-11621.233289,-1685.410096
3232.581110,2664.741391,-10510.924376,-3140.991542
3232.581438,444.123565,-9474.636058,-1915.238745
3232.581765,-148.041188,-9474.636058,0.000000
3232.582093,0.000000,-8216.285956,229.828649
3232.582421,370.102971,-8808.450710,-536.266849
3232.582748,0.000000,-9548.656652,1149.143247
3232.583076,222.061783,-9326.594869,1991.848295
3232.583403,1184.329507,-9844.739029,1455.581446
3232.583731,888.247130,-11325.150913,-383.047749
3232.584058,0.000000,-10140.821405,-1991.848295
3232.584386,0.000000,-8364.327145,-2374.896044
3232.584714,0.000000,-7846.182985,-2451.505594
3232.585041,1110.308913,-8586.388927,-919.314598
3232.585369,2220.617826,-10955.047942,1838.629195
3232.585696,2220.617826,-11769.274478,2604.724693
3232.586024,3034.844362,-9844.739029,1149.143247
3232.586352,1628.453072,-8734.430116,-459.657299
3232.586679,-592.164754,-9622.677246,76.609550
3232.587007,-1702.473667,-9400.615463,766.095498
3232.587334,-1110.308913,-9400.615463,-383.047749
3232.587662,-148.041188,-8142.265362,-1149.143247
3232.587990,0.000000,-9252.574275,-842.705048
3232.588317,-370.102971,-10362.883188,612.876398
3232.588645,1554.432478,-9844.739029,0.000000
3232.588972,1406.391290,-9696.697840,-766.095498
3232.589300,148.041188,-9178.553681,-459.657299
3232.589627,0.000000,-8808.450710,-306.438199
3232.589955,74.020594,-8808.450710,0.000000
3232.590283,1554.432478,-9474.636058,0.000000
3232.590610,814.226536,-12213.398043,1225.752797
3232.590938,888.247130,-13101.645173,1149.143247
3232.591265,814.226536,-10510.924376,-842.705048
3232.591593,0.000000,-9326.594869,-2451.505594
3232.591921,-1406.391290,-7550.100608,-2451.505594
3232.592248,-1406.391290,-8512.368333,-1532.190996
3232.592576,-592.164754,-9400.615463,-995.924147
3232.592903,-296.082377,-8734.430116,0.000000
3232.593231,592.164754,-9844.739029,1072.533697
3232.593559,1480.411884,-10807.006753,1378.971896
3232.593886,1110.308913,-11029.068536,919.314598
3232.594214,740.205942,-11843.295072,-306.438199
3232.594541,888.247130,-11843.295072,-1915.238745
3232.594869,0.000000,-9474.636058,-1838.629195
3232.595196,-666.185348,-8586.388927,-1072.533697
3232.595524,-370.102971,-8660.409521,-612.876398
3232.595852,370.102971,-9770.718434,153.219100
3232.596179,222.061783,-10140.821405,153.219100
3232.596507,-444.123565,-9252.574275,842.705048
3232.596834,74.020594,-9104.533087,-383.047749
3232.597162,0.000000,-8438.347739,-229.828649
3232.597490,222.061783,-9326.594869,612.876398
3232.597817,-296.082377,-10584.944971,1378.971896
3232.598145,444.123565,-9474.636058,459.657299
3232.598472,1332.370696,-9104.533087,-383.047749
3232.598800,1110.308913,-9992.780217,0.000000
3232.599128,74.020594,-9178.553681,76.609550
3232.599455,-518.144159,-9474.636058,306.438199
3232.599783,-444.123565,-9030.512492,-459.657299
3232.600110,-666.185348,-8290.306550,153.219100
3232.600438,-1628.453072,-9622.677246,995.924147
3232.600765,-1924.535449,-9992.780217,229.828649
3232.601093,-1998.556043,-9770.718434,-1455.581446
3232.601421,0.000000,-9400.615463,-2528.115143
3232.601748,1480.411884,-9992.780217,-2374.896044
3232.602076,2220.617826,-11547.212695,995.924147
3232.602403,1998.556043,-10214.842000,2374.896044
3232.602731,1924.535449,-9474.636058,1762.019645
3232.603059,2072.576638,-10436.903782,-1762.019645
3232.603386,888.247130,-10436.903782,-1762.019645
3232.603714,0.000000,-8808.450710,-1149.143247
3232.604041,-222.061783,-9326.594869,-383.047749
3232.604369,1036.288319,-9474.636058,-306.438199
3232.604697,2294.638420,-11029.068536,229.828649
3232.605024,1406.391290,-11325.150913,1915.238745
3232.605352,2442.679609,-10881.027347,1225.752797
3232.605679,1628.453072,-10510.924376,-766.095498
3232.606007,148.041188,-8660.409521,-1915.238745
3232.606334,-740.205942,-7031.956449,-1455.581446
3232.606662,0.000000,-7179.997637,-842.705048
3232.606990,1332.370696,-8734.430116,842.705048
3232.607317,2072.576638,-11103.089130,2604.724693
3232.607645,2516.700203,-11991.336260,2068.457845
3232.607972,3108.864956,-9622.677246,612.876398
3232.608300,592.164754,-8956.491898,383.047749
3232.608628,-2368.659014,-10436.903782,-153.219100
3232.608955,-2368.659014,-9178.553681,-1762.019645
3232.609283,-1332.370696,-8882.471304,-1991.848295
3232.609610,370.102971,-8290.306550,-1149.143247
3232.609938,1702.473667,-9622.677246,1302.362347
3232.610266,1554.432478,-9474.636058,2911.162892
3232.610593,1480.411884,-8660.409521,1302.362347
3232.610921,-814.226536,-9178.553681,536.266849
3232.611248,-2220.617826,-9104.533087,-612.876398
3232.611576,-2072.576638,-8290.306550,-1378.971896
3232.611903,0.000000,-9918.759623,-842.705048
3232.612231,1110.308913,-12139.377449,-536.266849
3232.612559,1406.391290,-13101.645173,1149.143247
3232.612886,1406.391290,-12139.377449,766.095498
3232.613214,1258.350101,-9178.553681,-1072.533697
3232.613541,444.123565,-8142.265362,-1302.362347
3232.613869,-1702.473667,-7920.203579,-612.876398
3232.614197,-1850.514855,-7920.203579,0.000000
3232.614524,-1628.453072,-9770.718434,76.609550
3232.614852,-666.185348,-9622.677246,0.000000
3232.615179,444.123565,-9918.759623,842.705048
3232.615507,962.267725,-12361.439231,383.047749
3232.615835,1258.350101,-13101.645173,-1685.410096
3232.616162,814.226536,-11103.089130,-2987.772442
3232.616490,74.020594,-9326.594869,-2834.553343
3232.616817,-592.164754,-7994.224174,-1225.752797
3232.617145,-296.082377,-9030.512492,2298.286494
3232.617472,-740.205942,-8660.409521,2987.772442
3232.617800,0.000000,-9696.697840,1762.019645
3232.618128,0.000000,-10214.842000,-536.266849
3232.618455,0.000000,-9252.574275,-2068.457845
3232.618783,-222.061783,-9030.512492,-1302.362347
3232.619110,-740.205942,-9770.718434,-766.095498
3232.619438,0.000000,-9992.780217,-766.095498
3232.619766,666.185348,-11029.068536,-1072.533697
3232.620093,444.123565,-8438.347739,-612.876398
3232.620421,1480.411884,-7254.018232,919.314598
3232.620748,1998.556043,-9326.594869,2068.457845
3232.621076,814.226536,-10955.047942,2451.505594
3232.621404,-370.102971,-9548.656652,1608.800546
3232.621731,296.082377,-8438.347739,-1608.800546
3232.622059,0.000000,-8142.265362,-1072.533697
3232.622386,-296.082377,-9400.615463,459.657299
3232.622714,-2146.597232,-10658.965565,0.000000
3232.623041,-1258.350101,-10584.944971,-2068.457845
3232.623369,1628.453072,-10362.883188,-4060.306139
3232.623697,1332.370696,-9622.677246,-2451.505594
3232.624024,1628.453072,-9030.512492,2145.067394
3232.624352,2368.659014,-9548.656652,2681.334243
3232.624679,1554.432478,-10658.965565,1072.533697
3232.625007,518.144159,-10658.965565,0.000000
3232.625335,666.185348,-9252.574275,-1838.629195
3232.625662,1036.288319,-8142.265362,-689.485948
3232.625990,888.247130,-10066.800811,229.828649
3232.626317,0.000000,-11695.253884,536.266849
3232.626645,148.041188,-10436.903782,-536.266849
3232.626973,1110.308913,-10214.842000,-1608.800546
3232.627300,1258.350101,-9770.718434,-1225.752797
3232.627628,1332.370696,-9030.512492,0.000000
3232.627955,666.185348,-8734.430116,689.485948
3232.628283,666.185348,-8438.347739,1302.362347
3232.628611,740.205942,-9252.574275,459.657299
3232.628938,222.061783,-9770.718434,0.000000
3232.629266,370.102971,-8438.347739,1838.629195
3232.629593,888.247130,-9326.594869,1532.190996
3232.629921,1036.288319,-10732.986159,-766.095498
3232.630248,-296.082377,-10658.965565,-2221.676944
3232.630576,-1924.535449,-10658.965565,-1302.362347
3232.630904,0.000000,-8660.409521,-2604.724693
3232.631231,1776.494261,-8216.285956,-306.438199
3232.631559,1554.432478,-10510.924376,2451.505594
3232.631886,-296.082377,-10436.903782,3830.477490
3232.632214,-740.205942,-9474.636058,2681.334243
3232.632542,-1184.329507,-6957.935855,-842.705048
3232.632869,-1628.453072,-7179.997637,-1762.019645
3232.633197,-3849.070898,-9030.512492,-612.876398
3232.633524,-3404.947333,-8734.430116,-1455.581446
3232.633852,-814.226536,-9622.677246,-2528.115143
3232.634180,814.226536,-12435.459826,-1685.410096
3232.634507,1924.535449,-12435.459826,459.657299
3232.634835,2590.720797,-11325.150913,1838.629195
3232.635162,1332.370696,-10214.842000,1455.581446
3232.635490,0.000000,-10066.800811,-612.876398
3232.635817,-518.144159,-9252.574275,-1762.019645
3232.636145,-592.164754,-8068.244768,-1225.752797
3232.636473,-444.123565,-8882.471304,383.047749
3232.636800,-740.205942,-10732.986159,1378.971896
3232.637128,0.000000,-10584.944971,-612.876398
3232.637455,814.226536,-10658.965565,-3064.381992
3232.637783,222.061783,-9844.739029,-3217.601092
3232.638111,1258.350101,-9030.512492,-2528.115143
3232.638438,2220.617826,-10584.944971,153.219100
3232.638766,1998.556043,-10955.047942,1608.800546
3232.639093,1702.473667,-9770.718434,1685.410096
3232.639421,888.247130,-10436.903782,1072.533697
3232.639749,814.226536,-10436.903782,612.876398
3232.640076,222.061783,-9622.677246,229.828649
3232.640404,-962.267725,-9770.718434,-919.314598
3232.640731,-1184.329507,-8364.327145,-1915.238745
3232.641059,-370.102971,-8734.430116,-2604.724693
3232.641386,-444.123565,-8586.388927,-1608.800546
3232.641714,1480.411884,-8808.450710,0.000000
3232.642042,2368.659014,-9770.718434,1302.362347
3232.642369,2072.576638,-8882.471304,766.095498
3232.642697,888.247130,-9400.615463,2374.896044
3232.643024,592.164754,-9622.677246,1608.800546
3232.643352,1850.514855,-9178.553681,1072.533697
3232.643680,1554.432478,-9030.512492,1378.971896
3232.644007,0.000000,-9474.636058,1685.410096
3232.644335,-740.205942,-9030.512492,-383.047749
3232.644662,-2516.700203,-10881.027347,-1685.410096
3232.644990,-1480.411884,-10955.047942,-3064.381992
3232.645318,-296.082377,-7846.182985,-3600.648841
3232.645645,296.082377,-9400.615463,-995.924147
3232.645973,296.082377,-11325.150913,2374.896044
3232.646300,1628.453072,-11843.295072,2145.067394
3232.646628,1406.391290,-9474.636058,229.828649
3232.646955,370.102971,-9252.574275,-459.657299
3232.647283,-740.205942,-9770.718434,-689.485948
3232.647611,0.000000,-9326.594869,-995.924147
3232.647938,0.000000,-8808.450710,-1762.019645
3232.648266,-444.123565,-10362.883188,-919.314598
3232.648593,148.041188,-10658.965565,-383.047749
3232.648921,1776.494261,-11769.274478,306.438199
3232.649249,666.185348,-10658.965565,536.266849
3232.649576,-962.267725,-9696.697840,0.000000
3232.649904,-1702.473667,-9474.636058,-919.314598
3232.650231,-962.267725,-8734.430116,-1455.581446
3232.650559,0.000000,-8364.327145,-306.438199
3232.650887,1036.288319,-9622.677246,1149.143247
3232.651214,1258.350101,-10066.800811,2834.553343
3232.651542,1998.556043,-10436.903782,995.924147
3232.651869,1036.288319,-8364.327145,-689.485948
3232.652197,-592.164754,-6291.750507,-1532.190996
3232.652524,-1998.556043,-8956.491898,-1378.971896
3232.652852,-1776.494261,-11473.192101,-383.047749
3232.653180,814.226536,-11695.253884,0.000000
3232.653507,2960.823768,-11621.233289,689.485948
3232.653835,1480.411884,-10214.842000,2451.505594
3232.654162,1258.350101,-8956.491898,1915.238745
3232.654490,296.082377,-7846.182985,229.828649
3232.654818,-1110.308913,-7624.121203,-459.657299
3232.655145,-2146.597232,-6735.874072,-1991.848295
3232.655473,-2516.700203,-7402.059420,-1762.019645
3232.655800,0.000000,-7328.038826,-842.705048
3232.656128,2368.659014,-11399.171507,-383.047749
3232.656456,1480.411884,-13471.748144,1149.143247
3232.656783,2442.679609,-13619.789333,1302.362347
3232.657111,2812.782580,-12361.439231,-459.657299
3232.657438,2590.720797,-11029.068536,-2221.676944
3232.657766,1036.288319,-9918.759623,-1302.362347
3232.658093,-518.144159,-8586.388927,0.000000
3232.658421,0.000000,-7328.038826,919.314598
3232.658749,-148.041188,-8290.306550,306.438199
3232.659076,-518.144159,-8956.491898,0.000000
3232.659404,518.144159,-8808.450710,-612.876398
3232.659731,1184.329507,-10807.006753,-2221.676944
3232.660059,962.267725,-11843.295072,-2451.505594
3232.660387,1184.329507,-10436.903782,-1532.190996
3232.660714,888.247130,-9622.677246,-689.485948
3232.661042,962.267725,-11325.150913,1225.752797
3232.661369,2590.720797,-11843.295072,1072.533697
3232.661697,1850.514855,-11177.109724,1302.362347
3232.662025,666.185348,-9474.636058,689.485948
3232.662352,-296.082377,-9474.636058,-306.438199
3232.662680,-1480.411884,-7105.977043,-1378.971896
3232.663007,-888.247130,-6883.915261,-2145.067394
3232.663335,-1924.535449,-8364.327145,-1762.019645
3232.663662,-1184.329507,-9104.533087,-689.485948
3232.663990,962.267725,-9844.739029,-229.828649
3232.664318,1406.391290,-10288.862594,306.438199
3232.664645,1110.308913,-10436.903782,2145.067394
3232.664973,444.123565,-10362.883188,1455.581446
3232.665300,-296.082377,-9178.553681,995.924147
3232.665628,0.000000,-8882.471304,-536.266849
3232.665956,666.185348,-8956.491898,-842.705048
3232.666283,518.144159,-7105.977043,0.000000
3232.666611,74.020594,-8438.347739,1762.019645
3232.666938,-2072.576638,-11251.130318,1685.410096
3232.667266,-2368.659014,-10955.047942,-842.705048
3232.667594,-2294.638420,-9844.739029,-3217.601092
3232.667921,-962.267725,-9474.636058,-3600.648841
3232.668249,-666.185348,-10955.047942,-919.314598
3232.668576,888.247130,-12139.377449,995.924147
3232.668904,1924.535449,-9992.780217,766.095498
3232.669231,2294.638420,-10362.883188,-306.438199
3232.669559,1628.453072,-9696.697840,-383.047749
3232.669887,666.185348,-7772.162391,-459.657299
3232.670214,-518.144159,-8142.265362,383.047749
3232.670542,-666.185348,-9622.677246,-766.095498
3232.670869,-814.226536,-10436.903782,-689.485948
3232.671197,370.102971,-11547.212695,0.000000
3232.671525,962.267725,-10510.924376,0.000000
3232.671852,1332.370696,-11103.089130,383.047749
3232.672180,1184.329507,-11621.233289,0.000000
3232.672507,0.000000,-8364.327145,-1149.143247
3232.672835,0.000000,-6809.894666,-1302.362347
3232.673163,666.185348,-7846.182985,0.000000
3232.673490,1184.329507,-8068.244768,2068.457845
3232.673818,1924.535449,-9252.574275,2987.772442
3232.674145,1850.514855,-10066.800811,1532.190996
3232.674473,2368.659014,-10066.800811,-1149.143247
3232.674800,1110.308913,-9696.697840,-1455.581446
3232.675128,-666.185348,-9770.718434,-1608.800546
3232.675456,-1184.329507,-11325.150913,-459.657299
3232.675783,518.144159,-11029.068536,-919.314598
3232.676111,1776.494261,-9474.636058,306.438199
3232.676438,1332.370696,-9622.677246,1378.971896
3232.676766,962.267725,-7846.182985,1685.410096
3232.677094,0.000000,-7624.121203,1072.533697
3232.677421,-1110.308913,-7550.100608,-612.876398
3232.677749,-1850.514855,-7698.141797,-2451.505594
3232.678076,-1998.556043,-7994.224174,-1915.238745
3232.678404,-962.267725,-10658.965565,-1072.533697
3232.678732,740.205942,-12583.501014,459.657299
3232.679059,1924.535449,-13397.727550,1455.581446
3232.679387,2442.679609,-13471.748144,229.828649
3232.679714,1850.514855,-11325.150913,-842.705048
3232.680042,444.123565,-10362.883188,-1532.190996
3232.680369,-592.164754,-7920.203579,-1762.019645
3232.680697,-1036.288319,-6735.874072,-383.047749
3232.681025,-518.144159,-7105.977043,153.219100
3232.681352,-888.247130,-8068.244768,1225.752797
3232.681680,-370.102971,-11103.089130,1608.800546
3232.682007,0.000000,-11621.233289,-919.314598
3232.682335,444.123565,-11621.233289,-1991.848295
3232.682663,0.000000,-11991.336260,-2374.896044
3232.682990,518.144159,-10807.006753,-1915.238745
3232.683318,592.164754,-10288.862594,-612.876398
3232.683645,518.144159,-10955.047942,1685.410096
3232.683973,1110.308913,-8290.306550,383.047749
3232.684301,888.247130,-7179.997637,842.705048
3232.684628,-1628.453072,-8068.244768,1225.752797
3232.684956,-3330.926739,-8660.409521,689.485948
3232.685283,-2590.720797,-9104.533087,-689.485948
3232.685611,-1036.288319,-7624.121203,-2528.115143
3232.685939,-296.082377,-8438.347739,-1455.581446
3232.686266,74.020594,-10881.027347,229.828649
3232.686594,888.247130,-10362.883188,995.924147
3232.686921,2146.597232,-9474.636058,536.266849
3232.687249,2442.679609,-10066.800811,76.609550
3232.687577,2220.617826,-9400.615463,536.266849
3232.687904,1184.329507,-9326.594869,1455.581446
3232.688232,1406.391290,-8068.244768,2298.286494
3232.688559,1702.473667,-8660.409521,383.047749
3232.688887,-666.185348,-10510.924376,842.705048
3232.689214,-1480.411884,-10510.924376,0.000000
3232.689542,-1702.473667,-10362.883188,-1915.238745
3232.689870,-814.226536,-11325.150913,-3064.381992
3232.690197,962.267725,-10140.821405,-3907.087040
3232.690525,1184.329507,-11177.109724,-995.924147
3232.690852,1628.453072,-9696.697840,1838.629195
3232.691180,3108.864956,-8512.368333,1378.971896
3232.691508,2220.617826,-10288.862594,1378.971896
3232.691835,2220.617826,-10807.006753,306.438199
3232.692163,1480.411884,-9992.780217,-612.876398
3232.692490,1258.350101,-9770.718434,-612.876398
3232.692818,444.123565,-10288.862594,-612.876398
3232.693146,0.000000,-10955.047942,0.000000
3232.693473,444.123565,-10807.006753,-383.047749
3232.693801,444.123565,-10066.800811,-459.657299
3232.694128,-222.061783,-10214.842000,-459.657299
3232.694456,-444.123565,-8364.327145,-689.485948
3232.694784,74.020594,-7105.977043,-229.828649
3232.695111,296.082377,-7105.977043,76.609550
3232.695439,1184.329507,-8586.388927,689.485948
3232.695766,1110.308913,-9844.739029,2757.943793
3232.696094,1702.473667,-9918.759623,2451.505594
3232.696422,1480.411884,-8512.368333,0.000000
3232.696749,-444.123565,-9474.636058,-1072.533697
3232.697077,-1998.556043,-11103.089130,-1838.629195
3232.697404,0.000000,-12583.501014,-2604.724693
3232.697732,1702.473667,-10510.924376,-2221.676944
3232.698060,1850.514855,-8956.491898,-459.657299
3232.698387,518.144159,-9252.574275,2987.772442
3232.698715,148.041188,-8364.327145,3140.991542
3232.699042,-518.144159,-7031.956449,536.266849
3232.699370,-2960.823768,-7254.018232,-689.485948
3232.699697,-3552.988522,-7846.182985,-1225.752797
3232.700025,-2368.659014,-8068.244768,-1762.019645
3232.700353,-962.267725,-9992.780217,-1685.410096
3232.700680,592.164754,-12953.603985,-383.047749
3232.701008,1998.556043,-14508.036463,0.000000
3232.701335,1702.473667,-13619.789333,-383.047749
3232.701663,1776.494261,-10732.986159,-536.266849
3232.701991,1554.432478,-8142.265362,-1302.362347
3232.702318,-814.226536,-8290.306550,-229.828649
3232.702646,-1480.411884,-7846.182985,383.047749
3232.702973,-814.226536,-9252.574275,612.876398
3232.703301,-1554.432478,-9622.677246,612.876398
3232.703629,-222.061783,-8216.285956,-459.657299
3232.703956,0.000000,-10584.944971,-995.924147
3232.704284,666.185348,-11843.295072,-2145.067394
3232.704611,592.164754,-11917.315666,-2604.724693
3232.704939,1110.308913,-9770.718434,-2221.676944
3232.705267,962.267725,-8290.306550,-536.266849
3232.705594,1110.308913,-10066.800811,2451.505594
3232.705922,1702.473667,-9992.780217,2451.505594
3232.706249,222.061783,-9400.615463,2145.067394
3232.706577,-592.164754,-9474.636058,995.924147
3232.706905,0.000000,-9104.533087,-1149.143247
3232.707232,-1480.411884,-7920.203579,-1838.629195
3232.707560,-1332.370696,-9474.636058,-612.876398
3232.707887,-962.267725,-9474.636058,-1225.752797
3232.708215,-148.041188,-8364.327145,-1532.190996
3232.708543,888.247130,-9474.636058,-612.876398
3232.708870,3256.906145,-10436.903782,766.095498
3232.709198,3552.988522,-9622.677246,2528.115143
3232.709525,2590.720797,-10140.821405,2681.334243
3232.709853,1850.514855,-10584.944971,1762.019645
3232.710180,1036.288319,-10066.800811,-306.438199
3232.710508,1110.308913,-7476.080014,-1532.190996
3232.710836,592.164754,-8142.265362,76.609550
3232.711163,-518.144159,-11103.089130,995.924147
3232.711491,0.000000,-10807.006753,-842.705048
3232.711818,740.205942,-9474.636058,-2451.505594
3232.712146,148.041188,-7624.121203,-1838.629195
3232.712474,-444.123565,-9622.677246,153.219100
3232.712801,-1184.329507,-11399.171507,995.924147
3232.713129,-370.102971,-9918.759623,0.000000
3232.713456,1480.411884,-9326.594869,-2298.286494
3232.713784,1258.350101,-9770.718434,-1378.971896
3232.714112,2442.679609,-10140.821405,1225.752797
3232.714439,2960.823768,-11843.295072,2834.553343
3232.714767,1998.556043,-11621.233289,1149.143247
3232.715094,444.123565,-10807.006753,-1455.581446
3232.715422,-666.185348,-10658.965565,-2681.334243
3232.715750,-1924.535449,-7772.162391,-1991.848295
3232.716077,-1184.329507,-7624.121203,0.000000
3232.716405,-1850.514855,-8142.265362,1149.143247
3232.716732,-1258.350101,-9474.636058,1455.581446
3232.717060,296.082377,-10140.821405,612.876398
3232.717388,1184.329507,-8882.471304,229.828649
3232.717715,1776.494261,-9104.533087,766.095498
3232.718043,0.000000,-8808.450710,1072.533697
3232.718370,-592.164754,-9104.533087,-766.095498
3232.718698,0.000000,-9030.512492,-2298.286494
3232.719026,592.164754,-10214.842000,-1762.019645
3232.719353,370.102971,-10732.986159,919.314598
3232.719681,2072.576638,-11991.336260,1455.581446
3232.720008,2664.741391,-9548.656652,919.314598
3232.720336,222.061783,-8142.265362,689.485948
3232.720663,-2812.782580,-8142.265362,306.438199
3232.720991,-3034.844362,-7846.182985,153.219100
3232.721319,-1924.535449,-7105.977043,-995.924147
3232.721646,-666.185348,-9030.512492,-919.314598
3232.721974,-740.205942,-10658.965565,-383.047749
3232.722301,444.123565,-10881.027347,-919.314598
3232.722629,1480.411884,-10436.903782,-1455.581446
3232.722957,2146.597232,-10436.903782,-612.876398
3232.723284,1258.350101,-11103.089130,-1072.533697
3232.723612,0.000000,-10658.965565,0.000000
3232.723939,-370.102971,-9622.677246,0.000000
3232.724267,592.164754,-10955.047942,0.000000
3232.724595,1036.288319,-11251.130318,1455.581446
3232.724922,1110.308913,-9992.780217,2068.457845
3232.725250,0.000000,-9252.574275,536.266849
3232.725577,-222.061783,-8438.347739,-2068.457845
3232.725905,-518.144159,-9474.636058,-3140.991542
3232.726233,-740.205942,-9770.718434,-2681.334243
3232.726560,148.041188,-7772.162391,-1608.800546
3232.726888,592.164754,-8882.471304,842.705048
3232.727215,1776.494261,-11399.171507,2221.676944
3232.727543,3701.029710,-12805.562797,1991.848295
3232.727871,2960.823768,-12805.562797,1455.581446
3232.728198,1998.556043,-9474.636058,229.828649
3232.728526,1406.391290,-9178.553681,-919.314598
3232.728853,0.000000,-9622.677246,-612.876398
3232.729181,-2442.679609,-7624.121203,-383.047749
3232.729509,-2368.659014,-7550.100608,-1302.362347
3232.729836,-666.185348,-7772.162391,-2145.067394
3232.730164,1776.494261,-9474.636058,-1225.752797
3232.730491,592.164754,-9252.574275,536.266849
3232.730819,888.247130,-9548.656652,1225.752797
3232.731147,962.267725,-10288.862594,1302.362347
3232.731474,1184.329507,-10140.821405,842.705048
3232.731802,1184.329507,-9474.636058,1225.752797
3232.732129,1184.329507,-9474.636058,1915.238745
3232.732457,1332.370696,-10066.800811,229.828649
3232.732784,1776.494261,-10881.027347,-766.095498
3232.733112,-518.144159,-10436.903782,-1302.362347
3232.733440,-1258.350101,-8808.450710,-1149.143247
3232.733767,-1554.432478,-7772.162391,-536.266849
3232.734095,-1850.514855,-8586.388927,-689.485948
3232.734422,-444.123565,-8956.491898,-1685.410096
3232.734750,-518.144159,-10140.821405,612.876398
3232.735078,-592.164754,-10140.821405,1838.629195
3232.735405,370.102971,-9770.718434,1225.752797
3232.735733,0.000000,-11769.274478,0.000000
3232.736060,1184.329507,-10732.986159,-1991.848295
3232.736388,1110.308913,-10436.903782,-3447.429741
3232.736716,592.164754,-11399.171507,-1838.629195
3232.737043,2442.679609,-10140.821405,0.000000
3232.737371,1628.453072,-9622.677246,842.705048
3232.737698,-666.185348,-8808.450710,1302.362347
3232.738026,-1480.411884,-8808.450710,229.828649
3232.738354,-1702.473667,-10140.821405,-842.705048
3232.738681,-1554.432478,-8660.409521,-995.924147
3232.739009,-1258.350101,-7772.162391,0.000000
3232.739336,370.102971,-9474.636058,1149.143247
3232.739664,1850.514855,-9622.677246,229.828649
3232.739992,1702.473667,-10955.047942,306.438199
3232.740319,1776.494261,-9770.718434,0.000000
3232.740647,1406.391290,-7698.141797,-1838.629195
3232.740974,1702.473667,-8512.368333,-995.924147
3232.741302,444.123565,-10436.903782,76.609550
3232.741630,666.185348,-11991.336260,1378.971896
3232.741957,518.144159,-11325.150913,2145.067394
3232.742285,962.267725,-9622.677246,1378.971896
3232.742612,222.061783,-8364.327145,612.876398
3232.742940,-814.226536,-8586.388927,383.047749
3232.743267,-1702.473667,-9400.615463,-1685.410096
3232.743595,-2294.638420,-8290.306550,-3294.210641
3232.743923,-1850.514855,-7031.956449,-3753.867940
3232.744250,-518.144159,-7920.203579,-612.876398
3232.744578,1036.288319,-10732.986159,1302.362347
3232.744905,2590.720797,-12213.398043,1685.410096
3232.745233,2960.823768,-12213.398043,689.485948
3232.745561,1628.453072,-11991.336260,-229.828649
3232.745888,1258.350101,-10510.924376,919.314598
3232.746216,1480.411884,-9474.636058,0.000000
3232.746543,148.041188,-9622.677246,0.000000
3232.746871,-296.082377,-9844.739029,0.000000
3232.747199,-1036.288319,-9844.739029,-612.876398
3232.747526,-148.041188,-9030.512492,-1378.971896
3232.747854,1332.370696,-8438.347739,-1762.019645
3232.748181,222.061783,-8808.450710,76.609550
3232.748509,74.020594,-9844.739029,-306.438199
3232.748837,-148.041188,-9474.636058,-842.705048
3232.749164,-740.205942,-10732.986159,-842.705048
3232.749492,2072.576638,-9992.780217,0.000000
3232.749819,2072.576638,-12287.418637,2298.286494
3232.750147,3775.050304,-12953.603985,995.924147
3232.750475,2146.597232,-11251.130318,0.000000
3232.750802,-666.185348,-9770.718434,-1608.800546
3232.751130,-2072.576638,-6365.771101,-3064.381992
3232.751457,-2590.720797,-6883.915261,-1685.410096
3232.751785,-2146.597232,-7402.059420,-766.095498
3232.752113,-962.267725,-8438.347739,-689.485948
3232.752440,-888.247130,-9992.780217,612.876398
3232.752768,1110.308913,-9918.759623,842.705048
3232.753095,444.123565,-8956.491898,1608.800546
3232.753423,1480.411884,-10584.944971,1838.629195
3232.753750,962.267725,-10955.047942,76.609550
3232.754078,592.164754,-11325.150913,-1378.971896
3232.754406,444.123565,-10214.842000,-1762.019645
3232.754733,1628.453072,-8734.430116,-1072.533697
3232.755061,1258.350101,-8956.491898,1532.190996
3232.755388,-444.123565,-9770.718434,2528.115143
3232.755716,-1998.556043,-8660.409521,689.485948
3232.756044,-2812.782580,-8512.368333,-842.705048
3232.756371,-2368.659014,-7994.224174,-2451.505594
3232.756699,-1332.370696,-8808.450710,-766.095498
3232.757026,-1628.453072,-9696.697840,2145.067394
3232.757354,1184.329507,-10066.800811,2068.457845
3232.757682,1258.350101,-11473.192101,-612.876398
3232.758009,2146.597232,-10362.883188,-2145.067394
3232.758337,2664.741391,-7624.121203,-2068.457845
3232.758664,1480.411884,-9770.718434,1378.971896
3232.758992,74.020594,-12213.398043,2374.896044
3232.759320,-666.185348,-11325.150913,0.000000
3232.759647,-962.267725,-9030.512492,-2604.724693
3232.759975,-222.061783,-8586.388927,-3064.381992
3232.760302,444.123565,-11621.233289,76.609550
3232.760630,0.000000,-11103.089130,1149.143247
3232.760958,0.000000,-9326.594869,-842.705048
3232.761285,-222.061783,-9548.656652,-2451.505594
3232.761613,888.247130,-9326.594869,-2911.162892
3232.761940,1628.453072,-9548.656652,0.000000
3232.762268,1406.391290,-8290.306550,2451.505594
3232.762596,888.247130,-8068.244768,1149.143247
3232.762923,1332.370696,-10214.842000,-306.438199
3232.763251,2146.597232,-12287.418637,-306.438199
3232.763578,1406.391290,-11621.233289,689.485948
3232.763906,2368.659014,-10732.986159,1762.019645
3232.764233,1332.370696,-9844.739029,153.219100
3232.764561,-814.226536,-9696.697840,-1225.752797
3232.764889,-1998.556043,-8068.244768,-1532.190996
3232.765216,-2220.617826,-6957.935855,-306.438199
3232.765544,-888.247130,-7772.162391,1149.143247
3232.765871,740.205942,-8586.388927,919.314598
3232.766199,1184.329507,-7698.141797,306.438199
3232.766527,740.205942,-8956.491898,76.609550
3232.766854,0.000000,-10066.800811,1149.143247
3232.767182,1480.411884,-10732.986159,306.438199
3232.767509,2294.638420,-11029.068536,612.876398
3232.767837,2220.617826,-11029.068536,76.609550
3232.768165,1628.453072,-11473.192101,0.000000
3232.768492,666.185348,-11325.150913,-383.047749
3232.768820,1184.329507,-9622.677246,0.000000
3232.769147,962.267725,-7994.224174,-612.876398
3232.769475,-1554.432478,-7254.018232,-306.438199
3232.769803,-2294.638420,-7698.141797,-306.438199
3232.770130,-1036.288319,-9252.574275,-919.314598
3232.770458,-444.123565,-9622.677246,-842.705048
3232.770785,518.144159,-9252.574275,-459.657299
3232.771113,814.226536,-11251.130318,229.828649
3232.771441,2146.597232,-12509.480420,-919.314598
3232.771768,2886.803174,-13619.789333,-1225.752797
3232.772096,1554.432478,-12805.562797,-1302.362347
3232.772423,814.226536,-8956.491898,-1532.190996
3232.772751,370.102971,-7254.018232,-1302.362347
3232.773079,-1036.288319,-9400.615463,153.219100
3232.773406,-1406.391290,-9696.697840,-153.219100
3232.773734,-2368.659014,-8882.471304,-383.047749
3232.774061,-1850.514855,-8290.306550,-1225.752797
3232.774389,-1036.288319,-8068.244768,-1915.238745
3232.774716,-1110.308913,-8882.471304,76.609550
3232.775044,666.185348,-10066.800811,383.047749
3232.775372,1406.391290,-11621.233289,-612.876398
3232.775699,1776.494261,-10584.944971,-306.438199
3232.776027,2738.761985,-9548.656652,-383.047749
3232.776354,1406.391290,-9992.780217,1302.362347
3232.776682,1702.473667,-10140.821405,1608.800546
3232.777010,222.061783,-9178.553681,842.705048
3232.777337,-1332.370696,-9030.512492,306.438199
3232.777665,-2220.617826,-7772.162391,-766.095498
3232.777992,-1480.411884,-8290.306550,-612.876398
3232.778320,-1924.535449,-8882.471304,0.000000
3232.778648,-1998.556043,-8956.491898,-536.266849
3232.778975,-1850.514855,-10732.986159,-1378.971896
3232.779303,-814.226536,-9622.677246,-1915.238745
3232.779630,518.144159,-8364.327145,-995.924147
3232.779958,1332.370696,-9696.697840,1225.752797
3232.780286,2812.782580,-10658.965565,229.828649
3232.780613,2146.597232,-9918.759623,1608.800546
3232.780941,1036.288319,-10807.006753,1838.629195
3232.781268,888.247130,-10436.903782,0.000000
3232.781596,0.000000,-10436.903782,-1378.971896
3232.781924,-814.226536,-9770.718434,-1915.238745
3232.782251,-814.226536,-10510.924376,-2298.286494
3232.782579,-148.041188,-12731.542202,-1838.629195
3232.782906,370.102971,-10732.986159,-1225.752797
3232.783234,888.247130,-8290.306550,-459.657299
3232.783562,1480.411884,-8586.388927,0.000000
3232.783889,2220.617826,-9474.636058,306.438199
3232.784217,1184.329507,-9548.656652,2068.457845
3232.784544,592.164754,-8364.327145,1685.410096
3232.784872,1554.432478,-8290.306550,0.000000
3232.785200,1776.494261,-9844.739029,536.266849
3232.785527,1850.514855,-11399.171507,1149.143247
3232.785855,1628.453072,-12583.501014,-306.438199
3232.786182,1628.453072,-11843.295072,-2068.457845
3232.786510,-444.123565,-8882.471304,-2604.724693
3232.786838,-740.205942,-7328.038826,-1378.971896
3232.787165,-592.164754,-7698.141797,306.438199
3232.787493,-1036.288319,-7698.141797,2451.505594
3232.787820,-888.247130,-8586.388927,2145.067394
3232.788148,-1332.370696,-7698.141797,612.876398
3232.788476,-740.205942,-7772.162391,0.000000
3232.788803,-518.144159,-9770.718434,0.000000
3232.789131,370.102971,-10955.047942,383.047749
3232.789459,1850.514855,-11695.253884,-842.705048
3232.789786,2368.659014,-12287.418637,-1608.800546
3232.790114,1628.453072,-10955.047942,-1149.143247
3232.790441,888.247130,-9918.759623,459.657299
3232.790769,296.082377,-9548.656652,1378.971896
3232.791097,-296.082377,-8290.306550,536.266849
3232.791424,-1776.494261,-8068.244768,0.000000
3232.791752,-1554.432478,-7846.182985,-995.924147
3232.792079,-518.144159,-8290.306550,-919.314598
3232.792407,0.000000,-10288.862594,0.000000
3232.792735,1184.329507,-11029.068536,-383.047749
3232.793062,1406.391290,-11473.192101,-1532.190996
3232.793390,962.267725,-11399.171507,-1762.019645
3232.793718,2146.597232,-9918.759623,-1685.410096
3232.794045,1554.432478,-10658.965565,153.219100
3232.794373,1480.411884,-11547.212695,306.438199
3232.794700,222.061783,-9770.718434,76.609550
3232.795028,-888.247130,-9918.759623,-383.047749
3232.795356,-1702.473667,-8660.409521,-1072.533697
3232.795683,-2072.576638,-9252.574275,-1149.143247
3232.796011,-1554.432478,-9400.615463,-1225.752797
3232.796338,-518.144159,-9696.697840,-2068.457845
3232.796666,-296.082377,-9548.656652,-1225.752797
3232.796994,1110.308913,-9474.636058,-766.095498
3232.797321,1258.350101,-9104.533087,306.438199
3232.797649,1554.432478,-9178.553681,1149.143247
3232.797976,1998.556043,-10066.800811,919.314598
3232.798304,1110.308913,-10510.924376,1915.238745
3232.798632,814.226536,-10214.842000,1838.629195
3232.798959,1850.514855,-9474.636058,1149.143247
3232.799287,592.164754,-8882.471304,919.314598
3232.799615,-962.267725,-10510.924376,229.828649
3232.799942,-1110.308913,-9844.739029,-612.876398
3232.800270,-1406.391290,-8364.327145,-1762.019645
3232.800597,-814.226536,-7772.162391,-1991.848295
3232.800925,-148.041188,-8216.285956,536.266849
3232.801253,74.020594,-9474.636058,1225.752797
3232.801580,962.267725,-8142.265362,1762.019645
3232.801908,0.000000,-9474.636058,1149.143247
3232.802235,814.226536,-10288.862594,459.657299
3232.802563,2368.659014,-8068.244768,0.000000
3232.802891,1036.288319,-8956.491898,1455.581446
3232.803218,740.205942,-11251.130318,689.485948
3232.803546,518.144159,-11251.130318,-2221.676944
3232.803874,-814.226536,-10658.965565,-2757.943793
3232.804201,-962.267725,-9474.636058,-2681.334243
3232.804529,-592.164754,-10436.903782,-919.314598
3232.804856,0.000000,-9844.739029,229.828649
3232.805184,-666.185348,-8882.471304,229.828649
3232.805512,-1184.329507,-9918.759623,689.485948
3232.805839,1110.308913,-9548.656652,-383.047749
3232.806167,1480.411884,-9030.512492,0.000000
3232.806494,0.000000,-9622.677246,1225.752797
3232.806822,148.041188,-10436.903782,153.219100
3232.807150,1184.329507,-10881.027347,-612.876398
3232.807477,2294.638420,-10881.027347,-612.876398
3232.807805,2146.597232,-10658.965565,-229.828649
3232.808133,2294.638420,-11177.109724,76.609550
3232.808460,222.061783,-9030.512492,306.438199
3232.808788,-962.267725,-8660.409521,383.047749
3232.809115,-2146.597232,-7846.182985,0.000000
3232.809443,-1628.453072,-8364.327145,153.219100
3232.809771,-1332.370696,-7920.203579,229.828649
3232.810098,-1702.473667,-9030.512492,0.000000
3232.810426,-592.164754,-10362.883188,-1532.190996
3232.810753,1554.432478,-9696.697840,-2298.286494
3232.811081,592.164754,-9178.553681,-1532.190996
3232.811409,2072.576638,-9400.615463,-459.657299
3232.811736,2368.659014,-10436.903782,1225.752797
3232.812064,2812.782580,-10732.986159,1762.019645
3232.812391,1184.329507,-9548.656652,1838.629195
3232.812719,148.041188,-10436.903782,1072.533697
3232.813047,370.102971,-8216.285956,-919.314598
3232.813374,-370.102971,-7328.038826,-536.266849
3232.813702,-1554.432478,-9400.615463,-383.047749
3232.814030,-148.041188,-10732.986159,-1455.581446
3232.814357,592.164754,-10881.027347,-1302.362347
3232.814685,1776.494261,-9918.759623,-1302.362347
3232.815012,888.247130,-8512.368333,-919.314598
3232.815340,1184.329507,-9548.656652,306.438199
3232.815668,1924.535449,-10658.965565,0.000000
3232.815995,1332.370696,-11991.336260,842.705048
3232.816323,1554.432478,-12657.521608,995.924147
3232.816650,1480.411884,-9400.615463,0.000000
3232.816978,0.000000,-9104.533087,-459.657299
3232.817306,-1258.350101,-11029.068536,-612.876398
3232.817633,-2220.617826,-10140.821405,-1838.629195
3232.817961,-1702.473667,-9622.677246,-2145.067394
3232.818289,-666.185348,-7994.224174,-2451.505594
3232.818616,814.226536,-7698.141797,-1915.238745
3232.818944,1258.350101,-8808.450710,1149.143247
3232.819271,740.205942,-9844.739029,2068.457845
3232.819599,-148.041188,-9104.533087,2681.334243
3232.819927,1480.411884,-8956.491898,306.438199
3232.820254,1258.350101,-9104.533087,-383.047749
3232.820582,666.185348,-11029.068536,1378.971896
3232.820909,666.185348,-10881.027347,842.705048
3232.821237,1184.329507,-10214.842000,-689.485948
3232.821565,-370.102971,-10955.047942,-766.095498
3232.821892,-1110.308913,-8660.409521,-1608.800546
3232.822220,-1998.556043,-7698.141797,-689.485948
3232.822548,-1184.329507,-7105.977043,229.828649
3232.822875,-1184.329507,-8512.368333,-153.219100
3232.823203,-2368.659014,-10214.842000,1225.752797
3232.823530,-1036.288319,-8586.388927,76.609550
3232.823858,-444.123565,-8808.450710,306.438199
3232.824186,1036.288319,-11325.150913,536.266849
3232.824513,2886.803174,-11473.192101,-536.266849
3232.824841,1628.453072,-9770.718434,-306.438199
3232.825168,740.205942,-10362.883188,-383.047749
3232.825496,740.205942,-10955.047942,-1225.752797
3232.825824,0.000000,-9326.594869,-1149.143247
3232.826151,-1406.391290,-7402.059420,-1685.410096
3232.826479,-1110.308913,-9474.636058,-536.266849
3232.826806,-592.164754,-11325.150913,76.609550
3232.827134,0.000000,-10214.842000,536.266849
3232.827462,-370.102971,-9030.512492,306.438199
3232.827789,370.102971,-9326.594869,-1225.752797
3232.828117,814.226536,-9622.677246,-1838.629195
3232.828445,518.144159,-9992.780217,-1072.533697
3232.828772,148.041188,-9548.656652,-536.266849
3232.829100,1776.494261,-8660.409521,0.000000
3232.829427,3552.988522,-10214.842000,1149.143247
3232.829755,2516.700203,-11621.233289,1915.238745
3232.830083,2072.576638,-11029.068536,1378.971896
3232.830410,1406.391290,-9696.697840,1072.533697
3232.830738,74.020594,-8808.450710,-153.219100
3232.831065,-2812.782580,-8142.265362,-612.876398
3232.831393,-2590.720797,-8808.450710,-1455.581446
3232.831721,-1184.329507,-8290.306550,-1532.190996
3232.832048,-1332.370696,-8808.450710,-1225.752797
3232.832376,-962.267725,-9548.656652,-766.095498
3232.832704,1110.308913,-8734.430116,-842.705048
3232.833031,1998.556043,-8586.388927,-689.485948
3232.833359,3182.885551,-10436.903782,1149.143247
3232.833686,2368.659014,-12065.356855,1225.752797
3232.834014,1554.432478,-10955.047942,1915.238745
3232.834342,1702.473667,-9548.656652,459.657299
3232.834669,-222.061783,-10658.965565,383.047749
3232.834997,0.000000,-9918.759623,-536.266849
3232.835324,740.205942,-8512.368333,-2298.286494
3232.835652,0.000000,-9178.553681,-1838.629195
3232.835980,74.020594,-9326.594869,-536.266849
3232.836307,222.061783,-8290.306550,0.000000
3232.836635,814.226536,-8216.285956,-459.657299
3232.836962,370.102971,-9770.718434,-229.828649
3232.837290,370.102971,-11473.192101,0.000000
3232.837618,1776.494261,-10955.047942,689.485948
3232.837945,1924.535449,-11251.130318,306.438199
3232.838273,1184.329507,-11621.233289,919.314598
3232.838601,370.102971,-9918.759623,-459.657299
3232.838928,-592.164754,-10066.800811,-1225.752797
3232.839256,-1924.535449,-10362.883188,-1762.019645
3232.839583,-2294.638420,-8734.430116,-1915.238745
3232.839911,-1628.453072,-7994.224174,-1149.143247
3232.840239,-370.102971,-8660.409521,-842.705048
3232.840566,-444.123565,-8290.306550,-153.219100
3232.840894,-444.123565,-9770.718434,842.705048
3232.841221,0.000000,-10140.821405,842.705048
3232.841549,518.144159,-10288.862594,842.705048
3232.841877,888.247130,-10436.903782,459.657299
3232.842204,444.123565,-8956.491898,0.000000
3232.842532,740.205942,-9770.718434,229.828649
3232.842860,296.082377,-10584.944971,-459.657299
3232.843187,222.061783,-9474.636058,-995.924147
3232.843515,-888.247130,-7179.997637,-1225.752797
3232.843842,-1110.308913,-8586.388927,-459.657299
3232.844170,-1554.432478,-9992.780217,842.705048
3232.844498,-518.144159,-9252.574275,536.266849
3232.844825,-296.082377,-8734.430116,383.047749
3232.845153,592.164754,-9770.718434,383.047749
3232.845480,74.020594,-10732.986159,-306.438199
3232.845808,666.185348,-10140.821405,-689.485948
3232.846136,592.164754,-9918.759623,-842.705048
3232.846463,1110.308913,-9252.574275,-1455.581446
3232.846791,1406.391290,-9178.553681,0.000000
3232.847119,444.123565,-9030.512492,153.219100
3232.847446,962.267725,-9548.656652,459.657299
3232.847774,814.226536,-9992.780217,229.828649
3232.848101,0.000000,-10510.924376,-459.657299
3232.848429,-518.144159,-10140.821405,-459.657299
3232.848757,-370.102971,-10140.821405,-229.828649
3232.849084,148.041188,-10288.862594,0.000000
3232.849412,814.226536,-11029.068536,-1532.190996
3232.849739,740.205942,-10436.903782,-2374.896044
3232.850067,1036.288319,-9178.553681,-1838.629195
3232.850395,1998.556043,-8586.388927,-689.485948
3232.850722,1036.288319,-8216.285956,459.657299
3232.851050,888.247130,-9326.594869,1455.581446
3232.851377,1036.288319,-10881.027347,1455.581446
3232.851705,962.267725,-11621.233289,842.705048
3232.852033,1258.350101,-10510.924376,0.000000
3232.852360,814.226536,-10881.027347,306.438199
3232.852688,1110.308913,-10288.862594,-919.314598
3232.853016,1036.288319,-9400.615463,-766.095498
3232.853343,0.000000,-8290.306550,0.000000
3232.853671,-888.247130,-5921.647536,689.485948
3232.853998,-1036.288319,-7402.059420,766.095498
3232.854326,-1036.288319,-9030.512492,306.438199
3232.854654,-666.185348,-9178.553681,-842.705048
3232.854981,-444.123565,-9918.759623,-689.485948
3232.855309,962.267725,-10658.965565,-689.485948
3232.855636,1480.411884,-10658.965565,76.609550
3232.855964,2072.576638,-11103.089130,919.314598
3232.856292,1998.556043,-11991.336260,0.000000
3232.856619,740.205942,-10881.027347,76.609550
3232.856947,-148.041188,-8956.491898,-919.314598
3232.857275,-148.041188,-6883.915261,-995.924147
3232.857602,-444.123565,-6883.915261,76.609550
3232.857930,-666.185348,-8216.285956,1149.143247
3232.858257,-962.267725,-9400.615463,536.266849
3232.858585,0.000000,-11325.150913,-306.438199
3232.858913,0.000000,-12287.418637,-1149.143247
3232.859240,0.000000,-10436.903782,-1302.362347
3232.859568,222.061783,-10362.883188,-612.876398
3232.859895,592.164754,-12287.418637,-383.047749
3232.860223,592.164754,-13027.624579,459.657299
3232.860551,1406.391290,-9992.780217,-689.485948
3232.860878,1628.453072,-7105.977043,-766.095498
3232.861206,-296.082377,-8068.244768,536.266849
3232.861534,-2146.597232,-9622.677246,919.314598
3232.861861,-2368.659014,-8438.347739,0.000000
3232.862189,-2146.597232,-8734.430116,-1608.800546
3232.862516,-592.164754,-10066.800811,-2145.067394
3232.862844,-222.061783,-10362.883188,76.609550
3232.863172,222.061783,-10658.965565,1072.533697
3232.863499,1924.535449,-10955.047942,0.000000
3232.863827,1406.391290,-10288.862594,-612.876398
3232.864154,1258.350101,-9104.533087,-766.095498
3232.864482,296.082377,-7698.141797,-153.219100
3232.864810,592.164754,-8660.409521,919.314598
3232.865137,592.164754,-9400.615463,995.924147
3232.865465,888.247130,-11029.068536,1378.971896
3232.865792,-592.164754,-10658.965565,1072.533697
3232.866120,-1628.453072,-7772.162391,-459.657299
3232.866448,-1036.288319,-8586.388927,-536.266849
3232.866775,296.082377,-10066.800811,-1225.752797
3232.867103,-222.061783,-9770.718434,-919.314598
3232.867431,-666.185348,-9474.636058,76.609550
3232.867758,222.061783,-8216.285956,-153.219100
3232.868086,1332.370696,-9548.656652,536.266849
3232.868413,1480.411884,-8882.471304,153.219100
3232.868741,1036.288319,-9696.697840,0.000000
3232.869069,296.082377,-12139.377449,383.047749
3232.869396,1110.308913,-11695.253884,-919.314598
3232.869724,1628.453072,-10288.862594,-1302.362347
3232.870051,666.185348,-9326.594869,153.219100
3232.870379,444.123565,-9474.636058,459.657299
3232.870707,740.205942,-9770.718434,459.657299
3232.871034,1702.473667,-10362.883188,-459.657299
3232.871362,962.267725,-9548.656652,-1225.752797
3232.871690,444.123565,-8512.368333,-689.485948
3232.872017,0.000000,-8438.347739,0.000000
3232.872345,888.247130,-8364.327145,-383.047749
3232.872672,1184.329507,-9030.512492,-1378.971896
3232.873000,148.041188,-11177.109724,536.266849
3232.873328,1406.391290,-11177.109724,536.266849
3232.873655,2812.782580,-11843.295072,76.609550
3232.873983,2664.741391,-11473.192101,0.000000
3232.874310,592.164754,-10732.986159,229.828649
3232.874638,-1554.432478,-8882.471304,229.828649
3232.874966,-814.226536,-7105.977043,-1072.533697
3232.875293,-296.082377,-7105.977043,-383.047749
3232.875621,148.041188,-8216.285956,1225.752797
3232.875948,296.082377,-8882.471304,1762.019645
3232.876276,-444.123565,-9770.718434,1915.238745
3232.876604,-222.061783,-10658.965565,0.000000
3232.876931,-1480.411884,-9252.574275,-612.876398
3232.877259,-1258.350101,-10066.800811,-689.485948
3232.877587,0.000000,-9696.697840,-1685.410096
3232.877914,0.000000,-10881.027347,-995.924147
3232.878242,-1184.329507,-10732.986159,766.095498
3232.878569,370.102971,-8882.471304,-536.266849
3232.878897,296.082377,-8956.491898,-153.219100
3232.879225,-296.082377,-8216.285956,0.000000
3232.879552,-592.164754,-8364.327145,612.876398
3232.879880,-814.226536,-10362.883188,842.705048
3232.880207,888.247130,-10140.821405,-536.266849
3232.880535,1332.370696,-9844.739029,-1072.533697
3232.880863,1110.308913,-10436.903782,-383.047749
3232.881190,592.164754,-10807.006753,-306.438199
3232.881518,370.102971,-10362.883188,-995.924147
3232.881846,0.000000,-9844.739029,-689.485948
3232.882173,-444.123565,-9252.574275,-766.095498
3232.882501,148.041188,-9252.574275,229.828649
3232.882828,666.185348,-9030.512492,612.876398
3232.883156,222.061783,-10066.800811,1608.800546
3232.883484,74.020594,-12361.439231,842.705048
3232.883811,0.000000,-11029.068536,-919.314598
3232.884139,1184.329507,-8808.450710,-2451.505594
3232.884466,296.082377,-8512.368333,-2221.676944
3232.884794,-740.205942,-9992.780217,-383.047749
3232.885122,-962.267725,-10140.821405,306.438199
3232.885449,0.000000,-8882.471304,-1455.581446
3232.885777,222.061783,-8364.327145,-1149.143247
3232.886105,222.061783,-9030.512492,0.000000
3232.886432,222.061783,-7846.182985,1149.143247
3232.886760,518.144159,-10732.986159,919.314598
3232.887088,370.102971,-11843.295072,153.219100
3232.887415,1036.288319,-9992.780217,-612.876398
3232.887743,1406.391290,-9252.574275,-842.705048
3232.888071,1480.411884,-10140.821405,-536.266849
3232.888398,444.123565,-10881.027347,612.876398
3232.888726,-296.082377,-8364.327145,536.266849
3232.889054,962.267725,-7402.059420,-1608.800546
3232.889382,148.041188,-8142.265362,-612.876398
3232.889709,-222.061783,-9474.636058,689.485948
3232.890037,-370.102971,-8882.471304,919.314598
3232.890365,814.226536,-10288.862594,-306.438199
3232.890692,814.226536,-11029.068536,-1225.752797
3232.891020,0.000000,-9178.553681,-766.095498
3232.891348,370.102971,-9992.780217,-383.047749
3232.891675,1480.411884,-11769.274478,-612.876398
3232.892003,2368.659014,-11029.068536,-1455.581446
3232.892331,1184.329507,-9548.656652,-689.485948
3232.892658,296.082377,-9326.594869,919.314598
3232.892986,888.247130,-9178.553681,995.924147
3232.893314,888.247130,-8142.265362,-536.266849
3232.893642,0.000000,-9252.574275,-1225.752797
3232.893969,-1924.535449,-10510.924376,-536.266849
3232.894297,-1110.308913,-8882.471304,-1225.752797
3232.894625,-370.102971,-8438.347739,-1455.581446
3232.894952,444.123565,-11103.089130,-306.438199
3232.895280,444.123565,-11547.212695,0.000000
3232.895608,1776.494261,-11029.068536,-1072.533697
3232.895935,2442.679609,-9770.718434,-612.876398
3232.896263,1332.370696,-9696.697840,-383.047749
3232.896591,888.247130,-9696.697840,1149.143247
3232.896918,518.144159,-8882.471304,995.924147
3232.897246,-222.061783,-8364.327145,229.828649
3232.897574,-1110.308913,-9400.615463,153.219100
3232.897901,-592.164754,-8364.327145,0.000000
3232.898229,0.000000,-9770.718434,-229.828649
3232.898557,666.185348,-12361.439231,-766.095498
3232.898885,740.205942,-10732.986159,-1378.971896
3232.899212,444.123565,-8734.430116,-919.314598
3232.899540,296.082377,-8216.285956,-995.924147
3232.899868,-370.102971,-8734.430116,306.438199
3232.900195,-1110.308913,-9326.594869,2221.676944
3232.900523,-296.082377,-9474.636058,1149.143247
3232.900851,-444.123565,-9474.636058,-459.657299
3232.901178,-1850.514855,-9030.512492,0.000000
3232.901506,-740.205942,-8586.388927,0.000000
3232.901834,1184.329507,-10288.862594,-229.828649
3232.902161,1776.494261,-12065.356855,0.000000
3232.902489,1332.370696,-10436.903782,-1302.362347
3232.902817,222.061783,-9400.615463,-1685.410096
3232.903144,962.267725,-9400.615463,-1302.362347
3232.903472,1332.370696,-9474.636058,0.000000
3232.903800,444.123565,-9548.656652,1685.410096
3232.904128,-370.102971,-9030.512492,2068.457845
3232.904455,222.061783,-9770.718434,1378.971896
3232.904783,148.041188,-10066.800811,229.828649
3232.905111,-888.247130,-8956.491898,-459.657299
3232.905438,-962.267725,-10584.944971,229.828649
3232.905766,0.000000,-10881.027347,-1608.800546
3232.906094,444.123565,-10362.883188,-2298.286494
3232.906421,888.247130,-11547.212695,-1608.800546
3232.906749,1332.370696,-10658.965565,-689.485948
3232.907077,2220.617826,-9104.533087,229.828649
3232.907404,1184.329507,-8216.285956,1915.238745
3232.907732,-222.061783,-8438.347739,995.924147
3232.908060,-592.164754,-9178.553681,689.485948
3232.908388,0.000000,-8808.450710,0.000000
3232.908715,-740.205942,-8142.265362,0.000000
3232.909043,-666.185348,-10066.800811,0.000000
3232.909371,888.247130,-10881.027347,-153.219100
3232.909698,1332.370696,-11029.068536,-2298.286494
3232.910026,888.247130,-11251.130318,-1685.410096
3232.910354,518.144159,-10066.800811,-689.485948
3232.910681,518.144159,-8882.471304,612.876398
3232.911009,888.247130,-7179.997637,919.314598
3232.911337,74.020594,-8956.491898,1149.143247
3232.911664,0.000000,-9474.636058,919.314598
3232.911992,296.082377,-9030.512492,229.828649
3232.912320,666.185348,-8808.450710,-766.095498
3232.912647,-296.082377,-11177.109724,153.219100
3232.912975,-1110.308913,-11177.109724,-153.219100
3232.913303,-814.226536,-9844.739029,-1685.410096
3232.913631,518.144159,-9844.739029,-3677.258390
3232.913958,1110.308913,-9548.656652,-3140.991542
3232.914286,444.123565,-9770.718434,766.095498
3232.914614,814.226536,-9622.677246,3140.991542
3232.914941,2072.576638,-9992.780217,2298.286494
3232.915269,444.123565,-9400.615463,459.657299
3232.915597,-740.205942,-8882.471304,0.000000
3232.915924,-1702.473667,-7698.141797,-229.828649
3232.916252,0.000000,-9104.533087,-1149.143247
3232.916580,222.061783,-9918.759623,-2221.676944
3232.916907,666.185348,-10807.006753,-995.924147
3232.917235,666.185348,-9918.759623,-995.924147
3232.917563,1628.453072,-9104.533087,-306.438199
3232.917890,1480.411884,-9770.718434,383.047749
3232.918218,1332.370696,-9844.739029,1532.190996
3232.918546,518.144159,-8956.491898,306.438199
3232.918874,444.123565,-9400.615463,536.266849
3232.919201,370.102971,-9992.780217,689.485948
3232.919529,1258.350101,-11473.192101,1608.800546
3232.919857,1924.535449,-9992.780217,459.657299
3232.920184,962.267725,-7772.162391,-1149.143247
3232.920512,-962.267725,-10881.027347,-2374.896044
