#time,accel_x,accel_y,accel_z
2230.885642,518.144159,-9104.533087,0.000000
2230.885969,444.123565,-9622.677246,76.609550
2230.886297,148.041188,-9326.594869,0.000000
2230.886624,222.061783,-9326.594869,-306.438199
2230.886951,0.000000,-9622.677246,-536.266849
2230.887278,0.000000,-10066.800811,-1225.752797
2230.887606,0.000000,-10584.944971,-995.924147
2230.887933,518.144159,-10807.006753,-1072.533697
2230.888260,444.123565,-10807.006753,-612.876398
2230.888587,518.144159,-11177.109724,-1149.143247
2230.888915,518.144159,-10584.944971,0.000000
2230.889242,888.247130,-10288.862594,0.000000
2230.889569,518.144159,-9770.718434,-153.219100
2230.889896,222.061783,-9548.656652,-229.828649
2230.890224,0.000000,-9474.636058,-153.219100
2230.890551,0.000000,-9548.656652,-306.438199
2230.890878,0.000000,-10214.842000,-383.047749
2230.891206,0.000000,-9622.677246,-612.876398
2230.891533,814.226536,-10436.903782,-459.657299
2230.891860,444.123565,-10066.800811,-536.266849
2230.892187,666.185348,-9992.780217,76.609550
2230.892515,740.205942,-9770.718434,229.828649
2230.892842,666.185348,-9326.594869,612.876398
2230.893169,518.144159,-8660.409521,459.657299
2230.893496,370.102971,-8586.388927,536.266849
2230.893824,-666.185348,-8364.327145,536.266849
2230.894151,0.000000,-8660.409521,383.047749
2230.894478,0.000000,-8808.450710,0.000000
2230.894805,0.000000,-9400.615463,-306.438199
2230.895133,148.041188,-9474.636058,0.000000
2230.895460,74.020594,-9400.615463,0.000000
2230.895787,592.164754,-9622.677246,229.828649
2230.896114,444.123565,-9622.677246,0.000000
2230.896442,814.226536,-9474.636058,153.219100
2230.896769,518.144159,-9400.615463,76.609550
2230.897096,518.144159,-9326.594869,0.000000
2230.897423,222.061783,-9326.594869,0.000000
2230.897751,222.061783,-9252.574275,-612.876398
2230.898078,0.000000,-9400.615463,-612.876398
2230.898405,0.000000,-9918.759623,-383.047749
2230.898732,444.123565,-9992.780217,-1302.362347
2230.899060,1036.288319,-10658.965565,-1225.752797
2230.899387,1850.514855,-10955.047942,-612.876398
2230.899714,2738.761985,-9992.780217,-689.485948
2230.900041,3404.947333,-10066.800811,-459.657299
2230.900369,3552.988522,-10510.924376,-383.047749
2230.900696,4441.235652,-10214.842000,76.609550
2230.901023,4811.338623,-9104.533087,-766.095498
2230.901350,5477.523971,-9400.615463,-842.705048
2230.901678,5551.544565,-11029.068536,-459.657299
2230.902005,5773.606348,-10881.027347,-383.047749
2230.902332,5329.482782,-10732.986159,229.828649
2230.902659,5403.503377,-10881.027347,229.828649
2230.902987,6883.915261,-9844.739029,-383.047749
2230.903314,6809.894666,-9326.594869,0.000000
2230.903641,7179.997637,-8586.388927,1072.533697
2230.903968,8290.306550,-8734.430116,842.705048
2230.904296,8882.471304,-8586.388927,995.924147
2230.904623,7920.203579,-8068.244768,1685.410096
2230.904950,7698.141797,-8290.306550,1225.752797
2230.905278,6661.853478,-8290.306550,383.047749
2230.905605,7254.018232,-10288.862594,153.219100
2230.905932,7624.121203,-10288.862594,-229.828649
2230.906259,7698.141797,-10214.842000,76.609550
2230.906587,7698.141797,-11103.089130,842.705048
2230.906914,7179.997637,-10436.903782,1685.410096
2230.907241,6143.709319,-9548.656652,1302.362347
2230.907568,5107.421000,-7920.203579,459.657299
2230.907896,4441.235652,-7179.997637,536.266849
2230.908223,5107.421000,-7476.080014,383.047749
2230.908550,5551.544565,-7772.162391,766.095498
2230.908877,5921.647536,-8438.347739,919.314598
2230.909205,5995.668130,-9696.697840,229.828649
2230.909532,4367.215058,-11399.171507,-383.047749
2230.909859,3108.864956,-12213.398043,-612.876398
2230.910186,1850.514855,-12509.480420,-2145.067394
2230.910514,74.020594,-12509.480420,-2298.286494
2230.910841,-1332.370696,-12731.542202,-1685.410096
2230.911168,-1998.556043,-11621.233289,-689.485948
2230.911495,-2664.741391,-9474.636058,0.000000
2230.911823,-3404.947333,-9030.512492,-459.657299
2230.912150,-4219.173869,-7402.059420,383.047749
2230.912477,-4737.318029,-6439.791695,-612.876398
2230.912804,-3997.112087,-5921.647536,-612.876398
2230.913132,-2146.597232,-6217.729913,-919.314598
2230.913459,518.144159,-8512.368333,-306.438199
2230.913786,2294.638420,-10807.006753,536.266849
2230.914113,3256.906145,-12657.521608,306.438199
2230.914441,2960.823768,-14285.974681,-766.095498
2230.914768,222.061783,-14656.077652,-459.657299
2230.915095,-2516.700203,-14063.912898,-1072.533697
2230.915422,-4811.338623,-11251.130318,-1838.629195
2230.915750,-6661.853478,-9252.574275,-995.924147
2230.916077,-7031.956449,-7920.203579,0.000000
2230.916404,-6587.832884,-5921.647536,306.438199
2230.916731,-6883.915261,-4515.256246,1225.752797
2230.917059,-6217.729913,-3404.947333,76.609550
2230.917386,-4071.132681,-3923.091493,-459.657299
2230.917713,-1776.494261,-6143.709319,-153.219100
2230.918041,1628.453072,-9400.615463,76.609550
2230.918368,4441.235652,-11399.171507,383.047749
2230.918695,4959.379811,-14063.912898,689.485948
2230.919022,4293.194464,-15322.262999,0.000000
2230.919350,2442.679609,-15322.262999,-689.485948
2230.919677,0.000000,-14285.974681,-1455.581446
2230.920004,-1924.535449,-12509.480420,-2068.457845
2230.920331,-2960.823768,-10140.821405,-2221.676944
2230.920659,-3182.885551,-6883.915261,-1149.143247
2230.920986,-2664.741391,-4219.173869,536.266849
2230.921313,-1110.308913,-2960.823768,-1225.752797
2230.921640,518.144159,-3478.967927,919.314598
2230.921968,3997.112087,-5847.626942,1072.533697
2230.922295,7328.038826,-8512.368333,1225.752797
2230.922622,9326.594869,-11621.233289,919.314598
2230.922949,9104.533087,-13915.871710,1455.581446
2230.923277,7920.203579,-15618.345376,0.000000
2230.923604,5107.421000,-15988.448347,-1149.143247
2230.923931,1776.494261,-15988.448347,-1915.238745
2230.924258,518.144159,-14137.933492,-3524.039291
2230.924586,-1480.411884,-11695.253884,-3064.381992
2230.924913,-2664.741391,-8660.409521,-1532.190996
2230.925240,-2294.638420,-5107.421000,-612.876398
2230.925567,-1332.370696,-2886.803174,-153.219100
2230.925895,592.164754,-2886.803174,1532.190996
2230.926222,4441.235652,-4071.132681,1838.629195
2230.926549,7254.018232,-6513.812290,2987.772442
2230.926876,9548.656652,-10288.862594,3217.601092
2230.927204,9548.656652,-12953.603985,3217.601092
2230.927531,6291.750507,-13471.748144,2221.676944
2230.927858,3108.864956,-15470.304188,0.000000
2230.928185,962.267725,-17320.819043,-2068.457845
2230.928513,-3330.926739,-14730.098246,-3217.601092
2230.928840,-5033.400406,-11843.295072,-3294.210641
2230.929167,-5329.482782,-9030.512492,-3217.601092
2230.929494,-7031.956449,-6513.812290,-1455.581446
2230.929822,-6883.915261,-4885.359217,229.828649
2230.930149,-4737.318029,-3256.906145,1225.752797
2230.930476,-1850.514855,-3627.009116,1532.190996
2230.930804,1554.432478,-5995.668130,2834.553343
2230.931131,3552.988522,-8438.347739,3677.258390
2230.931458,3108.864956,-10362.883188,4290.134789
2230.931785,1776.494261,-11325.150913,2987.772442
2230.932113,222.061783,-14508.036463,-306.438199
2230.932440,-1110.308913,-16506.592507,-3140.991542
2230.932767,-4515.256246,-14211.954086,-3294.210641
2230.933094,-5107.421000,-11621.233289,-4213.525239
2230.933422,-6365.771101,-9696.697840,-3524.039291
2230.933749,-7328.038826,-7105.977043,-2528.115143
2230.934076,-7105.977043,-5551.544565,-919.314598
2230.934403,-5921.647536,-4737.318029,229.828649
2230.934731,-1628.453072,-4811.338623,0.000000
2230.935058,1998.556043,-7624.121203,1072.533697
2230.935385,2812.782580,-8068.244768,1991.848295
2230.935712,2886.803174,-9770.718434,2757.943793
2230.936040,4071.132681,-12361.439231,1838.629195
2230.936367,2294.638420,-14211.954086,-153.219100
2230.936694,1184.329507,-13915.871710,-2451.505594
2230.937021,296.082377,-13249.686362,-3600.648841
2230.937349,-1554.432478,-11029.068536,-3753.867940
2230.937676,-2590.720797,-9326.594869,-3217.601092
2230.938003,-2738.761985,-9030.512492,-2374.896044
2230.938330,-1480.411884,-8142.265362,-1762.019645
2230.938658,-592.164754,-7105.977043,-766.095498
2230.938985,1480.411884,-6883.915261,0.000000
2230.939312,3997.112087,-8808.450710,1149.143247
2230.939639,4737.318029,-9030.512492,2451.505594
2230.939967,4663.297435,-9178.553681,2911.162892
2230.940294,4737.318029,-10955.047942,2145.067394
2230.940621,4663.297435,-11843.295072,1149.143247
2230.940948,3404.947333,-12435.459826,0.000000
2230.941276,2516.700203,-11547.212695,-995.924147
2230.941603,592.164754,-9474.636058,-1608.800546
2230.941930,-370.102971,-8438.347739,-2298.286494
2230.942257,0.000000,-9326.594869,-2604.724693
2230.942585,1110.308913,-9252.574275,-1685.410096
2230.942912,2442.679609,-8068.244768,0.000000
2230.943239,3330.926739,-8586.388927,1608.800546
2230.943567,4737.318029,-9178.553681,1991.848295
2230.943894,4219.173869,-9474.636058,3064.381992
2230.944221,4145.153275,-10066.800811,3294.210641
2230.944548,3552.988522,-10807.006753,2604.724693
2230.944876,2664.741391,-10362.883188,1838.629195
2230.945203,1184.329507,-8882.471304,153.219100
2230.945530,-1480.411884,-8216.285956,-1149.143247
2230.945857,-2812.782580,-8882.471304,-1532.190996
2230.946185,-2886.803174,-9252.574275,-2681.334243
2230.946512,-2516.700203,-9770.718434,-3600.648841
2230.946839,-2146.597232,-10732.986159,-2528.115143
2230.947166,-1332.370696,-10807.006753,-995.924147
2230.947494,0.000000,-11177.109724,459.657299
2230.947821,0.000000,-11029.068536,1838.629195
2230.948148,222.061783,-11029.068536,1838.629195
2230.948475,962.267725,-10658.965565,383.047749
2230.948803,0.000000,-9252.574275,1149.143247
2230.949130,-962.267725,-8216.285956,1225.752797
2230.949457,-1924.535449,-7328.038826,229.828649
2230.949785,-4145.153275,-7624.121203,-919.314598
2230.950112,-4737.318029,-8364.327145,-1991.848295
2230.950439,-4145.153275,-9400.615463,-2604.724693
2230.950766,-2812.782580,-9918.759623,-2834.553343
2230.951094,-2294.638420,-11251.130318,-2068.457845
2230.951421,-962.267725,-11991.336260,-919.314598
2230.951748,-370.102971,-11621.233289,306.438199
2230.952076,222.061783,-11843.295072,689.485948
2230.952403,666.185348,-11473.192101,459.657299
2230.952730,0.000000,-9844.739029,689.485948
2230.953057,-962.267725,-7698.141797,766.095498
2230.953385,-1702.473667,-6883.915261,306.438199
2230.953712,-2294.638420,-6513.812290,-229.828649
2230.954039,-2368.659014,-7254.018232,-612.876398
2230.954367,-1554.432478,-8290.306550,-1455.581446
2230.954694,-296.082377,-10658.965565,-1838.629195
2230.955021,74.020594,-11399.171507,-1762.019645
2230.955348,1184.329507,-11399.171507,-842.705048
2230.955676,1628.453072,-11325.150913,-536.266849
2230.956003,1850.514855,-11473.192101,1072.533697
2230.956330,2442.679609,-11325.150913,1149.143247
2230.956657,2442.679609,-10584.944971,1072.533697
2230.956985,2368.659014,-9326.594869,536.266849
2230.957312,1702.473667,-7402.059420,0.000000
2230.957639,592.164754,-7105.977043,-689.485948
2230.957967,592.164754,-7402.059420,459.657299
2230.958294,1924.535449,-8290.306550,-1532.190996
2230.958621,3552.988522,-8808.450710,-2068.457845
2230.958948,3256.906145,-10955.047942,-1149.143247
2230.959276,4071.132681,-11917.315666,1072.533697
2230.959603,3701.029710,-10510.924376,2221.676944
2230.959930,2738.761985,-10362.883188,1685.410096
2230.960258,2590.720797,-11843.295072,766.095498
2230.960585,3034.844362,-11473.192101,76.609550
2230.960912,1776.494261,-9030.512492,459.657299
2230.961239,74.020594,-7328.038826,383.047749
2230.961567,0.000000,-7994.224174,-459.657299
2230.961894,-1184.329507,-8216.285956,-766.095498
2230.962221,-592.164754,-8290.306550,-1915.238745
2230.962549,444.123565,-8808.450710,-1991.848295
2230.962876,1628.453072,-10658.965565,-1072.533697
2230.963203,2220.617826,-11769.274478,229.828649
2230.963530,740.205942,-10658.965565,1685.410096
2230.963858,148.041188,-10140.821405,1762.019645
2230.964185,296.082377,-11029.068536,1149.143247
2230.964512,-148.041188,-10881.027347,1455.581446
2230.964840,-1184.329507,-9474.636058,0.000000
2230.965167,-1554.432478,-9252.574275,-536.266849
2230.965494,-2294.638420,-8364.327145,-612.876398
2230.965821,-3330.926739,-7624.121203,-919.314598
2230.966149,-3182.885551,-8364.327145,-919.314598
2230.966476,-2368.659014,-8956.491898,-995.924147
2230.966803,222.061783,-9622.677246,-1532.190996
2230.967131,222.061783,-10584.944971,-842.705048
2230.967458,148.041188,-10362.883188,1302.362347
2230.967785,74.020594,-9992.780217,1378.971896
2230.968112,0.000000,-11177.109724,919.314598
2230.968440,-1480.411884,-10807.006753,383.047749
2230.968767,-2368.659014,-9548.656652,-153.219100
2230.969094,-2516.700203,-8290.306550,-995.924147
2230.969421,-3330.926739,-7476.080014,-1225.752797
2230.969749,-2516.700203,-8216.285956,-1302.362347
2230.970076,-2146.597232,-8512.368333,-1225.752797
2230.970403,-1110.308913,-9400.615463,-766.095498
2230.970731,666.185348,-9992.780217,-1072.533697
2230.971058,962.267725,-9918.759623,229.828649
2230.971385,1924.535449,-10436.903782,995.924147
2230.971712,1628.453072,-10658.965565,612.876398
2230.972040,1406.391290,-10066.800811,153.219100
2230.972367,814.226536,-11325.150913,76.609550
2230.972694,666.185348,-11103.089130,0.000000
2230.973022,296.082377,-10658.965565,-689.485948
2230.973349,0.000000,-8956.491898,-1838.629195
2230.973676,0.000000,-8068.244768,-2068.457845
2230.974003,0.000000,-8364.327145,-2068.457845
2230.974331,1184.329507,-8882.471304,-995.924147
2230.974658,3256.906145,-9178.553681,-842.705048
2230.974985,4071.132681,-9622.677246,612.876398
2230.975313,4219.173869,-10510.924376,2374.896044
2230.975640,3849.070898,-9770.718434,2528.115143
2230.975967,3256.906145,-10214.842000,1608.800546
2230.976294,2368.659014,-11029.068536,536.266849
2230.976622,2072.576638,-11473.192101,-459.657299
2230.976949,740.205942,-10288.862594,-612.876398
2230.977276,74.020594,-9178.553681,0.000000
2230.977604,0.000000,-8216.285956,-459.657299
2230.977931,0.000000,-9030.512492,-306.438199
2230.978258,0.000000,-9178.553681,-919.314598
2230.978585,1628.453072,-8216.285956,-689.485948
2230.978913,2220.617826,-8512.368333,-383.047749
2230.979240,2072.576638,-9548.656652,1455.581446
2230.979567,1776.494261,-9400.615463,2145.067394
2230.979894,1480.411884,-9992.780217,1915.238745
2230.980222,1628.453072,-11473.192101,1072.533697
2230.980549,1332.370696,-11695.253884,536.266849
2230.980876,518.144159,-10732.986159,-306.438199
2230.981204,-740.205942,-9548.656652,153.219100
2230.981531,-1406.391290,-9178.553681,-1149.143247
2230.981858,-2368.659014,-8660.409521,-1225.752797
2230.982185,-3034.844362,-8956.491898,-995.924147
2230.982513,-1702.473667,-8808.450710,-995.924147
2230.982840,-296.082377,-8956.491898,-1225.752797
2230.983167,0.000000,-9696.697840,153.219100
2230.983495,-592.164754,-10140.821405,459.657299
2230.983822,-518.144159,-10658.965565,306.438199
2230.984149,-370.102971,-11399.171507,0.000000
2230.984476,-740.205942,-11325.150913,-536.266849
2230.984804,-888.247130,-10955.047942,-536.266849
2230.985131,-1554.432478,-9622.677246,-1149.143247
2230.985458,-1850.514855,-8364.327145,-766.095498
2230.985786,-2072.576638,-8068.244768,-1149.143247
2230.986113,-1702.473667,-8734.430116,-1149.143247
2230.986440,-1258.350101,-9104.533087,-1225.752797
2230.986767,-888.247130,-9178.553681,-1072.533697
2230.987095,-666.185348,-9474.636058,-306.438199
2230.987422,0.000000,-10807.006753,-383.047749
2230.987749,222.061783,-10436.903782,-383.047749
2230.988077,814.226536,-10807.006753,459.657299
2230.988404,666.185348,-11399.171507,536.266849
2230.988731,592.164754,-11029.068536,689.485948
2230.989058,518.144159,-9992.780217,0.000000
2230.989386,-222.061783,-8586.388927,-995.924147
2230.989713,-814.226536,-8068.244768,-1225.752797
2230.990040,-370.102971,-7328.038826,-842.705048
2230.990368,1110.308913,-8438.347739,-1532.190996
2230.990695,2368.659014,-8660.409521,-459.657299
2230.991022,3034.844362,-9474.636058,229.828649
2230.991349,2886.803174,-9992.780217,1455.581446
2230.991677,2960.823768,-10066.800811,2145.067394
2230.992004,2960.823768,-11251.130318,1072.533697
2230.992331,2738.761985,-11547.212695,536.266849
2230.992658,1554.432478,-11177.109724,153.219100
2230.992986,814.226536,-9696.697840,0.000000
2230.993313,518.144159,-8882.471304,-459.657299
2230.993640,0.000000,-8290.306550,-842.705048
2230.993968,0.000000,-8512.368333,-1072.533697
2230.994295,814.226536,-8734.430116,-1608.800546
2230.994622,2294.638420,-9252.574275,-1915.238745
2230.994949,2590.720797,-9770.718434,-536.266849
2230.995277,2812.782580,-10955.047942,1149.143247
2230.995604,2886.803174,-10584.944971,1225.752797
2230.995931,2590.720797,-10807.006753,919.314598
2230.996259,2072.576638,-11621.233289,689.485948
2230.996586,1924.535449,-11621.233289,153.219100
2230.996913,74.020594,-10732.986159,459.657299
2230.997240,-814.226536,-8882.471304,76.609550
2230.997568,-2220.617826,-7328.038826,-1149.143247
2230.997895,-2812.782580,-8142.265362,-1685.410096
2230.998222,-2516.700203,-8660.409521,-1762.019645
2230.998550,-1554.432478,-8734.430116,-1762.019645
2230.998877,-370.102971,-9326.594869,-689.485948
2230.999204,296.082377,-10510.924376,1072.533697
2230.999531,74.020594,-10807.006753,1685.410096
2230.999859,370.102971,-10955.047942,1149.143247
2231.000186,0.000000,-11251.130318,536.266849
2231.000513,-444.123565,-11177.109724,0.000000
2231.000841,-888.247130,-9992.780217,-153.219100
2231.001168,-1998.556043,-7772.162391,0.000000
2231.001495,-2960.823768,-6587.832884,-306.438199
2231.001822,-3404.947333,-7105.977043,-536.266849
2231.002150,-2960.823768,-7846.182985,-1378.971896
2231.002477,-1850.514855,-9030.512492,-1685.410096
2231.002804,-592.164754,-10066.800811,-1608.800546
2231.003131,0.000000,-10807.006753,-536.266849
2231.003459,814.226536,-11177.109724,383.047749
2231.003786,518.144159,-10807.006753,229.828649
2231.004113,666.185348,-10881.027347,536.266849
2231.004441,222.061783,-11251.130318,612.876398
2231.004768,0.000000,-10881.027347,76.609550
2231.005095,-222.061783,-9178.553681,-612.876398
2231.005422,-962.267725,-7846.182985,-1072.533697
2231.005750,-1406.391290,-7476.080014,-1072.533697
2231.006077,-1036.288319,-8142.265362,-1302.362347
2231.006404,814.226536,-8660.409521,-689.485948
2231.006732,2368.659014,-9178.553681,-1225.752797
2231.007059,3330.926739,-10436.903782,0.000000
2231.007386,4367.215058,-11177.109724,1455.581446
2231.007713,4145.153275,-10732.986159,2145.067394
2231.008041,3627.009116,-11695.253884,2451.505594
2231.008368,3034.844362,-11547.212695,1225.752797
2231.008695,2516.700203,-10658.965565,612.876398
2231.009023,1110.308913,-9400.615463,0.000000
2231.009350,0.000000,-7994.224174,-995.924147
2231.009677,-1184.329507,-7624.121203,-1225.752797
2231.010004,-888.247130,-8438.347739,-1302.362347
2231.010332,148.041188,-8216.285956,-1532.190996
2231.010659,2220.617826,-8956.491898,-1455.581446
2231.010986,3182.885551,-9844.739029,-306.438199
2231.011314,3034.844362,-10584.944971,1302.362347
2231.011641,3182.885551,-10807.006753,1838.629195
2231.011968,2664.741391,-10658.965565,1532.190996
2231.012295,1924.535449,-10510.924376,1455.581446
2231.012623,1110.308913,-11177.109724,766.095498
2231.012950,592.164754,-10214.842000,1532.190996
2231.013277,-1480.411884,-8512.368333,-459.657299
2231.013605,-2516.700203,-7846.182985,-2145.067394
2231.013932,-3256.906145,-8438.347739,-2374.896044
2231.014259,-2516.700203,-9548.656652,-2068.457845
2231.014586,-740.205942,-9252.574275,-1302.362347
2231.014914,740.205942,-9178.553681,-306.438199
2231.015241,1258.350101,-10362.883188,153.219100
2231.015568,1554.432478,-10436.903782,1378.971896
2231.015895,1184.329507,-10658.965565,1302.362347
2231.016223,0.000000,-11103.089130,919.314598
2231.016550,-444.123565,-11325.150913,0.000000
2231.016877,-1332.370696,-10288.862594,-842.705048
2231.017205,-2146.597232,-8808.450710,-459.657299
2231.017532,-3701.029710,-7624.121203,-1532.190996
2231.017859,-3256.906145,-8808.450710,-2221.676944
2231.018186,-3182.885551,-9548.656652,-1225.752797
2231.018514,-1332.370696,-9622.677246,-1762.019645
2231.018841,0.000000,-9252.574275,-842.705048
2231.019168,0.000000,-9844.739029,919.314598
2231.019496,518.144159,-9548.656652,1991.848295
2231.019823,888.247130,-9770.718434,1838.629195
2231.020150,296.082377,-10214.842000,995.924147
2231.020477,-592.164754,-10510.924376,383.047749
2231.020805,-666.185348,-10066.800811,-383.047749
2231.021132,-1480.411884,-8956.491898,-995.924147
2231.021459,-2368.659014,-8142.265362,-1608.800546
2231.021787,-2368.659014,-7624.121203,-1685.410096
2231.022114,-888.247130,-8882.471304,-1455.581446
2231.022441,962.267725,-9326.594869,-1072.533697
2231.022768,2368.659014,-8956.491898,-689.485948
2231.023096,3330.926739,-9918.759623,1302.362347
2231.023423,3923.091493,-9992.780217,2757.943793
2231.023750,3034.844362,-9918.759623,2528.115143
2231.024078,2516.700203,-10436.903782,1762.019645
2231.024405,2368.659014,-10955.047942,229.828649
2231.024732,1628.453072,-10214.842000,0.000000
2231.025059,592.164754,-10362.883188,-689.485948
2231.025387,444.123565,-9104.533087,-1608.800546
2231.025714,-296.082377,-8438.347739,-1838.629195
2231.026041,0.000000,-9474.636058,-1378.971896
2231.026368,1628.453072,-9622.677246,-2068.457845
2231.026696,2886.803174,-9770.718434,-1685.410096
2231.027023,3478.967927,-9918.759623,0.000000
2231.027350,2960.823768,-10436.903782,1378.971896
2231.027678,2368.659014,-9918.759623,1302.362347
2231.028005,2146.597232,-10807.006753,1378.971896
2231.028332,1332.370696,-10955.047942,842.705048
2231.028659,592.164754,-10436.903782,153.219100
2231.028987,74.020594,-10436.903782,-1532.190996
2231.029314,-666.185348,-9252.574275,-459.657299
2231.029641,-1480.411884,-8290.306550,-766.095498
2231.029969,-1998.556043,-9326.594869,-1455.581446
2231.030296,-1258.350101,-9474.636058,-842.705048
2231.030623,148.041188,-8660.409521,-766.095498
2231.030950,1776.494261,-9178.553681,-383.047749
2231.031278,814.226536,-9918.759623,1685.410096
2231.031605,444.123565,-9474.636058,1762.019645
2231.031932,518.144159,-10288.862594,1149.143247
2231.032260,-370.102971,-11251.130318,306.438199
2231.032587,-1184.329507,-10807.006753,-306.438199
2231.032914,-1110.308913,-9400.615463,-689.485948
2231.033241,-1850.514855,-8438.347739,-459.657299
2231.033569,-2738.761985,-7772.162391,153.219100
2231.033896,-2146.597232,-7994.224174,-995.924147
2231.034223,-1776.494261,-9030.512492,-612.876398
2231.034551,-1110.308913,-8660.409521,-766.095498
2231.034878,-370.102971,-9326.594869,-459.657299
2231.035205,-592.164754,-10436.903782,689.485948
2231.035532,-444.123565,-10140.821405,1225.752797
2231.035860,222.061783,-10732.986159,0.000000
2231.036187,-1036.288319,-10436.903782,0.000000
2231.036514,-1554.432478,-11473.192101,-459.657299
2231.036842,-296.082377,-11029.068536,-1225.752797
2231.037169,-1332.370696,-9178.553681,-1225.752797
2231.037496,-1850.514855,-7698.141797,-1149.143247
2231.037823,-1332.370696,-8290.306550,-1225.752797
2231.038151,-962.267725,-9030.512492,-536.266849
2231.038478,1110.308913,-8734.430116,-689.485948
2231.038805,2294.638420,-9400.615463,-1149.143247
2231.039132,2368.659014,-10807.006753,383.047749
2231.039460,2516.700203,-10955.047942,1685.410096
2231.039787,2368.659014,-10732.986159,842.705048
2231.040114,1924.535449,-11251.130318,229.828649
2231.040442,1628.453072,-12213.398043,229.828649
2231.040769,2072.576638,-11325.150913,-689.485948
2231.041096,962.267725,-9474.636058,-383.047749
2231.041423,296.082377,-8512.368333,0.000000
2231.041751,296.082377,-7920.203579,-383.047749
2231.042078,370.102971,-8290.306550,-459.657299
2231.042405,1554.432478,-7920.203579,-919.314598
2231.042733,2220.617826,-7994.224174,-842.705048
2231.043060,2442.679609,-9696.697840,459.657299
2231.043387,2590.720797,-10807.006753,1685.410096
2231.043714,2590.720797,-10362.883188,1455.581446
2231.044042,1924.535449,-10510.924376,919.314598
2231.044369,2072.576638,-11843.295072,919.314598
2231.044696,1850.514855,-11325.150913,612.876398
2231.045024,740.205942,-9992.780217,766.095498
2231.045351,-666.185348,-8364.327145,0.000000
2231.045678,-740.205942,-7698.141797,-459.657299
2231.046005,-1702.473667,-8068.244768,-689.485948
2231.046333,-1406.391290,-8290.306550,-383.047749
2231.046660,0.000000,-8586.388927,-842.705048
2231.046987,1036.288319,-9696.697840,-919.314598
2231.047315,1554.432478,-10807.006753,-229.828649
2231.047642,1258.350101,-10807.006753,306.438199
2231.047969,592.164754,-11251.130318,919.314598
2231.048296,518.144159,-12139.377449,612.876398
2231.048624,444.123565,-11769.274478,-153.219100
2231.048951,0.000000,-10214.842000,-689.485948
2231.049278,-1036.288319,-8734.430116,-383.047749
2231.049606,-1554.432478,-7550.100608,-1072.533697
2231.049933,-2072.576638,-8216.285956,0.000000
2231.050260,-1850.514855,-8808.450710,0.000000
2231.050588,-1258.350101,-8512.368333,-1149.143247
2231.050915,-962.267725,-9548.656652,-1072.533697
2231.051243,-1332.370696,-10288.862594,-612.876398
2231.051570,-740.205942,-11029.068536,-306.438199
2231.051897,-592.164754,-10732.986159,-306.438199
2231.052225,-222.061783,-11103.089130,229.828649
2231.052552,222.061783,-11621.233289,153.219100
2231.052879,-222.061783,-10288.862594,0.000000
2231.053207,-888.247130,-8734.430116,-766.095498
2231.053534,-1850.514855,-7476.080014,-842.705048
2231.053861,-2072.576638,-7550.100608,-1225.752797
2231.054189,-1554.432478,-7698.141797,-1378.971896
2231.054516,148.041188,-8290.306550,-995.924147
2231.054844,1406.391290,-8586.388927,0.000000
2231.055171,1924.535449,-9992.780217,919.314598
2231.055498,2812.782580,-10807.006753,1455.581446
2231.055826,2664.741391,-11251.130318,1455.581446
2231.056153,1998.556043,-11547.212695,919.314598
2231.056480,1554.432478,-11621.233289,306.438199
2231.056808,1332.370696,-11029.068536,0.000000
2231.057135,1406.391290,-9400.615463,-689.485948
2231.057462,-444.123565,-7550.100608,-612.876398
2231.057790,-1036.288319,-7994.224174,-689.485948
2231.058117,-370.102971,-8660.409521,-1149.143247
2231.058445,666.185348,-9252.574275,-1915.238745
2231.058772,1480.411884,-9030.512492,-1685.410096
2231.059099,1332.370696,-10510.924376,153.219100
2231.059427,2442.679609,-10955.047942,1378.971896
2231.059754,2368.659014,-10214.842000,1608.800546
2231.060081,1850.514855,-10881.027347,1762.019645
2231.060409,1776.494261,-11325.150913,1302.362347
2231.060736,1184.329507,-10955.047942,459.657299
2231.061063,-222.061783,-9474.636058,536.266849
2231.061391,-592.164754,-8438.347739,-536.266849
2231.061718,-1998.556043,-8142.265362,-1762.019645
2231.062046,-2368.659014,-9178.553681,-1915.238745
2231.062373,-1406.391290,-9178.553681,-1685.410096
2231.062700,370.102971,-9178.553681,-1991.848295
2231.063028,1554.432478,-9992.780217,-1225.752797
2231.063355,1480.411884,-10807.006753,459.657299
2231.063682,1998.556043,-10732.986159,2145.067394
2231.064010,1850.514855,-10881.027347,1838.629195
2231.064337,1406.391290,-11103.089130,1685.410096
2231.064664,1036.288319,-10214.842000,612.876398
2231.064992,-296.082377,-9030.512492,0.000000
2231.065319,-1332.370696,-8068.244768,-306.438199
2231.065647,-1850.514855,-7698.141797,-842.705048
2231.065974,-2368.659014,-8068.244768,-995.924147
2231.066301,-1702.473667,-9252.574275,-1608.800546
2231.066629,-888.247130,-9474.636058,-1225.752797
2231.066956,0.000000,-10288.862594,-689.485948
2231.067283,0.000000,-10140.821405,-153.219100
2231.067611,0.000000,-10362.883188,459.657299
2231.067938,518.144159,-10881.027347,689.485948
2231.068265,518.144159,-10732.986159,306.438199
2231.068593,370.102971,-10658.965565,689.485948
2231.068920,-444.123565,-9474.636058,0.000000
2231.069248,-1110.308913,-7994.224174,-536.266849
2231.069575,-2294.638420,-7402.059420,-1608.800546
2231.069902,-2294.638420,-8142.265362,-1915.238745
2231.070230,-888.247130,-9030.512492,-1378.971896
2231.070557,740.205942,-9178.553681,-1302.362347
2231.070884,2738.761985,-10584.944971,0.000000
2231.071212,3256.906145,-11621.233289,995.924147
2231.071539,2886.803174,-10881.027347,1685.410096
2231.071866,2442.679609,-10732.986159,1532.190996
2231.072194,1702.473667,-11251.130318,383.047749
2231.072521,1480.411884,-11103.089130,0.000000
2231.072848,148.041188,-9992.780217,0.000000
2231.073176,-296.082377,-8216.285956,-383.047749
2231.073503,-1184.329507,-7994.224174,-1072.533697
2231.073831,-1554.432478,-8808.450710,-1685.410096
2231.074158,-740.205942,-9252.574275,-1838.629195
2231.074485,592.164754,-8956.491898,-1608.800546
2231.074813,1184.329507,-8660.409521,-689.485948
2231.075140,1924.535449,-9844.739029,842.705048
2231.075467,1702.473667,-10214.842000,2221.676944
2231.075795,1850.514855,-10214.842000,1838.629195
2231.076122,1554.432478,-10288.862594,1378.971896
2231.076449,962.267725,-11029.068536,1072.533697
2231.076777,444.123565,-10436.903782,306.438199
2231.077104,-296.082377,-9548.656652,-383.047749
2231.077432,-1406.391290,-8512.368333,-1378.971896
2231.077759,-2220.617826,-8808.450710,-1532.190996
2231.078086,-1554.432478,-9622.677246,-1225.752797
2231.078414,-518.144159,-9474.636058,-1378.971896
2231.078741,1258.350101,-9474.636058,-1149.143247
2231.079068,2072.576638,-9696.697840,0.000000
2231.079396,1998.556043,-9622.677246,1378.971896
2231.079723,2368.659014,-10510.924376,2374.896044
2231.080050,1776.494261,-10807.006753,1685.410096
2231.080378,962.267725,-10510.924376,612.876398
2231.080705,370.102971,-10214.842000,0.000000
2231.081033,-444.123565,-9474.636058,-459.657299
2231.081360,-1184.329507,-8734.430116,-766.095498
2231.081687,-1332.370696,-8956.491898,-1532.190996
2231.082015,-1258.350101,-9178.553681,-1532.190996
2231.082342,-370.102971,-9696.697840,-383.047749
2231.082669,370.102971,-9474.636058,-689.485948
2231.082997,148.041188,-9548.656652,76.609550
2231.083324,74.020594,-10214.842000,842.705048
2231.083651,148.041188,-10140.821405,766.095498
2231.083979,-370.102971,-9548.656652,383.047749
2231.084306,-518.144159,-10881.027347,0.000000
2231.084634,-370.102971,-10288.862594,76.609550
2231.084961,-296.082377,-9400.615463,-612.876398
2231.085288,-1184.329507,-7920.203579,-1149.143247
2231.085616,-1702.473667,-8142.265362,-1455.581446
2231.085943,-1036.288319,-8438.347739,-1378.971896
2231.086270,0.000000,-8882.471304,-995.924147
2231.086598,1998.556043,-8956.491898,-612.876398
2231.086925,2146.597232,-9474.636058,766.095498
2231.087252,2368.659014,-10881.027347,1072.533697
2231.087580,1998.556043,-11251.130318,1838.629195
2231.087907,1480.411884,-11177.109724,689.485948
2231.088235,814.226536,-11547.212695,-153.219100
2231.088562,592.164754,-11621.233289,-766.095498
2231.088889,0.000000,-10732.986159,-612.876398
2231.089217,-592.164754,-9030.512492,-919.314598
2231.089544,-1258.350101,-7920.203579,-1455.581446
2231.089871,-1406.391290,-8734.430116,-919.314598
2231.090199,-222.061783,-8956.491898,-1302.362347
2231.090526,1184.329507,-8586.388927,-1302.362347
2231.090853,1998.556043,-9252.574275,153.219100
2231.091181,2442.679609,-10807.006753,995.924147
2231.091508,1776.494261,-10288.862594,1149.143247
2231.091836,1628.453072,-10066.800811,1225.752797
2231.092163,888.247130,-10955.047942,842.705048
2231.092490,518.144159,-11917.315666,0.000000
2231.092818,-222.061783,-11251.130318,0.000000
2231.093145,-1258.350101,-9400.615463,0.000000
2231.093472,-1332.370696,-7920.203579,-766.095498
2231.093800,-1480.411884,-8586.388927,-1532.190996
2231.094127,-2072.576638,-7994.224174,-536.266849
2231.094454,-444.123565,-7994.224174,-383.047749
2231.094782,1258.350101,-8512.368333,-536.266849
2231.095109,2072.576638,-9622.677246,306.438199
2231.095437,2664.741391,-10510.924376,1685.410096
2231.095764,2220.617826,-10436.903782,1149.143247
2231.096091,1628.453072,-11103.089130,1225.752797
2231.096419,1480.411884,-11843.295072,306.438199
2231.096746,814.226536,-10732.986159,-612.876398
2231.097073,-222.061783,-9474.636058,-919.314598
2231.097401,-666.185348,-8216.285956,-766.095498
2231.097728,-1184.329507,-8142.265362,-1302.362347
2231.098055,-1036.288319,-8882.471304,-766.095498
2231.098383,0.000000,-9400.615463,-1378.971896
2231.098710,222.061783,-8956.491898,-1378.971896
2231.099038,74.020594,-9844.739029,-229.828649
2231.099365,148.041188,-10807.006753,229.828649
2231.099692,592.164754,-11103.089130,0.000000
2231.100020,444.123565,-11029.068536,0.000000
2231.100347,148.041188,-11917.315666,536.266849
2231.100674,0.000000,-11843.295072,0.000000
2231.101002,-148.041188,-10362.883188,-612.876398
2231.101329,-1332.370696,-8216.285956,-1302.362347
2231.101656,-2220.617826,-7476.080014,-1685.410096
2231.101984,-2294.638420,-8068.244768,-1532.190996
2231.102311,-592.164754,-8808.450710,-1149.143247
2231.102639,1554.432478,-8956.491898,-995.924147
2231.102966,1998.556043,-9474.636058,153.219100
2231.103293,2368.659014,-10658.965565,1378.971896
2231.103621,2072.576638,-10584.944971,1225.752797
2231.103948,1998.556043,-11325.150913,1149.143247
2231.104275,1850.514855,-11917.315666,612.876398
2231.104603,1332.370696,-11029.068536,612.876398
2231.104930,592.164754,-9548.656652,0.000000
2231.105257,-592.164754,-7698.141797,536.266849
2231.105585,-1258.350101,-7105.977043,-536.266849
2231.105912,-1554.432478,-8068.244768,-995.924147
2231.106240,-518.144159,-8364.327145,-1532.190996
2231.106567,1036.288319,-8068.244768,-1455.581446
2231.106894,1776.494261,-9104.533087,0.000000
2231.107222,2072.576638,-10436.903782,1378.971896
2231.107549,2146.597232,-10214.842000,1915.238745
2231.107876,1776.494261,-10214.842000,1455.581446
2231.108204,1480.411884,-11177.109724,1302.362347
2231.108531,1332.370696,-11769.274478,306.438199
2231.108858,666.185348,-10584.944971,0.000000
2231.109186,-740.205942,-9030.512492,0.000000
2231.109513,-1776.494261,-7476.080014,-1302.362347
2231.109840,-1998.556043,-8438.347739,-2298.286494
2231.110168,-1332.370696,-9030.512492,-2451.505594
2231.110495,-444.123565,-9252.574275,-1762.019645
2231.110823,1184.329507,-9696.697840,-1608.800546
2231.111150,2368.659014,-10881.027347,-459.657299
2231.111477,2220.617826,-10881.027347,1225.752797
2231.111805,2368.659014,-11695.253884,306.438199
2231.112132,1776.494261,-11917.315666,1072.533697
2231.112459,1554.432478,-12435.459826,536.266849
2231.112787,518.144159,-10214.842000,0.000000
2231.113114,-1184.329507,-8660.409521,-536.266849
2231.113441,-2146.597232,-7920.203579,-459.657299
2231.113769,-2886.803174,-7994.224174,-689.485948
2231.114096,-2442.679609,-8882.471304,-1378.971896
2231.114424,-1258.350101,-9474.636058,-1455.581446
2231.114751,-148.041188,-9030.512492,-1225.752797
2231.115078,444.123565,-10066.800811,-229.828649
2231.115406,444.123565,-10362.883188,1149.143247
2231.115733,1036.288319,-10807.006753,1225.752797
2231.116060,1628.453072,-10732.986159,1149.143247
2231.116388,1554.432478,-11325.150913,1225.752797
2231.116715,0.000000,-10066.800811,1072.533697
2231.117042,-222.061783,-8438.347739,0.000000
2231.117370,-1258.350101,-7476.080014,-766.095498
2231.117697,-2516.700203,-7476.080014,-1149.143247
2231.118025,-1850.514855,-8438.347739,-1378.971896
2231.118352,-222.061783,-8956.491898,-1685.410096
2231.118679,1702.473667,-9030.512492,-995.924147
2231.119007,2590.720797,-9918.759623,76.609550
2231.119334,2590.720797,-10510.924376,995.924147
2231.119661,2590.720797,-11103.089130,1762.019645
2231.119989,2294.638420,-11473.192101,1608.800546
2231.120316,1924.535449,-11399.171507,689.485948
2231.120643,814.226536,-10807.006753,0.000000
2231.120971,444.123565,-9474.636058,-459.657299
2231.121298,-1036.288319,-7920.203579,-1072.533697
2231.121626,-2072.576638,-8364.327145,-1915.238745
2231.121953,-2146.597232,-8808.450710,-2145.067394
2231.122280,0.000000,-9474.636058,-2681.334243
2231.122608,1258.350101,-9622.677246,-1991.848295
2231.122935,2146.597232,-10288.862594,0.000000
2231.123262,2220.617826,-10955.047942,689.485948
2231.123590,2442.679609,-10807.006753,1838.629195
2231.123917,1776.494261,-10140.821405,1608.800546
2231.124244,1924.535449,-10881.027347,995.924147
2231.124572,1480.411884,-10955.047942,919.314598
2231.124899,370.102971,-9770.718434,229.828649
2231.125227,-814.226536,-8142.265362,0.000000
2231.125554,-1406.391290,-7994.224174,-1532.190996
2231.125881,-1702.473667,-8660.409521,-2834.553343
2231.126209,-1554.432478,-8882.471304,-1455.581446
2231.126536,740.205942,-9252.574275,-1762.019645
2231.126863,2072.576638,-9474.636058,-842.705048
2231.127191,2664.741391,-9844.739029,612.876398
2231.127518,3034.844362,-11251.130318,1838.629195
2231.127845,2146.597232,-10955.047942,1762.019645
2231.128173,2294.638420,-10955.047942,995.924147
2231.128500,814.226536,-10436.903782,153.219100
2231.128828,-740.205942,-9104.533087,0.000000
2231.129155,-1998.556043,-8660.409521,-689.485948
2231.129482,-2738.761985,-7846.182985,-919.314598
2231.129810,-2812.782580,-7994.224174,-995.924147
2231.130137,-1850.514855,-9400.615463,-1455.581446
2231.130464,-370.102971,-10214.842000,-919.314598
2231.130792,296.082377,-9770.718434,-766.095498
2231.131119,444.123565,-10140.821405,383.047749
2231.131446,962.267725,-10584.944971,689.485948
2231.131774,592.164754,-10362.883188,689.485948
2231.132101,296.082377,-10140.821405,536.266849
2231.132429,-296.082377,-11399.171507,995.924147
2231.132756,-592.164754,-11251.130318,-459.657299
2231.133083,-1110.308913,-9104.533087,-689.485948
2231.133411,-1850.514855,-8068.244768,-1685.410096
2231.133738,-1924.535449,-8512.368333,-2068.457845
2231.134065,-962.267725,-9474.636058,-1378.971896
2231.134393,74.020594,-9030.512492,-383.047749
2231.134720,2146.597232,-9474.636058,153.219100
2231.135047,2590.720797,-10288.862594,689.485948
2231.135375,2442.679609,-10066.800811,2068.457845
2231.135702,2220.617826,-10436.903782,2221.676944
2231.136030,1258.350101,-10658.965565,1608.800546
2231.136357,814.226536,-11473.192101,229.828649
2231.136684,0.000000,-10658.965565,-1149.143247
2231.137012,-518.144159,-8808.450710,-1378.971896
2231.137339,-888.247130,-7920.203579,-1685.410096
2231.137666,-1258.350101,-7994.224174,-1762.019645
2231.137994,-814.226536,-8956.491898,-1225.752797
2231.138321,444.123565,-8956.491898,-1302.362347
2231.138648,1554.432478,-8586.388927,-459.657299
2231.138976,1702.473667,-8734.430116,459.657299
2231.139303,1776.494261,-10288.862594,1378.971896
2231.139631,1628.453072,-9622.677246,1685.410096
2231.139958,1702.473667,-9548.656652,995.924147
2231.140285,1036.288319,-11473.192101,229.828649
2231.140613,666.185348,-11843.295072,0.000000
2231.140940,-148.041188,-10436.903782,-612.876398
2231.141267,-592.164754,-8586.388927,-1149.143247
2231.141595,-1184.329507,-8290.306550,-1838.629195
2231.141922,-1554.432478,-9326.594869,-1838.629195
2231.142249,-740.205942,-9696.697840,-1378.971896
2231.142577,592.164754,-8956.491898,-1302.362347
2231.142904,1776.494261,-9400.615463,0.000000
2231.143231,2294.638420,-10436.903782,919.314598
2231.143559,1480.411884,-10510.924376,1455.581446
2231.143886,1702.473667,-10881.027347,459.657299
2231.144214,1406.391290,-11029.068536,0.000000
2231.144541,666.185348,-10510.924376,-766.095498
2231.144868,-444.123565,-10214.842000,-306.438199
2231.145196,-962.267725,-9252.574275,-306.438199
2231.145523,-1850.514855,-7994.224174,-459.657299
2231.145850,-1998.556043,-8956.491898,-995.924147
2231.146178,-1110.308913,-9400.615463,-1455.581446
2231.146505,222.061783,-9252.574275,-1302.362347
2231.146832,0.000000,-8660.409521,-536.266849
2231.147160,0.000000,-10066.800811,689.485948
2231.147487,0.000000,-10288.862594,689.485948
2231.147815,740.205942,-10362.883188,383.047749
2231.148142,296.082377,-10362.883188,459.657299
2231.148469,296.082377,-10955.047942,919.314598
2231.148797,1258.350101,-10881.027347,842.705048
2231.149124,0.000000,-8364.327145,383.047749
2231.149451,-1110.308913,-7105.977043,-306.438199
2231.149779,-1406.391290,-7698.141797,-689.485948
2231.150106,-592.164754,-8660.409521,-612.876398
2231.150434,740.205942,-8216.285956,-536.266849
2231.150761,1850.514855,-8808.450710,76.609550
2231.151089,1702.473667,-9992.780217,766.095498
2231.151416,1406.391290,-11177.109724,1302.362347
2231.151744,1554.432478,-11473.192101,459.657299
2231.152072,1184.329507,-11843.295072,0.000000
2231.152399,1036.288319,-12065.356855,-689.485948
2231.152727,740.205942,-11251.130318,-612.876398
2231.153054,222.061783,-9178.553681,229.828649
2231.153382,-518.144159,-7698.141797,-306.438199
2231.153709,-1110.308913,-7994.224174,-459.657299
2231.154037,-740.205942,-8364.327145,-766.095498
2231.154365,592.164754,-8660.409521,-1378.971896
2231.154692,1776.494261,-9030.512492,-1302.362347
2231.155020,1776.494261,-10140.821405,0.000000
2231.155347,1776.494261,-10955.047942,1378.971896
2231.155675,1702.473667,-10807.006753,1149.143247
2231.156002,1110.308913,-11029.068536,229.828649
2231.156330,962.267725,-12287.418637,0.000000
2231.156658,666.185348,-11547.212695,-153.219100
2231.156985,0.000000,-9992.780217,-306.438199
2231.157313,-592.164754,-7550.100608,-612.876398
2231.157640,-1480.411884,-7402.059420,-1378.971896
2231.157968,-2812.782580,-7920.203579,-229.828649
2231.158295,-2072.576638,-7550.100608,-612.876398
2231.158623,0.000000,-8142.265362,-1991.848295
2231.158951,814.226536,-9178.553681,-842.705048
2231.159278,1036.288319,-10214.842000,612.876398
2231.159606,1480.411884,-10881.027347,1302.362347
2231.159933,1702.473667,-11399.171507,1072.533697
2231.160261,740.205942,-11769.274478,229.828649
2231.160588,740.205942,-11325.150913,0.000000
2231.160916,-666.185348,-9548.656652,-306.438199
2231.161244,-1776.494261,-8438.347739,-383.047749
2231.161571,-2220.617826,-8142.265362,-842.705048
2231.161899,-2442.679609,-8290.306550,-229.828649
2231.162226,-1850.514855,-8660.409521,-1149.143247
2231.162554,-444.123565,-8956.491898,-995.924147
2231.162882,0.000000,-9474.636058,-1225.752797
2231.163209,148.041188,-10584.944971,-306.438199
2231.163537,814.226536,-11029.068536,0.000000
2231.163864,1258.350101,-10955.047942,153.219100
2231.164192,1628.453072,-11399.171507,919.314598
2231.164519,1184.329507,-11325.150913,995.924147
2231.164847,1332.370696,-10436.903782,1225.752797
2231.165175,814.226536,-8734.430116,0.000000
2231.165502,-888.247130,-7550.100608,-766.095498
2231.165830,-1628.453072,-7994.224174,-1072.533697
2231.166157,-666.185348,-8734.430116,-1072.533697
2231.166485,592.164754,-8808.450710,-995.924147
2231.166812,1702.473667,-9622.677246,-689.485948
2231.167140,1554.432478,-10584.944971,383.047749
2231.167468,2812.782580,-11251.130318,1532.190996
2231.167795,2146.597232,-10807.006753,995.924147
2231.168123,2072.576638,-11547.212695,1149.143247
2231.168450,1776.494261,-11103.089130,536.266849
2231.168778,1332.370696,-9622.677246,306.438199
2231.169105,0.000000,-7920.203579,229.828649
2231.169433,-1110.308913,-7402.059420,0.000000
2231.169761,-1184.329507,-7846.182985,-536.266849
2231.170088,-666.185348,-8290.306550,-1072.533697
2231.170416,444.123565,-8808.450710,-1685.410096
2231.170743,1628.453072,-9474.636058,-1225.752797
2231.171071,1702.473667,-10436.903782,536.266849
2231.171398,2072.576638,-10807.006753,1455.581446
2231.171726,1998.556043,-10658.965565,306.438199
2231.172054,1702.473667,-11177.109724,1455.581446
2231.172381,1258.350101,-11029.068536,842.705048
2231.172709,666.185348,-10658.965565,306.438199
2231.173036,-296.082377,-9696.697840,-383.047749
2231.173364,-1332.370696,-8512.368333,-1532.190996
2231.173691,-2220.617826,-8068.244768,-2604.724693
2231.174019,-2812.782580,-8956.491898,-919.314598
2231.174347,-1702.473667,-9548.656652,-1455.581446
2231.174674,444.123565,-9622.677246,-1915.238745
2231.175002,1036.288319,-9992.780217,-383.047749
2231.175329,1480.411884,-10807.006753,612.876398
2231.175657,1480.411884,-10881.027347,1149.143247
2231.175984,1628.453072,-11251.130318,995.924147
2231.176312,814.226536,-11621.233289,1225.752797
2231.176640,0.000000,-9992.780217,0.000000
2231.176967,-740.205942,-9104.533087,0.000000
2231.177295,-2368.659014,-8142.265362,-229.828649
2231.177622,-2960.823768,-8290.306550,-1302.362347
2231.177950,-2664.741391,-9104.533087,-1915.238745
2231.178277,-962.267725,-9400.615463,-2068.457845
2231.178605,74.020594,-9548.656652,-1072.533697
2231.178933,666.185348,-9770.718434,-383.047749
2231.179260,814.226536,-10066.800811,1149.143247
2231.179588,962.267725,-9770.718434,1455.581446
2231.179915,1258.350101,-9696.697840,766.095498
2231.180243,1036.288319,-10510.924376,1072.533697
2231.180570,888.247130,-9844.739029,1378.971896
2231.180898,592.164754,-9252.574275,689.485948
2231.181226,-148.041188,-8068.244768,383.047749
2231.181553,-1702.473667,-7254.018232,-842.705048
2231.181881,-1480.411884,-8586.388927,-1532.190996
2231.182208,-370.102971,-9622.677246,-2068.457845
2231.182536,1332.370696,-9474.636058,-1838.629195
2231.182864,2442.679609,-9696.697840,0.000000
2231.183191,2442.679609,-10955.047942,1378.971896
2231.183519,2738.761985,-10510.924376,2145.067394
2231.183846,2294.638420,-10510.924376,1455.581446
2231.184174,1554.432478,-11103.089130,919.314598
2231.184501,888.247130,-10658.965565,0.000000
2231.184829,518.144159,-9622.677246,-1072.533697
2231.185157,0.000000,-8438.347739,-1378.971896
2231.185484,-1036.288319,-7920.203579,-1532.190996
2231.185812,-1184.329507,-8586.388927,-1149.143247
2231.186139,222.061783,-9696.697840,-1302.362347
2231.186467,1776.494261,-9918.759623,-1455.581446
2231.186794,2664.741391,-9918.759623,-995.924147
2231.187122,2294.638420,-10881.027347,919.314598
2231.187450,1998.556043,-10732.986159,2068.457845
2231.187777,1406.391290,-10436.903782,1149.143247
2231.188105,1184.329507,-10584.944971,612.876398
2231.188432,222.061783,-10436.903782,536.266849
2231.188760,148.041188,-10807.006753,-229.828649
2231.189087,-888.247130,-9474.636058,-612.876398
2231.189415,-1850.514855,-7772.162391,-919.314598
2231.189743,-2590.720797,-7772.162391,-1608.800546
2231.190070,-1628.453072,-9326.594869,-1991.848295
2231.190398,-444.123565,-8808.450710,-1532.190996
2231.190725,1628.453072,-8660.409521,-1149.143247
2231.191053,1776.494261,-9252.574275,459.657299
2231.191380,1850.514855,-9992.780217,1915.238745
2231.191708,1924.535449,-10214.842000,2145.067394
2231.192036,888.247130,-10732.986159,1915.238745
2231.192363,74.020594,-10955.047942,459.657299
2231.192691,-1406.391290,-9918.759623,-766.095498
2231.193018,-1924.535449,-9104.533087,-1149.143247
2231.193346,-2812.782580,-8438.347739,-842.705048
2231.193673,-3108.864956,-7846.182985,-919.314598
2231.194001,-2368.659014,-8956.491898,-1225.752797
2231.194329,-1036.288319,-9696.697840,-1378.971896
2231.194656,740.205942,-9178.553681,-1378.971896
2231.194984,962.267725,-9252.574275,-383.047749
2231.195311,1036.288319,-10288.862594,1455.581446
2231.195639,1184.329507,-10288.862594,689.485948
2231.195966,1036.288319,-10362.883188,153.219100
2231.196294,666.185348,-11473.192101,0.000000
2231.196622,444.123565,-11547.212695,-842.705048
2231.196949,518.144159,-10732.986159,-536.266849
2231.197277,-740.205942,-8956.491898,-995.924147
2231.197604,-1554.432478,-8438.347739,-1149.143247
2231.197932,-962.267725,-9104.533087,-1685.410096
2231.198259,-148.041188,-8956.491898,-995.924147
2231.198587,1332.370696,-8512.368333,-689.485948
2231.198915,2590.720797,-9178.553681,766.095498
2231.199242,2368.659014,-9770.718434,1302.362347
2231.199570,2294.638420,-9992.780217,2451.505594
2231.199897,2072.576638,-11177.109724,1455.581446
2231.200225,1332.370696,-12213.398043,229.828649
2231.200553,1184.329507,-11769.274478,-766.095498
2231.200880,222.061783,-10288.862594,-1072.533697
2231.201208,-592.164754,-8586.388927,-229.828649
2231.201535,-666.185348,-7624.121203,-689.485948
2231.201863,-814.226536,-8290.306550,-536.266849
2231.202190,0.000000,-8364.327145,-842.705048
2231.202518,1702.473667,-7550.100608,-842.705048
2231.202846,2368.659014,-8438.347739,306.438199
2231.203173,1924.535449,-9770.718434,1991.848295
2231.203501,1998.556043,-9992.780217,2068.457845
2231.203828,1258.350101,-9770.718434,1225.752797
2231.204156,814.226536,-11251.130318,536.266849
2231.204483,666.185348,-11917.315666,-383.047749
2231.204811,444.123565,-11325.150913,-536.266849
2231.205139,-592.164754,-9844.739029,-383.047749
2231.205466,-1332.370696,-8512.368333,-1302.362347
2231.205794,-1850.514855,-8068.244768,-1762.019645
2231.206121,-1628.453072,-8438.347739,-1608.800546
2231.206449,-518.144159,-7772.162391,-919.314598
2231.206776,1258.350101,-8438.347739,-1072.533697
2231.207104,2072.576638,-9474.636058,153.219100
2231.207432,2146.597232,-10288.862594,919.314598
2231.207759,1850.514855,-10807.006753,1302.362347
2231.208087,1702.473667,-11695.253884,1302.362347
2231.208414,1110.308913,-12065.356855,0.000000
2231.208742,296.082377,-11029.068536,-1225.752797
2231.209069,-962.267725,-9474.636058,-1302.362347
2231.209397,-1850.514855,-8438.347739,-1149.143247
2231.209725,-2442.679609,-8438.347739,-1378.971896
2231.210052,-2368.659014,-9104.533087,-995.924147
2231.210380,-666.185348,-8290.306550,-1608.800546
2231.210707,444.123565,-8734.430116,-1762.019645
2231.211035,74.020594,-9770.718434,-306.438199
2231.211362,74.020594,-10510.924376,612.876398
2231.211690,370.102971,-10140.821405,306.438199
2231.212018,666.185348,-11029.068536,306.438199
2231.212345,814.226536,-11769.274478,383.047749
2231.212673,814.226536,-11103.089130,1149.143247
2231.213000,296.082377,-9844.739029,766.095498
2231.213328,-1110.308913,-7624.121203,76.609550
2231.213655,-2072.576638,-7105.977043,-612.876398
2231.213983,-2220.617826,-7920.203579,-1149.143247
2231.214311,-1258.350101,-8290.306550,-919.314598
2231.214638,740.205942,-8364.327145,-995.924147
2231.214966,1554.432478,-9326.594869,306.438199
2231.215293,2368.659014,-10214.842000,1685.410096
2231.215621,2590.720797,-10658.965565,1838.629195
2231.215948,1998.556043,-11103.089130,1072.533697
2231.216276,1998.556043,-12213.398043,229.828649
2231.216604,1776.494261,-12139.377449,-383.047749
2231.216931,962.267725,-10288.862594,-383.047749
2231.217259,222.061783,-8290.306550,459.657299
2231.217586,-518.144159,-8068.244768,-842.705048
2231.217914,-1036.288319,-8290.306550,-1149.143247
2231.218241,-222.061783,-9178.553681,-1149.143247
2231.218569,1258.350101,-8808.450710,-1378.971896
2231.218897,1776.494261,-9474.636058,-689.485948
2231.219224,1702.473667,-10584.944971,842.705048
2231.219552,1628.453072,-10288.862594,1685.410096
2231.219879,1924.535449,-10584.944971,1838.629195
2231.220207,1850.514855,-11695.253884,536.266849
2231.220535,962.267725,-11399.171507,229.828649
2231.220862,0.000000,-10584.944971,-153.219100
2231.221190,-1036.288319,-8808.450710,-842.705048
2231.221517,-2072.576638,-7698.141797,-1915.238745
2231.221845,-3034.844362,-8438.347739,-1838.629195
2231.222172,-2664.741391,-8290.306550,-1225.752797
2231.222500,-296.082377,-8512.368333,-1302.362347
2231.222828,888.247130,-8290.306550,-1225.752797
2231.223155,1776.494261,-9992.780217,306.438199
2231.223483,2368.659014,-10881.027347,1608.800546
2231.223810,2368.659014,-10658.965565,1762.019645
2231.224138,1480.411884,-11399.171507,1838.629195
2231.224465,1480.411884,-11177.109724,0.000000
2231.224793,74.020594,-9992.780217,0.000000
2231.225121,-962.267725,-8068.244768,-612.876398
2231.225448,-1776.494261,-7772.162391,-1378.971896
2231.225776,-1776.494261,-8586.388927,-1762.019645
2231.226103,-1480.411884,-9474.636058,-1455.581446
2231.226431,-370.102971,-9770.718434,-1378.971896
2231.226758,1110.308913,-9918.759623,-1608.800546
2231.227086,296.082377,-10584.944971,-536.266849
2231.227414,740.205942,-10584.944971,766.095498
2231.227741,1036.288319,-10658.965565,842.705048
2231.228069,1258.350101,-10807.006753,766.095498
2231.228396,740.205942,-11029.068536,919.314598
2231.228724,296.082377,-11103.089130,612.876398
2231.229051,-1258.350101,-8808.450710,0.000000
2231.229379,-2072.576638,-7105.977043,-842.705048
2231.229707,-3256.906145,-7550.100608,-1915.238745
2231.230034,-2812.782580,-8734.430116,-1991.848295
2231.230362,-814.226536,-9252.574275,-1915.238745
2231.230689,1480.411884,-9474.636058,-995.924147
2231.231017,2812.782580,-10807.006753,689.485948
2231.231344,2812.782580,-10732.986159,2374.896044
2231.231672,3182.885551,-11251.130318,1225.752797
2231.232000,2442.679609,-10436.903782,1685.410096
2231.232327,1998.556043,-10584.944971,612.876398
2231.232655,1258.350101,-9918.759623,153.219100
2231.232982,74.020594,-8364.327145,229.828649
2231.233310,-370.102971,-7476.080014,-229.828649
2231.233637,-1554.432478,-7550.100608,-919.314598
2231.233965,-1110.308913,-8808.450710,-1225.752797
2231.234293,0.000000,-9104.533087,-1915.238745
2231.234620,1628.453072,-8882.471304,-1302.362347
2231.234948,1850.514855,-9474.636058,-306.438199
2231.235275,1776.494261,-10658.965565,1838.629195
2231.235603,2072.576638,-11029.068536,2221.676944
2231.235930,1850.514855,-10658.965565,1838.629195
2231.236258,1850.514855,-11621.233289,612.876398
2231.236586,518.144159,-11251.130318,-459.657299
2231.236913,-444.123565,-9844.739029,-919.314598
2231.237241,-1628.453072,-8956.491898,-1762.019645
2231.237568,-2368.659014,-8290.306550,-2451.505594
2231.237896,-2516.700203,-8364.327145,-2451.505594
2231.238224,-1110.308913,-9548.656652,-1455.581446
2231.238551,222.061783,-9474.636058,-766.095498
2231.238879,2220.617826,-9992.780217,0.000000
2231.239206,2220.617826,-10436.903782,1072.533697
2231.239534,1702.473667,-10436.903782,1762.019645
2231.239861,1702.473667,-10584.944971,1149.143247
2231.240189,814.226536,-11177.109724,919.314598
2231.240517,0.000000,-11251.130318,153.219100
2231.240844,-444.123565,-9622.677246,229.828649
2231.241172,-1036.288319,-8882.471304,-1762.019645
2231.241499,-2294.638420,-8438.347739,-1608.800546
2231.241827,-2664.741391,-9030.512492,-1532.190996
2231.242154,-1628.453072,-9252.574275,-1532.190996
2231.242482,148.041188,-8660.409521,-1455.581446
2231.242810,1332.370696,-9030.512492,-383.047749
2231.243137,1406.391290,-9104.533087,919.314598
2231.243465,1258.350101,-9252.574275,1838.629195
2231.243792,1036.288319,-9844.739029,1608.800546
2231.244120,888.247130,-10584.944971,919.314598
2231.244447,296.082377,-10955.047942,612.876398
2231.244775,0.000000,-10140.821405,-612.876398
2231.245103,-1036.288319,-9178.553681,-459.657299
2231.245430,-1924.535449,-8142.265362,-1608.800546
2231.245758,-1924.535449,-8808.450710,-2068.457845
2231.246085,-1776.494261,-9178.553681,-1532.190996
2231.246413,0.000000,-9178.553681,-1302.362347
2231.246740,1776.494261,-9326.594869,-689.485948
2231.247068,2960.823768,-9622.677246,689.485948
2231.247396,2220.617826,-10807.006753,1685.410096
2231.247723,2368.659014,-10510.924376,1685.410096
2231.248051,2294.638420,-10732.986159,1072.533697
2231.248378,1628.453072,-11843.295072,459.657299
2231.248706,962.267725,-10584.944971,-229.828649
2231.249034,148.041188,-9104.533087,-1072.533697
2231.249361,0.000000,-9104.533087,-1225.752797
2231.249689,-888.247130,-8808.450710,-459.657299
2231.250016,0.000000,-9474.636058,-612.876398
2231.250344,518.144159,-8808.450710,-229.828649
2231.250672,1628.453072,-8660.409521,-536.266849
2231.250999,1702.473667,-9400.615463,383.047749
2231.251327,1258.350101,-10214.842000,1455.581446
2231.251654,814.226536,-10214.842000,1532.190996
2231.251982,1554.432478,-11251.130318,919.314598
2231.252310,666.185348,-11325.150913,383.047749
2231.252637,74.020594,-10584.944971,-459.657299
2231.252965,-1184.329507,-9770.718434,-306.438199
2231.253293,-1184.329507,-8586.388927,-1149.143247
2231.253620,-1924.535449,-7698.141797,-1685.410096
2231.253948,-1480.411884,-8586.388927,-1072.533697
2231.254275,-1036.288319,-7994.224174,-612.876398
2231.254603,1258.350101,-7698.141797,383.047749
2231.254931,2294.638420,-8660.409521,229.828649
2231.255258,1776.494261,-9696.697840,1608.800546
2231.255586,1702.473667,-10140.821405,1608.800546
2231.255913,1850.514855,-11029.068536,612.876398
2231.256241,1036.288319,-11843.295072,0.000000
2231.256569,518.144159,-11769.274478,-689.485948
2231.256896,0.000000,-10436.903782,-1072.533697
2231.257224,-1480.411884,-8882.471304,-842.705048
2231.257552,-1924.535449,-8660.409521,-1378.971896
2231.257879,-1924.535449,-8956.491898,-1685.410096
2231.258207,-1554.432478,-9178.553681,-1455.581446
2231.258534,-222.061783,-9178.553681,-1455.581446
2231.258862,592.164754,-8808.450710,-995.924147
2231.259190,0.000000,-9474.636058,-229.828649
2231.259517,-518.144159,-10658.965565,536.266849
2231.259845,148.041188,-10881.027347,0.000000
2231.260173,444.123565,-11843.295072,-612.876398
2231.260500,592.164754,-12361.439231,-229.828649
2231.260828,0.000000,-10658.965565,0.000000
2231.261155,-1036.288319,-9104.533087,0.000000
2231.261483,-1924.535449,-8142.265362,-229.828649
2231.261811,-1998.556043,-8438.347739,-689.485948
2231.262138,-1480.411884,-8216.285956,-1455.581446
2231.262466,74.020594,-8364.327145,-766.095498
2231.262793,1554.432478,-9030.512492,-306.438199
2231.263121,2220.617826,-9622.677246,689.485948
2231.263449,2072.576638,-10510.924376,1991.848295
2231.263776,2368.659014,-10881.027347,1072.533697
2231.264104,2146.597232,-11029.068536,536.266849
2231.264432,1776.494261,-11103.089130,153.219100
2231.264759,1184.329507,-10066.800811,766.095498
2231.265087,1110.308913,-8882.471304,919.314598
2231.265414,74.020594,-7846.182985,919.314598
2231.265742,-962.267725,-7105.977043,383.047749
2231.266070,-814.226536,-7698.141797,0.000000
2231.266397,296.082377,-7550.100608,-766.095498
2231.266725,1850.514855,-7994.224174,-1532.190996
2231.267052,1110.308913,-9474.636058,0.000000
2231.267380,1184.329507,-10436.903782,1149.143247
2231.267708,1776.494261,-10658.965565,766.095498
2231.268035,1924.535449,-11029.068536,536.266849
2231.268363,2220.617826,-12583.501014,153.219100
2231.268691,1628.453072,-11473.192101,-383.047749
2231.269018,444.123565,-9844.739029,-459.657299
2231.269346,-592.164754,-8512.368333,-766.095498
2231.269673,-1036.288319,-8142.265362,-1532.190996
2231.270001,-1554.432478,-8438.347739,-1225.752797
2231.270329,-962.267725,-8882.471304,-1608.800546
2231.270656,666.185348,-8808.450710,-1685.410096
2231.270984,2072.576638,-9992.780217,-842.705048
2231.271311,1850.514855,-11399.171507,-229.828649
2231.271639,1480.411884,-11695.253884,383.047749
2231.271967,1628.453072,-11917.315666,0.000000
2231.272294,1554.432478,-12213.398043,0.000000
2231.272622,1184.329507,-11325.150913,0.000000
2231.272950,-370.102971,-9474.636058,-459.657299
2231.273277,-1702.473667,-8438.347739,-536.266849
2231.273605,-2516.700203,-8142.265362,-766.095498
2231.273932,-2812.782580,-8290.306550,-1225.752797
2231.274260,-2368.659014,-8364.327145,-1685.410096
2231.274588,-888.247130,-8586.388927,-1532.190996
2231.274915,-592.164754,-8660.409521,-459.657299
2231.275243,0.000000,-9622.677246,153.219100
2231.275570,0.000000,-11177.109724,1378.971896
2231.275898,888.247130,-10510.924376,842.705048
2231.276226,666.185348,-10658.965565,842.705048
2231.276553,296.082377,-11103.089130,1378.971896
2231.276881,-222.061783,-9918.759623,1072.533697
2231.277209,-666.185348,-8586.388927,766.095498
2231.277536,-1850.514855,-7476.080014,-459.657299
2231.277864,-2590.720797,-7476.080014,-995.924147
2231.278191,-1924.535449,-8364.327145,-1149.143247
2231.278519,0.000000,-8660.409521,-1532.190996
2231.278847,1406.391290,-9400.615463,-1072.533697
2231.279174,2294.638420,-10362.883188,76.609550
2231.279502,2738.761985,-10436.903782,1302.362347
2231.279830,2368.659014,-10584.944971,1378.971896
2231.280157,2812.782580,-11843.295072,1225.752797
2231.280485,3034.844362,-11473.192101,76.609550
2231.280812,1702.473667,-10140.821405,0.000000
2231.281140,444.123565,-9104.533087,0.000000
2231.281468,-296.082377,-8734.430116,-766.095498
2231.281795,-1554.432478,-8364.327145,-1302.362347
2231.282123,-666.185348,-8956.491898,-1838.629195
2231.282450,518.144159,-9400.615463,-2911.162892
2231.282778,1998.556043,-9252.574275,-2451.505594
2231.283106,1776.494261,-10362.883188,383.047749
2231.283433,1702.473667,-11547.212695,1608.800546
2231.283761,2146.597232,-11177.109724,1225.752797
2231.284089,1628.453072,-10584.944971,612.876398
2231.284416,1184.329507,-10807.006753,229.828649
2231.284744,814.226536,-10214.842000,459.657299
2231.285071,0.000000,-8216.285956,-153.219100
2231.285399,-888.247130,-7624.121203,-919.314598
2231.285727,-1554.432478,-8068.244768,-1608.800546
2231.286054,-1406.391290,-8882.471304,-1532.190996
2231.286382,-370.102971,-8734.430116,-1149.143247
2231.286709,1332.370696,-8956.491898,-1225.752797
2231.287037,1776.494261,-9622.677246,0.000000
2231.287365,2368.659014,-10584.944971,1225.752797
2231.287692,2072.576638,-10732.986159,1532.190996
2231.288020,1850.514855,-11029.068536,1302.362347
2231.288348,962.267725,-11695.253884,766.095498
2231.288675,666.185348,-11251.130318,229.828649
2231.289003,-1036.288319,-9252.574275,-689.485948
2231.289330,-2072.576638,-7772.162391,-1378.971896
2231.289658,-2516.700203,-7254.018232,-1149.143247
2231.289986,-2516.700203,-8660.409521,-1608.800546
2231.290313,-1776.494261,-9474.636058,-1762.019645
2231.290641,-296.082377,-9548.656652,-1149.143247
2231.290968,666.185348,-9918.759623,-612.876398
2231.291296,1184.329507,-10362.883188,-306.438199
2231.291624,518.144159,-10140.821405,2374.896044
2231.291951,888.247130,-10288.862594,1149.143247
2231.292279,296.082377,-11103.089130,842.705048
2231.292607,-444.123565,-11177.109724,689.485948
2231.292934,-1554.432478,-9918.759623,0.000000
2231.293262,-2368.659014,-8956.491898,-842.705048
2231.293589,-2960.823768,-7550.100608,-1838.629195
2231.293917,-2368.659014,-8142.265362,-1991.848295
2231.294245,-1110.308913,-9474.636058,-1915.238745
2231.294572,1332.370696,-9400.615463,-1608.800546
2231.294900,2812.782580,-9474.636058,0.000000
2231.295228,3330.926739,-10436.903782,1608.800546
2231.295555,3330.926739,-10214.842000,2374.896044
2231.295883,3404.947333,-10732.986159,2451.505594
2231.296210,3182.885551,-11177.109724,1072.533697
2231.296538,1776.494261,-10584.944971,306.438199
2231.296866,666.185348,-9622.677246,0.000000
2231.297193,-518.144159,-8438.347739,-689.485948
2231.297521,-1036.288319,-8734.430116,-1378.971896
2231.297848,-1702.473667,-9474.636058,-1532.190996
2231.298176,0.000000,-9252.574275,-1378.971896
2231.298504,1110.308913,-8882.471304,-2604.724693
2231.298831,2368.659014,-8734.430116,-689.485948
2231.299159,2368.659014,-9992.780217,995.924147
2231.299487,1702.473667,-10288.862594,2068.457845
2231.299814,1406.391290,-10732.986159,1532.190996
2231.300142,1184.329507,-11177.109724,306.438199
2231.300469,814.226536,-11473.192101,-229.828649
2231.300797,0.000000,-11251.130318,-766.095498
2231.301125,-1258.350101,-9326.594869,-689.485948
2231.301452,-1554.432478,-8512.368333,-1915.238745
2231.301780,-1554.432478,-8512.368333,-2451.505594
2231.302107,-1332.370696,-9326.594869,-1608.800546
2231.302435,296.082377,-8956.491898,-995.924147
2231.302763,1998.556043,-8586.388927,306.438199
2231.303090,2368.659014,-8956.491898,1149.143247
2231.303418,2294.638420,-9770.718434,2221.676944
2231.303746,1406.391290,-9918.759623,2221.676944
2231.304073,740.205942,-10288.862594,1072.533697
2231.304401,370.102971,-11843.295072,0.000000
2231.304728,-148.041188,-11251.130318,-536.266849
2231.305056,-1036.288319,-9400.615463,-612.876398
2231.305384,-1480.411884,-8216.285956,-1072.533697
2231.305711,-1776.494261,-8956.491898,-1302.362347
2231.306039,-2146.597232,-8956.491898,-1762.019645
2231.306366,-666.185348,-9178.553681,-1378.971896
2231.306694,444.123565,-8438.347739,-612.876398
2231.307022,1184.329507,-8808.450710,229.828649
2231.307349,888.247130,-9474.636058,1838.629195
2231.307677,518.144159,-9844.739029,1685.410096
2231.308005,222.061783,-9696.697840,1149.143247
2231.308332,296.082377,-10955.047942,0.000000
2231.308660,-518.144159,-11251.130318,-306.438199
2231.308987,-962.267725,-10214.842000,-689.485948
2231.309315,-1184.329507,-8956.491898,-1838.629195
2231.309643,-1924.535449,-8586.388927,-1991.848295
2231.309970,-1998.556043,-9030.512492,-1378.971896
2231.310298,-296.082377,-8660.409521,-536.266849
2231.310625,1776.494261,-8660.409521,-612.876398
2231.310953,3182.885551,-9696.697840,0.000000
2231.311281,3256.906145,-10510.924376,995.924147
2231.311608,2146.597232,-10436.903782,1455.581446
2231.311936,2220.617826,-11029.068536,1685.410096
2231.312264,2146.597232,-11991.336260,0.000000
2231.312591,1480.411884,-11325.150913,-842.705048
2231.312919,222.061783,-10288.862594,-383.047749
2231.313246,0.000000,-9326.594869,-1072.533697
2231.313574,-740.205942,-8142.265362,-766.095498
2231.313902,-1258.350101,-8216.285956,-536.266849
2231.314229,-518.144159,-8808.450710,-612.876398
2231.314557,962.267725,-8364.327145,-2145.067394
2231.314885,1480.411884,-8142.265362,229.828649
2231.315212,1110.308913,-9400.615463,766.095498
2231.315540,1110.308913,-10214.842000,1762.019645
2231.315867,1258.350101,-10584.944971,995.924147
2231.316195,1184.329507,-11325.150913,229.828649
2231.316523,814.226536,-11843.295072,-306.438199
2231.316850,0.000000,-10732.986159,153.219100
2231.317178,-1036.288319,-8660.409521,0.000000
2231.317505,-1332.370696,-8290.306550,-1225.752797
2231.317833,-1998.556043,-7920.203579,-1149.143247
2231.318161,-1702.473667,-8142.265362,-459.657299
2231.318488,-296.082377,-8438.347739,-229.828649
2231.318816,1332.370696,-7994.224174,0.000000
2231.319144,1776.494261,-9474.636058,76.609550
2231.319471,1406.391290,-10140.821405,1838.629195
2231.319799,1258.350101,-10955.047942,919.314598
2231.320126,1036.288319,-11991.336260,229.828649
2231.320454,518.144159,-12139.377449,-459.657299
2231.320782,-296.082377,-11103.089130,-995.924147
2231.321109,-370.102971,-9548.656652,-1455.581446
2231.321437,-1850.514855,-8512.368333,-1455.581446
2231.321764,-2072.576638,-8364.327145,-1302.362347
2231.322092,-2220.617826,-8586.388927,-1915.238745
2231.322420,-1258.350101,-8808.450710,-995.924147
2231.322747,0.000000,-9030.512492,-995.924147
2231.323075,370.102971,-9992.780217,-612.876398
2231.323403,370.102971,-10955.047942,536.266849
2231.323730,1036.288319,-10288.862594,1225.752797
2231.324058,1554.432478,-11695.253884,919.314598
2231.324385,1184.329507,-12139.377449,689.485948
2231.324713,666.185348,-10955.047942,383.047749
2231.325041,296.082377,-9474.636058,0.000000
2231.325368,-518.144159,-8216.285956,-1072.533697
2231.325696,-814.226536,-7994.224174,-1302.362347
2231.326023,-1406.391290,-7624.121203,-1149.143247
2231.326351,148.041188,-8438.347739,-612.876398
2231.326679,1924.535449,-8882.471304,-1072.533697
2231.327006,3034.844362,-9696.697840,-612.876398
2231.327334,2738.761985,-10955.047942,766.095498
2231.327662,2590.720797,-11251.130318,1455.581446
2231.327989,2886.803174,-10955.047942,1225.752797
2231.328317,2442.679609,-11917.315666,0.000000
2231.328644,962.267725,-11177.109724,1072.533697
2231.328972,-148.041188,-8882.471304,536.266849
2231.329300,-1110.308913,-7624.121203,0.000000
2231.329627,-2442.679609,-7550.100608,-612.876398
2231.329955,-2886.803174,-7920.203579,-919.314598
2231.330283,-1776.494261,-8142.265362,-1072.533697
2231.330610,-370.102971,-8290.306550,-1608.800546
2231.330938,1110.308913,-9992.780217,-1149.143247
2231.331265,1184.329507,-11029.068536,306.438199
2231.331593,1258.350101,-11251.130318,1378.971896
2231.331921,1406.391290,-11473.192101,919.314598
2231.332248,1332.370696,-11769.274478,536.266849
2231.332576,888.247130,-11251.130318,229.828649
2231.332903,370.102971,-9918.759623,153.219100
2231.333231,-370.102971,-8808.450710,0.000000
2231.333559,-1258.350101,-7994.224174,-612.876398
2231.333886,-2146.597232,-7476.080014,-1378.971896
2231.334214,-2072.576638,-8364.327145,-1608.800546
2231.334542,-518.144159,-9326.594869,-1149.143247
2231.334869,1406.391290,-9104.533087,0.000000
2231.335197,2294.638420,-10732.986159,536.266849
2231.335524,2220.617826,-11251.130318,1915.238745
2231.335852,2294.638420,-11251.130318,1455.581446
2231.336180,2294.638420,-11917.315666,1072.533697
2231.336507,1110.308913,-11769.274478,536.266849
2231.336835,222.061783,-9844.739029,-306.438199
2231.337162,0.000000,-8290.306550,-689.485948
2231.337490,-1702.473667,-7550.100608,-1225.752797
2231.337818,-2368.659014,-7772.162391,-1072.533697
2231.338145,-1184.329507,-8364.327145,-1532.190996
2231.338473,0.000000,-8808.450710,-995.924147
2231.338801,888.247130,-9474.636058,-1072.533697
2231.339128,1184.329507,-10214.842000,0.000000
2231.339456,1480.411884,-10288.862594,995.924147
2231.339783,1702.473667,-9918.759623,689.485948
2231.340111,2368.659014,-10436.903782,842.705048
2231.340439,1406.391290,-11177.109724,536.266849
2231.340766,518.144159,-10732.986159,842.705048
2231.341094,-370.102971,-9400.615463,-229.828649
2231.341421,-1406.391290,-8438.347739,-1685.410096
2231.341749,-2368.659014,-8216.285956,-2374.896044
2231.342077,-2516.700203,-8438.347739,-2451.505594
2231.342404,-962.267725,-8512.368333,-1608.800546
2231.342732,2146.597232,-9696.697840,-1532.190996
2231.343060,2886.803174,-10584.944971,76.609550
2231.343387,2812.782580,-11325.150913,1455.581446
2231.343715,2886.803174,-10881.027347,1915.238745
2231.344042,2442.679609,-10584.944971,1608.800546
2231.344370,1776.494261,-11177.109724,459.657299
2231.344698,1110.308913,-10955.047942,229.828649
2231.345025,-592.164754,-8660.409521,306.438199
2231.345353,-1480.411884,-8512.368333,-689.485948
2231.345680,-2220.617826,-8512.368333,-1225.752797
2231.346008,-2368.659014,-9104.533087,-1762.019645
2231.346336,-1258.350101,-9326.594869,-1072.533697
2231.346663,222.061783,-8956.491898,-995.924147
2231.346991,1406.391290,-9770.718434,-459.657299
2231.347319,1258.350101,-10288.862594,766.095498
2231.347646,1258.350101,-10214.842000,1991.848295
2231.347974,1332.370696,-10140.821405,1685.410096
2231.348301,1258.350101,-10436.903782,1149.143247
2231.348629,518.144159,-10658.965565,1072.533697
2231.348957,0.000000,-9696.697840,0.000000
2231.349284,-666.185348,-8512.368333,-766.095498
2231.349612,-1480.411884,-7994.224174,-1685.410096
2231.349940,-2146.597232,-8808.450710,-1532.190996
2231.350267,-1628.453072,-9474.636058,-1072.533697
2231.350595,148.041188,-8882.471304,-383.047749
2231.350922,1998.556043,-8660.409521,-229.828649
2231.351250,2738.761985,-10288.862594,459.657299
2231.351578,1850.514855,-10288.862594,2221.676944
2231.351905,1776.494261,-10584.944971,1455.581446
2231.352233,888.247130,-10881.027347,229.828649
2231.352561,0.000000,-10584.944971,-536.266849
2231.352888,-1110.308913,-9844.739029,-1149.143247
2231.353216,-1480.411884,-8660.409521,-1378.971896
2231.353543,-1406.391290,-8438.347739,-1685.410096
2231.353871,-888.247130,-9030.512492,-2221.676944
2231.354199,-296.082377,-9622.677246,-1532.190996
2231.354526,814.226536,-9622.677246,-766.095498
2231.354854,1406.391290,-9992.780217,-612.876398
2231.355182,1480.411884,-10288.862594,459.657299
2231.355509,1480.411884,-10362.883188,1149.143247
2231.355837,1998.556043,-9622.677246,536.266849
2231.356164,888.247130,-10066.800811,1149.143247
2231.356492,666.185348,-11103.089130,689.485948
2231.356820,-222.061783,-10732.986159,0.000000
2231.357147,-444.123565,-9474.636058,-1149.143247
2231.357475,-1628.453072,-8364.327145,-2604.724693
2231.357803,-2220.617826,-9326.594869,-2451.505594
2231.358130,-1184.329507,-8956.491898,-1915.238745
2231.358458,888.247130,-8586.388927,-1302.362347
2231.358786,2738.761985,-8660.409521,0.000000
2231.359113,2886.803174,-9252.574275,1149.143247
2231.359441,2516.700203,-10214.842000,2451.505594
2231.359768,2072.576638,-10436.903782,1915.238745
2231.360096,1998.556043,-11029.068536,1072.533697
2231.360424,666.185348,-11029.068536,766.095498
2231.360751,-444.123565,-9992.780217,-306.438199
2231.361079,-962.267725,-9474.636058,0.000000
2231.361407,-1258.350101,-8660.409521,-766.095498
2231.361734,-1628.453072,-8734.430116,-1225.752797
2231.362062,-1776.494261,-9252.574275,-995.924147
2231.362389,-444.123565,-8882.471304,-1225.752797
2231.362717,1036.288319,-9030.512492,-1608.800546
2231.363045,1554.432478,-9326.594869,229.828649
2231.363372,1184.329507,-10066.800811,919.314598
2231.363700,962.267725,-10066.800811,1149.143247
2231.364028,814.226536,-10510.924376,306.438199
2231.364355,888.247130,-11547.212695,153.219100
2231.364683,370.102971,-11325.150913,919.314598
2231.365010,-592.164754,-10066.800811,536.266849
2231.365338,-370.102971,-9326.594869,-842.705048
2231.365666,-888.247130,-8364.327145,-1225.752797
2231.365993,-1628.453072,-8882.471304,-766.095498
2231.366321,-962.267725,-8882.471304,-306.438199
2231.366649,1184.329507,-8438.347739,-689.485948
2231.366976,2072.576638,-9252.574275,-306.438199
2231.367304,1406.391290,-10584.944971,1225.752797
2231.367632,1036.288319,-9770.718434,1991.848295
2231.367959,1110.308913,-10510.924376,842.705048
2231.368287,1036.288319,-11621.233289,0.000000
2231.368614,74.020594,-11251.130318,-842.705048
2231.368942,-592.164754,-9770.718434,-919.314598
2231.369270,-962.267725,-8512.368333,-766.095498
2231.369597,-1332.370696,-8216.285956,-842.705048
2231.369925,-1184.329507,-8808.450710,-766.095498
2231.370253,0.000000,-9326.594869,-536.266849
2231.370580,592.164754,-8364.327145,-459.657299
2231.370908,1258.350101,-8808.450710,-229.828649
2231.371235,1036.288319,-10066.800811,612.876398
2231.371563,814.226536,-10732.986159,1072.533697
2231.371891,1184.329507,-10436.903782,229.828649
2231.372218,888.247130,-11473.192101,76.609550
2231.372546,888.247130,-12065.356855,76.609550
2231.372874,0.000000,-11029.068536,-306.438199
2231.373201,-444.123565,-9474.636058,-1149.143247
2231.373529,-1258.350101,-8364.327145,-1685.410096
2231.373856,-1850.514855,-7994.224174,-1608.800546
2231.374184,-1110.308913,-8512.368333,-459.657299
2231.374512,814.226536,-8734.430116,-383.047749
2231.374839,2072.576638,-8660.409521,-612.876398
2231.375167,2442.679609,-10214.842000,229.828649
2231.375495,2146.597232,-10807.006753,1685.410096
2231.375822,2072.576638,-10658.965565,919.314598
2231.376150,1850.514855,-11843.295072,229.828649
2231.376477,1406.391290,-12435.459826,766.095498
2231.376805,740.205942,-10881.027347,612.876398
2231.377133,0.000000,-9178.553681,612.876398
2231.377460,-1258.350101,-8142.265362,-459.657299
2231.377788,-1924.535449,-7624.121203,-612.876398
2231.378116,-2072.576638,-7994.224174,-842.705048
2231.378443,-666.185348,-8068.244768,-995.924147
2231.378771,962.267725,-8290.306550,-1072.533697
2231.379099,1110.308913,-9326.594869,229.828649
2231.379426,222.061783,-9844.739029,1149.143247
2231.379754,814.226536,-10066.800811,995.924147
2231.380081,1258.350101,-10881.027347,153.219100
2231.380409,1110.308913,-11621.233289,459.657299
2231.380737,666.185348,-10732.986159,306.438199
2231.381064,370.102971,-9252.574275,0.000000
2231.381392,-592.164754,-8068.244768,0.000000
2231.381720,-1110.308913,-7698.141797,-995.924147
2231.382047,-2146.597232,-8364.327145,-766.095498
2231.382375,-1776.494261,-8290.306550,-1072.533697
2231.382702,0.000000,-8290.306550,-1378.971896
2231.383030,888.247130,-9400.615463,-1225.752797
2231.383358,814.226536,-11251.130318,689.485948
2231.383685,1554.432478,-11695.253884,536.266849
2231.384013,1406.391290,-11621.233289,-306.438199
2231.384341,962.267725,-11917.315666,0.000000
2231.384668,518.144159,-11325.150913,-536.266849
2231.384996,-222.061783,-9400.615463,-689.485948
2231.385323,-1184.329507,-8364.327145,-995.924147
2231.385651,-2072.576638,-8068.244768,-995.924147
2231.385979,-1628.453072,-8512.368333,-919.314598
2231.386306,-1554.432478,-8956.491898,-766.095498
2231.386634,592.164754,-9696.697840,-1149.143247
2231.386962,1184.329507,-10288.862594,-1072.533697
2231.387289,888.247130,-10955.047942,153.219100
2231.387617,962.267725,-10955.047942,689.485948
2231.387945,1184.329507,-10732.986159,536.266849
2231.388272,1110.308913,-11251.130318,1072.533697
2231.388600,666.185348,-11251.130318,1915.238745
2231.388927,148.041188,-9844.739029,689.485948
2231.389255,-518.144159,-8216.285956,-306.438199
2231.389583,-1628.453072,-7105.977043,-919.314598
2231.389910,-2368.659014,-7402.059420,-1302.362347
2231.390238,-1036.288319,-8290.306550,-1149.143247
2231.390566,888.247130,-8142.265362,-919.314598
2231.390893,2960.823768,-9252.574275,-689.485948
2231.391221,2738.761985,-10510.924376,842.705048
2231.391548,2590.720797,-10881.027347,2068.457845
2231.391876,3108.864956,-10955.047942,1762.019645
2231.392204,2590.720797,-11547.212695,1455.581446
2231.392531,2072.576638,-11621.233289,1072.533697
2231.392859,814.226536,-9548.656652,306.438199
2231.393187,-518.144159,-8290.306550,536.266849
2231.393514,-1776.494261,-7772.162391,-536.266849
2231.393842,-2146.597232,-8068.244768,-842.705048
2231.394169,-1628.453072,-8734.430116,-1302.362347
2231.394497,-222.061783,-8734.430116,-2068.457845
2231.394825,1480.411884,-9474.636058,-2068.457845
2231.395152,1480.411884,-10288.862594,0.000000
2231.395480,1406.391290,-11177.109724,536.266849
2231.395808,1850.514855,-10881.027347,766.095498
2231.396135,1850.514855,-11547.212695,536.266849
2231.396463,1332.370696,-11843.295072,383.047749
2231.396791,962.267725,-11251.130318,0.000000
2231.397118,-444.123565,-9844.739029,-536.266849
2231.397446,-2220.617826,-8216.285956,-1991.848295
2231.397773,-2442.679609,-7698.141797,-1915.238745
2231.398101,-2220.617826,-8882.471304,-2068.457845
2231.398429,-1406.391290,-8512.368333,-766.095498
2231.398756,1258.350101,-8808.450710,-689.485948
2231.399084,2146.597232,-9622.677246,306.438199
2231.399412,740.205942,-10584.944971,1915.238745
2231.399739,1702.473667,-10732.986159,842.705048
2231.400067,444.123565,-10807.006753,153.219100
2231.400394,74.020594,-11695.253884,229.828649
2231.400722,-222.061783,-10955.047942,-459.657299
2231.401050,-1332.370696,-9252.574275,-995.924147
2231.401377,-2294.638420,-8734.430116,-689.485948
2231.401705,-2294.638420,-8734.430116,-1378.971896
2231.402033,-2442.679609,-8068.244768,-919.314598
2231.402360,-888.247130,-9326.594869,-1149.143247
2231.402688,666.185348,-8808.450710,-766.095498
2231.403015,1628.453072,-9030.512492,229.828649
2231.403343,1480.411884,-9622.677246,2298.286494
2231.403671,1924.535449,-10214.842000,2374.896044
2231.403998,1480.411884,-10584.944971,1532.190996
2231.404326,1036.288319,-10658.965565,1149.143247
2231.404654,0.000000,-11029.068536,306.438199
2231.404981,-444.123565,-10436.903782,-229.828649
2231.405309,-1184.329507,-8586.388927,-1608.800546
2231.405637,-2072.576638,-7846.182985,-2298.286494
2231.405964,-1924.535449,-8882.471304,-2068.457845
2231.406292,-296.082377,-8660.409521,-1455.581446
2231.406619,2738.761985,-8438.347739,-1225.752797
2231.406947,3404.947333,-9400.615463,-536.266849
2231.407275,2886.803174,-10732.986159,1532.190996
2231.407602,3552.988522,-10807.006753,2068.457845
2231.407930,2960.823768,-11029.068536,1302.362347
2231.408258,2368.659014,-12065.356855,1149.143247
2231.408585,1332.370696,-11029.068536,76.609550
2231.408913,0.000000,-9844.739029,-1149.143247
2231.409240,-666.185348,-9696.697840,-1072.533697
2231.409568,-962.267725,-8734.430116,-1991.848295
2231.409896,-1258.350101,-8734.430116,-1762.019645
2231.410223,-1036.288319,-8808.450710,-689.485948
2231.410551,1110.308913,-8734.430116,-766.095498
2231.410879,2738.761985,-8882.471304,-459.657299
2231.411206,2146.597232,-9252.574275,842.705048
2231.411534,1924.535449,-10214.842000,1685.410096
2231.411861,2072.576638,-10066.800811,1302.362347
2231.412189,1184.329507,-10955.047942,612.876398
2231.412517,592.164754,-11769.274478,536.266849
2231.412844,0.000000,-10732.986159,76.609550
2231.413172,-1628.453072,-9104.533087,0.000000
2231.413500,-2886.803174,-8216.285956,-1378.971896
2231.413827,-2368.659014,-8438.347739,-1838.629195
2231.414155,-2590.720797,-8068.244768,-689.485948
2231.414483,-1258.350101,-7920.203579,0.000000
2231.414810,814.226536,-8142.265362,0.000000
2231.415138,1036.288319,-9104.533087,842.705048
2231.415465,1036.288319,-9400.615463,1685.410096
2231.415793,962.267725,-9696.697840,1378.971896
2231.416121,1110.308913,-11177.109724,459.657299
2231.416448,0.000000,-11843.295072,-1072.533697
2231.416776,-814.226536,-11029.068536,-1455.581446
2231.417104,-1702.473667,-10288.862594,-919.314598
2231.417431,-1850.514855,-9400.615463,-1378.971896
2231.417759,-1850.514855,-8660.409521,-1685.410096
2231.418086,-1554.432478,-9474.636058,-1072.533697
2231.418414,-888.247130,-9474.636058,-612.876398
2231.418742,1036.288319,-9400.615463,-919.314598
2231.419069,1110.308913,-10140.821405,76.609550
2231.419397,222.061783,-9770.718434,1149.143247
2231.419725,370.102971,-9992.780217,1225.752797
2231.420052,888.247130,-10732.986159,612.876398
2231.420380,592.164754,-11917.315666,229.828649
2231.420707,296.082377,-11547.212695,229.828649
2231.421035,-740.205942,-10584.944971,-1072.533697
2231.421363,-1258.350101,-9474.636058,-1378.971896
2231.421690,-1332.370696,-8586.388927,-2451.505594
2231.422018,-1480.411884,-8290.306550,-1532.190996
2231.422346,74.020594,-8142.265362,-383.047749
2231.422673,2368.659014,-7920.203579,-229.828649
2231.423001,2886.803174,-8660.409521,76.609550
2231.423328,2590.720797,-9992.780217,2145.067394
2231.423656,2812.782580,-10140.821405,2451.505594
2231.423984,2886.803174,-10658.965565,1455.581446
2231.424311,2072.576638,-11399.171507,842.705048
2231.424639,1332.370696,-10658.965565,153.219100
2231.424967,1184.329507,-10436.903782,-306.438199
2231.425294,518.144159,-8734.430116,-383.047749
2231.425622,0.000000,-8290.306550,-919.314598
2231.425950,-296.082377,-8586.388927,-1149.143247
2231.426277,74.020594,-8512.368333,-612.876398
2231.426605,1628.453072,-8364.327145,-1149.143247
2231.426932,2442.679609,-8882.471304,-1225.752797
2231.427260,2072.576638,-10066.800811,229.828649
2231.427588,1924.535449,-10510.924376,995.924147
2231.427915,2146.597232,-10881.027347,459.657299
2231.428243,2220.617826,-11843.295072,0.000000
2231.428571,1776.494261,-12065.356855,229.828649
2231.428898,666.185348,-11177.109724,0.000000
2231.429226,-666.185348,-9918.759623,229.828649
2231.429553,-1184.329507,-8882.471304,-919.314598
2231.429881,-2146.597232,-7846.182985,-1915.238745
2231.430209,-2886.803174,-8216.285956,-919.314598
2231.430536,-1628.453072,-8660.409521,-766.095498
2231.430864,0.000000,-8438.347739,-995.924147
2231.431192,0.000000,-9548.656652,-229.828649
2231.431519,0.000000,-10732.986159,536.266849
2231.431847,-222.061783,-10510.924376,153.219100
2231.432174,74.020594,-11177.109724,76.609550
2231.432502,148.041188,-11399.171507,-536.266849
2231.432830,-222.061783,-10140.821405,-383.047749
2231.433157,-666.185348,-9178.553681,0.000000
2231.433485,-1258.350101,-8290.306550,0.000000
2231.433813,-1332.370696,-8216.285956,76.609550
2231.434140,-1184.329507,-8290.306550,-459.657299
2231.434468,-1258.350101,-7550.100608,-459.657299
2231.434796,296.082377,-8290.306550,-995.924147
2231.435123,148.041188,-9548.656652,0.000000
2231.435451,0.000000,-10214.842000,1149.143247
2231.435778,444.123565,-10732.986159,1455.581446
2231.436106,1036.288319,-10807.006753,842.705048
2231.436434,370.102971,-11547.212695,1685.410096
2231.436761,74.020594,-10955.047942,229.828649
2231.437089,-1110.308913,-9548.656652,-612.876398
2231.437417,-1480.411884,-8512.368333,-1378.971896
2231.437744,-1776.494261,-7920.203579,-1838.629195
2231.438072,-1850.514855,-7994.224174,-1532.190996
2231.438399,-222.061783,-8808.450710,-1225.752797
2231.438727,2220.617826,-9326.594869,-1455.581446
2231.439055,2368.659014,-10066.800811,0.000000
2231.439382,1998.556043,-10955.047942,1149.143247
2231.439710,2368.659014,-10584.944971,1455.581446
2231.440038,2516.700203,-11029.068536,919.314598
2231.440365,2294.638420,-12139.377449,1072.533697
2231.440693,1702.473667,-11621.233289,689.485948
2231.441020,1110.308913,-9770.718434,0.000000
2231.441348,0.000000,-8438.347739,-459.657299
2231.441676,-666.185348,-7994.224174,-1378.971896
2231.442003,-1332.370696,-7994.224174,-1532.190996
2231.442331,-666.185348,-8438.347739,-1685.410096
2231.442659,1258.350101,-8660.409521,-2451.505594
2231.442986,2220.617826,-9030.512492,-1072.533697
2231.443314,2442.679609,-10584.944971,0.000000
2231.443642,2368.659014,-10362.883188,1608.800546
2231.443969,2960.823768,-11029.068536,1149.143247
2231.444297,2368.659014,-11843.295072,842.705048
2231.444624,1628.453072,-11177.109724,536.266849
2231.444952,518.144159,-9770.718434,153.219100
2231.445280,-592.164754,-8364.327145,459.657299
2231.445607,-1554.432478,-7698.141797,-459.657299
2231.445935,-2516.700203,-7624.121203,-612.876398
2231.446263,-2072.576638,-8438.347739,-1302.362347
2231.446590,-740.205942,-8808.450710,-1225.752797
2231.446918,962.267725,-9400.615463,-1225.752797
2231.447245,962.267725,-10510.924376,-153.219100
2231.447573,1036.288319,-10584.944971,1225.752797
2231.447901,1998.556043,-11399.171507,-153.219100
2231.448228,1110.308913,-11621.233289,306.438199
2231.448556,444.123565,-11325.150913,229.828649
2231.448884,-148.041188,-10658.965565,0.000000
2231.449211,-962.267725,-9030.512492,-306.438199
2231.449539,-1776.494261,-8142.265362,-766.095498
2231.449866,-2072.576638,-8068.244768,-1149.143247
2231.450194,-1480.411884,-8808.450710,-919.314598
2231.450522,-962.267725,-8882.471304,-842.705048
2231.450849,518.144159,-9622.677246,-459.657299
2231.451177,0.000000,-10066.800811,536.266849
2231.451505,0.000000,-10140.821405,1225.752797
2231.451831,370.102971,-10140.821405,1378.971896
2231.452158,370.102971,-10436.903782,1302.362347
2231.452486,518.144159,-11399.171507,1072.533697
2231.452813,0.000000,-10658.965565,0.000000
2231.453141,-1628.453072,-8956.491898,-383.047749
2231.453468,-1998.556043,-7846.182985,-1685.410096
2231.453796,-2220.617826,-7846.182985,-1762.019645
2231.454123,-2146.597232,-8142.265362,-1762.019645
2231.454451,0.000000,-8882.471304,-1225.752797
2231.454778,2590.720797,-8808.450710,-766.095498
2231.455105,2812.782580,-9622.677246,536.266849
2231.455433,2886.803174,-10214.842000,2451.505594
2231.455760,3478.967927,-10288.862594,2145.067394
2231.456088,2516.700203,-11029.068536,1149.143247
2231.456415,1554.432478,-11325.150913,536.266849
2231.456743,666.185348,-10288.862594,-689.485948
2231.457070,148.041188,-9622.677246,-383.047749
2231.457398,-740.205942,-8808.450710,-1838.629195
2231.457725,-1258.350101,-8142.265362,-2451.505594
2231.458053,-1480.411884,-9252.574275,-1838.629195
2231.458380,148.041188,-9770.718434,-2145.067394
2231.458707,1998.556043,-9252.574275,-1991.848295
2231.459035,2146.597232,-9622.677246,0.000000
2231.459362,1480.411884,-10214.842000,2068.457845
2231.459690,2146.597232,-10436.903782,1685.410096
2231.460017,1998.556043,-10288.862594,1072.533697
2231.460345,1776.494261,-11325.150913,1149.143247
2231.460672,1258.350101,-11547.212695,612.876398
2231.461000,-296.082377,-10066.800811,0.000000
2231.461327,-1776.494261,-9030.512492,-459.657299
2231.461655,-1480.411884,-8956.491898,-2221.676944
2231.461982,-1628.453072,-9104.533087,-3217.601092
2231.462309,-1406.391290,-8734.430116,-766.095498
2231.462637,518.144159,-8660.409521,-536.266849
2231.462964,1776.494261,-9104.533087,0.000000
2231.463292,1628.453072,-9474.636058,1302.362347
2231.463619,1554.432478,-9622.677246,2528.115143
2231.463947,1702.473667,-10732.986159,1378.971896
2231.464274,1110.308913,-10881.027347,1072.533697
2231.464602,0.000000,-10436.903782,0.000000
2231.464929,-222.061783,-9696.697840,-306.438199
2231.465257,-814.226536,-8882.471304,0.000000
2231.465584,-1480.411884,-7698.141797,-306.438199
2231.465911,-1332.370696,-8882.471304,-919.314598
2231.466239,-1406.391290,-9400.615463,-995.924147
2231.466566,148.041188,-8734.430116,-1149.143247
2231.466894,888.247130,-9104.533087,-383.047749
2231.467221,148.041188,-9918.759623,766.095498
2231.467549,74.020594,-9844.739029,1378.971896
2231.467876,370.102971,-10214.842000,919.314598
2231.468204,0.000000,-10658.965565,76.609550
2231.468531,296.082377,-11621.233289,-536.266849
2231.468858,-518.144159,-10955.047942,-612.876398
2231.469186,-1480.411884,-9474.636058,-1455.581446
2231.469513,-1480.411884,-8438.347739,-1991.848295
2231.469841,-1776.494261,-8068.244768,-1838.629195
2231.470168,-962.267725,-8660.409521,-1149.143247
2231.470496,962.267725,-8956.491898,-689.485948
2231.470823,2738.761985,-9400.615463,-612.876398
2231.471151,3108.864956,-10807.006753,1149.143247
2231.471478,2738.761985,-11103.089130,2068.457845
2231.471806,2072.576638,-11325.150913,1072.533697
2231.472133,1480.411884,-11843.295072,229.828649
2231.472460,1036.288319,-11843.295072,0.000000
2231.472788,296.082377,-10732.986159,-459.657299
2231.473115,-666.185348,-9770.718434,-536.266849
2231.473443,-1110.308913,-8512.368333,-995.924147
2231.473770,-1332.370696,-8216.285956,-1302.362347
2231.474098,-1924.535449,-8216.285956,-612.876398
2231.474425,-370.102971,-7698.141797,-766.095498
2231.474753,888.247130,-7550.100608,-842.705048
2231.475080,1628.453072,-9030.512492,995.924147
2231.475408,1110.308913,-9178.553681,2145.067394
2231.475735,1850.514855,-9696.697840,1685.410096
2231.476062,2368.659014,-11029.068536,306.438199
2231.476390,1480.411884,-12065.356855,612.876398
2231.476717,518.144159,-10955.047942,229.828649
2231.477045,-296.082377,-10140.821405,-612.876398
2231.477372,-814.226536,-8808.450710,-842.705048
2231.477700,-962.267725,-8216.285956,-919.314598
2231.478027,-1554.432478,-7328.038826,-612.876398
2231.478355,-1258.350101,-8068.244768,0.000000
2231.478682,296.082377,-8216.285956,-536.266849
2231.479009,1332.370696,-8808.450710,-689.485948
2231.479337,1110.308913,-9622.677246,229.828649
2231.479664,1184.329507,-10140.821405,229.828649
2231.479992,1776.494261,-10807.006753,0.000000
2231.480319,1332.370696,-11991.336260,229.828649
2231.480647,740.205942,-12213.398043,-306.438199
2231.480974,518.144159,-10807.006753,-536.266849
2231.481302,0.000000,-9622.677246,-612.876398
2231.481629,-888.247130,-9474.636058,-995.924147
2231.481957,-1184.329507,-9104.533087,-1072.533697
2231.482284,-592.164754,-9178.553681,-689.485948
2231.482611,148.041188,-9178.553681,-842.705048
2231.482939,518.144159,-9252.574275,-306.438199
2231.483266,-148.041188,-10140.821405,536.266849
2231.483594,-148.041188,-10140.821405,919.314598
2231.483921,222.061783,-10436.903782,306.438199
2231.484249,592.164754,-11473.192101,153.219100
2231.484576,148.041188,-11177.109724,229.828649
2231.484904,-592.164754,-9918.759623,76.609550
2231.485231,-592.164754,-9474.636058,-383.047749
2231.485559,-962.267725,-7772.162391,-995.924147
2231.485886,-1110.308913,-7254.018232,-842.705048
2231.486213,-666.185348,-7846.182985,-536.266849
2231.486541,888.247130,-7920.203579,-383.047749
2231.486868,2368.659014,-8068.244768,-229.828649
2231.487196,1850.514855,-9474.636058,689.485948
2231.487523,2072.576638,-11177.109724,1838.629195
2231.487851,2368.659014,-11029.068536,1302.362347
2231.488178,2294.638420,-11991.336260,383.047749
2231.488506,1258.350101,-12065.356855,76.609550
2231.488833,592.164754,-10658.965565,459.657299
2231.489160,148.041188,-9104.533087,-229.828649
2231.489488,-740.205942,-8142.265362,-1225.752797
2231.489815,-1702.473667,-7031.956449,-229.828649
2231.490143,-1480.411884,-8068.244768,-1455.581446
2231.490470,0.000000,-8290.306550,-1608.800546
2231.490798,1258.350101,-9178.553681,-1685.410096
2231.491125,1628.453072,-10436.903782,-383.047749
2231.491453,1406.391290,-11103.089130,0.000000
2231.491780,1628.453072,-11029.068536,459.657299
2231.492108,1924.535449,-11547.212695,-612.876398
2231.492435,1406.391290,-12657.521608,-153.219100
2231.492762,666.185348,-11769.274478,383.047749
2231.493090,-222.061783,-9992.780217,229.828649
2231.493417,-666.185348,-8512.368333,76.609550
2231.493745,-1554.432478,-7476.080014,-919.314598
2231.494072,-2590.720797,-7179.997637,-536.266849
2231.494400,-1554.432478,-8438.347739,-1455.581446
2231.494727,0.000000,-8216.285956,-1532.190996
2231.495055,814.226536,-9030.512492,-1149.143247
2231.495382,1110.308913,-10362.883188,459.657299
2231.495710,1184.329507,-10362.883188,1532.190996
2231.496037,1998.556043,-11473.192101,612.876398
2231.496364,1998.556043,-11917.315666,1149.143247
2231.496692,1184.329507,-10732.986159,0.000000
2231.497019,592.164754,-9474.636058,-153.219100
2231.497347,-518.144159,-8438.347739,0.000000
2231.497674,-1628.453072,-7772.162391,-383.047749
2231.498002,-1702.473667,-8438.347739,-842.705048
2231.498329,-1702.473667,-8290.306550,-766.095498
2231.498657,-222.061783,-8364.327145,-1225.752797
2231.498984,74.020594,-9326.594869,-1302.362347
2231.499311,-296.082377,-10584.944971,306.438199
2231.499639,148.041188,-10436.903782,995.924147
2231.499966,666.185348,-10658.965565,459.657299
2231.500294,370.102971,-11621.233289,689.485948
2231.500621,444.123565,-11843.295072,229.828649
2231.500949,444.123565,-10584.944971,-459.657299
2231.501276,-740.205942,-8882.471304,-689.485948
2231.501604,-1406.391290,-7920.203579,-1608.800546
2231.501931,-1628.453072,-7846.182985,-2068.457845
2231.502259,-888.247130,-8808.450710,-1225.752797
2231.502586,1184.329507,-9030.512492,-766.095498
2231.502913,3034.844362,-9400.615463,-536.266849
2231.503241,3034.844362,-10658.965565,919.314598
2231.503568,2738.761985,-11029.068536,1762.019645
2231.503896,2738.761985,-10362.883188,1608.800546
2231.504223,2072.576638,-10955.047942,1532.190996
2231.504551,1332.370696,-11399.171507,766.095498
2231.504878,222.061783,-9770.718434,76.609550
2231.505206,-444.123565,-8290.306550,612.876398
2231.505533,-1480.411884,-8068.244768,-1225.752797
2231.505861,-2220.617826,-7920.203579,-1762.019645
2231.506188,-1554.432478,-8512.368333,-1762.019645
2231.506515,222.061783,-8660.409521,-1532.190996
2231.506843,1850.514855,-9400.615463,-1225.752797
2231.507170,1998.556043,-10288.862594,306.438199
2231.507498,2072.576638,-10362.883188,2451.505594
2231.507825,2072.576638,-10214.842000,1455.581446
2231.508153,1924.535449,-10214.842000,1378.971896
2231.508480,1184.329507,-10955.047942,995.924147
2231.508808,518.144159,-10288.862594,229.828649
2231.509135,-296.082377,-9252.574275,-459.657299
2231.509463,-1110.308913,-8364.327145,-842.705048
2231.509790,-2294.638420,-8142.265362,-1991.848295
2231.510117,-1850.514855,-8882.471304,-1608.800546
2231.510445,-444.123565,-9992.780217,-1378.971896
2231.510772,1258.350101,-9474.636058,-1302.362347
2231.511100,1924.535449,-9918.759623,-766.095498
2231.511427,2220.617826,-10732.986159,919.314598
2231.511755,2220.617826,-10658.965565,1608.800546
2231.512082,2220.617826,-11399.171507,536.266849
2231.512410,888.247130,-11547.212695,689.485948
2231.512737,-444.123565,-10732.986159,-306.438199
2231.513064,-1184.329507,-9474.636058,-919.314598
2231.513392,-2146.597232,-8660.409521,-995.924147
2231.513719,-2664.741391,-7698.141797,-1302.362347
2231.514047,-2368.659014,-8364.327145,-1302.362347
2231.514374,-1258.350101,-9178.553681,-766.095498
2231.514702,148.041188,-8882.471304,-536.266849
2231.515029,0.000000,-9474.636058,0.000000
2231.515357,-370.102971,-10066.800811,1762.019645
2231.515684,0.000000,-9992.780217,1838.629195
2231.516012,592.164754,-10140.821405,766.095498
2231.516339,148.041188,-10881.027347,229.828649
2231.516666,0.000000,-11399.171507,153.219100
2231.516994,-370.102971,-10140.821405,-612.876398
2231.517321,-1184.329507,-8734.430116,-1378.971896
2231.517649,-1924.535449,-7846.182985,-1838.629195
2231.517976,-1406.391290,-8586.388927,-1608.800546
2231.518304,-592.164754,-8808.450710,-459.657299
2231.518631,1850.514855,-8660.409521,-459.657299
2231.518959,3478.967927,-9400.615463,0.000000
2231.519286,2368.659014,-9474.636058,2145.067394
2231.519614,3108.864956,-10362.883188,2451.505594
2231.519941,2072.576638,-10214.842000,1838.629195
2231.520268,1036.288319,-11251.130318,689.485948
2231.520596,222.061783,-11399.171507,-306.438199
2231.520923,0.000000,-10584.944971,-1532.190996
2231.521251,-518.144159,-9474.636058,-1608.800546
2231.521578,-1776.494261,-8290.306550,-1991.848295
2231.521906,-1184.329507,-8734.430116,-1685.410096
2231.522233,-518.144159,-9252.574275,-1072.533697
2231.522561,1258.350101,-8438.347739,-1225.752797
2231.522888,2812.782580,-8882.471304,-766.095498
2231.523215,2516.700203,-10214.842000,842.705048
2231.523543,2368.659014,-10584.944971,2528.115143
2231.523870,1998.556043,-9622.677246,1455.581446
2231.524198,1924.535449,-11547.212695,766.095498
2231.524525,814.226536,-12065.356855,0.000000
2231.524853,370.102971,-11695.253884,-536.266849
2231.525180,-296.082377,-9992.780217,-383.047749
2231.525508,-666.185348,-8586.388927,-1149.143247
2231.525835,-962.267725,-8068.244768,-1225.752797
2231.526163,-962.267725,-8956.491898,-612.876398
2231.526490,-222.061783,-8216.285956,0.000000
2231.526817,2072.576638,-8068.244768,0.000000
2231.527145,2368.659014,-9104.533087,153.219100
2231.527472,1998.556043,-9548.656652,1225.752797
2231.527800,2294.638420,-10362.883188,919.314598
2231.528127,1406.391290,-11029.068536,153.219100
2231.528455,814.226536,-11843.295072,0.000000
2231.528782,592.164754,-11621.233289,-689.485948
2231.529110,-962.267725,-10066.800811,-1455.581446
2231.529437,-2146.597232,-8660.409521,-1302.362347
2231.529765,-1776.494261,-8882.471304,-1149.143247
2231.530092,-1776.494261,-8734.430116,-612.876398
2231.530419,-1258.350101,-7698.141797,0.000000
2231.530747,296.082377,-8068.244768,-383.047749
2231.531074,0.000000,-9252.574275,0.000000
2231.531402,-740.205942,-9770.718434,612.876398
2231.531729,-592.164754,-9918.759623,459.657299
2231.532057,0.000000,-10807.006753,-383.047749
2231.532384,0.000000,-11621.233289,-383.047749
2231.532712,148.041188,-11843.295072,-919.314598
2231.533039,0.000000,-11103.089130,-536.266849
2231.533366,-296.082377,-9474.636058,-919.314598
2231.533694,-1036.288319,-8142.265362,-1378.971896
2231.534021,-1480.411884,-8290.306550,-612.876398
2231.534349,-592.164754,-8512.368333,306.438199
2231.534676,1480.411884,-8216.285956,383.047749
2231.535004,1924.535449,-8290.306550,995.924147
2231.535331,1702.473667,-10066.800811,1762.019645
2231.535659,1258.350101,-9992.780217,1225.752797
2231.535986,888.247130,-11251.130318,766.095498
2231.536314,592.164754,-12657.521608,0.000000
2231.536641,518.144159,-12213.398043,-766.095498
2231.536968,-222.061783,-10288.862594,-612.876398
2231.537296,-444.123565,-8512.368333,0.000000
2231.537623,-148.041188,-8660.409521,-995.924147
2231.537951,-962.267725,-8142.265362,-766.095498
2231.538278,-592.164754,-7698.141797,-995.924147
2231.538606,518.144159,-7624.121203,-1532.190996
2231.538933,1036.288319,-8364.327145,-842.705048
2231.539261,888.247130,-9622.677246,995.924147
2231.539588,1554.432478,-10214.842000,1608.800546
2231.539916,1554.432478,-10658.965565,1302.362347
2231.540243,1850.514855,-11769.274478,0.000000
2231.540570,1628.453072,-12583.501014,-536.266849
2231.540898,1110.308913,-11769.274478,-612.876398
2231.541225,74.020594,-10288.862594,-689.485948
2231.541553,-370.102971,-9030.512492,-1149.143247
2231.541880,-962.267725,-8290.306550,-1072.533697
2231.542208,-1702.473667,-8364.327145,-383.047749
2231.542535,0.000000,-8216.285956,-1915.238745
2231.542863,1406.391290,-8734.430116,-1685.410096
2231.543190,1406.391290,-9918.759623,-842.705048
2231.543517,1332.370696,-10807.006753,153.219100
2231.543845,1702.473667,-10658.965565,306.438199
2231.544172,2072.576638,-11325.150913,153.219100
2231.544500,1850.514855,-12287.418637,0.000000
2231.544827,1332.370696,-10658.965565,229.828649
2231.545155,296.082377,-9030.512492,-306.438199
2231.545482,-592.164754,-8734.430116,-229.828649
2231.545810,-1332.370696,-8808.450710,-306.438199
2231.546137,-1628.453072,-8438.347739,-383.047749
2231.546465,-666.185348,-8660.409521,-842.705048
2231.546792,-296.082377,-9178.553681,0.000000
2231.547119,0.000000,-9918.759623,-306.438199
2231.547447,-444.123565,-10214.842000,76.609550
2231.547774,0.000000,-10510.924376,459.657299
2231.548102,740.205942,-11177.109724,536.266849
2231.548429,888.247130,-11029.068536,612.876398
2231.548757,222.061783,-9918.759623,1225.752797
2231.549084,-518.144159,-8512.368333,995.924147
2231.549412,-666.185348,-6883.915261,-306.438199
2231.549739,-1480.411884,-7105.977043,-689.485948
2231.550067,-1110.308913,-7920.203579,-383.047749
2231.550394,0.000000,-8216.285956,-153.219100
2231.550721,1554.432478,-8734.430116,-842.705048
2231.551049,1480.411884,-10140.821405,0.000000
2231.551376,1924.535449,-11769.274478,536.266849
2231.551704,1850.514855,-11251.130318,383.047749
2231.552031,1850.514855,-11621.233289,459.657299
2231.552359,1628.453072,-12213.398043,306.438199
2231.552686,814.226536,-11325.150913,306.438199
2231.553014,-148.041188,-9548.656652,383.047749
2231.553341,-888.247130,-8290.306550,-306.438199
2231.553669,-1850.514855,-6809.894666,-1225.752797
2231.553996,-1554.432478,-7698.141797,-1532.190996
2231.554323,-740.205942,-8438.347739,-1608.800546
2231.554651,666.185348,-8882.471304,-1915.238745
2231.554978,1776.494261,-10066.800811,-919.314598
2231.555306,1406.391290,-11325.150913,612.876398
2231.555633,2146.597232,-11473.192101,1685.410096
2231.555961,2220.617826,-11029.068536,842.705048
2231.556288,1406.391290,-11473.192101,153.219100
2231.556616,962.267725,-11695.253884,0.000000
2231.556943,296.082377,-10362.883188,0.000000
2231.557271,-592.164754,-9030.512492,0.000000
2231.557598,-1480.411884,-7994.224174,-995.924147
2231.557925,-2516.700203,-8142.265362,-1762.019645
2231.558253,-2812.782580,-8216.285956,-1455.581446
2231.558580,-1036.288319,-8290.306550,-1915.238745
2231.558908,666.185348,-8660.409521,-1302.362347
2231.559235,1258.350101,-9770.718434,229.828649
2231.559563,1702.473667,-10140.821405,1455.581446
2231.559890,2072.576638,-11029.068536,1455.581446
2231.560218,2146.597232,-11917.315666,766.095498
2231.560545,1406.391290,-11251.130318,842.705048
2231.560873,74.020594,-9844.739029,306.438199
2231.561200,-1258.350101,-8364.327145,-459.657299
2231.561528,-1924.535449,-8216.285956,-995.924147
2231.561855,-2072.576638,-8586.388927,-1149.143247
2231.562182,-1480.411884,-8808.450710,-1225.752797
2231.562510,-518.144159,-9474.636058,-1378.971896
2231.562837,296.082377,-9474.636058,-1302.362347
2231.563165,962.267725,-10066.800811,-689.485948
2231.563492,666.185348,-10288.862594,689.485948
2231.563820,1110.308913,-10066.800811,1072.533697
2231.564147,1332.370696,-10436.903782,842.705048
2231.564475,1110.308913,-11177.109724,1149.143247
2231.564802,814.226536,-10955.047942,383.047749
2231.565130,-518.144159,-9400.615463,306.438199
2231.565457,-1036.288319,-8142.265362,-1225.752797
2231.565784,-1628.453072,-8216.285956,-1838.629195
2231.566112,-814.226536,-9030.512492,-1608.800546
2231.566439,814.226536,-9474.636058,-919.314598
2231.566767,2368.659014,-9622.677246,-383.047749
2231.567094,2738.761985,-10362.883188,536.266849
2231.567422,2368.659014,-10807.006753,1915.238745
2231.567749,2220.617826,-10140.821405,1991.848295
2231.568077,1850.514855,-10288.862594,1455.581446
2231.568404,1702.473667,-11399.171507,612.876398
2231.568732,592.164754,-10436.903782,459.657299
2231.569059,-740.205942,-8734.430116,0.000000
2231.569387,-888.247130,-7772.162391,-1149.143247
2231.569714,-1924.535449,-7920.203579,-1608.800546
2231.570041,-1850.514855,-8364.327145,-1915.238745
2231.570369,0.000000,-8882.471304,-1532.190996
2231.570696,1702.473667,-9030.512492,-1685.410096
2231.571024,2146.597232,-9696.697840,-306.438199
2231.571351,1924.535449,-10807.006753,1608.800546
2231.571679,1924.535449,-10362.883188,2068.457845
2231.572006,1702.473667,-10732.986159,842.705048
2231.572334,1628.453072,-11399.171507,229.828649
2231.572661,222.061783,-11251.130318,-229.828649
2231.572989,-666.185348,-10584.944971,-536.266849
2231.573316,-1554.432478,-8808.450710,-1072.533697
2231.573643,-2368.659014,-8068.244768,-2145.067394
2231.573971,-2738.761985,-9178.553681,-2451.505594
2231.574298,-2146.597232,-9400.615463,-1915.238745
2231.574626,0.000000,-8586.388927,-1762.019645
2231.574953,962.267725,-8882.471304,-766.095498
2231.575281,962.267725,-9696.697840,919.314598
2231.575608,1110.308913,-9844.739029,1532.190996
2231.575936,1036.288319,-10288.862594,1072.533697
2231.576263,1258.350101,-11621.233289,0.000000
2231.576591,444.123565,-11621.233289,459.657299
2231.576918,0.000000,-10881.027347,-842.705048
2231.577246,-1332.370696,-8882.471304,-842.705048
2231.577573,-1776.494261,-8808.450710,-766.095498
2231.577900,-1776.494261,-9104.533087,-1149.143247
2231.578228,-1332.370696,-9548.656652,-1072.533697
2231.578555,370.102971,-9326.594869,-1072.533697
2231.578883,1110.308913,-8808.450710,-1072.533697
2231.579210,666.185348,-8882.471304,919.314598
2231.579538,370.102971,-9104.533087,1685.410096
2231.579865,370.102971,-9252.574275,1149.143247
2231.580193,888.247130,-10140.821405,306.438199
2231.580520,518.144159,-11177.109724,0.000000
2231.580848,-296.082377,-10140.821405,153.219100
2231.581175,148.041188,-9400.615463,-383.047749
2231.581502,-740.205942,-8438.347739,-766.095498
2231.581830,-1332.370696,-8512.368333,-919.314598
2231.582157,-518.144159,-9104.533087,-383.047749
2231.582485,1554.432478,-9400.615463,-536.266849
2231.582812,2812.782580,-9474.636058,-383.047749
2231.583140,2516.700203,-10214.842000,1225.752797
2231.583467,2368.659014,-11103.089130,2068.457845
2231.583795,1924.535449,-10214.842000,1685.410096
2231.584122,1554.432478,-10732.986159,1302.362347
2231.584450,888.247130,-11399.171507,-229.828649
2231.584777,814.226536,-11325.150913,-689.485948
2231.585105,0.000000,-9770.718434,-612.876398
2231.585432,0.000000,-7920.203579,-1225.752797
2231.585759,-888.247130,-7994.224174,-612.876398
2231.586087,-962.267725,-8586.388927,-1072.533697
2231.586414,1036.288319,-8808.450710,-1225.752797
2231.586742,2294.638420,-8956.491898,-1225.752797
2231.587069,1998.556043,-10436.903782,0.000000
2231.587397,1480.411884,-10807.006753,1225.752797
2231.587724,1406.391290,-9918.759623,612.876398
2231.588052,666.185348,-10732.986159,919.314598
2231.588379,1036.288319,-12065.356855,-383.047749
2231.588707,592.164754,-11621.233289,76.609550
2231.589034,-444.123565,-10066.800811,0.000000
2231.589361,-888.247130,-8364.327145,-612.876398
2231.589689,-1406.391290,-7772.162391,-1149.143247
2231.590016,-2368.659014,-8290.306550,-689.485948
2231.590344,-1702.473667,-7254.018232,-229.828649
2231.590671,518.144159,-7846.182985,-1072.533697
2231.590999,888.247130,-8586.388927,-612.876398
2231.591326,1036.288319,-9622.677246,306.438199
2231.591654,592.164754,-10584.944971,766.095498
2231.591981,592.164754,-11399.171507,0.000000
2231.592309,740.205942,-12583.501014,-766.095498
2231.592636,148.041188,-11547.212695,-689.485948
2231.592964,-518.144159,-10140.821405,-1455.581446
2231.593291,-1110.308913,-8586.388927,-306.438199
2231.593618,-1258.350101,-8956.491898,-306.438199
2231.593946,-1554.432478,-8808.450710,-229.828649
2231.594273,-962.267725,-8290.306550,0.000000
2231.594601,518.144159,-8364.327145,0.000000
2231.594928,592.164754,-9104.533087,-383.047749
2231.595256,0.000000,-10288.862594,0.000000
2231.595583,222.061783,-9844.739029,459.657299
2231.595911,518.144159,-10288.862594,306.438199
2231.596238,740.205942,-11769.274478,0.000000
2231.596566,666.185348,-12435.459826,-229.828649
2231.596893,-370.102971,-11325.150913,-383.047749
2231.597220,-592.164754,-9178.553681,-536.266849
2231.597548,-1110.308913,-7624.121203,-1225.752797
2231.597875,-1628.453072,-7476.080014,-1072.533697
2231.598203,-1036.288319,-8216.285956,-306.438199
2231.598530,666.185348,-8364.327145,-306.438199
2231.598858,2146.597232,-9178.553681,0.000000
2231.599185,2442.679609,-10658.965565,766.095498
2231.599513,2368.659014,-10510.924376,995.924147
2231.599840,2146.597232,-10584.944971,1225.752797
2231.600168,2072.576638,-11991.336260,459.657299
2231.600495,1480.411884,-12287.418637,0.000000
2231.600823,740.205942,-10732.986159,0.000000
2231.601150,74.020594,-8660.409521,0.000000
2231.601477,-222.061783,-7105.977043,-612.876398
2231.601805,-1110.308913,-7402.059420,-842.705048
2231.602132,-370.102971,-7476.080014,-459.657299
2231.602460,888.247130,-7550.100608,-842.705048
2231.602787,2146.597232,-8142.265362,-1302.362347
2231.603115,1998.556043,-9622.677246,0.000000
2231.603442,1702.473667,-10584.944971,1225.752797
2231.603770,1924.535449,-10436.903782,919.314598
2231.604097,2072.576638,-11547.212695,76.609550
2231.604425,1258.350101,-12065.356855,153.219100
2231.604752,1036.288319,-11769.274478,0.000000
2231.605079,-222.061783,-10288.862594,0.000000
2231.605407,-962.267725,-8808.450710,-995.924147
2231.605734,-2146.597232,-7994.224174,-1608.800546
2231.606062,-2368.659014,-8068.244768,-1378.971896
2231.606389,-2072.576638,-8068.244768,-1225.752797
2231.606717,0.000000,-8142.265362,-1762.019645
2231.607044,1036.288319,-9326.594869,-1225.752797
2231.607372,1776.494261,-10955.047942,229.828649
2231.607699,1850.514855,-11325.150913,842.705048
2231.608027,1554.432478,-11843.295072,842.705048
2231.608354,1702.473667,-12139.377449,0.000000
2231.608682,888.247130,-11251.130318,-459.657299
2231.609009,-518.144159,-9844.739029,-229.828649
2231.609336,-888.247130,-8512.368333,-1225.752797
2231.609664,-2146.597232,-7846.182985,-306.438199
2231.609991,-2294.638420,-7920.203579,-689.485948
2231.610319,-1554.432478,-8512.368333,-995.924147
2231.610646,0.000000,-8734.430116,-1149.143247
2231.610974,1036.288319,-9474.636058,-766.095498
2231.611301,592.164754,-10362.883188,-229.828649
2231.611629,740.205942,-10140.821405,995.924147
2231.611956,1332.370696,-10362.883188,1072.533697
2231.612284,1480.411884,-11399.171507,612.876398
2231.612611,1110.308913,-11399.171507,919.314598
2231.612938,148.041188,-9918.759623,919.314598
2231.613266,-814.226536,-8068.244768,689.485948
2231.613593,-1258.350101,-7624.121203,-612.876398
2231.613921,-2516.700203,-7402.059420,-766.095498
2231.614248,-1998.556043,-7846.182985,-919.314598
2231.614576,148.041188,-7846.182985,-1072.533697
2231.614903,2072.576638,-9178.553681,-459.657299
2231.615231,2294.638420,-10140.821405,612.876398
2231.615558,2590.720797,-11547.212695,2221.676944
2231.615886,2516.700203,-11103.089130,1072.533697
2231.616213,2368.659014,-12139.377449,612.876398
2231.616541,888.247130,-11917.315666,-459.657299
2231.616868,0.000000,-11029.068536,-459.657299
2231.617195,-518.144159,-9474.636058,-689.485948
2231.617523,-1036.288319,-8586.388927,-1149.143247
2231.617850,-1332.370696,-8290.306550,-1685.410096
2231.618178,-1332.370696,-9178.553681,-1225.752797
2231.618505,370.102971,-9252.574275,-1225.752797
2231.618833,1702.473667,-9474.636058,-1378.971896
2231.619160,1554.432478,-10214.842000,0.000000
2231.619488,1554.432478,-10510.924376,1455.581446
2231.619815,1776.494261,-9992.780217,2068.457845
2231.620143,1998.556043,-10362.883188,1225.752797
2231.620470,1184.329507,-11991.336260,689.485948
2231.620797,592.164754,-10881.027347,0.000000
2231.621125,-888.247130,-9400.615463,-766.095498
2231.621452,-2072.576638,-8216.285956,-1762.019645
2231.621780,-2442.679609,-8216.285956,-2451.505594
2231.622107,-2516.700203,-8808.450710,-1685.410096
2231.622435,-1036.288319,-8882.471304,-842.705048
2231.622762,1554.432478,-8290.306550,-766.095498
2231.623090,2368.659014,-9252.574275,536.266849
2231.623417,2072.576638,-9696.697840,1608.800546
2231.623745,1998.556043,-9844.739029,1991.848295
2231.624072,1998.556043,-10732.986159,919.314598
2231.624400,1998.556043,-11843.295072,612.876398
2231.624727,222.061783,-11029.068536,0.000000
2231.625054,-518.144159,-8364.327145,229.828649
2231.625382,-1480.411884,-8290.306550,-1149.143247
2231.625709,-1628.453072,-8956.491898,-1762.019645
2231.626037,-1406.391290,-8956.491898,-1762.019645
2231.626364,-592.164754,-9326.594869,-1608.800546
2231.626692,888.247130,-9326.594869,-1302.362347
2231.627019,1480.411884,-9622.677246,-766.095498
2231.627347,814.226536,-10288.862594,1225.752797
2231.627674,1406.391290,-9992.780217,1225.752797
2231.628002,1406.391290,-10510.924376,842.705048
2231.628329,1480.411884,-11325.150913,0.000000
2231.628656,222.061783,-11621.233289,76.609550
2231.628984,-888.247130,-10658.965565,-306.438199
2231.629311,-1184.329507,-8956.491898,-1378.971896
2231.629639,-962.267725,-8512.368333,-1455.581446
2231.629966,-1850.514855,-8956.491898,-1532.190996
2231.630294,-296.082377,-9696.697840,-1225.752797
2231.630621,1406.391290,-9474.636058,-842.705048
2231.630949,1998.556043,-9548.656652,229.828649
2231.631276,1924.535449,-10214.842000,1302.362347
2231.631604,1480.411884,-9252.574275,2451.505594
2231.631931,1332.370696,-9622.677246,2068.457845
2231.632259,1110.308913,-10881.027347,612.876398
2231.632586,296.082377,-11103.089130,0.000000
2231.632913,-222.061783,-9400.615463,0.000000
2231.633241,-370.102971,-8216.285956,-766.095498
2231.633568,-814.226536,-7920.203579,-612.876398
2231.633896,-1184.329507,-8882.471304,-153.219100
2231.634223,-222.061783,-8660.409521,-383.047749
2231.634551,444.123565,-7994.224174,-612.876398
2231.634878,1924.535449,-8586.388927,-306.438199
2231.635206,1480.411884,-9548.656652,1072.533697
2231.635533,518.144159,-10214.842000,2374.896044
2231.635861,666.185348,-10436.903782,1685.410096
2231.636188,592.164754,-11547.212695,0.000000
2231.636515,-148.041188,-12361.439231,-306.438199
2231.636843,-962.267725,-11325.150913,-459.657299
2231.637170,-814.226536,-10066.800811,-1532.190996
2231.637498,-1776.494261,-8956.491898,-1991.848295
2231.637825,-2590.720797,-8438.347739,-1685.410096
2231.638153,-2220.617826,-8882.471304,-1149.143247
2231.638480,-888.247130,-8586.388927,-1378.971896
2231.638808,1258.350101,-8216.285956,-1072.533697
2231.639135,1406.391290,-9400.615463,0.000000
2231.639463,1184.329507,-10510.924376,766.095498
2231.639790,1406.391290,-10436.903782,689.485948
2231.640118,1628.453072,-11769.274478,0.000000
2231.640445,888.247130,-12287.418637,-459.657299
2231.640772,962.267725,-11621.233289,-1072.533697
2231.641100,74.020594,-9844.739029,-689.485948
2231.641427,-666.185348,-8364.327145,-995.924147
2231.641755,-1480.411884,-8364.327145,-689.485948
2231.642082,-814.226536,-8808.450710,-689.485948
2231.642410,0.000000,-8512.368333,-383.047749
2231.642737,1480.411884,-8512.368333,-612.876398
2231.643065,1406.391290,-9104.533087,459.657299
2231.643392,370.102971,-9252.574275,1685.410096
2231.643720,814.226536,-9474.636058,689.485948
2231.644047,1184.329507,-10140.821405,153.219100
2231.644374,814.226536,-10807.006753,76.609550
2231.644702,444.123565,-11103.089130,229.828649
2231.645029,592.164754,-9992.780217,153.219100
2231.645357,666.185348,-8734.430116,-766.095498
2231.645684,-444.123565,-7846.182985,-229.828649
2231.646012,-962.267725,-8290.306550,0.000000
2231.646339,0.000000,-8808.450710,-76.609550
2231.646667,2072.576638,-8808.450710,-229.828649
2231.646994,2220.617826,-9252.574275,76.609550
2231.647322,1998.556043,-10584.944971,1225.752797
2231.647649,1924.535449,-10955.047942,1302.362347
2231.647977,1924.535449,-10658.965565,76.609550
2231.648304,1480.411884,-11769.274478,-229.828649
2231.648631,888.247130,-11917.315666,-229.828649
2231.648959,370.102971,-10436.903782,-306.438199
2231.649286,74.020594,-8882.471304,-459.657299
2231.649614,-666.185348,-8290.306550,-536.266849
2231.649941,-888.247130,-8068.244768,-536.266849
2231.650269,0.000000,-8586.388927,-153.219100
2231.650596,1036.288319,-8216.285956,-842.705048
2231.650924,1406.391290,-9104.533087,-842.705048
2231.651251,888.247130,-10732.986159,229.828649
2231.651579,444.123565,-10584.944971,919.314598
2231.651906,222.061783,-10732.986159,459.657299
2231.652233,666.185348,-11769.274478,0.000000
2231.652561,0.000000,-11769.274478,-229.828649
2231.652888,-518.144159,-10510.924376,459.657299
2231.653216,-1110.308913,-9030.512492,0.000000
2231.653543,-1332.370696,-7846.182985,-995.924147
2231.653870,-2220.617826,-7772.162391,-919.314598
2231.654198,-2368.659014,-7846.182985,-383.047749
2231.654525,-740.205942,-7328.038826,-536.266849
2231.654853,740.205942,-8068.244768,-842.705048
2231.655180,1628.453072,-10362.883188,-383.047749
2231.655507,1110.308913,-10510.924376,689.485948
2231.655835,1184.329507,-10881.027347,612.876398
2231.656162,1480.411884,-12287.418637,229.828649
2231.656490,1110.308913,-12287.418637,-536.266849
2231.656817,222.061783,-10955.047942,-842.705048
2231.657145,-592.164754,-9622.677246,-306.438199
2231.657472,-1406.391290,-8290.306550,-995.924147
2231.657799,-1850.514855,-7994.224174,-766.095498
2231.658127,-2220.617826,-7994.224174,-689.485948
2231.658454,-962.267725,-8216.285956,-995.924147
2231.658782,222.061783,-9104.533087,-1685.410096
2231.659109,296.082377,-9400.615463,0.000000
2231.659436,296.082377,-10881.027347,612.876398
2231.659764,888.247130,-11251.130318,383.047749
2231.660091,1554.432478,-11695.253884,-153.219100
2231.660419,1110.308913,-11917.315666,229.828649
2231.660746,592.164754,-11769.274478,612.876398
2231.661074,0.000000,-9918.759623,229.828649
2231.661401,148.041188,-8068.244768,-995.924147
2231.661728,-1110.308913,-7550.100608,-1149.143247
2231.662056,-1110.308913,-7624.121203,0.000000
2231.662383,74.020594,-7772.162391,-612.876398
2231.662711,1406.391290,-8438.347739,-536.266849
2231.663038,1998.556043,-9992.780217,-229.828649
2231.663365,1998.556043,-11251.130318,1149.143247
2231.663693,1998.556043,-10362.883188,1532.190996
2231.664020,2294.638420,-11103.089130,689.485948
2231.664348,2442.679609,-11917.315666,842.705048
2231.664675,1702.473667,-10807.006753,1302.362347
2231.665002,740.205942,-9178.553681,842.705048
2231.665330,0.000000,-7846.182985,306.438199
2231.665657,-888.247130,-7476.080014,-229.828649
2231.665985,-1406.391290,-7254.018232,-612.876398
2231.666312,-740.205942,-8586.388927,-612.876398
2231.666640,518.144159,-8216.285956,-689.485948
2231.666967,1258.350101,-9104.533087,-842.705048
2231.667294,1036.288319,-10732.986159,612.876398
2231.667622,1258.350101,-11473.192101,1225.752797
2231.667949,1924.535449,-11103.089130,536.266849
2231.668277,1998.556043,-11399.171507,76.609550
2231.668604,1110.308913,-12065.356855,153.219100
2231.668931,148.041188,-10288.862594,306.438199
2231.669259,-518.144159,-8734.430116,0.000000
2231.669586,-1702.473667,-8068.244768,-1149.143247
2231.669914,-2516.700203,-8364.327145,-1762.019645
2231.670241,-2516.700203,-8660.409521,-1838.629195
2231.670569,-1110.308913,-8512.368333,-2145.067394
2231.670896,666.185348,-9474.636058,-1302.362347
2231.671223,1480.411884,-10658.965565,-612.876398
2231.671551,1554.432478,-11177.109724,689.485948
2231.671878,1924.535449,-11547.212695,766.095498
2231.672206,2146.597232,-11991.336260,153.219100
2231.672533,1110.308913,-11991.336260,0.000000
2231.672860,74.020594,-10658.965565,0.000000
2231.673188,-962.267725,-8438.347739,-153.219100
2231.673515,-2146.597232,-7402.059420,-612.876398
2231.673843,-2738.761985,-7698.141797,-1225.752797
2231.674170,-2368.659014,-8438.347739,-1608.800546
2231.674497,-1184.329507,-8808.450710,-1455.581446
2231.674825,296.082377,-9178.553681,-1149.143247
2231.675152,444.123565,-9696.697840,0.000000
2231.675480,0.000000,-9696.697840,1762.019645
2231.675807,962.267725,-9474.636058,1532.190996
2231.676135,1110.308913,-9770.718434,1149.143247
2231.676462,666.185348,-10881.027347,919.314598
2231.676789,370.102971,-10955.047942,842.705048
2231.677117,-148.041188,-9474.636058,229.828649
2231.677444,-888.247130,-8364.327145,-919.314598
2231.677772,-962.267725,-8438.347739,-2221.676944
2231.678099,-1480.411884,-8364.327145,-995.924147
2231.678426,0.000000,-9104.533087,-1608.800546
2231.678754,2146.597232,-9474.636058,-995.924147
2231.679081,2590.720797,-9770.718434,153.219100
2231.679409,2738.761985,-10436.903782,1991.848295
2231.679736,2812.782580,-9992.780217,2374.896044
2231.680064,3182.885551,-11029.068536,1149.143247
2231.680391,2294.638420,-11251.130318,766.095498
2231.680718,1258.350101,-10807.006753,76.609550
2231.681046,0.000000,-9844.739029,-383.047749
2231.681373,-444.123565,-8882.471304,-995.924147
2231.681701,-1110.308913,-8586.388927,-1302.362347
2231.682028,-888.247130,-9474.636058,-1225.752797
2231.682355,370.102971,-9770.718434,-1302.362347
2231.682683,1924.535449,-9326.594869,-1149.143247
2231.683010,2368.659014,-10362.883188,-306.438199
2231.683338,1554.432478,-10658.965565,1302.362347
2231.683665,1184.329507,-10066.800811,2221.676944
2231.683992,1036.288319,-9770.718434,1378.971896
2231.684320,888.247130,-10288.862594,995.924147
2231.684647,0.000000,-10807.006753,153.219100
2231.684975,-592.164754,-9474.636058,-306.438199
2231.685302,-1480.411884,-8068.244768,-919.314598
2231.685630,-2220.617826,-7550.100608,-1685.410096
2231.685957,-2294.638420,-8882.471304,-1762.019645
2231.686284,-1406.391290,-8956.491898,-1149.143247
2231.686612,518.144159,-8586.388927,-1072.533697
2231.686939,1702.473667,-8808.450710,-995.924147
