#time,accel_x,accel_y,accel_z
3399.624498,0.000000,-9770.718434,-229.828649
3399.624826,-148.041188,-9770.718434,-766.095498
3399.625153,-296.082377,-9548.656652,-766.095498
3399.625481,0.000000,-10066.800811,-766.095498
3399.625808,0.000000,-10140.821405,-689.485948
3399.626136,592.164754,-10214.842000,536.266849
3399.626463,592.164754,-10214.842000,0.000000
3399.626791,444.123565,-9622.677246,536.266849
3399.627118,666.185348,-9548.656652,306.438199
3399.627446,148.041188,-9326.594869,76.609550
3399.627774,74.020594,-9030.512492,0.000000
3399.628101,370.102971,-9030.512492,-229.828649
3399.628429,0.000000,-9104.533087,-1149.143247
3399.628756,0.000000,-8956.491898,0.000000
3399.629084,74.020594,-9992.780217,0.000000
3399.629411,296.082377,-10288.862594,-612.876398
3399.629739,592.164754,-10066.800811,-306.438199
3399.630066,666.185348,-9844.739029,-306.438199
3399.630394,888.247130,-9548.656652,536.266849
3399.630721,1036.288319,-9992.780217,153.219100
3399.631049,666.185348,-8734.430116,306.438199
3399.631376,592.164754,-9030.512492,-306.438199
3399.631704,296.082377,-9252.574275,-306.438199
3399.632032,222.061783,-9474.636058,-459.657299
3399.632359,0.000000,-9474.636058,-919.314598
3399.632687,0.000000,-9844.739029,-995.924147
3399.633014,222.061783,-10214.842000,-1378.971896
3399.633342,444.123565,-10362.883188,-536.266849
3399.633669,592.164754,-10288.862594,-383.047749
3399.633997,666.185348,-10584.944971,-153.219100
3399.634324,518.144159,-10214.842000,0.000000
3399.634652,444.123565,-9992.780217,0.000000
3399.634979,148.041188,-9474.636058,-383.047749
3399.635307,0.000000,-9400.615463,0.000000
3399.635634,0.000000,-9474.636058,0.000000
3399.635962,-296.082377,-9844.739029,0.000000
3399.636290,0.000000,-9696.697840,-612.876398
3399.636617,0.000000,-9844.739029,-842.705048
3399.636945,74.020594,-9918.759623,-536.266849
3399.637272,148.041188,-9844.739029,-383.047749
3399.637600,962.267725,-10214.842000,0.000000
3399.637927,1628.453072,-9400.615463,0.000000
3399.638255,1776.494261,-9252.574275,536.266849
3399.638582,2368.659014,-9030.512492,306.438199
3399.638910,3108.864956,-8216.285956,229.828649
3399.639237,3849.070898,-8068.244768,76.609550
3399.639565,4589.276840,-8956.491898,153.219100
3399.639892,5181.441594,-9770.718434,612.876398
3399.640220,6143.709319,-9548.656652,-153.219100
3399.640548,7105.977043,-10066.800811,-306.438199
3399.640875,8290.306550,-10584.944971,-306.438199
3399.641203,9104.533087,-10658.965565,-153.219100
3399.641530,8808.450710,-11029.068536,1072.533697
3399.641858,8734.430116,-9844.739029,1072.533697
3399.642185,9474.636058,-8808.450710,0.000000
3399.642513,8808.450710,-8068.244768,0.000000
3399.642840,9030.512492,-8068.244768,-306.438199
3399.643168,9992.780217,-8512.368333,-383.047749
3399.643495,10881.027347,-9770.718434,-536.266849
3399.643823,11399.171507,-10436.903782,-383.047749
3399.644150,11177.109724,-9770.718434,-383.047749
3399.644478,10807.006753,-9918.759623,-1608.800546
3399.644806,11251.130318,-9918.759623,-153.219100
3399.645133,12287.418637,-10436.903782,-459.657299
3399.645461,13841.851115,-10436.903782,-383.047749
3399.645788,14582.057057,-9622.677246,842.705048
3399.646116,15544.324782,-9992.780217,1685.410096
3399.646443,14582.057057,-8586.388927,1608.800546
3399.646771,13101.645173,-8512.368333,689.485948
3399.647098,12583.501014,-8808.450710,-689.485948
3399.647426,12287.418637,-9474.636058,-536.266849
3399.647753,12509.480420,-10732.986159,-153.219100
3399.648081,13027.624579,-10362.883188,842.705048
3399.648408,12435.459826,-9548.656652,1532.190996
3399.648736,13027.624579,-9548.656652,1072.533697
3399.649064,12583.501014,-9104.533087,1072.533697
3399.649391,11621.233289,-9474.636058,766.095498
3399.649719,10510.924376,-9844.739029,919.314598
3399.650046,9326.594869,-9104.533087,-459.657299
3399.650374,7772.162391,-7846.182985,0.000000
3399.650701,6809.894666,-7550.100608,229.828649
3399.651029,8438.347739,-8438.347739,0.000000
3399.651356,9622.677246,-9918.759623,-383.047749
3399.651684,10510.924376,-11991.336260,-383.047749
3399.652011,11029.068536,-12065.356855,-459.657299
3399.652339,9474.636058,-9770.718434,306.438199
3399.652666,8290.306550,-8068.244768,842.705048
3399.652994,7920.203579,-7994.224174,919.314598
3399.653321,8808.450710,-9178.553681,383.047749
3399.653649,9030.512492,-10140.821405,689.485948
3399.653977,9252.574275,-10584.944971,76.609550
3399.654304,8512.368333,-8956.491898,-459.657299
3399.654632,6883.915261,-9474.636058,-383.047749
3399.654959,5033.400406,-9992.780217,-536.266849
3399.655287,6661.853478,-10436.903782,-2221.676944
3399.655614,8808.450710,-9622.677246,-2604.724693
3399.655942,10436.903782,-9622.677246,-1149.143247
3399.656269,9844.739029,-9696.697840,1302.362347
3399.656597,7476.080014,-8660.409521,2604.724693
3399.656924,7105.977043,-7920.203579,1455.581446
3399.657252,9474.636058,-9326.594869,-1532.190996
3399.657579,11251.130318,-11177.109724,-2451.505594
3399.657907,11103.089130,-10436.903782,-459.657299
3399.658235,10066.800811,-8956.491898,919.314598
3399.658562,9992.780217,-10584.944971,383.047749
3399.658890,9400.615463,-11251.130318,-536.266849
3399.659217,8216.285956,-7920.203579,-919.314598
3399.659545,8290.306550,-7254.018232,-612.876398
3399.659872,9918.759623,-9400.615463,-689.485948
3399.660200,11251.130318,-10066.800811,536.266849
3399.660527,11695.253884,-8882.471304,3064.381992
3399.660855,12139.377449,-7994.224174,2757.943793
3399.661182,12287.418637,-7698.141797,1762.019645
3399.661510,11325.150913,-8586.388927,766.095498
3399.661837,11399.171507,-9178.553681,0.000000
3399.662165,13767.830521,-8956.491898,-1455.581446
3399.662493,13915.871710,-9400.615463,-919.314598
3399.662820,11843.295072,-10881.027347,1762.019645
3399.663148,11473.192101,-10510.924376,1762.019645
3399.663475,13027.624579,-9474.636058,-689.485948
3399.663803,12509.480420,-11251.130318,-1532.190996
3399.664130,12435.459826,-11621.233289,-1225.752797
3399.664458,12879.583391,-9474.636058,153.219100
3399.664785,11251.130318,-8956.491898,3524.039291
3399.665113,10140.821405,-8216.285956,2911.162892
3399.665440,7254.018232,-9400.615463,306.438199
3399.665768,3034.844362,-9992.780217,842.705048
3399.666095,4959.379811,-8290.306550,-1685.410096
3399.666423,5921.647536,-8364.327145,-3753.867940
3399.666751,5847.626942,-11029.068536,-689.485948
3399.667078,7328.038826,-10807.006753,536.266849
3399.667406,8660.409521,-10436.903782,612.876398
3399.667733,9474.636058,-10807.006753,-229.828649
3399.668061,8290.306550,-13323.706956,-229.828649
3399.668388,6957.935855,-11251.130318,-536.266849
3399.668716,5847.626942,-10066.800811,0.000000
3399.669043,3256.906145,-10362.883188,76.609550
3399.669371,1998.556043,-9622.677246,1225.752797
3399.669698,0.000000,-10807.006753,1302.362347
3399.670026,-814.226536,-9548.656652,229.828649
3399.670353,-4219.173869,-8734.430116,-383.047749
3399.670681,-2960.823768,-7550.100608,-1302.362347
3399.671009,-3849.070898,-6513.812290,-689.485948
3399.671336,-1628.453072,-9178.553681,-536.266849
3399.671664,-2072.576638,-8142.265362,1762.019645
3399.671991,-1850.514855,-7772.162391,2068.457845
3399.672319,-2220.617826,-6809.894666,0.000000
3399.672646,-814.226536,-11473.192101,-1072.533697
3399.672974,-518.144159,-9770.718434,-1532.190996
3399.673301,888.247130,-10288.862594,-2145.067394
3399.673629,-1184.329507,-11695.253884,919.314598
3399.673956,0.000000,-11177.109724,383.047749
3399.674284,-296.082377,-8438.347739,383.047749
3399.674611,-740.205942,-8660.409521,0.000000
3399.674939,-1776.494261,-8956.491898,76.609550
3399.675267,-1480.411884,-8956.491898,-995.924147
3399.675594,-1628.453072,-8068.244768,-459.657299
3399.675922,0.000000,-8808.450710,-536.266849
3399.676249,444.123565,-9030.512492,383.047749
3399.676577,-296.082377,-9030.512492,1149.143247
3399.676904,-2146.597232,-10436.903782,689.485948
3399.677232,-592.164754,-10362.883188,-2757.943793
3399.677559,0.000000,-10140.821405,-4519.963438
3399.677887,0.000000,-12139.377449,-1915.238745
3399.678214,2368.659014,-11547.212695,-1225.752797
3399.678542,1850.514855,-10955.047942,2068.457845
3399.678869,666.185348,-10214.842000,1915.238745
3399.679197,1554.432478,-12435.459826,-2145.067394
3399.679525,444.123565,-11843.295072,-3064.381992
3399.679852,1850.514855,-7920.203579,-2374.896044
3399.680180,2738.761985,-6439.791695,-1608.800546
3399.680507,888.247130,-10658.965565,2757.943793
3399.680835,1702.473667,-10510.924376,3447.429741
3399.681162,4515.256246,-9178.553681,-1072.533697
3399.681490,3627.009116,-10214.842000,-2604.724693
3399.681817,3330.926739,-11177.109724,-2145.067394
3399.682145,2886.803174,-10658.965565,-383.047749
3399.682472,2886.803174,-9030.512492,536.266849
3399.682800,4515.256246,-9104.533087,1072.533697
3399.683127,4737.318029,-10955.047942,1915.238745
3399.683455,4589.276840,-11547.212695,4136.915689
3399.683782,3923.091493,-9326.594869,2528.115143
3399.684110,2812.782580,-7772.162391,0.000000
3399.684438,0.000000,-8216.285956,-306.438199
3399.684765,0.000000,-8364.327145,76.609550
3399.685093,-1702.473667,-6957.935855,995.924147
3399.685420,-814.226536,-7402.059420,1455.581446
3399.685748,2442.679609,-9696.697840,842.705048
3399.686075,2294.638420,-11473.192101,-536.266849
3399.686403,148.041188,-11473.192101,0.000000
3399.686730,-296.082377,-10214.842000,0.000000
3399.687058,-518.144159,-10362.883188,-153.219100
3399.687386,-962.267725,-11251.130318,-1149.143247
3399.687714,-2294.638420,-9474.636058,-1149.143247
3399.688041,-3182.885551,-7994.224174,-1608.800546
3399.688369,-1924.535449,-9474.636058,-766.095498
3399.688697,-1406.391290,-10807.006753,-766.095498
3399.689025,-1776.494261,-11029.068536,1225.752797
3399.689352,-1110.308913,-9252.574275,1608.800546
3399.689680,-370.102971,-8586.388927,-383.047749
3399.690008,-1480.411884,-9326.594869,-689.485948
3399.690336,-1110.308913,-9474.636058,-1608.800546
3399.690663,-2664.741391,-9770.718434,0.000000
3399.690991,-2294.638420,-8438.347739,459.657299
3399.691319,-2220.617826,-9104.533087,-766.095498
3399.691647,-3108.864956,-11769.274478,-995.924147
3399.691974,-2368.659014,-11917.315666,-766.095498
3399.692302,-1184.329507,-9770.718434,-2451.505594
3399.692630,-1702.473667,-9844.739029,-1685.410096
3399.692958,-1332.370696,-10436.903782,-995.924147
3399.693285,0.000000,-9474.636058,0.000000
3399.693613,-592.164754,-7994.224174,1685.410096
3399.693941,1258.350101,-7105.977043,766.095498
3399.694269,222.061783,-8364.327145,153.219100
3399.694596,-1258.350101,-9548.656652,766.095498
3399.694924,0.000000,-8882.471304,-306.438199
3399.695252,1036.288319,-7624.121203,-1991.848295
3399.695580,1110.308913,-9622.677246,-1072.533697
3399.695907,2442.679609,-10510.924376,-919.314598
3399.696235,1924.535449,-10807.006753,842.705048
3399.696563,1184.329507,-11991.336260,842.705048
3399.696891,1850.514855,-12731.542202,-1915.238745
3399.697218,962.267725,-10140.821405,-2834.553343
3399.697546,740.205942,-9030.512492,-1455.581446
3399.697874,1184.329507,-9252.574275,536.266849
3399.698202,888.247130,-9918.759623,2374.896044
3399.698529,1258.350101,-8882.471304,1225.752797
3399.698857,2072.576638,-8660.409521,-1378.971896
3399.699185,296.082377,-8808.450710,-1378.971896
3399.699513,74.020594,-7476.080014,-1378.971896
3399.699840,740.205942,-7698.141797,-1532.190996
3399.700168,2072.576638,-9992.780217,-689.485948
3399.700496,3256.906145,-10955.047942,1302.362347
3399.700824,4959.379811,-11325.150913,1838.629195
3399.701152,5107.421000,-11991.336260,2145.067394
3399.701479,4737.318029,-12287.418637,1149.143247
3399.701807,2072.576638,-10288.862594,689.485948
3399.702135,1110.308913,-7179.997637,-229.828649
3399.702463,-518.144159,-7105.977043,-612.876398
3399.702790,-2368.659014,-9400.615463,612.876398
3399.703118,-148.041188,-9770.718434,1378.971896
3399.703446,1924.535449,-9104.533087,0.000000
3399.703774,1924.535449,-11029.068536,-995.924147
3399.704101,-444.123565,-10362.883188,0.000000
3399.704429,-962.267725,-9696.697840,-306.438199
3399.704757,-1554.432478,-10066.800811,-536.266849
3399.705085,-962.267725,-8586.388927,-1149.143247
3399.705412,-1924.535449,-7402.059420,-689.485948
3399.705740,-2812.782580,-8586.388927,459.657299
3399.706068,-1998.556043,-9474.636058,842.705048
3399.706396,-444.123565,-9474.636058,-612.876398
3399.706723,-962.267725,-10584.944971,689.485948
3399.707051,222.061783,-10584.944971,76.609550
3399.707379,-592.164754,-9474.636058,-1225.752797
3399.707707,-2368.659014,-8364.327145,-1225.752797
3399.708034,-2738.761985,-8734.430116,-612.876398
3399.708362,-2072.576638,-8660.409521,-612.876398
3399.708690,-1628.453072,-9104.533087,766.095498
3399.709018,0.000000,-8364.327145,689.485948
3399.709345,222.061783,-9918.759623,306.438199
3399.709673,-814.226536,-10436.903782,383.047749
3399.710001,-962.267725,-10066.800811,-1455.581446
3399.710329,-2072.576638,-10288.862594,-1762.019645
3399.710656,-2516.700203,-9918.759623,-1455.581446
3399.710984,-444.123565,-9770.718434,-995.924147
3399.711312,222.061783,-9992.780217,0.000000
3399.711640,74.020594,-10140.821405,766.095498
3399.711967,0.000000,-9696.697840,766.095498
3399.712295,370.102971,-9252.574275,0.000000
3399.712623,888.247130,-8808.450710,-1378.971896
3399.712951,-296.082377,-9622.677246,-689.485948
3399.713278,444.123565,-9030.512492,229.828649
3399.713606,2072.576638,-8068.244768,0.000000
3399.713934,2220.617826,-8734.430116,1608.800546
3399.714262,1924.535449,-12435.459826,1378.971896
3399.714589,1406.391290,-11917.315666,-459.657299
3399.714917,814.226536,-9400.615463,-2221.676944
3399.715245,518.144159,-8734.430116,-1915.238745
3399.715573,1480.411884,-10436.903782,-1685.410096
3399.715900,888.247130,-11547.212695,2451.505594
3399.716228,1110.308913,-8364.327145,2298.286494
3399.716556,1628.453072,-7624.121203,-1378.971896
3399.716884,0.000000,-9030.512492,-1685.410096
3399.717211,-296.082377,-9622.677246,0.000000
3399.717539,592.164754,-6957.935855,0.000000
3399.717867,2368.659014,-8364.327145,536.266849
3399.718195,3775.050304,-10732.986159,1072.533697
3399.718522,4071.132681,-11991.336260,1915.238745
3399.718850,2516.700203,-10955.047942,1685.410096
3399.719178,2960.823768,-10436.903782,0.000000
3399.719506,1554.432478,-9548.656652,-306.438199
3399.719833,518.144159,-9548.656652,-842.705048
3399.720161,-1184.329507,-8882.471304,0.000000
3399.720489,-1702.473667,-8882.471304,229.828649
3399.720817,1036.288319,-8660.409521,459.657299
3399.721144,2516.700203,-11621.233289,0.000000
3399.721472,1480.411884,-12435.459826,-383.047749
3399.721800,-592.164754,-9770.718434,-995.924147
3399.722128,-2368.659014,-9030.512492,-1072.533697
3399.722456,-2664.741391,-9178.553681,-2451.505594
3399.722783,-1628.453072,-10436.903782,-1378.971896
3399.723111,-1776.494261,-8586.388927,383.047749
3399.723439,-814.226536,-7624.121203,919.314598
3399.723767,592.164754,-9548.656652,536.266849
3399.724094,1480.411884,-11991.336260,459.657299
3399.724422,0.000000,-11621.233289,1915.238745
3399.724750,0.000000,-9178.553681,919.314598
3399.725078,-1258.350101,-8660.409521,-1532.190996
3399.725405,-1998.556043,-8660.409521,-3064.381992
3399.725733,-962.267725,-9252.574275,-995.924147
3399.726061,-888.247130,-8364.327145,919.314598
3399.726389,-666.185348,-9696.697840,2221.676944
3399.726716,222.061783,-9400.615463,153.219100
3399.727044,-518.144159,-10362.883188,-919.314598
3399.727372,-1406.391290,-10140.821405,-995.924147
3399.727700,-1332.370696,-8586.388927,-1762.019645
3399.728027,-1406.391290,-9252.574275,-1455.581446
3399.728355,-740.205942,-10881.027347,0.000000
3399.728683,296.082377,-10732.986159,689.485948
3399.729011,592.164754,-7920.203579,919.314598
3399.729338,666.185348,-9548.656652,612.876398
3399.729666,1110.308913,-10955.047942,-1225.752797
3399.729994,148.041188,-10362.883188,-689.485948
3399.730322,444.123565,-8142.265362,-2298.286494
3399.730649,1332.370696,-9178.553681,-919.314598
3399.730977,1850.514855,-10066.800811,0.000000
3399.731305,2516.700203,-9104.533087,1762.019645
3399.731633,814.226536,-9918.759623,2374.896044
3399.731960,1628.453072,-11473.192101,383.047749
3399.732288,1406.391290,-9918.759623,-2911.162892
3399.732616,1924.535449,-11547.212695,-2757.943793
3399.732944,1406.391290,-11251.130318,-842.705048
3399.733271,1554.432478,-8882.471304,306.438199
3399.733599,666.185348,-10288.862594,1991.848295
3399.733927,740.205942,-9918.759623,536.266849
3399.734255,444.123565,-9400.615463,-459.657299
3399.734582,-518.144159,-8068.244768,-995.924147
3399.734910,666.185348,-8142.265362,-1991.848295
3399.735238,962.267725,-8734.430116,-1302.362347
3399.735566,148.041188,-10140.821405,1685.410096
3399.735893,2294.638420,-8882.471304,1608.800546
3399.736221,4515.256246,-8586.388927,995.924147
3399.736549,3108.864956,-11325.150913,1378.971896
3399.736877,2072.576638,-11991.336260,612.876398
3399.737204,2146.597232,-9622.677246,76.609550
3399.737532,962.267725,-6439.791695,-1685.410096
3399.737860,-1850.514855,-8660.409521,0.000000
3399.738188,-1702.473667,-10807.006753,689.485948
3399.738515,740.205942,-9252.574275,-229.828649
3399.738843,1850.514855,-7550.100608,-1608.800546
3399.739171,2738.761985,-10362.883188,-383.047749
3399.739499,1184.329507,-14137.933492,229.828649
3399.739826,666.185348,-11769.274478,842.705048
3399.740154,-518.144159,-7179.997637,-2221.676944
3399.740482,-3923.091493,-9548.656652,-2221.676944
3399.740810,-4663.297435,-9548.656652,-1685.410096
3399.741137,-3256.906145,-8660.409521,-1149.143247
3399.741465,-1110.308913,-9178.553681,-919.314598
3399.741793,-592.164754,-10807.006753,-153.219100
3399.742121,-1332.370696,-12509.480420,1991.848295
3399.742449,-148.041188,-10732.986159,229.828649
3399.742776,-444.123565,-9400.615463,-2145.067394
3399.743104,-370.102971,-9474.636058,-2911.162892
3399.743432,-740.205942,-8956.491898,-689.485948
3399.743760,444.123565,-8290.306550,76.609550
3399.744087,1258.350101,-10066.800811,2298.286494
3399.744415,0.000000,-8660.409521,2145.067394
3399.744743,-518.144159,-9696.697840,1225.752797
3399.745071,-1924.535449,-10955.047942,-1072.533697
3399.745398,-1258.350101,-11251.130318,-3217.601092
3399.745726,0.000000,-8142.265362,-2834.553343
3399.746054,0.000000,-9622.677246,0.000000
3399.746382,-296.082377,-10140.821405,2451.505594
3399.746709,1702.473667,-7846.182985,2834.553343
3399.747037,1406.391290,-8216.285956,1915.238745
3399.747365,-814.226536,-9252.574275,459.657299
3399.747693,-222.061783,-9696.697840,-919.314598
3399.748020,592.164754,-9400.615463,-2604.724693
3399.748348,-370.102971,-9326.594869,229.828649
3399.748676,1998.556043,-9400.615463,-459.657299
3399.749004,2368.659014,-9770.718434,842.705048
3399.749331,1924.535449,-11843.295072,1838.629195
3399.749659,3034.844362,-12879.583391,229.828649
3399.749987,1776.494261,-9030.512492,-2451.505594
3399.750315,518.144159,-8882.471304,-1455.581446
3399.750642,1036.288319,-9622.677246,-459.657299
3399.750970,2442.679609,-10807.006753,919.314598
3399.751298,1110.308913,-9400.615463,2911.162892
3399.751626,2220.617826,-8068.244768,153.219100
3399.751953,1702.473667,-8956.491898,-1915.238745
3399.752281,1406.391290,-10881.027347,-1915.238745
3399.752609,0.000000,-10732.986159,-842.705048
3399.752937,-1110.308913,-8956.491898,0.000000
3399.753264,-222.061783,-8586.388927,0.000000
3399.753592,2294.638420,-9992.780217,-1149.143247
3399.753920,3923.091493,-11177.109724,229.828649
3399.754248,3108.864956,-10881.027347,1608.800546
3399.754575,2886.803174,-10881.027347,1685.410096
3399.754903,2516.700203,-10436.903782,383.047749
3399.755231,444.123565,-9104.533087,-1302.362347
3399.755559,-2146.597232,-8882.471304,-383.047749
3399.755886,-2294.638420,-7476.080014,383.047749
3399.756214,74.020594,-7698.141797,-1072.533697
3399.756542,1702.473667,-10510.924376,-1225.752797
3399.756870,1850.514855,-11325.150913,536.266849
3399.757197,2072.576638,-11991.336260,1685.410096
3399.757525,2738.761985,-11991.336260,1225.752797
3399.757853,1702.473667,-10214.842000,-1838.629195
3399.758181,-1554.432478,-9400.615463,-1762.019645
3399.758508,-5329.482782,-7624.121203,-1149.143247
3399.758836,-4885.359217,-6661.853478,-153.219100
3399.759164,-2368.659014,-7920.203579,-689.485948
3399.759492,-2146.597232,-11029.068536,153.219100
3399.759819,-2294.638420,-10807.006753,1225.752797
3399.760147,-296.082377,-9030.512492,-383.047749
3399.760475,222.061783,-9104.533087,-2528.115143
3399.760803,0.000000,-11473.192101,-1225.752797
3399.761130,-1332.370696,-9178.553681,153.219100
3399.761458,-666.185348,-7698.141797,842.705048
3399.761786,-1184.329507,-8586.388927,1608.800546
3399.762114,222.061783,-10214.842000,689.485948
3399.762441,-1258.350101,-11695.253884,1455.581446
3399.762769,-666.185348,-11325.150913,-766.095498
3399.763097,-1332.370696,-10732.986159,-3064.381992
3399.763425,-814.226536,-9844.739029,-3524.039291
3399.763753,-1110.308913,-9622.677246,-1532.190996
3399.764080,-1110.308913,-9326.594869,2451.505594
3399.764408,0.000000,-6661.853478,2298.286494
3399.764736,666.185348,-9030.512492,1072.533697
3399.765064,962.267725,-12065.356855,995.924147
3399.765391,2368.659014,-9548.656652,-536.266849
3399.765719,2072.576638,-8808.450710,0.000000
3399.766047,1776.494261,-10436.903782,-612.876398
3399.766375,814.226536,-9992.780217,-1072.533697
3399.766702,-1110.308913,-10362.883188,153.219100
3399.767030,-1184.329507,-9474.636058,-459.657299
3399.767358,370.102971,-10658.965565,-2068.457845
3399.767686,1406.391290,-10732.986159,-2451.505594
3399.768013,1850.514855,-11399.171507,-536.266849
3399.768341,2516.700203,-9474.636058,306.438199
3399.768669,2960.823768,-10510.924376,1762.019645
3399.768997,2368.659014,-9918.759623,1149.143247
3399.769324,3923.091493,-8882.471304,0.000000
3399.769652,1776.494261,-7254.018232,0.000000
3399.769980,-518.144159,-8660.409521,842.705048
3399.770308,-518.144159,-8290.306550,383.047749
3399.770635,0.000000,-9474.636058,-766.095498
3399.770963,-1036.288319,-10807.006753,0.000000
3399.771291,1406.391290,-10658.965565,-1532.190996
3399.771619,2220.617826,-9992.780217,-1532.190996
3399.771946,2368.659014,-12139.377449,-383.047749
3399.772274,2442.679609,-10510.924376,612.876398
3399.772602,2072.576638,-7105.977043,689.485948
3399.772930,518.144159,-7031.956449,1608.800546
3399.773257,-666.185348,-10214.842000,1532.190996
3399.773585,-148.041188,-9992.780217,459.657299
3399.773913,740.205942,-8216.285956,-536.266849
3399.774241,1850.514855,-10362.883188,-1072.533697
3399.774568,296.082377,-10955.047942,-919.314598
3399.774896,0.000000,-11029.068536,0.000000
3399.775224,1110.308913,-9992.780217,0.000000
3399.775552,370.102971,-10955.047942,-1149.143247
3399.775879,-1406.391290,-9252.574275,-1455.581446
3399.776207,-962.267725,-7772.162391,-229.828649
3399.776535,-2220.617826,-9844.739029,459.657299
3399.776863,-1924.535449,-10362.883188,1072.533697
3399.777190,-1554.432478,-9400.615463,689.485948
3399.777518,-962.267725,-9474.636058,-689.485948
3399.777846,-962.267725,-10140.821405,-2374.896044
3399.778174,-2738.761985,-7994.224174,-1762.019645
3399.778501,-1702.473667,-8290.306550,-995.924147
3399.778829,-962.267725,-9474.636058,0.000000
3399.779157,370.102971,-10362.883188,842.705048
3399.779485,888.247130,-9474.636058,1532.190996
3399.779812,1332.370696,-9104.533087,842.705048
3399.780140,222.061783,-10584.944971,0.000000
3399.780468,-592.164754,-10955.047942,-689.485948
3399.780796,-1702.473667,-9030.512492,-919.314598
3399.781123,-1850.514855,-8364.327145,-1149.143247
3399.781451,-1850.514855,-9474.636058,0.000000
3399.781779,-888.247130,-8734.430116,229.828649
3399.782107,0.000000,-8882.471304,536.266849
3399.782434,-666.185348,-10955.047942,383.047749
3399.782762,148.041188,-10140.821405,-919.314598
3399.783090,592.164754,-9104.533087,-995.924147
3399.783418,1776.494261,-11325.150913,-1072.533697
3399.783745,1332.370696,-10658.965565,0.000000
3399.784073,740.205942,-8660.409521,995.924147
3399.784401,0.000000,-9474.636058,1149.143247
3399.784729,-370.102971,-10881.027347,-689.485948
3399.785057,0.000000,-10436.903782,-995.924147
3399.785384,888.247130,-8586.388927,-2528.115143
3399.785712,962.267725,-10214.842000,-1302.362347
3399.786040,1554.432478,-12657.521608,306.438199
3399.786368,2812.782580,-11103.089130,1072.533697
3399.786695,2442.679609,-7994.224174,-383.047749
3399.787023,1480.411884,-9030.512492,76.609550
3399.787351,1924.535449,-8956.491898,-229.828649
3399.787679,962.267725,-8660.409521,612.876398
3399.788006,-296.082377,-8734.430116,1149.143247
3399.788334,0.000000,-8364.327145,689.485948
3399.788662,962.267725,-10584.944971,0.000000
3399.788990,1406.391290,-11843.295072,-459.657299
3399.789317,148.041188,-10658.965565,-536.266849
3399.789645,-888.247130,-8512.368333,-1225.752797
3399.789973,1924.535449,-8438.347739,-536.266849
3399.790301,2368.659014,-8586.388927,459.657299
3399.790629,1406.391290,-9178.553681,2298.286494
3399.790956,0.000000,-9548.656652,2681.334243
3399.791284,1776.494261,-9548.656652,1302.362347
3399.791612,3552.988522,-9770.718434,-1838.629195
3399.791940,2368.659014,-11547.212695,-766.095498
3399.792267,296.082377,-9252.574275,689.485948
3399.792595,814.226536,-8808.450710,-153.219100
3399.792923,1554.432478,-10881.027347,-995.924147
3399.793251,1554.432478,-11621.233289,-995.924147
3399.793579,-518.144159,-9400.615463,-536.266849
3399.793906,-1036.288319,-7920.203579,-995.924147
3399.794234,-1480.411884,-10140.821405,-383.047749
3399.794562,-1332.370696,-11621.233289,-383.047749
3399.794890,-1332.370696,-10436.903782,229.828649
3399.795217,-1776.494261,-8734.430116,-536.266849
3399.795545,-1036.288319,-8956.491898,-2451.505594
3399.795873,-1036.288319,-10732.986159,-1532.190996
3399.796201,-296.082377,-10510.924376,76.609550
3399.796529,-222.061783,-8142.265362,-229.828649
3399.796856,-296.082377,-8290.306550,766.095498
3399.797184,888.247130,-10807.006753,-459.657299
3399.797512,666.185348,-12435.459826,0.000000
3399.797840,-444.123565,-9770.718434,76.609550
3399.798167,-740.205942,-8660.409521,-842.705048
3399.798495,-888.247130,-10436.903782,-229.828649
3399.798823,-222.061783,-9770.718434,0.000000
3399.799151,-888.247130,-7772.162391,842.705048
3399.799479,-1184.329507,-6883.915261,1302.362347
3399.799806,-740.205942,-8808.450710,536.266849
3399.800134,-148.041188,-11103.089130,-306.438199
3399.800462,-444.123565,-9326.594869,-995.924147
3399.800790,-962.267725,-7994.224174,0.000000
3399.801118,222.061783,-10288.862594,-995.924147
3399.801445,370.102971,-11251.130318,-383.047749
3399.801773,444.123565,-10288.862594,689.485948
3399.802101,-444.123565,-9326.594869,229.828649
3399.802429,222.061783,-10066.800811,-689.485948
3399.802756,1332.370696,-10732.986159,-1532.190996
3399.803084,1258.350101,-9844.739029,-1302.362347
3399.803412,518.144159,-9030.512492,1455.581446
3399.803740,740.205942,-9844.739029,2298.286494
3399.804068,1406.391290,-9474.636058,-153.219100
3399.804395,1406.391290,-9474.636058,-1302.362347
3399.804723,1924.535449,-9696.697840,-153.219100
3399.805051,1480.411884,-8364.327145,0.000000
3399.805379,1628.453072,-8882.471304,689.485948
3399.805706,1110.308913,-9548.656652,536.266849
3399.806034,814.226536,-11621.233289,0.000000
3399.806362,888.247130,-10584.944971,0.000000
3399.806690,1258.350101,-9918.759623,-1378.971896
3399.807018,0.000000,-10436.903782,-1378.971896
3399.807345,1184.329507,-10362.883188,-459.657299
3399.807673,1998.556043,-8734.430116,-229.828649
3399.808001,1924.535449,-7698.141797,689.485948
3399.808329,1110.308913,-9400.615463,995.924147
3399.808657,74.020594,-10955.047942,612.876398
3399.808984,1184.329507,-9770.718434,229.828649
3399.809312,2294.638420,-8734.430116,-1608.800546
3399.809640,2368.659014,-10584.944971,-459.657299
3399.809968,1184.329507,-10807.006753,1532.190996
3399.810295,2442.679609,-9622.677246,1072.533697
3399.810623,1776.494261,-9104.533087,689.485948
3399.810951,666.185348,-9992.780217,383.047749
3399.811279,0.000000,-9696.697840,-1378.971896
3399.811607,-1776.494261,-9400.615463,-1072.533697
3399.811934,-2368.659014,-9326.594869,-153.219100
3399.812262,-1258.350101,-9474.636058,-306.438199
3399.812590,-962.267725,-9400.615463,-229.828649
3399.812918,-222.061783,-10140.821405,-689.485948
3399.813245,-888.247130,-9548.656652,-1455.581446
3399.813573,-1258.350101,-9918.759623,-612.876398
3399.813901,-444.123565,-8438.347739,-459.657299
3399.814229,444.123565,-9474.636058,-689.485948
3399.814557,-296.082377,-9770.718434,1455.581446
3399.814884,592.164754,-9622.677246,1225.752797
3399.815212,518.144159,-10881.027347,-229.828649
3399.815540,-888.247130,-11695.253884,-689.485948
3399.815868,-1702.473667,-10807.006753,-1685.410096
3399.816195,-1850.514855,-9622.677246,-1915.238745
3399.816523,-1110.308913,-9400.615463,-1072.533697
3399.816851,0.000000,-9178.553681,-536.266849
3399.817179,0.000000,-9844.739029,1149.143247
3399.817507,-370.102971,-9252.574275,1072.533697
3399.817834,-296.082377,-8808.450710,76.609550
3399.818162,-1036.288319,-8586.388927,-766.095498
3399.818490,-1184.329507,-9770.718434,-1225.752797
3399.818818,74.020594,-10140.821405,-842.705048
3399.819146,-148.041188,-8956.491898,0.000000
3399.819473,-296.082377,-11177.109724,76.609550
3399.819801,518.144159,-12361.439231,-766.095498
3399.820129,518.144159,-11251.130318,-1915.238745
3399.820457,-444.123565,-8660.409521,-1225.752797
3399.820784,222.061783,-8882.471304,-842.705048
3399.821112,296.082377,-10658.965565,1455.581446
3399.821440,2294.638420,-10955.047942,1915.238745
3399.821768,3478.967927,-7698.141797,0.000000
3399.822096,1850.514855,-7846.182985,612.876398
3399.822423,1406.391290,-8660.409521,689.485948
3399.822751,1628.453072,-9104.533087,229.828649
3399.823079,518.144159,-8364.327145,0.000000
3399.823407,-370.102971,-8734.430116,459.657299
3399.823734,666.185348,-9992.780217,153.219100
3399.824062,2072.576638,-10732.986159,-383.047749
3399.824390,2886.803174,-12953.603985,-383.047749
3399.824718,1776.494261,-11103.089130,0.000000
3399.825046,1480.411884,-8808.450710,-459.657299
3399.825373,2368.659014,-7994.224174,-1149.143247
3399.825701,1628.453072,-7920.203579,-459.657299
3399.826029,-962.267725,-8882.471304,1685.410096
3399.826357,0.000000,-9400.615463,1685.410096
3399.826684,1628.453072,-9252.574275,-536.266849
3399.827012,1924.535449,-11325.150913,-2757.943793
3399.827340,962.267725,-11177.109724,-842.705048
3399.827668,1406.391290,-10584.944971,0.000000
3399.827996,2590.720797,-10436.903782,-612.876398
3399.828323,2664.741391,-10807.006753,-995.924147
3399.828651,74.020594,-10658.965565,-306.438199
3399.828979,-370.102971,-8808.450710,536.266849
3399.829307,-592.164754,-8808.450710,383.047749
3399.829635,-740.205942,-10066.800811,-459.657299
3399.829962,-1036.288319,-11251.130318,-1072.533697
3399.830290,-2516.700203,-10140.821405,-536.266849
3399.830618,-1998.556043,-8290.306550,-1991.848295
3399.830946,-1036.288319,-9548.656652,-2145.067394
3399.831273,-592.164754,-10362.883188,-536.266849
3399.831601,-444.123565,-8734.430116,536.266849
3399.831929,0.000000,-8142.265362,995.924147
3399.832257,0.000000,-9770.718434,1532.190996
3399.832585,962.267725,-10066.800811,229.828649
3399.832912,-518.144159,-10584.944971,383.047749
3399.833240,-1110.308913,-9400.615463,459.657299
3399.833568,-518.144159,-9104.533087,-612.876398
3399.833896,-518.144159,-9844.739029,-1608.800546
3399.834223,-962.267725,-9400.615463,0.000000
3399.834551,-1406.391290,-9252.574275,1149.143247
3399.834879,-740.205942,-8438.347739,612.876398
3399.835207,-666.185348,-7550.100608,0.000000
3399.835535,-740.205942,-8364.327145,-306.438199
3399.835862,-1554.432478,-8660.409521,-306.438199
3399.836190,-370.102971,-9622.677246,536.266849
3399.836518,3034.844362,-10658.965565,-766.095498
3399.836846,2072.576638,-10436.903782,0.000000
3399.837174,-444.123565,-10955.047942,2451.505594
3399.837501,-1702.473667,-9474.636058,0.000000
3399.837829,-962.267725,-11843.295072,-2834.553343
3399.838157,-814.226536,-9622.677246,-3677.258390
3399.838485,444.123565,-9548.656652,-2834.553343
3399.838812,444.123565,-10732.986159,229.828649
3399.839140,2220.617826,-12213.398043,2451.505594
3399.839468,2812.782580,-9326.594869,842.705048
3399.839796,2812.782580,-9178.553681,0.000000
3399.840124,1184.329507,-9400.615463,306.438199
3399.840451,518.144159,-7624.121203,0.000000
3399.840779,814.226536,-7254.018232,76.609550
3399.841107,148.041188,-8956.491898,995.924147
3399.841435,518.144159,-10362.883188,1302.362347
3399.841762,1776.494261,-10214.842000,-229.828649
3399.842090,2812.782580,-12361.439231,-1302.362347
3399.842418,2294.638420,-11843.295072,-1838.629195
3399.842746,1776.494261,-10214.842000,-459.657299
3399.843074,1480.411884,-7550.100608,306.438199
3399.843401,1480.411884,-6069.688724,1149.143247
3399.843729,74.020594,-7846.182985,1915.238745
3399.844057,-444.123565,-9326.594869,3370.820191
3399.844385,1110.308913,-9030.512492,1225.752797
3399.844712,3256.906145,-9696.697840,-1762.019645
3399.845040,1998.556043,-11695.253884,-1915.238745
3399.845368,518.144159,-11843.295072,-306.438199
3399.845696,1480.411884,-9918.759623,306.438199
3399.846024,1406.391290,-8068.244768,-766.095498
3399.846351,-518.144159,-9992.780217,1302.362347
3399.846679,-296.082377,-10066.800811,-153.219100
3399.847007,0.000000,-9400.615463,0.000000
3399.847335,0.000000,-9918.759623,-459.657299
3399.847663,1036.288319,-10881.027347,-1072.533697
3399.847990,-1036.288319,-11769.274478,0.000000
3399.848318,-814.226536,-10140.821405,-306.438199
3399.848646,-592.164754,-8068.244768,-2604.724693
3399.848974,-1258.350101,-9400.615463,-1685.410096
3399.849301,-1406.391290,-8586.388927,-459.657299
3399.849629,0.000000,-10140.821405,383.047749
3399.849957,-444.123565,-9548.656652,1302.362347
3399.850285,222.061783,-9474.636058,0.000000
3399.850613,518.144159,-11473.192101,-766.095498
3399.850940,222.061783,-12435.459826,-919.314598
3399.851268,-1184.329507,-10066.800811,-459.657299
3399.851596,-2220.617826,-7624.121203,-229.828649
3399.851924,-2368.659014,-7328.038826,919.314598
3399.852251,-1036.288319,-8216.285956,306.438199
3399.852579,-814.226536,-9474.636058,1455.581446
3399.852907,-1628.453072,-8290.306550,306.438199
3399.853235,0.000000,-8216.285956,-1225.752797
3399.853563,74.020594,-9696.697840,-1532.190996
3399.853890,740.205942,-10955.047942,-689.485948
3399.854218,296.082377,-8512.368333,2068.457845
3399.854546,-518.144159,-8586.388927,2374.896044
3399.854874,-814.226536,-10584.944971,612.876398
3399.855201,814.226536,-12213.398043,-2374.896044
3399.855529,0.000000,-9770.718434,-2374.896044
3399.855857,0.000000,-8586.388927,-1378.971896
3399.856185,0.000000,-9992.780217,153.219100
3399.856513,444.123565,-11325.150913,995.924147
3399.856840,2146.597232,-10288.862594,-306.438199
3399.857168,2368.659014,-8512.368333,-1532.190996
3399.857496,148.041188,-8808.450710,229.828649
3399.857824,740.205942,-9104.533087,0.000000
3399.858152,1998.556043,-9696.697840,0.000000
3399.858479,222.061783,-8290.306550,842.705048
3399.858807,814.226536,-8586.388927,995.924147
3399.859135,2220.617826,-11695.253884,-306.438199
3399.859463,2886.803174,-12953.603985,-995.924147
3399.859790,1554.432478,-12065.356855,-1455.581446
3399.860118,-296.082377,-9178.553681,-1378.971896
3399.860446,222.061783,-7994.224174,-383.047749
3399.860774,740.205942,-7550.100608,-1149.143247
3399.861102,-518.144159,-9696.697840,1455.581446
3399.861429,-740.205942,-9252.574275,1838.629195
3399.861757,2886.803174,-9326.594869,-153.219100
3399.862085,3997.112087,-11547.212695,-1838.629195
3399.862413,2960.823768,-12583.501014,-766.095498
3399.862740,740.205942,-9696.697840,1149.143247
3399.863068,592.164754,-8216.285956,1072.533697
3399.863396,1850.514855,-8068.244768,-1225.752797
3399.863724,222.061783,-10732.986159,-995.924147
3399.864052,-1332.370696,-8882.471304,306.438199
3399.864379,-148.041188,-8808.450710,0.000000
3399.864707,1554.432478,-11029.068536,-383.047749
3399.865035,1554.432478,-11029.068536,383.047749
3399.865363,-592.164754,-10584.944971,1378.971896
3399.865690,-2146.597232,-9400.615463,383.047749
3399.866018,-1702.473667,-8290.306550,-2451.505594
3399.866346,-1332.370696,-9992.780217,-2757.943793
3399.866674,-1924.535449,-8660.409521,-536.266849
3399.867002,-2220.617826,-6957.935855,1302.362347
3399.867329,740.205942,-8142.265362,1685.410096
3399.867657,1924.535449,-11251.130318,842.705048
3399.867985,296.082377,-11991.336260,0.000000
3399.868313,0.000000,-9622.677246,-1378.971896
3399.868641,-1332.370696,-8734.430116,-1455.581446
3399.868968,-592.164754,-9918.759623,-459.657299
3399.869296,0.000000,-11251.130318,229.828649
3399.869624,-1110.308913,-9844.739029,1838.629195
3399.869952,0.000000,-7994.224174,1762.019645
3399.870279,888.247130,-8586.388927,-229.828649
3399.870607,-740.205942,-9622.677246,-919.314598
3399.870935,-1850.514855,-9326.594869,-1225.752797
3399.871263,-2368.659014,-8512.368333,-1225.752797
3399.871591,-444.123565,-8512.368333,-995.924147
3399.871918,1702.473667,-9400.615463,-842.705048
3399.872246,296.082377,-11177.109724,1608.800546
3399.872574,-888.247130,-11769.274478,2757.943793
3399.872902,370.102971,-10584.944971,-1149.143247
3399.873229,814.226536,-10732.986159,-4060.306139
3399.873557,222.061783,-11399.171507,-2451.505594
3399.873885,-444.123565,-9844.739029,612.876398
3399.874213,-888.247130,-9178.553681,2681.334243
3399.874541,1776.494261,-9770.718434,842.705048
3399.874868,2368.659014,-9992.780217,-1608.800546
3399.875196,888.247130,-9770.718434,-842.705048
3399.875524,-296.082377,-7624.121203,76.609550
3399.875852,888.247130,-7179.997637,-1072.533697
3399.876180,1184.329507,-8808.450710,-842.705048
3399.876507,666.185348,-9844.739029,995.924147
3399.876835,0.000000,-9770.718434,3140.991542
3399.877163,1406.391290,-9474.636058,536.266849
3399.877491,3108.864956,-11621.233289,-1455.581446
3399.877818,1776.494261,-11473.192101,-1455.581446
3399.878146,296.082377,-9326.594869,229.828649
3399.878474,888.247130,-6291.750507,0.000000
3399.878802,888.247130,-7105.977043,-383.047749
3399.879130,-592.164754,-10436.903782,612.876398
3399.879457,222.061783,-10584.944971,1378.971896
3399.879785,1776.494261,-9770.718434,-459.657299
3399.880113,3034.844362,-10066.800811,-1225.752797
3399.880441,2368.659014,-12435.459826,-536.266849
3399.880768,1184.329507,-11991.336260,612.876398
3399.881096,1776.494261,-8438.347739,0.000000
3399.881424,1628.453072,-7179.997637,-1762.019645
3399.881752,148.041188,-10066.800811,-919.314598
3399.882080,-1406.391290,-11177.109724,383.047749
3399.882407,-666.185348,-9918.759623,153.219100
3399.882735,0.000000,-9770.718434,-995.924147
3399.883063,-370.102971,-11917.315666,-1149.143247
3399.883391,-1554.432478,-12361.439231,-459.657299
3399.883718,-888.247130,-10658.965565,-1455.581446
3399.884046,-370.102971,-8734.430116,-2528.115143
3399.884374,-222.061783,-7920.203579,-1149.143247
3399.884702,148.041188,-8438.347739,-229.828649
3399.885030,222.061783,-9326.594869,2068.457845
3399.885357,148.041188,-9030.512492,2911.162892
3399.885685,-222.061783,-8142.265362,995.924147
3399.886013,-1332.370696,-10436.903782,-1149.143247
3399.886341,-1776.494261,-11399.171507,-1225.752797
3399.886669,-1998.556043,-8956.491898,-1762.019645
3399.886996,-592.164754,-7920.203579,-689.485948
3399.887324,370.102971,-9992.780217,76.609550
3399.887652,444.123565,-11621.233289,1302.362347
3399.887980,-296.082377,-9030.512492,1532.190996
3399.888307,-962.267725,-6587.832884,153.219100
3399.888635,-1628.453072,-7179.997637,0.000000
3399.888963,-666.185348,-9252.574275,-995.924147
3399.889291,222.061783,-10436.903782,689.485948
3399.889619,2072.576638,-9326.594869,383.047749
3399.889946,1406.391290,-9770.718434,766.095498
3399.890274,518.144159,-11843.295072,0.000000
3399.890602,0.000000,-12361.439231,-2068.457845
3399.890930,-370.102971,-9252.574275,-2604.724693
3399.891257,0.000000,-8216.285956,-1838.629195
3399.891585,0.000000,-10658.965565,306.438199
3399.891913,1776.494261,-12953.603985,2068.457845
3399.892241,2294.638420,-9844.739029,1149.143247
3399.892569,2368.659014,-7920.203579,-766.095498
3399.892896,814.226536,-9326.594869,-1072.533697
3399.893224,222.061783,-10510.924376,-1225.752797
3399.893552,222.061783,-8956.491898,-612.876398
3399.893880,-444.123565,-6661.853478,-459.657299
3399.894208,444.123565,-9178.553681,1302.362347
3399.894535,2368.659014,-11695.253884,1608.800546
3399.894863,2442.679609,-12583.501014,1149.143247
3399.895191,1480.411884,-11029.068536,-1149.143247
3399.895519,1924.535449,-8956.491898,-3064.381992
3399.895846,2072.576638,-8290.306550,-2068.457845
3399.896174,2368.659014,-7402.059420,536.266849
3399.896502,-296.082377,-7105.977043,3064.381992
3399.896830,-1110.308913,-7846.182985,3983.696590
3399.897158,1110.308913,-9474.636058,1072.533697
3399.897485,2738.761985,-11991.336260,-2681.334243
3399.897813,2368.659014,-11621.233289,-2681.334243
3399.898141,888.247130,-9474.636058,-689.485948
3399.898469,1924.535449,-9696.697840,-919.314598
3399.898797,3182.885551,-11103.089130,-1302.362347
3399.899124,1480.411884,-10510.924376,1225.752797
3399.899452,-518.144159,-7402.059420,1225.752797
3399.899780,0.000000,-7846.182985,1762.019645
3399.900108,74.020594,-9992.780217,-1149.143247
3399.900435,-296.082377,-11621.233289,-1608.800546
3399.900763,-2516.700203,-10732.986159,-536.266849
3399.901091,-1258.350101,-9178.553681,-1225.752797
3399.901419,74.020594,-9326.594869,-3370.820191
3399.901747,444.123565,-11547.212695,-2145.067394
3399.902074,-1924.535449,-10066.800811,-153.219100
3399.902402,-1554.432478,-6513.812290,536.266849
3399.902730,1332.370696,-9252.574275,229.828649
3399.903058,740.205942,-12065.356855,842.705048
3399.903385,-1036.288319,-10955.047942,842.705048
3399.903713,-1406.391290,-10140.821405,-306.438199
3399.904041,-1628.453072,-10658.965565,-2451.505594
3399.904369,-814.226536,-9252.574275,-4443.353888
3399.904697,-1110.308913,-9326.594869,-153.219100
3399.905024,-2294.638420,-8438.347739,2298.286494
3399.905352,-1480.411884,-8364.327145,2145.067394
3399.905680,-1184.329507,-8216.285956,153.219100
3399.906008,-1332.370696,-9622.677246,-995.924147
3399.906336,-2812.782580,-8808.450710,76.609550
3399.906663,-666.185348,-6809.894666,306.438199
3399.906991,814.226536,-9252.574275,-689.485948
3399.907319,2368.659014,-12805.562797,0.000000
3399.907647,2294.638420,-11917.315666,229.828649
3399.907974,444.123565,-8216.285956,536.266849
3399.908302,-888.247130,-9252.574275,459.657299
3399.908630,-1110.308913,-9696.697840,-1532.190996
3399.908958,-962.267725,-10140.821405,-1455.581446
3399.909286,-2442.679609,-8068.244768,-229.828649
3399.909613,-296.082377,-9474.636058,76.609550
3399.909941,740.205942,-10955.047942,-1072.533697
3399.910269,1036.288319,-11177.109724,-306.438199
3399.910597,1110.308913,-9474.636058,-229.828649
3399.910925,1702.473667,-7624.121203,-919.314598
3399.911252,1258.350101,-9992.780217,0.000000
3399.911580,1554.432478,-11769.274478,1455.581446
3399.911908,1332.370696,-9992.780217,842.705048
3399.912236,1850.514855,-9030.512492,-612.876398
3399.912563,518.144159,-12065.356855,-1608.800546
3399.912891,-222.061783,-12287.418637,-2604.724693
3399.913219,444.123565,-9400.615463,-1915.238745
3399.913547,370.102971,-7402.059420,-1225.752797
3399.913875,1110.308913,-8882.471304,1072.533697
3399.914202,1258.350101,-9252.574275,2987.772442
3399.914530,2738.761985,-9770.718434,2604.724693
3399.914858,2738.761985,-9326.594869,995.924147
3399.915186,3182.885551,-9400.615463,-1532.190996
3399.915514,2516.700203,-9326.594869,-612.876398
3399.915841,2886.803174,-7550.100608,919.314598
3399.916169,1776.494261,-7179.997637,842.705048
3399.916497,-592.164754,-10140.821405,995.924147
3399.916825,-518.144159,-11695.253884,842.705048
3399.917152,2368.659014,-12287.418637,-1608.800546
3399.917480,2664.741391,-12065.356855,-1378.971896
3399.917808,1480.411884,-9474.636058,-842.705048
3399.918136,370.102971,-9696.697840,0.000000
3399.918464,0.000000,-9252.574275,-229.828649
3399.918791,0.000000,-8438.347739,0.000000
3399.919119,-1998.556043,-6513.812290,766.095498
3399.919447,-2664.741391,-6587.832884,842.705048
3399.919775,-2220.617826,-8512.368333,766.095498
3399.920102,1110.308913,-10584.944971,-459.657299
3399.920430,148.041188,-11621.233289,0.000000
3399.920758,444.123565,-11177.109724,306.438199
3399.921086,666.185348,-9918.759623,-1608.800546
3399.921414,148.041188,-12583.501014,-2374.896044
3399.921741,-592.164754,-11325.150913,-1838.629195
3399.922069,-1406.391290,-8660.409521,-612.876398
3399.922397,-2146.597232,-8586.388927,1455.581446
3399.922725,-2294.638420,-9252.574275,1455.581446
3399.923053,-1480.411884,-9474.636058,1378.971896
3399.923380,-2368.659014,-8808.450710,-766.095498
3399.923708,-2738.761985,-9326.594869,-2221.676944
3399.924036,-1332.370696,-10066.800811,-2604.724693
3399.924364,370.102971,-10140.821405,-2068.457845
3399.924691,1110.308913,-10362.883188,1072.533697
3399.925019,1406.391290,-9622.677246,2374.896044
3399.925347,1406.391290,-9770.718434,1378.971896
3399.925675,148.041188,-10214.842000,612.876398
3399.926003,-1776.494261,-10584.944971,536.266849
3399.926330,-2590.720797,-7624.121203,-1149.143247
3399.926658,-1258.350101,-8364.327145,-1915.238745
3399.926986,-666.185348,-10288.862594,-995.924147
3399.927314,-962.267725,-10140.821405,153.219100
3399.927642,-1184.329507,-8808.450710,-612.876398
3399.927969,-1258.350101,-9030.512492,-995.924147
3399.928297,148.041188,-9178.553681,-1608.800546
3399.928625,1110.308913,-9844.739029,-1225.752797
3399.928953,74.020594,-10436.903782,2145.067394
3399.929280,1184.329507,-9844.739029,2298.286494
3399.929608,3330.926739,-9474.636058,-612.876398
3399.929936,2516.700203,-11843.295072,-995.924147
3399.930264,-222.061783,-10807.006753,0.000000
3399.930592,-666.185348,-6883.915261,-459.657299
3399.930919,-592.164754,-7476.080014,-1225.752797
3399.931247,148.041188,-9548.656652,-1149.143247
3399.931575,370.102971,-9474.636058,1072.533697
3399.931903,1776.494261,-9474.636058,2068.457845
3399.932231,2960.823768,-9548.656652,842.705048
3399.932558,4293.194464,-11843.295072,-1302.362347
3399.932886,2442.679609,-9992.780217,-842.705048
3399.933214,1628.453072,-7624.121203,0.000000
3399.933542,1258.350101,-8734.430116,-306.438199
3399.933869,1406.391290,-9622.677246,0.000000
3399.934197,1924.535449,-11695.253884,1378.971896
3399.934525,1850.514855,-12287.418637,2145.067394
3399.934853,2516.700203,-10732.986159,-1608.800546
3399.935181,2294.638420,-9696.697840,-2221.676944
3399.935508,1110.308913,-11325.150913,-2068.457845
3399.935836,-296.082377,-11621.233289,0.000000
3399.936164,-592.164754,-6513.812290,612.876398
3399.936492,0.000000,-5699.585753,842.705048
3399.936819,0.000000,-8438.347739,1149.143247
3399.937147,-148.041188,-10362.883188,1378.971896
3399.937475,-296.082377,-8364.327145,995.924147
3399.937803,888.247130,-9548.656652,459.657299
3399.938131,1702.473667,-11769.274478,-1608.800546
3399.938458,222.061783,-12139.377449,-2451.505594
3399.938786,-2368.659014,-10288.862594,-612.876398
3399.939114,-1036.288319,-9252.574275,-689.485948
3399.939442,222.061783,-9252.574275,-1149.143247
3399.939770,-592.164754,-11325.150913,842.705048
3399.940097,-1776.494261,-10066.800811,2911.162892
3399.940425,-1554.432478,-7476.080014,1762.019645
3399.940753,-592.164754,-7920.203579,76.609550
3399.941081,-296.082377,-9918.759623,-2451.505594
3399.941408,-2368.659014,-9252.574275,-459.657299
3399.941736,-1480.411884,-7105.977043,76.609550
3399.942064,1332.370696,-8660.409521,0.000000
3399.942392,1184.329507,-11547.212695,612.876398
3399.942720,592.164754,-11917.315666,1225.752797
3399.943047,-1110.308913,-9770.718434,689.485948
3399.943375,370.102971,-9030.512492,-306.438199
3399.943703,518.144159,-10436.903782,-2374.896044
3399.944031,-814.226536,-11325.150913,-1532.190996
3399.944359,-3256.906145,-8586.388927,1149.143247
3399.944686,-2146.597232,-7031.956449,0.000000
3399.945014,-1184.329507,-9918.759623,-1225.752797
3399.945342,-518.144159,-11029.068536,-919.314598
3399.945670,-296.082377,-9770.718434,-459.657299
3399.945997,1110.308913,-8586.388927,-1762.019645
3399.946325,2072.576638,-9474.636058,153.219100
3399.946653,2368.659014,-12361.439231,0.000000
3399.946981,1628.453072,-11917.315666,0.000000
3399.947309,592.164754,-9400.615463,-153.219100
3399.947636,1850.514855,-9252.574275,-1838.629195
3399.947964,74.020594,-9104.533087,-1302.362347
3399.948292,-148.041188,-9918.759623,306.438199
3399.948620,-666.185348,-8068.244768,1225.752797
3399.948947,-296.082377,-7179.997637,919.314598
3399.949275,1406.391290,-9696.697840,0.000000
3399.949603,1998.556043,-10881.027347,-1455.581446
3399.949931,592.164754,-9696.697840,-306.438199
3399.950259,1776.494261,-7105.977043,-919.314598
3399.950586,3108.864956,-8364.327145,-766.095498
3399.950914,1998.556043,-11251.130318,766.095498
3399.951242,1406.391290,-9918.759623,1225.752797
3399.951570,1998.556043,-9030.512492,842.705048
3399.951898,3034.844362,-11029.068536,153.219100
3399.952225,3478.967927,-12361.439231,-1149.143247
3399.952553,1258.350101,-12287.418637,-612.876398
3399.952881,888.247130,-8956.491898,0.000000
3399.953209,592.164754,-8142.265362,-1378.971896
3399.953536,-148.041188,-9252.574275,-766.095498
3399.953864,-962.267725,-8142.265362,-306.438199
3399.954192,-1036.288319,-7846.182985,459.657299
3399.954520,0.000000,-8882.471304,689.485948
3399.954848,1998.556043,-10881.027347,-612.876398
3399.955175,2886.803174,-11547.212695,0.000000
3399.955503,1184.329507,-10658.965565,842.705048
3399.955831,1332.370696,-9918.759623,-842.705048
3399.956159,222.061783,-11251.130318,-995.924147
3399.956487,-814.226536,-10288.862594,-1072.533697
3399.956814,-592.164754,-10362.883188,-919.314598
3399.957142,-1702.473667,-10732.986159,612.876398
3399.957470,-814.226536,-8882.471304,-459.657299
3399.957798,-296.082377,-8956.491898,0.000000
3399.958125,-444.123565,-11029.068536,229.828649
3399.958453,-1850.514855,-8438.347739,0.000000
3399.958781,-1998.556043,-6439.791695,-229.828649
3399.959109,-1554.432478,-7105.977043,0.000000
3399.959437,-370.102971,-9770.718434,229.828649
3399.959764,222.061783,-10214.842000,1915.238745
3399.960092,0.000000,-9474.636058,1302.362347
3399.960420,444.123565,-10140.821405,0.000000
3399.960748,740.205942,-11325.150913,-2068.457845
3399.961076,-888.247130,-10807.006753,-1149.143247
3399.961403,-1776.494261,-9178.553681,-536.266849
3399.961731,-1110.308913,-7846.182985,153.219100
3399.962059,-1036.288319,-8216.285956,383.047749
3399.962387,-814.226536,-11251.130318,995.924147
3399.962714,-1036.288319,-10658.965565,459.657299
3399.963042,-518.144159,-7772.162391,-612.876398
3399.963370,1628.453072,-7402.059420,-2068.457845
3399.963698,1924.535449,-11769.274478,-995.924147
3399.964026,518.144159,-12435.459826,1762.019645
3399.964353,1998.556043,-9326.594869,612.876398
3399.964681,1924.535449,-9474.636058,-153.219100
3399.965009,1702.473667,-11843.295072,-1378.971896
3399.965337,0.000000,-11991.336260,-1532.190996
3399.965664,-2146.597232,-9030.512492,-383.047749
3399.965992,222.061783,-7105.977043,-1991.848295
3399.966320,1110.308913,-10066.800811,-1762.019645
3399.966648,444.123565,-11177.109724,2145.067394
3399.966976,1480.411884,-8882.471304,2145.067394
3399.967303,2146.597232,-9030.512492,766.095498
3399.967631,2072.576638,-9252.574275,229.828649
3399.967959,2516.700203,-8734.430116,-1685.410096
3399.968287,444.123565,-9104.533087,-229.828649
3399.968615,0.000000,-8660.409521,383.047749
3399.968942,1998.556043,-9474.636058,-383.047749
3399.969270,4219.173869,-12731.542202,-536.266849
3399.969598,4071.132681,-13249.686362,766.095498
3399.969926,2072.576638,-11769.274478,1455.581446
3399.970253,1850.514855,-8956.491898,842.705048
3399.970581,2072.576638,-7994.224174,-919.314598
3399.970909,-444.123565,-8734.430116,-1302.362347
3399.971237,-3404.947333,-6957.935855,383.047749
3399.971565,-3034.844362,-5255.462188,-306.438199
3399.971892,370.102971,-8808.450710,-1378.971896
3399.972220,1332.370696,-11769.274478,-1072.533697
3399.972548,-148.041188,-11399.171507,1225.752797
3399.972876,-296.082377,-9844.739029,1378.971896
3399.973204,1998.556043,-8808.450710,-1225.752797
3399.973531,2590.720797,-11029.068536,-1915.238745
3399.973859,444.123565,-12139.377449,153.219100
3399.974187,-666.185348,-9326.594869,1149.143247
3399.974515,1628.453072,-8290.306550,-459.657299
3399.974842,444.123565,-10362.883188,-842.705048
3399.975170,-1332.370696,-12509.480420,766.095498
3399.975498,-1998.556043,-8364.327145,689.485948
3399.975826,-2146.597232,-6809.894666,-1149.143247
3399.976154,-1776.494261,-8142.265362,-1302.362347
3399.976481,740.205942,-11399.171507,-1991.848295
3399.976809,-1480.411884,-9474.636058,459.657299
3399.977137,-740.205942,-7624.121203,1072.533697
3399.977465,666.185348,-9548.656652,76.609550
3399.977793,2220.617826,-13693.809927,-995.924147
3399.978120,370.102971,-11843.295072,766.095498
3399.978448,296.082377,-9326.594869,0.000000
3399.978776,-592.164754,-9178.553681,459.657299
3399.979104,370.102971,-10436.903782,-612.876398
3399.979431,-814.226536,-11547.212695,0.000000
3399.979759,-2516.700203,-7920.203579,536.266849
3399.980087,-2220.617826,-4811.338623,0.000000
3399.980415,-1036.288319,-10510.924376,-1532.190996
3399.980743,-1480.411884,-12731.542202,-1685.410096
3399.981070,-444.123565,-9252.574275,-1149.143247
3399.981398,592.164754,-7402.059420,383.047749
3399.981726,2442.679609,-9622.677246,2068.457845
3399.982054,2812.782580,-11843.295072,2528.115143
3399.982381,1776.494261,-10288.862594,2298.286494
3399.982709,148.041188,-8364.327145,-766.095498
3399.983037,592.164754,-9474.636058,-2757.943793
3399.983365,-888.247130,-11103.089130,-3217.601092
3399.983693,-1998.556043,-8882.471304,-919.314598
3399.984020,-1850.514855,-7105.977043,766.095498
3399.984348,-296.082377,-7476.080014,1532.190996
3399.984676,1776.494261,-10140.821405,1991.848295
3399.985004,2664.741391,-10732.986159,0.000000
3399.985332,1776.494261,-9696.697840,612.876398
3399.985659,1036.288319,-9474.636058,-383.047749
3399.985987,3404.947333,-8438.347739,-2604.724693
3399.986315,2368.659014,-8808.450710,-2451.505594
3399.986643,222.061783,-10807.006753,1838.629195
3399.986970,-592.164754,-10362.883188,2068.457845
3399.987298,2664.741391,-11621.233289,-229.828649
3399.987626,3552.988522,-13249.686362,-2145.067394
3399.987954,2442.679609,-12805.562797,-1608.800546
3399.988282,962.267725,-11177.109724,153.219100
3399.988609,962.267725,-7994.224174,-1302.362347
3399.988937,444.123565,-8586.388927,-1838.629195
3399.989264,-444.123565,-7920.203579,-995.924147
3399.989592,-1258.350101,-7624.121203,1149.143247
3399.989919,-592.164754,-8290.306550,1991.848295
3399.990247,1702.473667,-8808.450710,612.876398
3399.990574,1628.453072,-11251.130318,-153.219100
3399.990902,-296.082377,-11843.295072,1072.533697
3399.991229,740.205942,-9918.759623,-1225.752797
3399.991557,1480.411884,-9030.512492,-2911.162892
3399.991885,518.144159,-11473.192101,-2451.505594
3399.992212,-666.185348,-10066.800811,306.438199
3399.992540,0.000000,-9622.677246,1762.019645
3399.992867,-592.164754,-8882.471304,2528.115143
3399.993195,-444.123565,-8882.471304,1991.848295
3399.993522,-2368.659014,-7920.203579,1302.362347
3399.993850,-1924.535449,-7550.100608,-459.657299
3399.994177,-1184.329507,-6809.894666,-3140.991542
3399.994505,-888.247130,-8660.409521,-2221.676944
3399.994832,0.000000,-9770.718434,-383.047749
3399.995160,592.164754,-10140.821405,612.876398
3399.995488,666.185348,-10807.006753,1455.581446
3399.995815,1332.370696,-10288.862594,1532.190996
3399.996143,666.185348,-11251.130318,536.266849
3399.996470,-370.102971,-9770.718434,-459.657299
3399.996798,518.144159,-10288.862594,-1225.752797
3399.997125,-666.185348,-7994.224174,-842.705048
3399.997453,-1628.453072,-8512.368333,-459.657299
3399.997780,-2590.720797,-9548.656652,-612.876398
3399.998108,-2368.659014,-9992.780217,-1991.848295
3399.998435,-2294.638420,-8956.491898,-2298.286494
3399.998763,1110.308913,-10510.924376,-2145.067394
3399.999091,1184.329507,-11251.130318,0.000000
3399.999418,1480.411884,-10658.965565,2604.724693
3399.999746,2442.679609,-10510.924376,1762.019645
3400.000073,3849.070898,-11843.295072,-1608.800546
3400.000401,2146.597232,-11917.315666,-1991.848295
3400.000728,148.041188,-9918.759623,-1455.581446
3400.001056,-1998.556043,-7328.038826,-229.828649
3400.001383,-1258.350101,-7179.997637,229.828649
3400.001711,-592.164754,-9252.574275,842.705048
3400.002038,-1036.288319,-10288.862594,1991.848295
3400.002366,-1036.288319,-9178.553681,1072.533697
3400.002694,1480.411884,-9326.594869,-1838.629195
3400.003021,1628.453072,-9252.574275,-2911.162892
3400.003349,2072.576638,-8438.347739,-919.314598
3400.003676,814.226536,-6735.874072,842.705048
3400.004004,518.144159,-9252.574275,2528.115143
3400.004331,1406.391290,-9474.636058,2528.115143
3400.004659,2886.803174,-11251.130318,842.705048
3400.004986,1480.411884,-11251.130318,1378.971896
3400.005314,2442.679609,-11473.192101,-459.657299
3400.005641,1702.473667,-8956.491898,-1915.238745
3400.005969,1480.411884,-9918.759623,-1608.800546
3400.006297,-370.102971,-10658.965565,0.000000
3400.006624,-148.041188,-7994.224174,459.657299
3400.006952,-1184.329507,-7179.997637,459.657299
3400.007279,0.000000,-9104.533087,612.876398
3400.007607,370.102971,-10066.800811,0.000000
3400.007934,-296.082377,-10066.800811,612.876398
3400.008262,74.020594,-10066.800811,0.000000
3400.008589,2220.617826,-10436.903782,-2604.724693
3400.008917,1554.432478,-11177.109724,-3140.991542
3400.009244,518.144159,-11103.089130,-1608.800546
3400.009572,0.000000,-9104.533087,-153.219100
3400.009900,1332.370696,-10140.821405,0.000000
3400.010227,888.247130,-12065.356855,995.924147
3400.010555,-296.082377,-10510.924376,2221.676944
3400.010882,-222.061783,-8216.285956,459.657299
3400.011210,0.000000,-7920.203579,-919.314598
3400.011537,-296.082377,-9030.512492,-2374.896044
3400.011865,-1258.350101,-9696.697840,-1838.629195
3400.012192,-1776.494261,-8364.327145,229.828649
3400.012520,-1036.288319,-7476.080014,306.438199
3400.012847,-148.041188,-9400.615463,229.828649
3400.013175,-666.185348,-12213.398043,612.876398
3400.013503,-444.123565,-11103.089130,459.657299
3400.013830,222.061783,-9770.718434,-229.828649
3400.014158,2146.597232,-11029.068536,-1532.190996
3400.014485,1850.514855,-10584.944971,-689.485948
3400.014813,-1628.453072,-7846.182985,2451.505594
3400.015140,-3404.947333,-7476.080014,1762.019645
3400.015468,-3108.864956,-9992.780217,-766.095498
3400.015795,-962.267725,-9770.718434,-2604.724693
3400.016123,222.061783,-9178.553681,-2068.457845
3400.016450,-296.082377,-9326.594869,1455.581446
3400.016778,1702.473667,-10510.924376,2068.457845
3400.017106,3404.947333,-9696.697840,-1072.533697
3400.017433,1924.535449,-11177.109724,-689.485948
3400.017761,-148.041188,-9992.780217,-153.219100
3400.018088,518.144159,-7846.182985,-766.095498
3400.018416,370.102971,-8364.327145,-153.219100
3400.018743,0.000000,-10658.965565,229.828649
3400.019071,-444.123565,-9844.739029,2528.115143
3400.019398,148.041188,-9252.574275,1762.019645
3400.019726,814.226536,-9474.636058,-536.266849
3400.020053,444.123565,-11029.068536,-2911.162892
3400.020381,-1184.329507,-9474.636058,-2451.505594
3400.020708,1480.411884,-6513.812290,-1532.190996
3400.021036,2220.617826,-6883.915261,0.000000
3400.021364,1924.535449,-11177.109724,1685.410096
3400.021691,740.205942,-11547.212695,3753.867940
3400.022019,2516.700203,-10955.047942,1762.019645
3400.022346,3256.906145,-11177.109724,-1072.533697
3400.022674,2590.720797,-12213.398043,-2298.286494
3400.023001,1184.329507,-11399.171507,-1072.533697
3400.023329,962.267725,-8364.327145,306.438199
3400.023656,814.226536,-8586.388927,229.828649
3400.023984,592.164754,-9474.636058,76.609550
3400.024311,-592.164754,-8956.491898,612.876398
3400.024639,-1702.473667,-8882.471304,612.876398
3400.024967,-1332.370696,-8734.430116,-1149.143247
3400.025294,148.041188,-9844.739029,-1685.410096
3400.025622,814.226536,-10288.862594,-689.485948
3400.025949,1924.535449,-10436.903782,76.609550
3400.026277,888.247130,-9770.718434,-229.828649
3400.026604,1554.432478,-9178.553681,76.609550
3400.026932,1480.411884,-9326.594869,-1225.752797
3400.027259,0.000000,-11251.130318,229.828649
3400.027587,-1554.432478,-9770.718434,1378.971896
3400.027914,-518.144159,-9252.574275,536.266849
3400.028242,0.000000,-9548.656652,-459.657299
3400.028570,74.020594,-10955.047942,-1455.581446
3400.028897,-1776.494261,-9474.636058,-766.095498
3400.029225,-888.247130,-6513.812290,76.609550
3400.029552,740.205942,-8290.306550,-306.438199
3400.029880,888.247130,-10510.924376,76.609550
3400.030207,-222.061783,-9918.759623,1762.019645
3400.030535,-888.247130,-8512.368333,1455.581446
3400.030862,148.041188,-10066.800811,-612.876398
3400.031190,-148.041188,-10807.006753,-2221.676944
3400.031517,370.102971,-11547.212695,-995.924147
3400.031845,-518.144159,-9178.553681,-229.828649
3400.032173,-962.267725,-9326.594869,612.876398
3400.032500,-1554.432478,-10584.944971,229.828649
3400.032828,-1998.556043,-11843.295072,-1149.143247
3400.033155,-1554.432478,-9178.553681,-1302.362347
3400.033483,296.082377,-7550.100608,-2834.553343
3400.033810,-296.082377,-9104.533087,-612.876398
3400.034138,1554.432478,-11991.336260,1302.362347
3400.034465,1850.514855,-10436.903782,1378.971896
3400.034793,1702.473667,-8808.450710,612.876398
3400.035120,962.267725,-9622.677246,-229.828649
3400.035448,1110.308913,-11177.109724,-1378.971896
3400.035776,740.205942,-9474.636058,-1608.800546
3400.036103,-444.123565,-8216.285956,-995.924147
3400.036431,-1036.288319,-9030.512492,459.657299
3400.036758,1036.288319,-10732.986159,1072.533697
3400.037086,2072.576638,-11843.295072,306.438199
3400.037413,0.000000,-10362.883188,383.047749
3400.037741,-592.164754,-7105.977043,-229.828649
3400.038068,1850.514855,-5329.482782,-1608.800546
3400.038396,1332.370696,-7031.956449,-1455.581446
3400.038723,-1110.308913,-10066.800811,919.314598
3400.039051,-740.205942,-9696.697840,2068.457845
3400.039379,2590.720797,-11029.068536,-383.047749
3400.039706,4145.153275,-13915.871710,-1838.629195
3400.040034,2738.761985,-13767.830521,-1225.752797
3400.040361,1110.308913,-10140.821405,766.095498
3400.040689,2368.659014,-8142.265362,612.876398
3400.041016,3478.967927,-9770.718434,-383.047749
3400.041344,518.144159,-9474.636058,995.924147
3400.041671,-2516.700203,-8142.265362,2221.676944
3400.041999,-1628.453072,-7179.997637,229.828649
3400.042326,740.205942,-9252.574275,-2451.505594
3400.042654,0.000000,-12065.356855,-1608.800546
3400.042982,-1702.473667,-10658.965565,919.314598
3400.043309,0.000000,-8660.409521,689.485948
3400.043637,1998.556043,-9400.615463,-1532.190996
3400.043964,1776.494261,-11547.212695,-1378.971896
3400.044292,0.000000,-10066.800811,76.609550
3400.044619,444.123565,-8586.388927,0.000000
3400.044947,1184.329507,-9326.594869,0.000000
3400.045274,1036.288319,-11917.315666,1149.143247
3400.045602,-888.247130,-10214.842000,1378.971896
3400.045929,-1184.329507,-8142.265362,1302.362347
3400.046257,-666.185348,-7031.956449,-1302.362347
3400.046584,-444.123565,-9918.759623,-1991.848295
3400.046912,-962.267725,-11103.089130,306.438199
3400.047240,-592.164754,-9400.615463,0.000000
3400.047567,-518.144159,-7994.224174,-536.266849
3400.047895,1110.308913,-9400.615463,-995.924147
3400.048222,148.041188,-11695.253884,-536.266849
3400.048550,-518.144159,-11695.253884,1378.971896
3400.048877,888.247130,-9918.759623,383.047749
3400.049205,1628.453072,-9326.594869,-612.876398
3400.049532,-592.164754,-9622.677246,766.095498
3400.049860,-2590.720797,-11103.089130,536.266849
3400.050187,-3330.926739,-9992.780217,-1225.752797
3400.050515,-1480.411884,-7402.059420,-3983.696590
3400.050843,592.164754,-9104.533087,-4596.572988
3400.051170,-444.123565,-11399.171507,0.000000
3400.051498,518.144159,-10732.986159,3370.820191
3400.051825,1702.473667,-8956.491898,2145.067394
3400.052153,1850.514855,-9252.574275,153.219100
3400.052480,222.061783,-9992.780217,-689.485948
3400.052808,-222.061783,-8438.347739,-229.828649
3400.053135,74.020594,-8290.306550,-612.876398
3400.053463,1110.308913,-9030.512492,-1455.581446
3400.053790,1554.432478,-11399.171507,-766.095498
3400.054118,0.000000,-11473.192101,2068.457845
3400.054446,296.082377,-9770.718434,1608.800546
3400.054773,0.000000,-8364.327145,76.609550
3400.055101,-370.102971,-10362.883188,-536.266849
3400.055428,74.020594,-8290.306550,-995.924147
3400.055756,296.082377,-5477.523971,-689.485948
3400.056083,-370.102971,-7846.182985,689.485948
3400.056411,296.082377,-10288.862594,1072.533697
3400.056738,1628.453072,-12213.398043,689.485948
3400.057066,1850.514855,-11177.109724,-306.438199
3400.057393,1554.432478,-9770.718434,-1302.362347
3400.057721,1184.329507,-10140.821405,-689.485948
3400.058049,2146.597232,-10288.862594,-842.705048
3400.058376,2442.679609,-10955.047942,0.000000
3400.058704,888.247130,-9992.780217,1532.190996
3400.059031,666.185348,-9178.553681,-306.438199
3400.059359,-148.041188,-9252.574275,-995.924147
3400.059686,814.226536,-8956.491898,-995.924147
3400.060014,148.041188,-9474.636058,0.000000
3400.060341,1036.288319,-9844.739029,1302.362347
3400.060669,1776.494261,-9918.759623,536.266849
3400.060996,0.000000,-12139.377449,-1149.143247
3400.061324,-1036.288319,-10955.047942,-1991.848295
3400.061652,-962.267725,-9474.636058,-2834.553343
3400.061979,0.000000,-9696.697840,-2681.334243
3400.062307,814.226536,-11103.089130,-1378.971896
3400.062634,74.020594,-10732.986159,1302.362347
3400.062962,814.226536,-9548.656652,2528.115143
3400.063289,1258.350101,-9252.574275,1149.143247
3400.063617,1776.494261,-9918.759623,-153.219100
3400.063944,-222.061783,-8882.471304,306.438199
3400.064272,-1184.329507,-7031.956449,153.219100
3400.064599,-444.123565,-8290.306550,-459.657299
3400.064927,222.061783,-9844.739029,-612.876398
3400.065255,518.144159,-9548.656652,-536.266849
3400.065582,-518.144159,-8660.409521,1302.362347
3400.065910,-740.205942,-10214.842000,995.924147
3400.066237,-444.123565,-9400.615463,-612.876398
3400.066565,-814.226536,-10140.821405,-919.314598
3400.066892,740.205942,-9918.759623,-766.095498
3400.067220,0.000000,-6883.915261,76.609550
3400.067547,-296.082377,-8808.450710,1991.848295
3400.067875,-962.267725,-11473.192101,766.095498
3400.068202,-1554.432478,-11251.130318,-1991.848295
3400.068530,-1036.288319,-7476.080014,-3447.429741
3400.068858,-1036.288319,-7402.059420,-2604.724693
3400.069185,0.000000,-10140.821405,919.314598
3400.069513,1332.370696,-11769.274478,2374.896044
3400.069840,888.247130,-10214.842000,1302.362347
3400.070168,814.226536,-9770.718434,-995.924147
3400.070495,2368.659014,-11029.068536,-3064.381992
3400.070823,1110.308913,-10881.027347,-1302.362347
3400.071150,-296.082377,-8956.491898,842.705048
3400.071478,-1110.308913,-7476.080014,612.876398
3400.071805,-1110.308913,-8216.285956,1072.533697
3400.072133,1036.288319,-10658.965565,689.485948
3400.072460,518.144159,-11547.212695,995.924147
3400.072788,370.102971,-10436.903782,-689.485948
3400.073116,740.205942,-9252.574275,-2145.067394
3400.073443,1998.556043,-8882.471304,-3140.991542
3400.073771,0.000000,-8216.285956,-1225.752797
3400.074098,-1850.514855,-8068.244768,1378.971896
3400.074426,-814.226536,-9474.636058,2604.724693
3400.074753,2812.782580,-11029.068536,1072.533697
3400.075081,3997.112087,-13323.706956,-459.657299
3400.075408,1184.329507,-11769.274478,459.657299
3400.075736,1110.308913,-9548.656652,0.000000
3400.076063,2294.638420,-8808.450710,-1149.143247
3400.076391,1702.473667,-9696.697840,-995.924147
3400.076719,-1924.535449,-7772.162391,689.485948
3400.077046,-2072.576638,-5625.565159,1302.362347
3400.077374,148.041188,-7772.162391,306.438199
3400.077701,2590.720797,-11695.253884,0.000000
3400.078029,1110.308913,-12879.583391,2068.457845
3400.078356,666.185348,-9918.759623,1455.581446
3400.078684,1258.350101,-8142.265362,-1532.190996
3400.079011,1776.494261,-11251.130318,-4060.306139
3400.079339,0.000000,-11029.068536,-2374.896044
3400.079666,-2072.576638,-8068.244768,612.876398
3400.079994,-962.267725,-6365.771101,1072.533697
3400.080322,0.000000,-9178.553681,306.438199
3400.080649,0.000000,-12509.480420,612.876398
3400.080977,-740.205942,-11769.274478,842.705048
3400.081304,0.000000,-8586.388927,-689.485948
3400.081632,1036.288319,-8512.368333,-2451.505594
3400.081959,1258.350101,-10510.924376,-2221.676944
3400.082287,0.000000,-9696.697840,76.609550
3400.082614,296.082377,-9030.512492,1378.971896
3400.082942,296.082377,-8660.409521,919.314598
3400.083269,888.247130,-11103.089130,536.266849
3400.083597,74.020594,-12139.377449,612.876398
3400.083925,-1850.514855,-9030.512492,-612.876398
3400.084252,-1332.370696,-7772.162391,-1991.848295
3400.084580,518.144159,-10362.883188,-2834.553343
3400.084907,-296.082377,-10584.944971,-995.924147
3400.085235,-666.185348,-10362.883188,1915.238745
3400.085562,-1110.308913,-8882.471304,1762.019645
3400.085890,-888.247130,-9474.636058,-995.924147
3400.086217,-74.020594,-9474.636058,-1915.238745
3400.086545,0.000000,-8956.491898,-766.095498
3400.086872,-1480.411884,-8956.491898,995.924147
3400.087200,1332.370696,-9548.656652,0.000000
3400.087528,2220.617826,-10362.883188,-1608.800546
3400.087855,592.164754,-11251.130318,76.609550
3400.088183,148.041188,-8808.450710,-689.485948
3400.088510,148.041188,-8142.265362,229.828649
3400.088838,1332.370696,-9992.780217,229.828649
3400.089165,592.164754,-10140.821405,76.609550
3400.089493,0.000000,-9474.636058,1532.190996
3400.089820,740.205942,-9030.512492,1225.752797
3400.090148,1924.535449,-10584.944971,76.609550
3400.090475,592.164754,-9770.718434,0.000000
3400.090803,592.164754,-7254.018232,-689.485948
3400.091131,-148.041188,-6661.853478,-1685.410096
3400.091458,-1258.350101,-9400.615463,-995.924147
3400.091786,-1036.288319,-11621.233289,-612.876398
3400.092113,592.164754,-12139.377449,153.219100
3400.092441,2368.659014,-11769.274478,229.828649
3400.092768,3108.864956,-11251.130318,153.219100
3400.093096,2590.720797,-11843.295072,0.000000
3400.093423,2590.720797,-9400.615463,-306.438199
3400.093751,1924.535449,-7920.203579,-536.266849
3400.094079,-814.226536,-7550.100608,919.314598
3400.094406,-1554.432478,-7772.162391,1455.581446
3400.094734,-1480.411884,-8068.244768,0.000000
3400.095061,-666.185348,-9178.553681,0.000000
3400.095389,1184.329507,-12509.480420,-1149.143247
3400.095716,2516.700203,-13249.686362,-459.657299
3400.096044,3849.070898,-11621.233289,-919.314598
3400.096371,1702.473667,-10881.027347,-919.314598
3400.096699,0.000000,-9548.656652,-1455.581446
3400.097027,-1110.308913,-6957.935855,-689.485948
3400.097354,-888.247130,-8142.265362,76.609550
3400.097682,-1850.514855,-8660.409521,1915.238745
3400.098009,0.000000,-10658.965565,1532.190996
3400.098337,-370.102971,-8882.471304,536.266849
3400.098664,518.144159,-10658.965565,-766.095498
3400.098992,962.267725,-10066.800811,-1991.848295
3400.099319,666.185348,-8216.285956,-1378.971896
3400.099647,-1184.329507,-7402.059420,842.705048
3400.099975,-148.041188,-8290.306550,1455.581446
3400.100302,1998.556043,-10140.821405,612.876398
3400.100630,1406.391290,-10436.903782,1608.800546
3400.100957,0.000000,-9992.780217,1225.752797
3400.101285,222.061783,-10436.903782,-459.657299
3400.101612,74.020594,-9918.759623,-1685.410096
3400.101940,-888.247130,-9104.533087,-1915.238745
3400.102267,-1258.350101,-8586.388927,-1072.533697
3400.102595,-1036.288319,-7698.141797,306.438199
3400.102923,-444.123565,-9918.759623,1608.800546
3400.103250,-1332.370696,-13545.768739,766.095498
3400.103578,-1332.370696,-11103.089130,-1072.533697
3400.103905,-1554.432478,-6587.832884,-3217.601092
3400.104233,888.247130,-8364.327145,-2987.772442
3400.104560,1036.288319,-11695.253884,-306.438199
3400.104888,1850.514855,-11991.336260,3064.381992
3400.105215,1480.411884,-9474.636058,1915.238745
3400.105543,2368.659014,-9252.574275,-689.485948
3400.105871,1850.514855,-11103.089130,-2221.676944
3400.106198,222.061783,-11029.068536,-383.047749
3400.106526,-1924.535449,-8882.471304,1455.581446
3400.106853,-518.144159,-8290.306550,-306.438199
3400.107181,-444.123565,-9548.656652,-919.314598
3400.107508,1110.308913,-11843.295072,612.876398
3400.107836,370.102971,-10214.842000,1991.848295
3400.108163,-296.082377,-7846.182985,1225.752797
3400.108491,222.061783,-5995.668130,-1302.362347
3400.108819,444.123565,-8438.347739,-2911.162892
3400.109146,-1850.514855,-9178.553681,-1072.533697
3400.109474,-1406.391290,-8734.430116,383.047749
3400.109801,962.267725,-11029.068536,536.266849
3400.110129,4367.215058,-13619.789333,-536.266849
3400.110456,3182.885551,-13545.768739,-153.219100
3400.110784,2072.576638,-11325.150913,919.314598
3400.111111,2072.576638,-7402.059420,383.047749
3400.111439,2294.638420,-7920.203579,0.000000
3400.111767,444.123565,-8956.491898,919.314598
3400.112094,-2146.597232,-6587.832884,1608.800546
3400.112422,-2146.597232,-6291.750507,842.705048
3400.112749,518.144159,-9770.718434,0.000000
3400.113077,2368.659014,-14730.098246,-919.314598
3400.113404,1998.556043,-12287.418637,-306.438199
3400.113732,296.082377,-7994.224174,-536.266849
3400.114059,666.185348,-9104.533087,-1838.629195
3400.114387,1258.350101,-12583.501014,-3294.210641
3400.114715,-518.144159,-11325.150913,-612.876398
3400.115042,-1776.494261,-8142.265362,1915.238745
3400.115370,-592.164754,-9178.553681,766.095498
3400.115697,1406.391290,-10807.006753,-306.438199
3400.116025,444.123565,-9992.780217,-459.657299
3400.116352,-148.041188,-9104.533087,76.609550
3400.116680,0.000000,-8216.285956,-153.219100
3400.117007,0.000000,-8290.306550,-383.047749
3400.117335,444.123565,-10066.800811,-459.657299
3400.117663,0.000000,-8660.409521,1225.752797
3400.117990,222.061783,-8586.388927,153.219100
3400.118318,74.020594,-10510.924376,-229.828649
3400.118645,1258.350101,-12435.459826,0.000000
3400.118973,0.000000,-10066.800811,-1072.533697
3400.119300,0.000000,-7920.203579,-536.266849
3400.119628,-444.123565,-7994.224174,153.219100
3400.119955,1110.308913,-10510.924376,306.438199
3400.120283,0.000000,-8882.471304,1455.581446
3400.120611,-1480.411884,-7254.018232,2681.334243
3400.120938,-2368.659014,-9474.636058,153.219100
3400.121266,-1184.329507,-10584.944971,-3677.258390
3400.121593,-814.226536,-8882.471304,-4519.963438
3400.121921,-444.123565,-8142.265362,-2145.067394
3400.122248,962.267725,-11029.068536,1378.971896
3400.122576,2812.782580,-11843.295072,3064.381992
3400.122903,3404.947333,-11399.171507,2145.067394
3400.123231,1998.556043,-9622.677246,1455.581446
3400.123559,1554.432478,-8438.347739,-1225.752797
3400.123886,1480.411884,-9474.636058,-1072.533697
3400.124214,666.185348,-10066.800811,-842.705048
3400.124541,-1776.494261,-8438.347739,-306.438199
3400.124869,-3034.844362,-9252.574275,1378.971896
3400.125196,-740.205942,-9474.636058,536.266849
3400.125524,-592.164754,-10436.903782,0.000000
3400.125851,-962.267725,-9992.780217,0.000000
3400.126179,-296.082377,-6809.894666,-1149.143247
3400.126507,0.000000,-6661.853478,-1532.190996
3400.126834,0.000000,-8660.409521,-1608.800546
3400.127162,0.000000,-11621.233289,-536.266849
3400.127489,1924.535449,-11695.253884,1149.143247
3400.127817,3627.009116,-11325.150913,1302.362347
3400.128144,3034.844362,-13249.686362,459.657299
3400.128472,3552.988522,-12731.542202,-153.219100
3400.128799,2960.823768,-9326.594869,0.000000
3400.129127,1406.391290,-7031.956449,612.876398
3400.129455,0.000000,-7105.977043,0.000000
3400.129782,-1776.494261,-7698.141797,-1072.533697
3400.130110,-2072.576638,-7179.997637,-1072.533697
3400.130437,-1332.370696,-9400.615463,153.219100
3400.130765,1110.308913,-13323.706956,383.047749
3400.131092,3182.885551,-11547.212695,76.609550
3400.131420,2294.638420,-11473.192101,76.609550
3400.131747,296.082377,-10362.883188,-229.828649
3400.132075,592.164754,-8808.450710,-2757.943793
3400.132403,-962.267725,-7994.224174,-1838.629195
3400.132730,-1924.535449,-9252.574275,-612.876398
3400.133058,-2664.741391,-9104.533087,0.000000
3400.133385,-962.267725,-10214.842000,383.047749
3400.133713,74.020594,-10510.924376,383.047749
3400.134040,888.247130,-11695.253884,536.266849
3400.134368,1702.473667,-8586.388927,-76.609550
3400.134695,-592.164754,-8882.471304,842.705048
3400.135023,-518.144159,-7402.059420,229.828649
3400.135351,-296.082377,-7179.997637,-1225.752797
3400.135678,0.000000,-9326.594869,-383.047749
3400.136006,222.061783,-11103.089130,919.314598
3400.136333,0.000000,-11103.089130,919.314598
3400.136661,962.267725,-10066.800811,229.828649
3400.136988,666.185348,-11177.109724,-919.314598
3400.137316,0.000000,-11917.315666,-842.705048
3400.137643,-666.185348,-8364.327145,-536.266849
3400.137971,74.020594,-7031.956449,-689.485948
3400.138299,1554.432478,-9918.759623,-766.095498
3400.138626,1332.370696,-11843.295072,-612.876398
3400.138954,-1628.453072,-9770.718434,1302.362347
3400.139281,-1702.473667,-7105.977043,612.876398
3400.139609,-370.102971,-8216.285956,-1455.581446
3400.139936,740.205942,-11177.109724,-995.924147
3400.140264,0.000000,-10658.965565,842.705048
3400.140591,666.185348,-8216.285956,1149.143247
3400.140919,2886.803174,-9104.533087,-1149.143247
3400.141247,3256.906145,-12879.583391,-1991.848295
3400.141574,592.164754,-12583.501014,-1608.800546
3400.141902,-1628.453072,-8142.265362,-995.924147
3400.142229,-1850.514855,-7772.162391,766.095498
3400.142557,814.226536,-11251.130318,0.000000
3400.142884,370.102971,-11399.171507,536.266849
3400.143212,-1184.329507,-8956.491898,766.095498
3400.143540,-1554.432478,-7031.956449,-612.876398
3400.143867,148.041188,-8808.450710,-2298.286494
3400.144195,74.020594,-8512.368333,-3524.039291
3400.144522,-2738.761985,-7920.203579,-1762.019645
3400.144850,-1850.514855,-9918.759623,2068.457845
3400.145177,4145.153275,-12731.542202,2145.067394
3400.145505,6291.750507,-14359.995275,1685.410096
3400.145832,4441.235652,-12731.542202,2374.896044
3400.146160,3034.844362,-6661.853478,1532.190996
3400.146488,1628.453072,-5773.606348,306.438199
3400.146815,-666.185348,-7920.203579,-2068.457845
3400.147143,-2812.782580,-8882.471304,-1608.800546
3400.147470,-3182.885551,-7920.203579,0.000000
3400.147798,0.000000,-9548.656652,1149.143247
3400.148125,3034.844362,-14730.098246,383.047749
3400.148453,4145.153275,-14582.057057,76.609550
3400.148780,1924.535449,-9770.718434,-153.219100
3400.149108,518.144159,-7624.121203,-766.095498
3400.149436,444.123565,-8660.409521,-2374.896044
3400.149763,-814.226536,-9104.533087,-1838.629195
3400.150091,-2072.576638,-7920.203579,1149.143247
3400.150418,-1480.411884,-8438.347739,2451.505594
3400.150746,1184.329507,-11547.212695,-612.876398
3400.151073,1924.535449,-11769.274478,-766.095498
3400.151401,0.000000,-10436.903782,229.828649
3400.151728,0.000000,-9030.512492,-229.828649
3400.152056,1702.473667,-7476.080014,-1838.629195
3400.152384,1332.370696,-9104.533087,-1072.533697
3400.152711,-666.185348,-9622.677246,612.876398
3400.153039,-814.226536,-9252.574275,1685.410096
3400.153366,-740.205942,-8586.388927,1149.143247
3400.153694,666.185348,-9844.739029,-383.047749
3400.154021,-592.164754,-11843.295072,-306.438199
3400.154349,-1776.494261,-9400.615463,-766.095498
3400.154676,-1110.308913,-7254.018232,-1838.629195
3400.155004,1258.350101,-9474.636058,-1225.752797
3400.155332,1702.473667,-11103.089130,-689.485948
3400.155659,0.000000,-10955.047942,2068.457845
3400.155987,-518.144159,-8660.409521,1149.143247
3400.156314,222.061783,-9252.574275,-689.485948
3400.156642,148.041188,-10288.862594,-995.924147
3400.156969,74.020594,-9548.656652,0.000000
3400.157297,-1110.308913,-8068.244768,1378.971896
3400.157624,2072.576638,-7328.038826,-766.095498
3400.157952,1998.556043,-10066.800811,-1608.800546
3400.158280,0.000000,-11917.315666,229.828649
3400.158607,-1110.308913,-10288.862594,-995.924147
3400.158935,-444.123565,-10362.883188,-2298.286494
3400.159262,0.000000,-11473.192101,-1915.238745
3400.159590,1036.288319,-12213.398043,-842.705048
3400.159917,-222.061783,-9918.759623,1149.143247
3400.160245,1332.370696,-8660.409521,2145.067394
3400.160572,1036.288319,-8068.244768,1072.533697
3400.160900,74.020594,-9326.594869,-459.657299
3400.161228,-2072.576638,-7624.121203,-995.924147
3400.161555,-2442.679609,-7105.977043,-1608.800546
3400.161883,-2146.597232,-8068.244768,-1532.190996
3400.162210,-370.102971,-10510.924376,-766.095498
3400.162538,1184.329507,-12139.377449,919.314598
3400.162865,3404.947333,-11473.192101,1225.752797
3400.163193,4441.235652,-11399.171507,153.219100
3400.163520,3997.112087,-10955.047942,459.657299
3400.163848,2220.617826,-7402.059420,842.705048
3400.164176,1332.370696,-6439.791695,766.095498
3400.164503,-518.144159,-7402.059420,1685.410096
3400.164831,-592.164754,-9104.533087,2068.457845
3400.165158,-296.082377,-8808.450710,76.609550
3400.165486,1036.288319,-10436.903782,0.000000
3400.165813,1258.350101,-13101.645173,-1378.971896
3400.166141,1406.391290,-11621.233289,-1532.190996
3400.166468,148.041188,-9326.594869,-2221.676944
3400.166796,296.082377,-9030.512492,-2298.286494
3400.167124,666.185348,-10658.965565,-1762.019645
3400.167451,-1480.411884,-9326.594869,612.876398
3400.167779,-2220.617826,-8734.430116,2068.457845
3400.168106,-666.185348,-9178.553681,1149.143247
3400.168434,222.061783,-9918.759623,-689.485948
3400.168761,444.123565,-9252.574275,-919.314598
3400.169089,-148.041188,-9770.718434,0.000000
3400.169416,2146.597232,-11029.068536,-919.314598
3400.169744,1554.432478,-10288.862594,-842.705048
3400.170072,-148.041188,-10436.903782,-306.438199
3400.170399,-888.247130,-9770.718434,306.438199
3400.170727,0.000000,-10362.883188,153.219100
3400.171054,666.185348,-8956.491898,459.657299
3400.171382,148.041188,-9252.574275,383.047749
3400.171709,148.041188,-8808.450710,-536.266849
3400.172037,888.247130,-9548.656652,-689.485948
3400.172364,-148.041188,-9400.615463,-383.047749
3400.172692,-962.267725,-9622.677246,459.657299
3400.173020,-1406.391290,-8734.430116,919.314598
3400.173347,222.061783,-8660.409521,-459.657299
3400.173675,-148.041188,-9992.780217,-459.657299
3400.174002,518.144159,-10732.986159,0.000000
3400.174330,222.061783,-9844.739029,229.828649
3400.174657,666.185348,-8512.368333,0.000000
3400.174985,888.247130,-9178.553681,-689.485948
3400.175312,0.000000,-9030.512492,229.828649
3400.175640,-1332.370696,-8882.471304,1455.581446
3400.175968,-444.123565,-9400.615463,1225.752797
3400.176295,962.267725,-10288.862594,-1762.019645
3400.176623,1332.370696,-11695.253884,-2528.115143
3400.176950,666.185348,-11177.109724,-1378.971896
3400.177278,-370.102971,-8586.388927,-766.095498
3400.177605,74.020594,-10584.944971,0.000000
3400.177933,518.144159,-10584.944971,229.828649
3400.178260,-296.082377,-9474.636058,306.438199
3400.178588,-1776.494261,-7920.203579,689.485948
3400.178916,-444.123565,-8068.244768,-612.876398
3400.179243,-222.061783,-9474.636058,-1532.190996
3400.179571,0.000000,-8956.491898,-1302.362347
3400.179898,-1332.370696,-8660.409521,-306.438199
3400.180226,1036.288319,-10584.944971,-383.047749
3400.180553,3775.050304,-12953.603985,153.219100
3400.180881,2812.782580,-11917.315666,919.314598
3400.181208,2368.659014,-9844.739029,1608.800546
3400.181536,2368.659014,-7698.141797,0.000000
3400.181864,1480.411884,-9474.636058,0.000000
3400.182191,-592.164754,-9252.574275,612.876398
3400.182519,-444.123565,-7698.141797,0.000000
3400.182846,518.144159,-7476.080014,536.266849
3400.183174,3627.009116,-10436.903782,459.657299
3400.183501,1776.494261,-14137.933492,229.828649
3400.183829,444.123565,-11917.315666,766.095498
3400.184156,-296.082377,-7994.224174,-1532.190996
3400.184484,-370.102971,-8808.450710,-2681.334243
3400.184812,-814.226536,-9696.697840,-1915.238745
3400.185139,-2072.576638,-8956.491898,306.438199
3400.185467,-1184.329507,-7920.203579,1302.362347
3400.185794,666.185348,-8438.347739,0.000000
3400.186122,2294.638420,-11029.068536,-689.485948
3400.186449,518.144159,-10955.047942,1072.533697
3400.186777,-518.144159,-9252.574275,2145.067394
3400.187104,1110.308913,-8142.265362,-306.438199
3400.187432,444.123565,-9104.533087,-1991.848295
3400.187760,0.000000,-10732.986159,-1762.019645
3400.188087,0.000000,-10214.842000,766.095498
3400.188415,74.020594,-7698.141797,459.657299
3400.188742,1036.288319,-9992.780217,-766.095498
3400.189070,666.185348,-12657.521608,-1608.800546
3400.189397,-1850.514855,-9622.677246,0.000000
3400.189725,-1850.514855,-9030.512492,919.314598
3400.190052,740.205942,-8882.471304,153.219100
3400.190380,370.102971,-9918.759623,153.219100
3400.190708,148.041188,-9992.780217,612.876398
3400.191035,-592.164754,-8364.327145,1149.143247
3400.191363,518.144159,-8808.450710,-919.314598
3400.191690,1406.391290,-10658.965565,-1762.019645
3400.192018,-592.164754,-10288.862594,-383.047749
3400.192345,-1628.453072,-8512.368333,536.266849
3400.192673,0.000000,-9030.512492,76.609550
3400.193000,518.144159,-10140.821405,0.000000
3400.193328,814.226536,-10288.862594,536.266849
3400.193655,666.185348,-9696.697840,689.485948
3400.193983,0.000000,-8142.265362,0.000000
3400.194311,1036.288319,-9992.780217,-1685.410096
3400.194638,1110.308913,-11473.192101,-2145.067394
3400.194966,-814.226536,-10510.924376,76.609550
3400.195293,-740.205942,-10732.986159,2068.457845
3400.195621,-814.226536,-8512.368333,995.924147
3400.195948,-296.082377,-9252.574275,229.828649
3400.196276,-370.102971,-10140.821405,-612.876398
3400.196603,-740.205942,-8808.450710,-1762.019645
3400.196931,-888.247130,-7624.121203,-1991.848295
3400.197258,592.164754,-8290.306550,-1302.362347
3400.197586,1258.350101,-10955.047942,-536.266849
3400.197914,1702.473667,-12509.480420,1608.800546
3400.198241,1850.514855,-11843.295072,2068.457845
3400.198569,2368.659014,-9474.636058,306.438199
3400.198896,3627.009116,-8808.450710,-306.438199
3400.199224,1036.288319,-9178.553681,-459.657299
3400.199551,-1258.350101,-8216.285956,76.609550
3400.199879,-518.144159,-8142.265362,-995.924147
3400.200206,1480.411884,-9918.759623,-2221.676944
3400.200534,1184.329507,-10732.986159,-689.485948
3400.200861,296.082377,-12657.521608,1685.410096
3400.201189,1924.535449,-12213.398043,842.705048
3400.201517,3108.864956,-10288.862594,-536.266849
3400.201844,1332.370696,-9474.636058,-1149.143247
3400.202172,-1110.308913,-8586.388927,-1149.143247
3400.202499,-1850.514855,-7254.018232,-919.314598
3400.202827,-296.082377,-8882.471304,-919.314598
3400.203154,-444.123565,-10362.883188,-766.095498
3400.203482,-814.226536,-9918.759623,153.219100
3400.203809,-518.144159,-9844.739029,0.000000
3400.204137,0.000000,-9992.780217,1149.143247
3400.204464,2072.576638,-10584.944971,766.095498
3400.204792,2072.576638,-10214.842000,-842.705048
3400.205120,-222.061783,-8882.471304,0.000000
3400.205447,-74.020594,-8290.306550,-229.828649
3400.205775,814.226536,-8882.471304,-766.095498
3400.206102,74.020594,-9548.656652,153.219100
3400.206430,-148.041188,-9326.594869,229.828649
3400.206757,-1258.350101,-10140.821405,153.219100
3400.207085,-296.082377,-10436.903782,76.609550
3400.207412,666.185348,-10955.047942,-1072.533697
3400.207740,296.082377,-9474.636058,153.219100
3400.208067,0.000000,-7179.997637,842.705048
3400.208395,222.061783,-8290.306550,-459.657299
3400.208723,518.144159,-11103.089130,-383.047749
3400.209050,296.082377,-10510.924376,-689.485948
3400.209378,-592.164754,-9400.615463,0.000000
3400.209705,-1258.350101,-8956.491898,612.876398
3400.210033,-592.164754,-10214.842000,0.000000
3400.210360,518.144159,-11251.130318,-536.266849
3400.210688,0.000000,-9252.574275,0.000000
3400.211015,0.000000,-8956.491898,-689.485948
3400.211343,1406.391290,-11621.233289,-1838.629195
3400.211670,666.185348,-11177.109724,-2374.896044
3400.211998,-666.185348,-9252.574275,-919.314598
3400.212326,-1110.308913,-9252.574275,153.219100
3400.212653,222.061783,-9918.759623,1302.362347
3400.212981,1554.432478,-11177.109724,1685.410096
3400.213308,-370.102971,-9252.574275,2374.896044
3400.213636,-1554.432478,-8586.388927,612.876398
3400.213963,-666.185348,-7772.162391,-2145.067394
3400.214291,-296.082377,-9252.574275,-3217.601092
3400.214618,-1924.535449,-8734.430116,-1762.019645
3400.214946,-1628.453072,-9252.574275,-612.876398
3400.215273,444.123565,-9400.615463,0.000000
3400.215601,3997.112087,-12065.356855,1455.581446
3400.215929,4441.235652,-12287.418637,2604.724693
3400.216256,2146.597232,-9326.594869,3447.429741
3400.216584,1258.350101,-7031.956449,1072.533697
3400.216911,1184.329507,-7550.100608,-2068.457845
3400.217239,-296.082377,-8660.409521,-2528.115143
3400.217566,-444.123565,-8142.265362,-1072.533697
3400.217894,0.000000,-8068.244768,383.047749
3400.218221,1036.288319,-11843.295072,1149.143247
3400.218549,2368.659014,-14211.954086,0.000000
3400.218876,1850.514855,-11325.150913,-536.266849
3400.219204,0.000000,-8290.306550,-459.657299
3400.219532,444.123565,-8216.285956,-1149.143247
3400.219859,814.226536,-10288.862594,-1302.362347
3400.220187,-370.102971,-9770.718434,-842.705048
3400.220514,-888.247130,-8512.368333,689.485948
3400.220842,962.267725,-8290.306550,76.609550
3400.221169,1406.391290,-10214.842000,0.000000
3400.221497,74.020594,-12435.459826,1455.581446
3400.221824,-592.164754,-10362.883188,1685.410096
3400.222152,518.144159,-8660.409521,-1532.190996
3400.222479,1628.453072,-9622.677246,-2451.505594
3400.222807,148.041188,-11695.253884,-306.438199
3400.223135,-1184.329507,-9622.677246,1072.533697
3400.223462,-518.144159,-7476.080014,842.705048
3400.223790,518.144159,-9252.574275,-612.876398
3400.224117,0.000000,-10955.047942,-229.828649
3400.224445,-1258.350101,-9918.759623,612.876398
3400.224772,-1036.288319,-8882.471304,612.876398
3400.225100,814.226536,-10140.821405,-536.266849
3400.225427,1184.329507,-10955.047942,-1149.143247
3400.225755,-1036.288319,-9030.512492,-842.705048
3400.226082,-2516.700203,-7772.162391,766.095498
3400.226410,592.164754,-8512.368333,-1225.752797
3400.226738,1110.308913,-9474.636058,-766.095498
3400.227065,-222.061783,-10881.027347,1608.800546
3400.227393,-1258.350101,-8216.285956,1991.848295
3400.227720,-370.102971,-8068.244768,689.485948
3400.228048,1258.350101,-9474.636058,-1072.533697
3400.228375,962.267725,-11103.089130,-1532.190996
3400.228703,-888.247130,-10807.006753,-153.219100
3400.229030,-962.267725,-9474.636058,-1838.629195
3400.229358,222.061783,-9770.718434,-2451.505594
3400.229685,1406.391290,-10584.944971,-995.924147
3400.230013,74.020594,-11621.233289,612.876398
3400.230341,0.000000,-11399.171507,2451.505594
3400.230668,1480.411884,-9178.553681,229.828649
3400.230996,1628.453072,-8734.430116,76.609550
3400.231323,222.061783,-9104.533087,0.000000
3400.231651,-1702.473667,-8142.265362,153.219100
3400.231978,-2664.741391,-8956.491898,-689.485948
3400.232306,-1554.432478,-9030.512492,-3294.210641
3400.232633,-888.247130,-11251.130318,-2604.724693
3400.232961,-222.061783,-9474.636058,-229.828649
3400.233288,1184.329507,-10658.965565,229.828649
3400.233616,2960.823768,-11917.315666,1225.752797
3400.233944,5255.462188,-11547.212695,-612.876398
3400.234271,2516.700203,-9178.553681,-459.657299
3400.234599,444.123565,-8734.430116,919.314598
3400.234926,814.226536,-7624.121203,612.876398
3400.235254,2146.597232,-8068.244768,689.485948
3400.235581,740.205942,-10066.800811,1149.143247
3400.235909,-444.123565,-9548.656652,383.047749
3400.236236,222.061783,-8512.368333,-536.266849
3400.236564,2516.700203,-11103.089130,-1225.752797
3400.236891,2664.741391,-12953.603985,-1225.752797
3400.237219,1332.370696,-9844.739029,-536.266849
3400.237547,-740.205942,-7179.997637,689.485948
3400.237874,-814.226536,-8216.285956,0.000000
3400.238202,-592.164754,-10955.047942,536.266849
3400.238529,-296.082377,-10214.842000,689.485948
3400.238857,-370.102971,-9474.636058,459.657299
3400.239184,-222.061783,-9844.739029,-842.705048
3400.239512,1258.350101,-9548.656652,-919.314598
3400.239839,1184.329507,-8734.430116,-1608.800546
3400.240167,-222.061783,-8068.244768,1149.143247
3400.240494,-740.205942,-9030.512492,536.266849
3400.240822,-444.123565,-8882.471304,-995.924147
3400.241150,296.082377,-10214.842000,-1455.581446
3400.241477,592.164754,-10955.047942,-536.266849
3400.241805,-222.061783,-11251.130318,1225.752797
3400.242132,666.185348,-10807.006753,1149.143247
3400.242460,370.102971,-9252.574275,-1072.533697
3400.242787,222.061783,-8882.471304,-1762.019645
3400.243115,-148.041188,-9252.574275,-459.657299
3400.243442,-2072.576638,-8734.430116,459.657299
3400.243770,-1554.432478,-9696.697840,229.828649
3400.244097,-1036.288319,-10362.883188,-1532.190996
3400.244425,-1332.370696,-11399.171507,-383.047749
3400.244753,-1258.350101,-9030.512492,-459.657299
3400.245080,666.185348,-9178.553681,-919.314598
3400.245408,2738.761985,-10288.862594,-995.924147
3400.245735,1406.391290,-9696.697840,383.047749
3400.246063,-1110.308913,-9622.677246,2145.067394
3400.246390,-1184.329507,-9030.512492,1149.143247
3400.246718,666.185348,-10288.862594,-1685.410096
3400.247045,148.041188,-10807.006753,-2604.724693
3400.247373,-666.185348,-11621.233289,0.000000
3400.247700,222.061783,-9918.759623,-383.047749
3400.248028,2368.659014,-10214.842000,-1225.752797
3400.248356,1258.350101,-10658.965565,-383.047749
3400.248683,-222.061783,-8808.450710,1072.533697
3400.249011,-370.102971,-6587.832884,766.095498
3400.249338,2146.597232,-6883.915261,536.266849
3400.249666,1480.411884,-9104.533087,689.485948
3400.249993,-888.247130,-9622.677246,2374.896044
3400.250321,-444.123565,-9474.636058,1378.971896
3400.250648,1110.308913,-9770.718434,-1532.190996
3400.250976,1110.308913,-11695.253884,-2681.334243
3400.251303,-962.267725,-9474.636058,-2221.676944
3400.251631,-1184.329507,-7105.977043,-689.485948
3400.251959,-296.082377,-7105.977043,-766.095498
3400.252286,2294.638420,-12731.542202,-229.828649
3400.252614,2442.679609,-12139.377449,1302.362347
3400.252941,1702.473667,-9400.615463,2451.505594
3400.253269,1628.453072,-8808.450710,612.876398
3400.253596,2886.803174,-9918.759623,-1302.362347
3400.253924,2442.679609,-10140.821405,-1532.190996
3400.254251,1702.473667,-8364.327145,-229.828649
3400.254579,666.185348,-8290.306550,383.047749
3400.254906,888.247130,-9474.636058,76.609550
3400.255234,1406.391290,-13471.748144,-306.438199
3400.255562,222.061783,-12435.459826,-459.657299
3400.255889,666.185348,-11029.068536,-919.314598
3400.256217,296.082377,-9992.780217,-1762.019645
3400.256544,222.061783,-10658.965565,-1685.410096
3400.256872,-1110.308913,-9918.759623,-995.924147
3400.257199,-888.247130,-8142.265362,0.000000
3400.257527,-296.082377,-8068.244768,766.095498
3400.257854,592.164754,-9178.553681,1072.533697
3400.258182,0.000000,-8142.265362,1225.752797
3400.258509,-1628.453072,-8216.285956,1762.019645
3400.258837,-1036.288319,-9474.636058,-306.438199
3400.259165,666.185348,-11029.068536,-1302.362347
3400.259492,1036.288319,-10214.842000,-1762.019645
3400.259820,1480.411884,-9844.739029,-459.657299
3400.260147,-370.102971,-9622.677246,1149.143247
3400.260475,222.061783,-9622.677246,1455.581446
3400.260802,-444.123565,-9030.512492,919.314598
3400.261130,-2516.700203,-7920.203579,1608.800546
3400.261457,-3034.844362,-8068.244768,229.828649
3400.261785,-888.247130,-8512.368333,-1532.190996
3400.262112,-222.061783,-10140.821405,-1991.848295
3400.262440,-518.144159,-10214.842000,-1149.143247
3400.262768,-592.164754,-8364.327145,0.000000
3400.263095,444.123565,-7698.141797,-459.657299
3400.263423,666.185348,-11251.130318,1072.533697
3400.263750,0.000000,-12287.418637,306.438199
3400.264078,-370.102971,-9252.574275,-383.047749
3400.264405,0.000000,-9474.636058,-1225.752797
3400.264733,740.205942,-11029.068536,-919.314598
3400.265060,740.205942,-11473.192101,-153.219100
3400.265388,518.144159,-10510.924376,-229.828649
3400.265715,222.061783,-9844.739029,-995.924147
3400.266043,740.205942,-8882.471304,-1608.800546
3400.266371,370.102971,-10955.047942,76.609550
3400.266698,74.020594,-9178.553681,689.485948
3400.267026,74.020594,-8216.285956,0.000000
3400.267353,-518.144159,-9326.594869,0.000000
3400.267681,1406.391290,-11251.130318,-689.485948
3400.268008,444.123565,-10955.047942,-1149.143247
3400.268336,0.000000,-9622.677246,-76.609550
3400.268663,-444.123565,-8660.409521,-612.876398
3400.268991,1036.288319,-8808.450710,-995.924147
3400.269318,0.000000,-9696.697840,0.000000
3400.269646,-518.144159,-9844.739029,1302.362347
3400.269973,1184.329507,-9474.636058,-459.657299
3400.270301,2960.823768,-9918.759623,-153.219100
3400.270629,2738.761985,-10955.047942,0.000000
3400.270956,1924.535449,-9474.636058,76.609550
3400.271284,666.185348,-8364.327145,842.705048
3400.271611,2738.761985,-8142.265362,459.657299
3400.271939,4441.235652,-9474.636058,229.828649
3400.272266,2886.803174,-9104.533087,1685.410096
3400.272594,148.041188,-8512.368333,2298.286494
3400.272921,222.061783,-10584.944971,306.438199
3400.273249,1258.350101,-12879.583391,-1991.848295
3400.273576,666.185348,-11843.295072,-2757.943793
3400.273904,-962.267725,-8364.327145,-1685.410096
3400.274232,-2442.679609,-9622.677246,-536.266849
3400.274559,-1184.329507,-10732.986159,-1225.752797
3400.274887,1258.350101,-10436.903782,-383.047749
3400.275214,370.102971,-8364.327145,919.314598
3400.275542,-740.205942,-8438.347739,2451.505594
3400.275869,-296.082377,-6957.935855,995.924147
3400.276197,814.226536,-8956.491898,-1225.752797
3400.276524,740.205942,-11029.068536,-459.657299
3400.276852,0.000000,-10807.006753,0.000000
3400.277179,740.205942,-8734.430116,-459.657299
3400.277507,1776.494261,-9696.697840,-306.438199
3400.277835,1406.391290,-12435.459826,229.828649
3400.278162,-296.082377,-11917.315666,1455.581446
3400.278490,-2442.679609,-7920.203579,689.485948
3400.278817,-2072.576638,-6809.894666,-1378.971896
3400.279145,-1258.350101,-10066.800811,-1455.581446
3400.279472,-1258.350101,-9844.739029,-459.657299
3400.279800,-1998.556043,-8216.285956,229.828649
3400.280127,-444.123565,-7994.224174,-536.266849
3400.280455,1110.308913,-9622.677246,-306.438199
3400.280782,222.061783,-10658.965565,842.705048
3400.281110,-1924.535449,-10955.047942,1455.581446
3400.281438,-1924.535449,-9326.594869,-1149.143247
3400.281765,1110.308913,-9622.677246,-3217.601092
3400.282093,518.144159,-11103.089130,-2757.943793
3400.282420,-1554.432478,-11251.130318,995.924147
3400.282748,-962.267725,-9548.656652,1915.238745
3400.283075,2072.576638,-9770.718434,-306.438199
3400.283403,1406.391290,-11399.171507,-1149.143247
3400.283730,-444.123565,-9178.553681,459.657299
3400.284058,-1036.288319,-6809.894666,1608.800546
3400.284385,1406.391290,-7846.182985,919.314598
3400.284713,2220.617826,-10881.027347,-919.314598
3400.285041,888.247130,-9474.636058,-919.314598
3400.285368,-740.205942,-8586.388927,1532.190996
3400.285696,-740.205942,-9770.718434,919.314598
3400.286023,1110.308913,-12361.439231,612.876398
3400.286351,148.041188,-9474.636058,-1685.410096
3400.286678,0.000000,-6587.832884,-995.924147
3400.287006,-2072.576638,-8956.491898,-536.266849
3400.287333,74.020594,-11547.212695,-612.876398
3400.287661,1406.391290,-11325.150913,-1532.190996
3400.287988,1628.453072,-9844.739029,-689.485948
3400.288316,962.267725,-8734.430116,-306.438199
3400.288644,2368.659014,-9622.677246,0.000000
3400.288971,3478.967927,-10658.965565,536.266849
3400.289299,4219.173869,-9992.780217,1149.143247
3400.289626,2590.720797,-9622.677246,1225.752797
3400.289954,1480.411884,-8438.347739,689.485948
3400.290281,2072.576638,-10140.821405,-383.047749
3400.290609,1554.432478,-9104.533087,-1991.848295
3400.290936,-592.164754,-11103.089130,459.657299
3400.291264,814.226536,-12213.398043,0.000000
3400.291591,3034.844362,-11325.150913,-1455.581446
3400.291919,666.185348,-10288.862594,-536.266849
3400.292246,-2368.659014,-9918.759623,383.047749
3400.292574,-2960.823768,-7994.224174,-995.924147
3400.292901,-814.226536,-6883.915261,-1532.190996
3400.293229,592.164754,-9326.594869,-1685.410096
3400.293557,-592.164754,-9474.636058,76.609550
3400.293884,0.000000,-8808.450710,1225.752797
3400.294212,1998.556043,-9178.553681,0.000000
3400.294539,2368.659014,-12509.480420,612.876398
3400.294867,1924.535449,-10214.842000,919.314598
3400.295194,666.185348,-8586.388927,1532.190996
3400.295522,0.000000,-8808.450710,612.876398
3400.295849,1406.391290,-10955.047942,-383.047749
3400.296177,-518.144159,-10214.842000,-459.657299
3400.296504,-2886.803174,-8216.285956,459.657299
3400.296832,-4219.173869,-8734.430116,-459.657299
3400.297159,-2590.720797,-9474.636058,-1378.971896
3400.297487,-1406.391290,-9474.636058,-1838.629195
3400.297814,1036.288319,-8438.347739,-306.438199
3400.298142,666.185348,-8216.285956,1608.800546
3400.298469,-296.082377,-9918.759623,2757.943793
3400.298797,-740.205942,-12213.398043,1302.362347
3400.299125,-962.267725,-9178.553681,-2451.505594
3400.299452,-1110.308913,-7105.977043,-3140.991542
3400.299780,-1184.329507,-8364.327145,-2145.067394
3400.300107,-592.164754,-11917.315666,995.924147
3400.300435,1406.391290,-12139.377449,1378.971896
3400.300762,1258.350101,-11103.089130,229.828649
3400.301090,74.020594,-10584.944971,-689.485948
3400.301417,1628.453072,-9178.553681,-1225.752797
3400.301745,888.247130,-9400.615463,-612.876398
3400.302072,-222.061783,-8660.409521,842.705048
3400.302400,222.061783,-8290.306550,995.924147
3400.302727,888.247130,-9992.780217,1378.971896
3400.303055,1702.473667,-10510.924376,919.314598
3400.303382,222.061783,-10066.800811,76.609550
3400.303710,-1406.391290,-10732.986159,-383.047749
3400.304037,-1924.535449,-8216.285956,-3140.991542
3400.304365,0.000000,-8808.450710,-3677.258390
3400.304693,74.020594,-8882.471304,-919.314598
3400.305020,518.144159,-10066.800811,2068.457845
3400.305348,1628.453072,-11103.089130,1532.190996
3400.305675,2442.679609,-10955.047942,306.438199
3400.306003,2738.761985,-10362.883188,0.000000
3400.306330,2738.761985,-7994.224174,0.000000
3400.306658,2664.741391,-7920.203579,842.705048
3400.306985,3330.926739,-9474.636058,306.438199
3400.307313,3775.050304,-11621.233289,76.609550
3400.307640,1406.391290,-9992.780217,229.828649
3400.307968,0.000000,-8512.368333,-536.266849
3400.308295,74.020594,-8882.471304,-1532.190996
3400.308623,740.205942,-13323.706956,229.828649
3400.308950,1184.329507,-12213.398043,995.924147
3400.309278,962.267725,-9918.759623,689.485948
3400.309605,-370.102971,-8734.430116,153.219100
3400.309933,0.000000,-9622.677246,-995.924147
3400.310261,-1258.350101,-9326.594869,-1225.752797
3400.310588,-2664.741391,-7179.997637,-383.047749
3400.310916,-3775.050304,-5477.523971,-689.485948
3400.311243,-1554.432478,-7328.038826,459.657299
3400.311571,888.247130,-10066.800811,536.266849
3400.311898,1924.535449,-11399.171507,995.924147
3400.312226,1184.329507,-11547.212695,1225.752797
3400.312553,2072.576638,-10436.903782,-1225.752797
3400.312881,2294.638420,-9918.759623,-1532.190996
3400.313208,592.164754,-9030.512492,-919.314598
3400.313536,-518.144159,-8068.244768,1685.410096
3400.313863,-814.226536,-9770.718434,1225.752797
3400.314191,-1110.308913,-10140.821405,689.485948
3400.314518,-1554.432478,-9474.636058,-1149.143247
3400.314846,-2664.741391,-8734.430116,-1225.752797
3400.315173,-2516.700203,-9030.512492,-1608.800546
3400.315501,-1110.308913,-9770.718434,-1608.800546
3400.315829,296.082377,-9992.780217,-1608.800546
3400.316156,814.226536,-9474.636058,0.000000
3400.316484,518.144159,-10584.944971,1302.362347
3400.316811,74.020594,-9622.677246,1608.800546
3400.317139,-666.185348,-11029.068536,612.876398
3400.317466,-888.247130,-9992.780217,-1991.848295
3400.317794,-1332.370696,-8808.450710,-2298.286494
3400.318121,-740.205942,-9178.553681,-1072.533697
3400.318449,888.247130,-12361.439231,-383.047749
3400.318776,222.061783,-12509.480420,0.000000
3400.319104,888.247130,-9400.615463,-306.438199
3400.319431,518.144159,-9030.512492,-766.095498
3400.319759,1776.494261,-11029.068536,-612.876398
3400.320086,1702.473667,-9326.594869,153.219100
3400.320414,74.020594,-7031.956449,2298.286494
3400.320741,-814.226536,-6661.853478,1991.848295
3400.321069,0.000000,-9030.512492,459.657299
3400.321396,370.102971,-10658.965565,-1302.362347
3400.321724,-222.061783,-9030.512492,-1915.238745
3400.322052,-1480.411884,-8586.388927,-1072.533697
3400.322379,-592.164754,-9548.656652,383.047749
3400.322707,3034.844362,-9918.759623,-612.876398
3400.323034,2960.823768,-8068.244768,383.047749
3400.323362,296.082377,-10510.924376,3217.601092
3400.323689,888.247130,-10066.800811,1378.971896
3400.324017,4145.153275,-9326.594869,-1762.019645
3400.324344,3404.947333,-9104.533087,-1149.143247
3400.324672,1998.556043,-8512.368333,1378.971896
3400.324999,740.205942,-9178.553681,2374.896044
3400.325327,2960.823768,-9622.677246,536.266849
3400.325654,2590.720797,-9326.594869,-919.314598
3400.325982,666.185348,-11399.171507,-1378.971896
3400.326309,-1184.329507,-12287.418637,-153.219100
3400.326637,888.247130,-10658.965565,-2298.286494
3400.326964,518.144159,-10436.903782,-3140.991542
3400.327292,-1776.494261,-11251.130318,-153.219100
3400.327620,-1110.308913,-10214.842000,766.095498
3400.327947,444.123565,-7031.956449,-612.876398
3400.328275,740.205942,-9918.759623,153.219100
3400.328602,-1332.370696,-9992.780217,842.705048
3400.328930,-1406.391290,-7550.100608,689.485948
3400.329257,-444.123565,-7179.997637,-536.266849
3400.329585,962.267725,-11547.212695,-995.924147
3400.329912,1406.391290,-11769.274478,-842.705048
3400.330240,0.000000,-9622.677246,536.266849
3400.330567,370.102971,-9474.636058,-612.876398
3400.330895,1628.453072,-11769.274478,0.000000
3400.331222,666.185348,-10658.965565,1532.190996
3400.331550,-1110.308913,-7031.956449,2374.896044
3400.331877,-2368.659014,-7624.121203,1762.019645
3400.332205,-1554.432478,-8808.450710,-1225.752797
3400.332532,-1258.350101,-9326.594869,-1838.629195
3400.332860,-2072.576638,-8216.285956,-995.924147
3400.333188,-1480.411884,-8734.430116,-383.047749
3400.333515,222.061783,-8882.471304,0.000000
3400.333843,814.226536,-10658.965565,1455.581446
3400.334170,1332.370696,-10288.862594,1838.629195
3400.334498,740.205942,-8512.368333,842.705048
3400.334825,-888.247130,-9252.574275,383.047749
3400.335153,-296.082377,-10881.027347,-1532.190996
3400.335480,-370.102971,-10732.986159,-2145.067394
3400.335808,-296.082377,-8660.409521,-1072.533697
3400.336135,-222.061783,-8808.450710,-229.828649
3400.336463,148.041188,-10362.883188,306.438199
3400.336790,1036.288319,-11029.068536,1072.533697
3400.337118,2664.741391,-10214.842000,153.219100
3400.337445,1036.288319,-9918.759623,0.000000
3400.337773,1184.329507,-10362.883188,-1072.533697
3400.338100,1998.556043,-10140.821405,-1378.971896
3400.338428,740.205942,-9326.594869,-459.657299
3400.338756,-888.247130,-9252.574275,536.266849
3400.339083,-1036.288319,-9400.615463,459.657299
3400.339411,-518.144159,-10584.944971,-1149.143247
3400.339738,0.000000,-11547.212695,-1149.143247
3400.340066,-370.102971,-9474.636058,-995.924147
3400.340393,-370.102971,-7920.203579,-153.219100
3400.340721,814.226536,-7698.141797,-536.266849
3400.341048,1110.308913,-10436.903782,-689.485948
3400.341376,518.144159,-10140.821405,995.924147
3400.341703,962.267725,-9918.759623,919.314598
3400.342031,2220.617826,-8586.388927,0.000000
3400.342358,3108.864956,-10288.862594,1378.971896
3400.342686,3404.947333,-10362.883188,2068.457845
3400.343013,2738.761985,-8956.491898,2221.676944
3400.343341,1850.514855,-8956.491898,459.657299
3400.343668,2220.617826,-8956.491898,-1915.238745
3400.343996,666.185348,-10584.944971,-2374.896044
3400.344323,-1110.308913,-11621.233289,-1149.143247
3400.344651,-962.267725,-9918.759623,-1685.410096
3400.344979,-1776.494261,-8808.450710,-612.876398
3400.345306,-1036.288319,-11547.212695,1072.533697
3400.345634,296.082377,-10140.821405,-1149.143247
3400.345961,0.000000,-9178.553681,-306.438199
3400.346289,-444.123565,-7624.121203,612.876398
3400.346616,370.102971,-7994.224174,-1608.800546
3400.346944,-814.226536,-7698.141797,-1225.752797
3400.347271,-1850.514855,-9326.594869,612.876398
3400.347599,-592.164754,-9474.636058,689.485948
3400.347926,2072.576638,-11843.295072,0.000000
3400.348254,2368.659014,-12435.459826,153.219100
3400.348581,1184.329507,-10881.027347,383.047749
3400.348909,-222.061783,-9622.677246,153.219100
3400.349236,592.164754,-9030.512492,-766.095498
3400.349564,222.061783,-10066.800811,-1608.800546
3400.349891,-2442.679609,-8882.471304,-612.876398
3400.350219,-3256.906145,-7846.182985,459.657299
3400.350547,-1036.288319,-8438.347739,-842.705048
3400.350874,518.144159,-10807.006753,-153.219100
3400.351202,296.082377,-10807.006753,919.314598
3400.351529,74.020594,-9104.533087,1762.019645
3400.351857,962.267725,-9104.533087,0.000000
3400.352184,1850.514855,-11029.068536,-1762.019645
3400.352512,-370.102971,-10584.944971,-1915.238745
3400.352839,-3552.988522,-9104.533087,-536.266849
3400.353167,-2664.741391,-7476.080014,-1149.143247
3400.353494,0.000000,-8290.306550,-842.705048
3400.353822,518.144159,-11917.315666,1149.143247
3400.354149,1110.308913,-11473.192101,2681.334243
3400.354477,2220.617826,-9548.656652,1685.410096
3400.354804,3923.091493,-9252.574275,-612.876398
3400.355132,2738.761985,-10732.986159,-1838.629195
3400.355459,0.000000,-9104.533087,-1608.800546
3400.355787,-1924.535449,-6809.894666,-459.657299
3400.356115,-1480.411884,-8364.327145,-612.876398
3400.356442,74.020594,-11621.233289,76.609550
3400.356770,666.185348,-12731.542202,995.924147
3400.357097,814.226536,-9844.739029,1149.143247
3400.357425,1184.329507,-9178.553681,-1532.190996
3400.357752,2442.679609,-10214.842000,-1915.238745
3400.358080,1258.350101,-7846.182985,-919.314598
3400.358407,592.164754,-6365.771101,-229.828649
3400.358735,-592.164754,-9326.594869,1378.971896
3400.359062,0.000000,-11029.068536,1149.143247
3400.359390,1998.556043,-11843.295072,612.876398
3400.359717,1998.556043,-9992.780217,0.000000
3400.360045,1332.370696,-9992.780217,0.000000
3400.360372,2664.741391,-10214.842000,-536.266849
3400.360700,3627.009116,-10658.965565,-919.314598
3400.361027,2220.617826,-9844.739029,-612.876398
3400.361355,1110.308913,-9474.636058,459.657299
3400.361683,-518.144159,-11103.089130,919.314598
3400.362010,0.000000,-10140.821405,-459.657299
3400.362338,-666.185348,-9474.636058,-1072.533697
3400.362665,-2368.659014,-9992.780217,459.657299
3400.362993,-1406.391290,-10140.821405,-536.266849
3400.363320,962.267725,-9030.512492,-1762.019645
3400.363648,0.000000,-9622.677246,-1378.971896
3400.363975,-2442.679609,-8882.471304,689.485948
3400.364303,-1554.432478,-7402.059420,-689.485948
3400.364630,-296.082377,-7772.162391,-689.485948
3400.364958,740.205942,-12065.356855,842.705048
3400.365285,1110.308913,-11473.192101,2451.505594
3400.365613,962.267725,-9918.759623,2374.896044
3400.365940,1850.514855,-9696.697840,0.000000
3400.366268,1406.391290,-11473.192101,-842.705048
3400.366595,-1850.514855,-7994.224174,-842.705048
3400.366923,-2368.659014,-6291.750507,-383.047749
3400.367250,-2072.576638,-8512.368333,-1991.848295
3400.367578,-1924.535449,-10658.965565,-919.314598
3400.367906,-1480.411884,-10807.006753,612.876398
3400.368233,-1110.308913,-8734.430116,919.314598
3400.368561,370.102971,-10362.883188,0.000000
3400.368888,1850.514855,-9918.759623,-536.266849
3400.369216,1480.411884,-9178.553681,-459.657299
3400.369543,740.205942,-8512.368333,-536.266849
3400.369871,1184.329507,-9844.739029,-536.266849
3400.370198,444.123565,-10066.800811,0.000000
3400.370526,-444.123565,-11251.130318,1225.752797
3400.370853,-1184.329507,-9844.739029,459.657299
3400.371181,-1332.370696,-9474.636058,-459.657299
3400.371508,592.164754,-9474.636058,-2221.676944
3400.371836,2738.761985,-10362.883188,-2681.334243
3400.372163,1554.432478,-10732.986159,0.000000
3400.372491,592.164754,-10732.986159,1532.190996
3400.372818,296.082377,-9474.636058,-612.876398
3400.373146,296.082377,-7994.224174,-1762.019645
3400.373474,592.164754,-10140.821405,-1302.362347
3400.373801,-666.185348,-10066.800811,1072.533697
3400.374129,0.000000,-10955.047942,1685.410096
3400.374456,962.267725,-9918.759623,-766.095498
3400.374784,1554.432478,-10584.944971,-2681.334243
3400.375111,-518.144159,-8882.471304,-1991.848295
3400.375439,-1332.370696,-8438.347739,-1378.971896
3400.375766,-666.185348,-7402.059420,-306.438199
3400.376094,1406.391290,-10362.883188,229.828649
3400.376421,2072.576638,-10881.027347,2298.286494
3400.376749,3256.906145,-9474.636058,2911.162892
3400.377076,3997.112087,-8734.430116,1762.019645
3400.377404,3775.050304,-9474.636058,459.657299
3400.377731,2294.638420,-9400.615463,0.000000
3400.378059,1184.329507,-6957.935855,-689.485948
3400.378386,0.000000,-7550.100608,-1991.848295
3400.378714,222.061783,-10362.883188,0.000000
3400.379042,1036.288319,-13841.851115,995.924147
3400.379369,1776.494261,-13175.665768,153.219100
3400.379697,1998.556043,-11029.068536,-612.876398
3400.380024,222.061783,-8586.388927,-1302.362347
3400.380352,-592.164754,-9252.574275,0.000000
3400.380679,-518.144159,-7772.162391,0.000000
3400.381007,0.000000,-7476.080014,-459.657299
3400.381334,-1924.535449,-7698.141797,383.047749
3400.381662,-1406.391290,-9474.636058,1072.533697
3400.381989,74.020594,-10140.821405,-919.314598
3400.382317,-518.144159,-10584.944971,-459.657299
3400.382644,444.123565,-11325.150913,229.828649
3400.382972,296.082377,-10436.903782,0.000000
3400.383299,1110.308913,-10140.821405,-1149.143247
3400.383627,740.205942,-9104.533087,0.000000
3400.383954,74.020594,-9474.636058,766.095498
3400.384282,-2146.597232,-8438.347739,1072.533697
3400.384610,-1554.432478,-9178.553681,536.266849
3400.384937,-2368.659014,-8586.388927,-842.705048
3400.385265,-2590.720797,-10436.903782,0.000000
3400.385592,-592.164754,-9400.615463,-1302.362347
3400.385920,148.041188,-9992.780217,-2068.457845
3400.386247,-814.226536,-10362.883188,-766.095498
3400.386575,0.000000,-9104.533087,0.000000
3400.386902,0.000000,-8290.306550,306.438199
3400.387230,1110.308913,-8660.409521,689.485948
3400.387557,1480.411884,-11029.068536,842.705048
3400.387885,-518.144159,-10584.944971,1378.971896
3400.388212,-962.267725,-9326.594869,842.705048
3400.388540,518.144159,-8290.306550,-1915.238745
3400.388867,222.061783,-10288.862594,-1915.238745
3400.389195,-666.185348,-8808.450710,-1149.143247
3400.389522,-222.061783,-9252.574275,153.219100
3400.389850,-666.185348,-9622.677246,306.438199
3400.390178,1332.370696,-10658.965565,-1455.581446
3400.390505,1332.370696,-11769.274478,-1532.190996
3400.390833,888.247130,-11251.130318,536.266849
3400.391160,1332.370696,-9326.594869,0.000000
3400.391483,2442.679609,-9844.739029,919.314598
3400.391810,2146.597232,-10214.842000,536.266849
3400.392138,666.185348,-9030.512492,0.000000
3400.392465,-1258.350101,-8290.306550,0.000000
3400.392793,-1258.350101,-7402.059420,-536.266849
3400.393121,74.020594,-10584.944971,-1991.848295
3400.393448,-1776.494261,-10214.842000,-766.095498
3400.393776,-1184.329507,-9622.677246,612.876398
3400.394103,2072.576638,-8808.450710,-229.828649
3400.394431,4885.359217,-11103.089130,-306.438199
3400.394758,3849.070898,-11621.233289,842.705048
3400.395086,2368.659014,-8512.368333,1302.362347
3400.395414,2294.638420,-5403.503377,229.828649
3400.395741,3404.947333,-8068.244768,536.266849
3400.396069,2146.597232,-10881.027347,919.314598
3400.396396,-222.061783,-10362.883188,1762.019645
3400.396724,814.226536,-9474.636058,0.000000
3400.397052,3034.844362,-13027.624579,-2681.334243
3400.397379,2442.679609,-14211.954086,-1838.629195
3400.397707,1110.308913,-8808.450710,-919.314598
3400.398034,-296.082377,-7550.100608,306.438199
3400.398362,-888.247130,-8956.491898,612.876398
3400.398690,0.000000,-9474.636058,0.000000
3400.399017,-666.185348,-8068.244768,229.828649
3400.399345,-2072.576638,-7994.224174,612.876398
3400.399672,-962.267725,-8808.450710,-1532.190996
3400.400000,222.061783,-10881.027347,-1072.533697
3400.400327,814.226536,-11621.233289,-842.705048
3400.400655,740.205942,-10584.944971,-536.266849
3400.400983,-444.123565,-10436.903782,0.000000
3400.401310,444.123565,-8660.409521,-383.047749
3400.401638,1184.329507,-10140.821405,-536.266849
3400.401965,-1184.329507,-10140.821405,2068.457845
3400.402293,-3330.926739,-9178.553681,3217.601092
3400.402621,-2072.576638,-7772.162391,0.000000
3400.402948,-740.205942,-10732.986159,-2145.067394
3400.403276,-1184.329507,-10807.006753,-1838.629195
3400.403603,-1036.288319,-8808.450710,-1608.800546
3400.403931,-3182.885551,-7550.100608,153.219100
3400.404259,370.102971,-9992.780217,153.219100
3400.404586,1184.329507,-10658.965565,-1072.533697
3400.404914,-1332.370696,-9252.574275,1762.019645
3400.405241,-296.082377,-9178.553681,1072.533697
3400.405569,888.247130,-10658.965565,-995.924147
3400.405897,-370.102971,-11695.253884,-689.485948
3400.406224,-1332.370696,-8882.471304,-612.876398
3400.406552,-1480.411884,-7105.977043,0.000000
3400.406879,0.000000,-8438.347739,689.485948
3400.407207,222.061783,-11547.212695,766.095498
3400.407534,-148.041188,-9918.759623,229.828649
3400.407862,-592.164754,-9252.574275,-2451.505594
3400.408190,1110.308913,-9030.512492,-3524.039291
3400.408517,222.061783,-11547.212695,-842.705048
3400.408845,592.164754,-11917.315666,459.657299
3400.409172,1702.473667,-9770.718434,0.000000
3400.409500,2294.638420,-9770.718434,-612.876398
3400.409828,2294.638420,-10362.883188,-153.219100
3400.410155,1998.556043,-10066.800811,383.047749
3400.410483,222.061783,-7624.121203,1149.143247
3400.410810,0.000000,-8142.265362,-766.095498
3400.411138,-1554.432478,-9030.512492,-2221.676944
3400.411466,-1924.535449,-10214.842000,-1455.581446
3400.411793,1628.453072,-9622.677246,-1838.629195
3400.412121,3701.029710,-11473.192101,-459.657299
3400.412448,3923.091493,-11029.068536,1532.190996
3400.412776,5921.647536,-9548.656652,1685.410096
3400.413104,4959.379811,-8068.244768,612.876398
3400.413431,2220.617826,-9844.739029,1225.752797
3400.413759,740.205942,-8956.491898,229.828649
3400.414086,740.205942,-8882.471304,0.000000
3400.414414,1480.411884,-10510.924376,-1149.143247
3400.414741,814.226536,-10807.006753,-919.314598
3400.415069,0.000000,-12805.562797,229.828649
3400.415397,2590.720797,-11843.295072,76.609550
3400.415724,3997.112087,-10807.006753,-1149.143247
3400.416052,0.000000,-7920.203579,-306.438199
3400.416379,-2294.638420,-7550.100608,306.438199
3400.416707,-2442.679609,-7254.018232,-842.705048
3400.417035,-1554.432478,-9918.759623,-612.876398
3400.417362,-296.082377,-9474.636058,0.000000
3400.417690,-370.102971,-9178.553681,1532.190996
3400.418017,148.041188,-9474.636058,1991.848295
3400.418345,2072.576638,-11695.253884,1149.143247
3400.418673,1406.391290,-10658.965565,0.000000
3400.419000,-296.082377,-9030.512492,-229.828649
3400.419328,-2294.638420,-8068.244768,-1225.752797
3400.419655,-2442.679609,-8808.450710,-459.657299
3400.419983,-2590.720797,-10066.800811,0.000000
3400.420310,-2072.576638,-10066.800811,383.047749
3400.420638,-1110.308913,-10807.006753,306.438199
3400.420966,-370.102971,-10807.006753,-229.828649
3400.421293,222.061783,-8808.450710,0.000000
3400.421621,-296.082377,-7994.224174,-1225.752797
3400.421948,-1776.494261,-8512.368333,-153.219100
3400.422276,-2146.597232,-8216.285956,-459.657299
3400.422604,-1110.308913,-9696.697840,-536.266849
3400.422931,-888.247130,-10807.006753,-383.047749
3400.423259,-666.185348,-11177.109724,383.047749
3400.423586,-1554.432478,-9696.697840,0.000000
3400.423914,0.000000,-9918.759623,-306.438199
3400.424242,296.082377,-9992.780217,-612.876398
3400.424569,-1184.329507,-9326.594869,689.485948
3400.424897,-1258.350101,-9326.594869,-919.314598
3400.425224,296.082377,-9104.533087,-2451.505594
3400.425552,1110.308913,-9992.780217,-2604.724693
3400.425880,666.185348,-11325.150913,229.828649
3400.426207,222.061783,-10807.006753,2298.286494
3400.426535,2146.597232,-10436.903782,-842.705048
3400.426862,2812.782580,-10140.821405,-1225.752797
3400.427190,1110.308913,-10510.924376,76.609550
3400.427517,-518.144159,-8956.491898,1532.190996
3400.427845,74.020594,-8142.265362,0.000000
3400.428173,222.061783,-8882.471304,-1838.629195
3400.428500,-740.205942,-9474.636058,-1685.410096
3400.428828,-1554.432478,-9252.574275,306.438199
