#time,accel_x,accel_y,accel_z
2531.889417,0.000000,-9178.553681,306.438199
2531.889745,148.041188,-9252.574275,-459.657299
2531.890072,296.082377,-9622.677246,-1072.533697
2531.890400,444.123565,-10214.842000,-612.876398
2531.890727,518.144159,-10436.903782,-612.876398
2531.891055,518.144159,-10362.883188,-306.438199
2531.891382,814.226536,-10066.800811,-383.047749
2531.891710,888.247130,-9844.739029,-153.219100
2531.892038,740.205942,-9770.718434,-612.876398
2531.892365,592.164754,-9696.697840,-459.657299
2531.892693,222.061783,-9622.677246,-689.485948
2531.893020,0.000000,-9770.718434,-995.924147
2531.893348,0.000000,-10510.924376,-995.924147
2531.893675,-222.061783,-10807.006753,-689.485948
2531.894003,0.000000,-10362.883188,-1072.533697
2531.894331,370.102971,-10288.862594,-612.876398
2531.894658,740.205942,-10732.986159,-612.876398
2531.894986,592.164754,-10362.883188,0.000000
2531.895313,444.123565,-9918.759623,229.828649
2531.895641,444.123565,-9474.636058,229.828649
2531.895968,740.205942,-9622.677246,459.657299
2531.896296,0.000000,-9252.574275,-153.219100
2531.896624,-296.082377,-8882.471304,76.609550
2531.896951,148.041188,-8882.471304,0.000000
2531.897279,-296.082377,-8956.491898,0.000000
2531.897606,0.000000,-9474.636058,0.000000
2531.897934,222.061783,-9548.656652,0.000000
2531.898261,592.164754,-9844.739029,229.828649
2531.898589,888.247130,-9548.656652,689.485948
2531.898917,1036.288319,-9474.636058,383.047749
2531.899244,814.226536,-9252.574275,1302.362347
2531.899572,444.123565,-9326.594869,536.266849
2531.899899,518.144159,-9104.533087,229.828649
2531.900227,0.000000,-9030.512492,153.219100
2531.900554,0.000000,-9400.615463,459.657299
2531.900882,74.020594,-9474.636058,-459.657299
2531.901210,370.102971,-10066.800811,0.000000
2531.901537,814.226536,-10066.800811,-612.876398
2531.901865,1258.350101,-10214.842000,-689.485948
2531.902192,1998.556043,-9992.780217,-229.828649
2531.902520,3108.864956,-9844.739029,0.000000
2531.902847,3627.009116,-9326.594869,76.609550
2531.903175,4145.153275,-9252.574275,0.000000
2531.903503,4145.153275,-9548.656652,-1149.143247
2531.903830,4737.318029,-9622.677246,-689.485948
2531.904158,5107.421000,-9252.574275,-1225.752797
2531.904485,5921.647536,-10288.862594,-995.924147
2531.904813,6809.894666,-10584.944971,-689.485948
2531.905140,7624.121203,-11473.192101,-459.657299
2531.905468,7994.224174,-10362.883188,0.000000
2531.905796,8734.430116,-9400.615463,0.000000
2531.906123,9400.615463,-9696.697840,229.828649
2531.906451,10066.800811,-8882.471304,459.657299
2531.906778,11103.089130,-8586.388927,612.876398
2531.907106,11695.253884,-9252.574275,842.705048
2531.907433,11769.274478,-9400.615463,842.705048
2531.907761,11325.150913,-9178.553681,459.657299
2531.908089,10510.924376,-9030.512492,-612.876398
2531.908416,9844.739029,-9770.718434,0.000000
2531.908744,10214.842000,-10658.965565,0.000000
2531.909071,10584.944971,-10658.965565,-306.438199
2531.909399,10362.883188,-10140.821405,459.657299
2531.909726,10288.862594,-9400.615463,842.705048
2531.910054,9918.759623,-8956.491898,1149.143247
2531.910382,9474.636058,-7624.121203,2145.067394
2531.910709,9178.553681,-7550.100608,1302.362347
2531.911037,8586.388927,-8512.368333,842.705048
2531.911364,8512.368333,-9474.636058,306.438199
2531.911692,7698.141797,-10066.800811,153.219100
2531.912019,6513.812290,-10658.965565,0.000000
2531.912347,4737.318029,-11177.109724,0.000000
2531.912675,4885.359217,-11103.089130,-766.095498
2531.913002,4219.173869,-11399.171507,-689.485948
2531.913330,4663.297435,-10807.006753,-459.657299
2531.913657,4145.153275,-9770.718434,0.000000
2531.913985,3256.906145,-9474.636058,383.047749
2531.914313,1702.473667,-9178.553681,1072.533697
2531.914640,1110.308913,-8216.285956,459.657299
2531.914968,-888.247130,-8364.327145,0.000000
2531.915295,-666.185348,-10066.800811,-1072.533697
2531.915623,-592.164754,-10066.800811,-919.314598
2531.915950,0.000000,-10658.965565,-842.705048
2531.916278,-592.164754,-10807.006753,-229.828649
2531.916606,-1702.473667,-11399.171507,459.657299
2531.916933,-2442.679609,-11621.233289,-536.266849
2531.917261,-4959.379811,-9474.636058,153.219100
2531.917588,-5995.668130,-8808.450710,-995.924147
2531.917916,-5995.668130,-7994.224174,-1455.581446
2531.918243,-6069.688724,-7698.141797,-1225.752797
2531.918571,-4737.318029,-8438.347739,76.609550
2531.918899,-2516.700203,-9252.574275,229.828649
2531.919226,-962.267725,-9326.594869,76.609550
2531.919554,-1554.432478,-9474.636058,-995.924147
2531.919881,-1628.453072,-10288.862594,-1608.800546
2531.920209,-2072.576638,-9844.739029,-1149.143247
2531.920536,-2294.638420,-9844.739029,-612.876398
2531.920864,-1184.329507,-9474.636058,76.609550
2531.921192,814.226536,-10066.800811,306.438199
2531.921519,888.247130,-9992.780217,766.095498
2531.921847,148.041188,-9992.780217,1072.533697
2531.922174,-814.226536,-9548.656652,-306.438199
2531.922502,-2146.597232,-8364.327145,-1838.629195
2531.922829,-3701.029710,-7105.977043,-2145.067394
2531.923157,-2664.741391,-6809.894666,-1378.971896
2531.923485,370.102971,-7328.038826,-766.095498
2531.923812,4367.215058,-9622.677246,766.095498
2531.924140,5995.668130,-9622.677246,1149.143247
2531.924467,6365.771101,-11843.295072,1608.800546
2531.924795,3997.112087,-12361.439231,842.705048
2531.925122,2368.659014,-12139.377449,-842.705048
2531.925450,1036.288319,-11029.068536,-2604.724693
2531.925778,592.164754,-10214.842000,-2604.724693
2531.926105,2368.659014,-10214.842000,-1532.190996
2531.926433,4737.318029,-9400.615463,766.095498
2531.926760,4885.359217,-9844.739029,2145.067394
2531.927088,3404.947333,-9622.677246,1991.848295
2531.927415,2294.638420,-8512.368333,459.657299
2531.927743,1332.370696,-7402.059420,-1378.971896
2531.928071,1332.370696,-7772.162391,-1225.752797
2531.928398,3108.864956,-8068.244768,0.000000
2531.928726,5921.647536,-9104.533087,1762.019645
2531.929053,7402.059420,-10584.944971,3064.381992
2531.929381,6365.771101,-12213.398043,2221.676944
2531.929708,3256.906145,-14359.995275,306.438199
2531.930036,-518.144159,-13989.892304,-1532.190996
2531.930364,-2960.823768,-11325.150913,-3600.648841
2531.930691,-4071.132681,-9548.656652,-2834.553343
2531.931019,-2516.700203,-7402.059420,-459.657299
2531.931346,1258.350101,-7105.977043,1762.019645
2531.931674,2146.597232,-8068.244768,3370.820191
2531.932001,1776.494261,-8142.265362,2987.772442
2531.932329,962.267725,-8364.327145,1685.410096
2531.932657,-962.267725,-8142.265362,153.219100
2531.932984,-2368.659014,-7994.224174,-306.438199
2531.933312,-1332.370696,-8216.285956,-919.314598
2531.933639,1332.370696,-9992.780217,-766.095498
2531.933967,1702.473667,-12213.398043,536.266849
2531.934294,1332.370696,-13619.789333,689.485948
2531.934622,-1406.391290,-13471.748144,153.219100
2531.934950,-4737.318029,-13027.624579,-842.705048
2531.935277,-6069.688724,-11251.130318,-3294.210641
2531.935605,-7402.059420,-7846.182985,-3600.648841
2531.935932,-7031.956449,-5699.585753,-1225.752797
2531.936260,-2442.679609,-6217.729913,612.876398
2531.936587,-296.082377,-6217.729913,2528.115143
2531.936915,370.102971,-7550.100608,2987.772442
2531.937243,-296.082377,-8216.285956,1838.629195
2531.937570,-1628.453072,-9474.636058,-536.266849
2531.937898,-2812.782580,-9918.759623,-2451.505594
2531.938225,-2738.761985,-10658.965565,-3217.601092
2531.938553,-814.226536,-11103.089130,-2221.676944
2531.938880,2590.720797,-12731.542202,-995.924147
2531.939208,2812.782580,-13101.645173,-306.438199
2531.939536,1480.411884,-12583.501014,229.828649
2531.939863,0.000000,-11695.253884,-689.485948
2531.940191,-2960.823768,-9474.636058,-995.924147
2531.940518,-4885.359217,-6661.853478,-2451.505594
2531.940846,-3108.864956,-4885.359217,-1455.581446
2531.941173,296.082377,-5403.503377,153.219100
2531.941501,3849.070898,-6735.874072,1838.629195
2531.941829,5255.462188,-8808.450710,2068.457845
2531.942156,5033.400406,-10288.862594,1378.971896
2531.942484,3627.009116,-12361.439231,0.000000
2531.942811,1924.535449,-13471.748144,-2068.457845
2531.943139,814.226536,-11917.315666,-2987.772442
2531.943466,2368.659014,-10955.047942,-2681.334243
2531.943794,4145.153275,-11029.068536,-1225.752797
2531.944122,5255.462188,-11621.233289,536.266849
2531.944449,4293.194464,-11177.109724,2068.457845
2531.944777,2146.597232,-9696.697840,1532.190996
2531.945104,0.000000,-8808.450710,536.266849
2531.945432,-1332.370696,-7105.977043,-995.924147
2531.945759,-1480.411884,-6513.812290,-1149.143247
2531.946087,888.247130,-6439.791695,536.266849
2531.946415,4071.132681,-7105.977043,1762.019645
2531.946742,5921.647536,-9770.718434,3140.991542
2531.947070,4145.153275,-11251.130318,3064.381992
2531.947397,2442.679609,-12731.542202,1378.971896
2531.947725,74.020594,-13175.665768,-1915.238745
2531.948053,-2146.597232,-12805.562797,-3677.258390
2531.948380,-2368.659014,-10658.965565,-3370.820191
2531.948708,-222.061783,-9918.759623,-1608.800546
2531.949035,1480.411884,-8956.491898,536.266849
2531.949363,2294.638420,-9326.594869,1762.019645
2531.949690,888.247130,-9030.512492,2451.505594
2531.950018,-296.082377,-8586.388927,1455.581446
2531.950346,-2738.761985,-7846.182985,0.000000
2531.950673,-3108.864956,-7179.997637,-995.924147
2531.951001,-1776.494261,-7254.018232,-306.438199
2531.951328,1332.370696,-6809.894666,1072.533697
2531.951656,3108.864956,-9178.553681,1762.019645
2531.951983,2220.617826,-11399.171507,1455.581446
2531.952311,-444.123565,-12361.439231,0.000000
2531.952639,-3034.844362,-12213.398043,-2604.724693
2531.952966,-5033.400406,-11843.295072,-4366.744339
2531.953294,-5033.400406,-10362.883188,-4443.353888
2531.953621,-2146.597232,-9474.636058,-2451.505594
2531.953949,222.061783,-9474.636058,0.000000
2531.954277,1776.494261,-8956.491898,1838.629195
2531.954604,1332.370696,-9178.553681,1302.362347
2531.954932,-888.247130,-8512.368333,1149.143247
2531.955260,-2368.659014,-7920.203579,0.000000
2531.955587,-2960.823768,-8290.306550,-1762.019645
2531.955915,-1998.556043,-9178.553681,-766.095498
2531.956243,1036.288319,-9326.594869,-766.095498
2531.956570,2516.700203,-10214.842000,229.828649
2531.956898,814.226536,-11473.192101,383.047749
2531.957226,-444.123565,-13027.624579,0.000000
2531.957553,-2368.659014,-11843.295072,-1915.238745
2531.957881,-4071.132681,-10510.924376,-3600.648841
2531.958209,-3997.112087,-9400.615463,-2987.772442
2531.958536,-1406.391290,-8956.491898,-1378.971896
2531.958864,1998.556043,-8290.306550,1991.848295
2531.959192,4071.132681,-8068.244768,3140.991542
2531.959519,3627.009116,-8364.327145,2604.724693
2531.959847,1998.556043,-9104.533087,1991.848295
2531.960175,148.041188,-9400.615463,383.047749
2531.960503,-962.267725,-9474.636058,-1378.971896
2531.960830,-222.061783,-9770.718434,-2145.067394
2531.961158,2368.659014,-10140.821405,-1455.581446
2531.961486,4589.276840,-10066.800811,459.657299
2531.961813,4663.297435,-10584.944971,2068.457845
2531.962141,3034.844362,-11325.150913,2298.286494
2531.962469,1480.411884,-10658.965565,229.828649
2531.962796,0.000000,-9400.615463,-1762.019645
2531.963124,-1480.411884,-8512.368333,-2298.286494
2531.963452,814.226536,-8290.306550,-1762.019645
2531.963779,2960.823768,-8364.327145,383.047749
2531.964107,4367.215058,-8586.388927,2298.286494
2531.964435,4293.194464,-9992.780217,2451.505594
2531.964762,2812.782580,-10955.047942,1532.190996
2531.965090,1406.391290,-11029.068536,0.000000
2531.965418,-148.041188,-11325.150913,-1915.238745
2531.965745,-962.267725,-10881.027347,-1838.629195
2531.966073,444.123565,-10066.800811,-689.485948
2531.966401,2368.659014,-9178.553681,612.876398
2531.966728,2886.803174,-9326.594869,1455.581446
2531.967056,1776.494261,-9992.780217,1455.581446
2531.967384,0.000000,-9844.739029,306.438199
2531.967711,-2664.741391,-8808.450710,-1072.533697
2531.968039,-4515.256246,-8290.306550,-2451.505594
2531.968367,-3108.864956,-8364.327145,-2298.286494
2531.968695,-962.267725,-9104.533087,-766.095498
2531.969022,1628.453072,-9770.718434,995.924147
2531.969350,2368.659014,-10066.800811,1685.410096
2531.969678,666.185348,-10658.965565,1685.410096
2531.970005,-1924.535449,-10955.047942,383.047749
2531.970333,-4293.194464,-10732.986159,-1455.581446
2531.970661,-5181.441594,-9548.656652,-2068.457845
2531.970988,-3701.029710,-9474.636058,-2451.505594
2531.971316,-444.123565,-8956.491898,-919.314598
2531.971644,1628.453072,-9030.512492,612.876398
2531.971971,1258.350101,-9178.553681,2374.896044
2531.972299,0.000000,-9400.615463,2068.457845
2531.972627,-1776.494261,-9252.574275,536.266849
2531.972954,-3108.864956,-8586.388927,-1378.971896
2531.973282,-2294.638420,-8068.244768,-1762.019645
2531.973610,296.082377,-8734.430116,-1532.190996
2531.973937,3034.844362,-9770.718434,612.876398
2531.974265,3256.906145,-9844.739029,2068.457845
2531.974593,1480.411884,-10436.903782,1532.190996
2531.974920,-740.205942,-11695.253884,-229.828649
2531.975248,-2368.659014,-11917.315666,-2987.772442
2531.975576,-2516.700203,-10955.047942,-3907.087040
2531.975903,-1702.473667,-9696.697840,-2757.943793
2531.976231,1998.556043,-9548.656652,-306.438199
2531.976559,4219.173869,-9252.574275,2374.896044
2531.976887,3478.967927,-8808.450710,4136.915689
2531.977214,1776.494261,-9178.553681,2987.772442
2531.977542,-222.061783,-8882.471304,0.000000
2531.977870,-2072.576638,-8882.471304,-2451.505594
2531.978197,-2738.761985,-8882.471304,-2911.162892
2531.978525,-592.164754,-9326.594869,-2145.067394
2531.978853,2368.659014,-10436.903782,-153.219100
2531.979180,3923.091493,-9992.780217,689.485948
2531.979508,2886.803174,-10066.800811,1532.190996
2531.979836,888.247130,-10881.027347,-383.047749
2531.980163,0.000000,-11621.233289,-1762.019645
2531.980491,-1258.350101,-10658.965565,-2374.896044
2531.980819,-740.205942,-9104.533087,-1225.752797
2531.981146,2220.617826,-8290.306550,689.485948
2531.981474,4737.318029,-8512.368333,2681.334243
2531.981802,4145.153275,-7476.080014,3907.087040
2531.982129,2368.659014,-8512.368333,2681.334243
2531.982457,1110.308913,-9252.574275,-229.828649
2531.982785,-1332.370696,-9770.718434,-1915.238745
2531.983112,-1480.411884,-9104.533087,-2528.115143
2531.983440,74.020594,-9178.553681,-1608.800546
2531.983768,2812.782580,-9844.739029,76.609550
2531.984095,4293.194464,-9474.636058,2757.943793
2531.984423,3849.070898,-10214.842000,1838.629195
2531.984751,1554.432478,-11177.109724,995.924147
2531.985079,-296.082377,-11547.212695,-995.924147
2531.985406,-2738.761985,-10140.821405,-1838.629195
2531.985734,-3627.009116,-9548.656652,-2145.067394
2531.986062,-888.247130,-9474.636058,-1302.362347
2531.986389,888.247130,-9252.574275,-689.485948
2531.986717,1998.556043,-9696.697840,459.657299
2531.987045,1184.329507,-10140.821405,1225.752797
2531.987372,-666.185348,-10214.842000,536.266849
2531.987700,-2590.720797,-10066.800811,-766.095498
2531.988028,-3849.070898,-9770.718434,-2145.067394
2531.988355,-2960.823768,-9326.594869,-1915.238745
2531.988683,0.000000,-9918.759623,-536.266849
2531.989011,1924.535449,-9474.636058,1685.410096
2531.989338,1776.494261,-9474.636058,1302.362347
2531.989666,0.000000,-11029.068536,919.314598
2531.989994,-2590.720797,-11399.171507,-536.266849
2531.990321,-4737.318029,-10436.903782,-2298.286494
2531.990649,-5477.523971,-8956.491898,-3140.991542
2531.990977,-2812.782580,-8882.471304,-2068.457845
2531.991304,370.102971,-9326.594869,-306.438199
2531.991632,2590.720797,-9030.512492,1991.848295
2531.991960,2368.659014,-8068.244768,3217.601092
2531.992287,1110.308913,-8068.244768,2757.943793
2531.992615,-370.102971,-9326.594869,919.314598
2531.992943,-1776.494261,-9400.615463,-1302.362347
2531.993271,-1332.370696,-8660.409521,-1838.629195
2531.993598,666.185348,-9252.574275,-1072.533697
2531.993926,4145.153275,-10732.986159,229.828649
2531.994254,4811.338623,-10214.842000,1532.190996
2531.994581,3330.926739,-10955.047942,1608.800546
2531.994909,1036.288319,-11991.336260,383.047749
2531.995237,-296.082377,-11473.192101,-1302.362347
2531.995564,-2294.638420,-9918.759623,-2987.772442
2531.995892,-1850.514855,-8364.327145,-2451.505594
2531.996220,1776.494261,-8290.306550,-842.705048
2531.996547,3775.050304,-8142.265362,1991.848295
2531.996875,2738.761985,-7476.080014,3217.601092
2531.997203,1776.494261,-8808.450710,1838.629195
2531.997530,518.144159,-10066.800811,-842.705048
2531.997858,-814.226536,-10436.903782,-2604.724693
2531.998186,-1184.329507,-10362.883188,-3983.696590
2531.998513,740.205942,-9918.759623,-1532.190996
2531.998841,3923.091493,-11251.130318,383.047749
2531.999169,5847.626942,-11399.171507,1532.190996
2531.999496,4441.235652,-10955.047942,2068.457845
2531.999824,1776.494261,-10807.006753,1762.019645
2532.000152,-518.144159,-10584.944971,-766.095498
2532.000480,-3034.844362,-8882.471304,-1991.848295
2532.000807,-3701.029710,-7994.224174,-1838.629195
2532.001135,-888.247130,-8512.368333,-612.876398
2532.001463,2220.617826,-8512.368333,766.095498
2532.001790,2886.803174,-7994.224174,1915.238745
2532.002118,1702.473667,-8438.347739,1685.410096
2532.002446,444.123565,-9622.677246,995.924147
2532.002773,-1776.494261,-9622.677246,-229.828649
2532.003101,-1776.494261,-9400.615463,-2068.457845
2532.003429,-1036.288319,-8660.409521,-1838.629195
2532.003756,1702.473667,-9474.636058,0.000000
2532.004084,3923.091493,-10584.944971,1532.190996
2532.004412,3034.844362,-10658.965565,2145.067394
2532.004739,740.205942,-11103.089130,919.314598
2532.005067,-1628.453072,-11251.130318,-766.095498
2532.005395,-3627.009116,-10214.842000,-2451.505594
2532.005722,-4589.276840,-9252.574275,-2604.724693
2532.006050,-2442.679609,-8438.347739,-1378.971896
2532.006378,592.164754,-8586.388927,229.828649
2532.006705,1406.391290,-8808.450710,1991.848295
2532.007033,0.000000,-7772.162391,3064.381992
2532.007361,-1554.432478,-9030.512492,459.657299
2532.007688,-2664.741391,-10658.965565,-1838.629195
2532.008016,-4145.153275,-10510.924376,-3447.429741
2532.008344,-2812.782580,-10140.821405,-3370.820191
2532.008672,444.123565,-10436.903782,-1838.629195
2532.008999,3478.967927,-11103.089130,153.219100
2532.009327,3997.112087,-11621.233289,1378.971896
2532.009655,1406.391290,-11103.089130,1378.971896
2532.009982,-444.123565,-11473.192101,76.609550
2532.010310,-2442.679609,-10732.986159,-1302.362347
2532.010638,-3478.967927,-9030.512492,-1762.019645
2532.010965,-1628.453072,-7920.203579,-1225.752797
2532.011293,1554.432478,-7698.141797,689.485948
2532.011621,2516.700203,-7772.162391,3064.381992
2532.011948,2294.638420,-7994.224174,1991.848295
2532.012276,1110.308913,-8882.471304,766.095498
2532.012604,-296.082377,-9696.697840,-536.266849
2532.012931,-1258.350101,-10362.883188,-1915.238745
2532.013259,-148.041188,-9696.697840,-2451.505594
2532.013587,2664.741391,-9770.718434,-1149.143247
2532.013914,5181.441594,-10214.842000,1225.752797
2532.014242,6587.832884,-10732.986159,1915.238745
2532.014570,3923.091493,-10955.047942,2221.676944
2532.014897,1406.391290,-10658.965565,1225.752797
2532.015225,-740.205942,-9622.677246,-1302.362347
2532.015553,-2738.761985,-8808.450710,-2221.676944
2532.015880,-2664.741391,-8142.265362,-1455.581446
2532.016208,1110.308913,-7328.038826,306.438199
2532.016536,2294.638420,-7846.182985,1991.848295
2532.016864,1998.556043,-8216.285956,1455.581446
2532.017191,1776.494261,-10066.800811,383.047749
2532.017519,444.123565,-11029.068536,-919.314598
2532.017847,-814.226536,-11251.130318,-1915.238745
2532.018174,-1332.370696,-10436.903782,-2374.896044
2532.018502,962.267725,-9622.677246,-1072.533697
2532.018830,2738.761985,-9918.759623,689.485948
2532.019157,3627.009116,-10732.986159,459.657299
2532.019485,2146.597232,-11917.315666,229.828649
2532.019813,-444.123565,-11843.295072,0.000000
2532.020140,-3034.844362,-10362.883188,-1838.629195
2532.020468,-5033.400406,-9474.636058,-2451.505594
2532.020796,-4663.297435,-8512.368333,-2145.067394
2532.021123,-962.267725,-7179.997637,-995.924147
2532.021451,1480.411884,-7772.162391,1225.752797
2532.021779,3182.885551,-8290.306550,1838.629195
2532.022106,2812.782580,-9030.512492,1532.190996
2532.022434,222.061783,-10362.883188,1302.362347
2532.022762,-1184.329507,-11177.109724,-306.438199
2532.023089,-1850.514855,-9992.780217,-2911.162892
2532.023417,-740.205942,-9474.636058,-2068.457845
2532.023745,1628.453072,-10214.842000,-1072.533697
2532.024072,3627.009116,-10955.047942,536.266849
2532.024400,3404.947333,-11251.130318,2145.067394
2532.024728,740.205942,-10584.944971,2298.286494
2532.025056,-1776.494261,-10140.821405,766.095498
2532.025383,-3108.864956,-9252.574275,-1762.019645
2532.025711,-4293.194464,-7476.080014,-1225.752797
2532.026039,-2442.679609,-6217.729913,0.000000
2532.026366,370.102971,-6439.791695,1302.362347
2532.026694,2294.638420,-7624.121203,2451.505594
2532.027022,1554.432478,-7846.182985,2145.067394
2532.027349,962.267725,-9770.718434,612.876398
2532.027677,-888.247130,-11843.295072,-1378.971896
2532.028005,-1850.514855,-11251.130318,-3217.601092
2532.028332,-1258.350101,-10658.965565,-3140.991542
2532.028660,1406.391290,-10658.965565,-1532.190996
2532.028988,4145.153275,-11325.150913,1072.533697
2532.029315,4737.318029,-11177.109724,2298.286494
2532.029643,2368.659014,-10658.965565,2145.067394
2532.029971,-740.205942,-10584.944971,919.314598
2532.030298,-3330.926739,-9548.656652,-1608.800546
2532.030626,-4589.276840,-7550.100608,-1991.848295
2532.030954,-3256.906145,-7031.956449,-1532.190996
2532.031281,444.123565,-7476.080014,-229.828649
2532.031609,2886.803174,-8956.491898,919.314598
2532.031937,2960.823768,-10066.800811,919.314598
2532.032264,2368.659014,-10658.965565,153.219100
2532.032592,222.061783,-11843.295072,229.828649
2532.032920,-1332.370696,-12139.377449,-2451.505594
2532.033248,-962.267725,-10732.986159,-3140.991542
2532.033575,962.267725,-10436.903782,-2221.676944
2532.033903,3404.947333,-10955.047942,0.000000
2532.034231,4663.297435,-10436.903782,1762.019645
2532.034558,2294.638420,-10362.883188,2451.505594
2532.034886,0.000000,-10140.821405,1378.971896
2532.035214,-2146.597232,-9252.574275,-995.924147
2532.035541,-3256.906145,-8216.285956,-1762.019645
2532.035869,-2664.741391,-7031.956449,-612.876398
2532.036197,592.164754,-6735.874072,612.876398
2532.036524,2960.823768,-7402.059420,2298.286494
2532.036852,3478.967927,-7772.162391,3217.601092
2532.037180,1998.556043,-8660.409521,2298.286494
2532.037507,-296.082377,-10732.986159,229.828649
2532.037835,-1776.494261,-11769.274478,-2451.505594
2532.038163,-2294.638420,-10955.047942,-4213.525239
2532.038490,-1184.329507,-9844.739029,-3370.820191
2532.038818,1776.494261,-10510.924376,-229.828649
2532.039146,4811.338623,-11251.130318,2451.505594
2532.039473,3330.926739,-11103.089130,2681.334243
2532.039801,1184.329507,-11621.233289,1685.410096
2532.040129,-1554.432478,-10214.842000,-689.485948
2532.040456,-4293.194464,-8808.450710,-1991.848295
2532.040784,-4219.173869,-7772.162391,-2145.067394
2532.041112,-2442.679609,-7179.997637,-536.266849
2532.041440,518.144159,-6883.915261,766.095498
2532.041767,2664.741391,-8882.471304,536.266849
2532.042095,1776.494261,-10584.944971,536.266849
2532.042423,0.000000,-10955.047942,-306.438199
2532.042750,-1036.288319,-11917.315666,-2298.286494
2532.043078,-1628.453072,-11843.295072,-3600.648841
2532.043406,-1258.350101,-10807.006753,-3064.381992
2532.043733,2294.638420,-10955.047942,-995.924147
2532.044061,4293.194464,-10881.027347,1608.800546
2532.044389,4515.256246,-10066.800811,3524.039291
2532.044716,2368.659014,-10584.944971,2604.724693
2532.045044,-888.247130,-9696.697840,995.924147
2532.045372,-3182.885551,-7994.224174,-1225.752797
2532.045699,-3627.009116,-6883.915261,-1915.238745
2532.046027,-2220.617826,-6735.874072,-1149.143247
2532.046355,1110.308913,-7031.956449,1302.362347
2532.046682,3997.112087,-8438.347739,2374.896044
2532.047010,3034.844362,-9474.636058,2604.724693
2532.047338,1702.473667,-10881.027347,1302.362347
2532.047665,0.000000,-11843.295072,-995.924147
2532.047993,-1554.432478,-11103.089130,-2681.334243
2532.048321,-1924.535449,-10066.800811,-3217.601092
2532.048648,444.123565,-10214.842000,-2681.334243
2532.048976,2072.576638,-10436.903782,459.657299
2532.049304,3552.988522,-10066.800811,2068.457845
2532.049632,2146.597232,-9622.677246,1685.410096
2532.049959,-296.082377,-9992.780217,689.485948
2532.050287,-2442.679609,-9622.677246,-1072.533697
2532.050615,-2738.761985,-9104.533087,-1532.190996
2532.050942,-2442.679609,-7624.121203,-919.314598
2532.051270,962.267725,-7698.141797,76.609550
2532.051598,4441.235652,-9252.574275,1302.362347
2532.051925,4145.153275,-9992.780217,2374.896044
2532.052253,1776.494261,-10140.821405,1685.410096
2532.052581,0.000000,-11843.295072,-842.705048
2532.052908,-1776.494261,-12065.356855,-2681.334243
2532.053236,-2442.679609,-11177.109724,-4673.182538
2532.053564,-1332.370696,-10066.800811,-3524.039291
2532.053891,2146.597232,-10807.006753,-842.705048
2532.054219,4293.194464,-10584.944971,1225.752797
2532.054547,3034.844362,-9918.759623,2528.115143
2532.054874,1184.329507,-9992.780217,2221.676944
2532.055202,-1184.329507,-8808.450710,0.000000
2532.055530,-2220.617826,-7698.141797,-1378.971896
2532.055858,-2664.741391,-7179.997637,-1378.971896
2532.056185,74.020594,-7402.059420,0.000000
2532.056513,2960.823768,-7772.162391,1762.019645
2532.056841,2738.761985,-8734.430116,2451.505594
2532.057168,1850.514855,-10510.924376,1608.800546
2532.057496,0.000000,-11769.274478,-383.047749
2532.057824,-2368.659014,-11251.130318,-3677.258390
2532.058152,-3108.864956,-10807.006753,-3600.648841
2532.058479,-2146.597232,-10436.903782,-2681.334243
2532.058807,962.267725,-10807.006753,-383.047749
2532.059135,3256.906145,-9548.656652,1685.410096
2532.059462,2886.803174,-8660.409521,2451.505594
2532.059790,0.000000,-9474.636058,1991.848295
2532.060118,-2442.679609,-9104.533087,0.000000
2532.060446,-4145.153275,-8808.450710,-2374.896044
2532.060773,-3701.029710,-7846.182985,-2221.676944
2532.061101,-962.267725,-8512.368333,-1378.971896
2532.061429,2294.638420,-9844.739029,306.438199
2532.061756,4219.173869,-10140.821405,1838.629195
2532.062084,2664.741391,-10140.821405,1378.971896
2532.062412,1184.329507,-11621.233289,-612.876398
2532.062740,-888.247130,-11177.109724,-1532.190996
2532.063067,-2516.700203,-10807.006753,-2911.162892
2532.063395,-1258.350101,-9844.739029,-2451.505594
2532.063723,1332.370696,-9918.759623,-1225.752797
2532.064050,3775.050304,-10288.862594,842.705048
2532.064378,2664.741391,-9474.636058,1838.629195
2532.064706,814.226536,-9548.656652,1149.143247
2532.065033,-888.247130,-9622.677246,-612.876398
2532.065361,-2442.679609,-9178.553681,-2145.067394
2532.065689,-2738.761985,-9030.512492,-2068.457845
2532.066017,-296.082377,-8956.491898,-842.705048
2532.066344,2442.679609,-8808.450710,842.705048
2532.066672,4515.256246,-9030.512492,2681.334243
2532.067000,3627.009116,-9474.636058,2451.505594
2532.067327,1332.370696,-10288.862594,919.314598
2532.067655,-740.205942,-10510.924376,-1378.971896
2532.067983,-2664.741391,-10436.903782,-3294.210641
2532.068311,-2812.782580,-9770.718434,-3217.601092
2532.068638,-444.123565,-9548.656652,-1838.629195
2532.068966,2664.741391,-10066.800811,536.266849
2532.069294,3775.050304,-9918.759623,2451.505594
2532.069621,1554.432478,-9474.636058,1915.238745
2532.069949,-592.164754,-9696.697840,1225.752797
2532.070277,-2664.741391,-9252.574275,-1149.143247
2532.070605,-2960.823768,-8660.409521,-1991.848295
2532.070932,-1850.514855,-8290.306550,-1149.143247
2532.071260,1554.432478,-8734.430116,229.828649
2532.071588,3849.070898,-8808.450710,1532.190996
2532.071915,3849.070898,-9252.574275,1838.629195
2532.072243,1998.556043,-10510.924376,842.705048
2532.072571,0.000000,-11473.192101,-995.924147
2532.072899,-1850.514855,-11251.130318,-2911.162892
2532.073226,-1850.514855,-10732.986159,-3217.601092
2532.073554,370.102971,-10214.842000,-1991.848295
2532.073882,2738.761985,-10436.903782,0.000000
2532.074209,3775.050304,-9844.739029,2528.115143
2532.074537,2146.597232,-9770.718434,2145.067394
2532.074865,222.061783,-10066.800811,612.876398
2532.075193,-1998.556043,-9474.636058,-1378.971896
2532.075520,-3849.070898,-9104.533087,-2068.457845
2532.075848,-2960.823768,-8734.430116,-1532.190996
2532.076176,296.082377,-9400.615463,-689.485948
2532.076503,2886.803174,-9178.553681,612.876398
2532.076831,3552.988522,-9474.636058,2221.676944
2532.077159,1850.514855,-9696.697840,1838.629195
2532.077487,0.000000,-10807.006753,229.828649
2532.077814,-2146.597232,-10881.027347,-1608.800546
2532.078142,-3256.906145,-9326.594869,-2221.676944
2532.078470,-2368.659014,-8586.388927,-1915.238745
2532.078797,0.000000,-8956.491898,0.000000
2532.079125,2664.741391,-9992.780217,1378.971896
2532.079453,2072.576638,-9474.636058,1915.238745
2532.079781,0.000000,-9474.636058,1225.752797
2532.080108,-1850.514855,-10140.821405,-459.657299
2532.080436,-2812.782580,-10140.821405,-1302.362347
2532.080764,-2738.761985,-8660.409521,-1915.238745
2532.081091,296.082377,-8660.409521,-612.876398
2532.081419,3552.988522,-9400.615463,1378.971896
2532.081747,4071.132681,-9252.574275,2528.115143
2532.082075,2146.597232,-9622.677246,2451.505594
2532.082402,0.000000,-10066.800811,229.828649
2532.082730,-1850.514855,-10955.047942,-2298.286494
2532.083058,-3701.029710,-9918.759623,-3447.429741
2532.083385,-2590.720797,-9326.594869,-2604.724693
2532.083713,1554.432478,-9844.739029,-1838.629195
2532.084041,4219.173869,-10807.006753,1072.533697
2532.084369,4441.235652,-9844.739029,2221.676944
2532.084696,2886.803174,-10288.862594,1685.410096
2532.085024,1258.350101,-10288.862594,0.000000
2532.085352,-1258.350101,-9770.718434,-1149.143247
2532.085679,-1628.453072,-9474.636058,-2068.457845
2532.086007,0.000000,-8956.491898,-842.705048
2532.086335,2664.741391,-8512.368333,229.828649
2532.086663,3701.029710,-8882.471304,1762.019645
2532.086990,2442.679609,-9770.718434,1762.019645
2532.087318,962.267725,-10881.027347,689.485948
2532.087646,-592.164754,-11029.068536,-2528.115143
2532.087973,-2590.720797,-9474.636058,-2604.724693
2532.088301,-2590.720797,-9252.574275,-2145.067394
2532.088629,0.000000,-8808.450710,-306.438199
2532.088957,2368.659014,-9104.533087,1225.752797
2532.089284,3256.906145,-8956.491898,2451.505594
2532.089612,1924.535449,-9326.594869,1302.362347
2532.089940,0.000000,-10066.800811,383.047749
2532.090267,-1998.556043,-9992.780217,-766.095498
2532.090595,-3478.967927,-8956.491898,-2221.676944
2532.090923,-1850.514855,-9474.636058,-2374.896044
2532.091251,888.247130,-9474.636058,-612.876398
2532.091578,3404.947333,-9326.594869,1455.581446
2532.091906,3552.988522,-9548.656652,2374.896044
2532.092234,1332.370696,-10807.006753,2221.676944
2532.092561,-518.144159,-10658.965565,76.609550
2532.092889,-2516.700203,-9622.677246,-1532.190996
2532.093217,-3330.926739,-8808.450710,-2145.067394
2532.093545,-2072.576638,-8216.285956,-1532.190996
2532.093872,962.267725,-9400.615463,76.609550
2532.094200,2664.741391,-9548.656652,1072.533697
2532.094528,2516.700203,-10436.903782,153.219100
2532.094855,370.102971,-11621.233289,76.609550
2532.095183,-1850.514855,-11251.130318,-1225.752797
2532.095511,-2812.782580,-10807.006753,-2221.676944
2532.095839,-2146.597232,-10510.924376,-1915.238745
2532.096166,370.102971,-9770.718434,-612.876398
2532.096494,2886.803174,-9474.636058,766.095498
2532.096822,3701.029710,-8808.450710,2068.457845
2532.097149,518.144159,-8956.491898,2145.067394
2532.097477,-518.144159,-9622.677246,459.657299
2532.097805,-2516.700203,-9474.636058,-1915.238745
2532.098133,-3849.070898,-8734.430116,-2528.115143
2532.098460,-1850.514855,-8734.430116,-2528.115143
2532.098788,1258.350101,-9030.512492,-612.876398
2532.099116,4145.153275,-9992.780217,229.828649
2532.099443,3701.029710,-9770.718434,1532.190996
2532.099771,1480.411884,-10807.006753,1378.971896
2532.100099,-592.164754,-10807.006753,229.828649
2532.100427,-1628.453072,-10214.842000,-1838.629195
2532.100754,-2146.597232,-8882.471304,-2221.676944
2532.101082,-740.205942,-8216.285956,-1302.362347
2532.101410,3108.864956,-8512.368333,766.095498
2532.101737,4071.132681,-9030.512492,2221.676944
2532.102065,2960.823768,-10140.821405,1762.019645
2532.102393,1036.288319,-10658.965565,536.266849
2532.102721,-666.185348,-10584.944971,-1532.190996
2532.103048,-2368.659014,-9844.739029,-2681.334243
2532.103376,-1998.556043,-8882.471304,-2068.457845
2532.103704,814.226536,-9474.636058,-842.705048
2532.104031,3108.864956,-9326.594869,1378.971896
2532.104359,3997.112087,-9696.697840,919.314598
2532.104687,1924.535449,-11103.089130,919.314598
2532.105015,0.000000,-11621.233289,-612.876398
2532.105342,-2294.638420,-11177.109724,-2451.505594
2532.105670,-3775.050304,-10066.800811,-2681.334243
2532.105998,-1036.288319,-9548.656652,-2451.505594
2532.106325,1850.514855,-9178.553681,0.000000
2532.106653,3256.906145,-8734.430116,1608.800546
2532.106981,2738.761985,-9474.636058,2528.115143
2532.107309,1406.391290,-9992.780217,1838.629195
2532.107636,-518.144159,-9474.636058,-306.438199
2532.107964,-2368.659014,-8808.450710,-1378.971896
2532.108292,-3256.906145,-7846.182985,-2068.457845
2532.108619,-962.267725,-7846.182985,-536.266849
2532.108947,2368.659014,-9252.574275,383.047749
2532.109275,3108.864956,-9622.677246,1685.410096
2532.109603,2220.617826,-11325.150913,1149.143247
2532.109930,0.000000,-12287.418637,306.438199
2532.110258,-1628.453072,-11695.253884,-1149.143247
2532.110586,-3182.885551,-9844.739029,-2451.505594
2532.110913,-2738.761985,-8882.471304,-2757.943793
2532.111241,-444.123565,-7994.224174,-536.266849
2532.111569,2442.679609,-8364.327145,1302.362347
2532.111897,3034.844362,-8734.430116,2681.334243
2532.112224,1332.370696,-8956.491898,2068.457845
2532.112552,-518.144159,-9548.656652,459.657299
2532.112880,-2368.659014,-9548.656652,-1838.629195
2532.113207,-2886.803174,-8956.491898,-2987.772442
2532.113535,-518.144159,-9474.636058,-2681.334243
2532.113863,2664.741391,-10436.903782,-689.485948
2532.114191,4589.276840,-11103.089130,1455.581446
2532.114518,3849.070898,-11473.192101,1915.238745
2532.114846,1110.308913,-11695.253884,1302.362347
2532.115174,-296.082377,-11473.192101,-1225.752797
2532.115501,-2812.782580,-9992.780217,-2528.115143
2532.115829,-3701.029710,-8586.388927,-1991.848295
2532.116157,-1184.329507,-8364.327145,-1149.143247
2532.116485,1702.473667,-8068.244768,612.876398
2532.116812,2146.597232,-7994.224174,2068.457845
2532.117140,1406.391290,-9474.636058,2298.286494
2532.117468,444.123565,-10214.842000,1149.143247
2532.117795,-1332.370696,-10288.862594,-1378.971896
2532.118123,-1776.494261,-9844.739029,-2068.457845
2532.118451,0.000000,-9474.636058,-1455.581446
2532.118779,2294.638420,-9326.594869,153.219100
2532.119106,4737.318029,-10066.800811,2068.457845
2532.119434,3849.070898,-9992.780217,2757.943793
2532.119762,1406.391290,-10955.047942,2068.457845
2532.120089,-592.164754,-11547.212695,-383.047749
2532.120417,-3330.926739,-9178.553681,-1838.629195
2532.120745,-3849.070898,-8290.306550,-2757.943793
2532.121072,-1332.370696,-8956.491898,-1838.629195
2532.121400,1702.473667,-8956.491898,459.657299
2532.121728,2960.823768,-8364.327145,2374.896044
2532.122056,2886.803174,-8734.430116,1608.800546
2532.122383,1184.329507,-9474.636058,1532.190996
2532.122711,-444.123565,-9992.780217,0.000000
2532.123039,-1850.514855,-9104.533087,-1685.410096
2532.123366,-1332.370696,-8660.409521,-1991.848295
2532.123694,1480.411884,-9770.718434,-919.314598
2532.124022,4145.153275,-11103.089130,536.266849
2532.124350,3775.050304,-11029.068536,1149.143247
2532.124677,2368.659014,-11769.274478,229.828649
2532.125005,0.000000,-11991.336260,-1225.752797
2532.125333,-2442.679609,-11843.295072,-2221.676944
2532.125660,-3256.906145,-10140.821405,-2068.457845
2532.125988,-1036.288319,-8438.347739,-1685.410096
2532.126316,1036.288319,-8734.430116,766.095498
2532.126644,2294.638420,-7772.162391,2451.505594
2532.126971,1036.288319,-7179.997637,2451.505594
2532.127299,0.000000,-8808.450710,536.266849
2532.127627,-1776.494261,-9770.718434,-1378.971896
2532.127954,-2664.741391,-10066.800811,-2834.553343
2532.128282,-2812.782580,-9844.739029,-2681.334243
2532.128610,-296.082377,-10214.842000,-1608.800546
2532.128938,3330.926739,-11325.150913,0.000000
2532.129265,3923.091493,-10584.944971,2068.457845
2532.129593,2368.659014,-11325.150913,2221.676944
2532.129921,592.164754,-11399.171507,919.314598
2532.130248,-1998.556043,-10066.800811,-1225.752797
2532.130576,-3997.112087,-8586.388927,-1762.019645
2532.130904,-3923.091493,-7698.141797,-1225.752797
2532.131232,-1480.411884,-7402.059420,229.828649
2532.131559,1998.556043,-8068.244768,842.705048
2532.131887,2220.617826,-8808.450710,1532.190996
2532.132215,740.205942,-9770.718434,1149.143247
2532.132542,-592.164754,-9844.739029,0.000000
2532.132870,-1628.453072,-10066.800811,-1915.238745
2532.133198,-1702.473667,-10436.903782,-1915.238745
2532.133526,148.041188,-9918.759623,-1915.238745
2532.133853,3775.050304,-9992.780217,0.000000
2532.134181,5329.482782,-11473.192101,1302.362347
2532.134509,3627.009116,-10584.944971,2145.067394
2532.134836,1332.370696,-10732.986159,842.705048
2532.135164,-1258.350101,-10807.006753,-842.705048
2532.135492,-2886.803174,-10066.800811,-2451.505594
2532.135820,-2886.803174,-8882.471304,-2451.505594
2532.136147,-444.123565,-8882.471304,-1072.533697
2532.136475,2738.761985,-8586.388927,689.485948
2532.136803,3478.967927,-8586.388927,2298.286494
2532.137130,2072.576638,-8586.388927,2528.115143
2532.137458,74.020594,-9326.594869,1072.533697
2532.137786,-814.226536,-10658.965565,-1532.190996
2532.138114,-1998.556043,-9992.780217,-2681.334243
2532.138441,-1332.370696,-8512.368333,-2374.896044
2532.138769,2072.576638,-9992.780217,-1225.752797
2532.139097,4071.132681,-11399.171507,766.095498
2532.139424,3849.070898,-11325.150913,1762.019645
2532.139752,1776.494261,-11177.109724,1072.533697
2532.140080,-296.082377,-11177.109724,-229.828649
2532.140408,-2220.617826,-9918.759623,-1685.410096
2532.140735,-3256.906145,-9104.533087,-1532.190996
2532.141063,-2146.597232,-7846.182985,-229.828649
2532.141391,740.205942,-7105.977043,919.314598
2532.141718,2442.679609,-7772.162391,1838.629195
2532.142046,1850.514855,-7994.224174,2068.457845
2532.142374,296.082377,-9104.533087,1455.581446
2532.142702,-592.164754,-9696.697840,-919.314598
2532.143029,-1554.432478,-9992.780217,-1991.848295
2532.143357,-1184.329507,-10140.821405,-2374.896044
2532.143685,1850.514855,-10807.006753,-1072.533697
2532.144012,4219.173869,-11103.089130,842.705048
2532.144340,4219.173869,-11251.130318,2221.676944
2532.144668,2072.576638,-11251.130318,2145.067394
2532.144996,-1110.308913,-10955.047942,459.657299
2532.145323,-3108.864956,-9548.656652,-1915.238745
2532.145651,-3997.112087,-9178.553681,-2374.896044
2532.145979,-3404.947333,-7920.203579,-1455.581446
2532.146306,-592.164754,-7179.997637,-153.219100
2532.146634,2146.597232,-7994.224174,689.485948
2532.146962,2590.720797,-9474.636058,1685.410096
2532.147290,1258.350101,-9918.759623,1072.533697
2532.147617,-148.041188,-10436.903782,-383.047749
2532.147945,-296.082377,-11843.295072,-2374.896044
2532.148273,-1036.288319,-11399.171507,-2528.115143
2532.148600,444.123565,-10436.903782,-1685.410096
2532.148928,2812.782580,-11177.109724,153.219100
2532.149256,4071.132681,-11547.212695,1072.533697
2532.149584,2516.700203,-10362.883188,1225.752797
2532.149911,-592.164754,-10288.862594,306.438199
2532.150239,-2516.700203,-9474.636058,-612.876398
2532.150567,-4441.235652,-8512.368333,-2145.067394
2532.150894,-3923.091493,-7846.182985,-1608.800546
2532.151222,-962.267725,-7624.121203,-612.876398
2532.151550,2220.617826,-8068.244768,1149.143247
2532.151878,3552.988522,-7846.182985,1532.190996
2532.152205,1332.370696,-7920.203579,2145.067394
2532.152533,814.226536,-9918.759623,0.000000
2532.152861,-592.164754,-10807.006753,-1608.800546
2532.153188,-962.267725,-10732.986159,-2528.115143
2532.153516,296.082377,-9992.780217,-2374.896044
2532.153844,2812.782580,-10510.924376,-766.095498
2532.154172,4737.318029,-11251.130318,1072.533697
2532.154499,4071.132681,-10955.047942,2374.896044
2532.154827,1184.329507,-10510.924376,2451.505594
2532.155155,-592.164754,-10510.924376,0.000000
2532.155482,-2516.700203,-9030.512492,-1532.190996
2532.155810,-3552.988522,-7846.182985,-1225.752797
2532.156138,-1480.411884,-7179.997637,0.000000
2532.156466,1480.411884,-7476.080014,1378.971896
2532.156793,2220.617826,-8216.285956,2451.505594
2532.157121,1480.411884,-8956.491898,919.314598
2532.157448,-222.061783,-10066.800811,-229.828649
2532.157776,-1480.411884,-11621.233289,-2374.896044
2532.158103,-1702.473667,-12435.459826,-3140.991542
2532.158431,-1110.308913,-11547.212695,-2757.943793
2532.158758,1776.494261,-11251.130318,-1072.533697
2532.159086,4219.173869,-11769.274478,766.095498
2532.159414,3627.009116,-11103.089130,1915.238745
2532.159741,1258.350101,-10510.924376,1838.629195
2532.160069,-1184.329507,-9770.718434,536.266849
2532.160396,-3404.947333,-8438.347739,-1225.752797
2532.160724,-4737.318029,-7402.059420,-1302.362347
2532.161051,-2812.782580,-6735.874072,0.000000
2532.161379,-148.041188,-7105.977043,76.609550
2532.161706,1332.370696,-7920.203579,1455.581446
2532.162034,1406.391290,-8216.285956,995.924147
2532.162361,592.164754,-9844.739029,0.000000
2532.162689,74.020594,-11769.274478,-1072.533697
2532.163016,-888.247130,-11547.212695,-2145.067394
2532.163344,0.000000,-10881.027347,-2145.067394
2532.163672,2368.659014,-10436.903782,-995.924147
2532.163999,4515.256246,-10658.965565,995.924147
2532.164327,4663.297435,-10436.903782,2451.505594
2532.164654,2442.679609,-9770.718434,2298.286494
2532.164982,-444.123565,-10066.800811,0.000000
2532.165309,-2442.679609,-9548.656652,-1685.410096
2532.165637,-3849.070898,-8586.388927,-2681.334243
2532.165964,-3849.070898,-7846.182985,-1838.629195
2532.166292,-888.247130,-7550.100608,0.000000
2532.166619,2146.597232,-8216.285956,689.485948
2532.166947,2516.700203,-8882.471304,1225.752797
2532.167274,1110.308913,-9696.697840,842.705048
2532.167602,-666.185348,-10732.986159,-689.485948
2532.167930,-1998.556043,-11325.150913,-2451.505594
2532.168257,-1850.514855,-11325.150913,-3907.087040
2532.168585,-1110.308913,-10066.800811,-1991.848295
2532.168912,2220.617826,-10510.924376,-383.047749
2532.169240,4515.256246,-11769.274478,1072.533697
2532.169567,3182.885551,-11547.212695,1762.019645
2532.169895,962.267725,-10214.842000,1302.362347
2532.170222,-1332.370696,-9030.512492,0.000000
2532.170550,-3478.967927,-7328.038826,-536.266849
2532.170877,-3404.947333,-6513.812290,0.000000
2532.171205,-370.102971,-7031.956449,306.438199
2532.171532,2738.761985,-7105.977043,1455.581446
2532.171860,3404.947333,-8142.265362,1608.800546
2532.172188,2516.700203,-10140.821405,1378.971896
2532.172515,518.144159,-11399.171507,383.047749
2532.172843,-222.061783,-12583.501014,-3217.601092
2532.173170,-1110.308913,-11843.295072,-3830.477490
2532.173498,-222.061783,-10510.924376,-2987.772442
2532.173825,2516.700203,-10881.027347,-1225.752797
2532.174153,4441.235652,-10955.047942,1532.190996
2532.174480,3849.070898,-10584.944971,3064.381992
2532.174808,1850.514855,-9770.718434,2068.457845
2532.175135,-1776.494261,-8290.306550,612.876398
2532.175463,-4293.194464,-7698.141797,-1225.752797
2532.175790,-4145.153275,-6883.915261,-2145.067394
2532.176118,-2442.679609,-6883.915261,-995.924147
2532.176445,518.144159,-7624.121203,612.876398
2532.176773,2664.741391,-9252.574275,1532.190996
2532.177101,2368.659014,-10658.965565,1378.971896
2532.177428,518.144159,-12065.356855,229.828649
2532.177756,-962.267725,-12509.480420,-2604.724693
2532.178083,-2516.700203,-11547.212695,-3600.648841
2532.178411,-3182.885551,-9918.759623,-2911.162892
2532.178738,0.000000,-9918.759623,-1378.971896
2532.179066,2072.576638,-9918.759623,1149.143247
2532.179393,2590.720797,-10214.842000,2068.457845
2532.179721,444.123565,-9918.759623,1149.143247
2532.180048,-1998.556043,-9104.533087,76.609550
2532.180376,-4219.173869,-8586.388927,-1532.190996
2532.180703,-3849.070898,-8290.306550,-1915.238745
2532.181031,-2368.659014,-7772.162391,-1302.362347
2532.181359,1258.350101,-8290.306550,383.047749
2532.181686,4663.297435,-9104.533087,2221.676944
2532.182014,4219.173869,-9622.677246,1838.629195
2532.182341,2590.720797,-11325.150913,1532.190996
2532.182669,888.247130,-11843.295072,-1149.143247
2532.182996,-1110.308913,-10955.047942,-2987.772442
2532.183324,-1480.411884,-9918.759623,-2834.553343
2532.183651,370.102971,-9622.677246,-2145.067394
2532.183979,3775.050304,-10140.821405,306.438199
2532.184306,5033.400406,-10140.821405,1302.362347
2532.184634,3478.967927,-9548.656652,1838.629195
2532.184961,962.267725,-9548.656652,1072.533697
2532.185289,-962.267725,-8808.450710,0.000000
2532.185617,-1998.556043,-7328.038826,-995.924147
2532.185944,-1554.432478,-7031.956449,-383.047749
2532.186272,1480.411884,-7698.141797,612.876398
2532.186599,4071.132681,-8512.368333,1685.410096
2532.186927,4367.215058,-9918.759623,1072.533697
2532.187254,2368.659014,-10732.986159,766.095498
2532.187582,444.123565,-12213.398043,-1685.410096
2532.187909,-1184.329507,-12731.542202,-3217.601092
2532.188237,-1480.411884,-11399.171507,-3753.867940
2532.188564,0.000000,-9770.718434,-2757.943793
2532.188892,3182.885551,-10436.903782,306.438199
2532.189219,4071.132681,-9252.574275,2987.772442
2532.189547,3256.906145,-9252.574275,3677.258390
2532.189875,592.164754,-9326.594869,1685.410096
2532.190202,-1998.556043,-8882.471304,-383.047749
2532.190530,-4367.215058,-7846.182985,-2068.457845
2532.190857,-3404.947333,-8512.368333,-1838.629195
2532.191185,-1332.370696,-8734.430116,-1072.533697
2532.191512,1332.370696,-9770.718434,536.266849
2532.191840,2738.761985,-10807.006753,919.314598
2532.192167,2072.576638,-11695.253884,842.705048
2532.192495,74.020594,-11547.212695,-536.266849
2532.192822,-1850.514855,-11695.253884,-1838.629195
2532.193150,-2886.803174,-10362.883188,-2451.505594
2532.193477,-2146.597232,-8734.430116,-2145.067394
2532.193805,-518.144159,-8956.491898,306.438199
2532.194132,1850.514855,-9474.636058,1915.238745
2532.194460,1850.514855,-9400.615463,2298.286494
2532.194788,0.000000,-9548.656652,1302.362347
2532.195115,-2516.700203,-9548.656652,-766.095498
2532.195443,-3627.009116,-9474.636058,-1762.019645
2532.195770,-3701.029710,-8734.430116,-1915.238745
2532.196098,-1406.391290,-8956.491898,-1072.533697
2532.196425,1406.391290,-9252.574275,536.266849
2532.196753,3256.906145,-9252.574275,1838.629195
2532.197080,1776.494261,-9474.636058,2221.676944
2532.197408,74.020594,-10807.006753,612.876398
2532.197735,-1110.308913,-11399.171507,-1762.019645
2532.198063,-2220.617826,-11103.089130,-3600.648841
2532.198390,-2368.659014,-9400.615463,-3524.039291
2532.198718,74.020594,-9474.636058,-1762.019645
2532.199046,2368.659014,-9474.636058,536.266849
2532.199373,3256.906145,-9696.697840,2221.676944
2532.199701,1850.514855,-9622.677246,1991.848295
2532.200028,518.144159,-9622.677246,153.219100
2532.200356,-814.226536,-9400.615463,-2145.067394
2532.200683,-1480.411884,-8290.306550,-1225.752797
2532.201011,-1036.288319,-8290.306550,-612.876398
2532.201338,2368.659014,-8882.471304,689.485948
2532.201666,3997.112087,-9474.636058,1378.971896
2532.201993,3478.967927,-10362.883188,689.485948
2532.202321,2220.617826,-10955.047942,0.000000
2532.202648,962.267725,-11325.150913,-1915.238745
2532.202976,-1258.350101,-10955.047942,-2604.724693
2532.203304,-1036.288319,-9992.780217,-2451.505594
2532.203631,888.247130,-9326.594869,-1149.143247
2532.203959,3552.988522,-9770.718434,612.876398
2532.204286,4589.276840,-9400.615463,2145.067394
2532.204614,3404.947333,-8216.285956,2298.286494
2532.204941,1480.411884,-8956.491898,1072.533697
2532.205269,-148.041188,-9844.739029,153.219100
2532.205596,-1850.514855,-9178.553681,-842.705048
2532.205924,-1110.308913,-8734.430116,-1072.533697
2532.206251,962.267725,-8956.491898,-229.828649
2532.206579,2442.679609,-9770.718434,612.876398
2532.206906,2812.782580,-10140.821405,306.438199
2532.207234,740.205942,-10436.903782,689.485948
2532.207562,-1480.411884,-10807.006753,-919.314598
2532.207889,-2442.679609,-10881.027347,-2145.067394
2532.208217,-3256.906145,-9622.677246,-2451.505594
2532.208544,-1924.535449,-8734.430116,-1072.533697
2532.208872,1110.308913,-8734.430116,459.657299
2532.209199,2516.700203,-9030.512492,1149.143247
2532.209527,2368.659014,-10140.821405,1608.800546
2532.209854,0.000000,-9918.759623,842.705048
2532.210182,-1628.453072,-10066.800811,-1532.190996
2532.210509,-2960.823768,-10732.986159,-1915.238745
2532.210837,-2590.720797,-10436.903782,-2374.896044
2532.211164,-592.164754,-9474.636058,-1302.362347
2532.211492,1628.453072,-9770.718434,1225.752797
2532.211819,2516.700203,-9474.636058,2145.067394
2532.212147,1036.288319,-9326.594869,1532.190996
2532.212475,-1480.411884,-9918.759623,229.828649
2532.212802,-3034.844362,-9918.759623,-1685.410096
2532.213130,-4145.153275,-9104.533087,-3064.381992
2532.213457,-2664.741391,-8290.306550,-2451.505594
2532.213785,0.000000,-8438.347739,-1225.752797
2532.214112,2960.823768,-9918.759623,1838.629195
2532.214440,3627.009116,-9474.636058,2068.457845
2532.214767,1702.473667,-10066.800811,1378.971896
2532.215095,-296.082377,-10732.986159,0.000000
2532.215422,-1184.329507,-10140.821405,-1685.410096
2532.215750,-1480.411884,-8882.471304,-1838.629195
2532.216077,0.000000,-8586.388927,0.000000
2532.216405,2738.761985,-8956.491898,1149.143247
2532.216733,4145.153275,-8734.430116,2221.676944
2532.217060,2516.700203,-9622.677246,2145.067394
2532.217388,0.000000,-10732.986159,153.219100
2532.217715,-1406.391290,-11029.068536,-1991.848295
2532.218043,-2664.741391,-9992.780217,-2834.553343
2532.218370,-2368.659014,-8882.471304,-2068.457845
2532.218698,444.123565,-8882.471304,153.219100
2532.219025,3108.864956,-9474.636058,1149.143247
2532.219353,3923.091493,-9770.718434,2068.457845
2532.219680,2886.803174,-10881.027347,1608.800546
2532.220008,666.185348,-10658.965565,-153.219100
2532.220335,-1110.308913,-10584.944971,-1991.848295
2532.220663,-2146.597232,-10807.006753,-2145.067394
2532.220991,-962.267725,-9252.574275,-1225.752797
2532.221318,2516.700203,-9252.574275,229.828649
2532.221646,4885.359217,-10214.842000,995.924147
2532.221973,4071.132681,-10807.006753,1991.848295
2532.222301,2294.638420,-10584.944971,1378.971896
2532.222628,296.082377,-10436.903782,0.000000
2532.222956,-1258.350101,-9252.574275,-995.924147
2532.223283,-1406.391290,-7698.141797,-1378.971896
2532.223611,0.000000,-7550.100608,-536.266849
2532.223938,2516.700203,-8586.388927,766.095498
2532.224266,3997.112087,-9252.574275,1608.800546
2532.224593,3108.864956,-10510.924376,1378.971896
2532.224921,1036.288319,-11251.130318,306.438199
2532.225249,-1110.308913,-11325.150913,-1378.971896
2532.225576,-2590.720797,-9844.739029,-2221.676944
2532.225904,-1702.473667,-9252.574275,-1762.019645
2532.226231,740.205942,-9474.636058,-612.876398
2532.226559,2590.720797,-8882.471304,995.924147
2532.226886,2664.741391,-9030.512492,2451.505594
2532.227214,814.226536,-9474.636058,1685.410096
2532.227541,-1628.453072,-9400.615463,153.219100
2532.227869,-3478.967927,-9844.739029,-1915.238745
2532.228196,-4515.256246,-9770.718434,-3217.601092
2532.228524,-3404.947333,-8142.265362,-2681.334243
2532.228851,-666.185348,-9030.512492,-1149.143247
2532.229179,2294.638420,-10510.924376,612.876398
2532.229506,1776.494261,-10955.047942,1455.581446
2532.229834,-962.267725,-10732.986159,766.095498
2532.230162,-2442.679609,-10658.965565,-229.828649
2532.230489,-3552.988522,-10584.944971,-1991.848295
2532.230817,-3404.947333,-9030.512492,-2374.896044
2532.231144,-1036.288319,-9030.512492,-995.924147
2532.231472,2220.617826,-9252.574275,842.705048
2532.231799,3108.864956,-9548.656652,2374.896044
2532.232127,1924.535449,-9030.512492,2451.505594
2532.232454,0.000000,-9252.574275,842.705048
2532.232782,-2072.576638,-9474.636058,-1225.752797
2532.233109,-2516.700203,-9696.697840,-2298.286494
2532.233437,-888.247130,-8660.409521,-2221.676944
2532.233764,2072.576638,-9548.656652,-306.438199
2532.234092,4589.276840,-9918.759623,1762.019645
2532.234420,4367.215058,-9474.636058,2757.943793
2532.234747,2442.679609,-11399.171507,2298.286494
2532.235075,-148.041188,-11325.150913,-306.438199
2532.235402,-1554.432478,-10584.944971,-2374.896044
2532.235730,-2294.638420,-9696.697840,-2987.772442
2532.236057,-1036.288319,-8882.471304,-1378.971896
2532.236385,1998.556043,-8882.471304,229.828649
2532.236712,3701.029710,-8660.409521,2528.115143
2532.237040,2886.803174,-9252.574275,1915.238745
2532.237367,1258.350101,-9030.512492,229.828649
2532.237695,0.000000,-9030.512492,-1149.143247
2532.238022,-1332.370696,-9474.636058,-1838.629195
2532.238350,-814.226536,-9030.512492,-1225.752797
2532.238678,1554.432478,-9030.512492,-383.047749
2532.239005,3775.050304,-9770.718434,1225.752797
2532.239333,4441.235652,-11103.089130,1455.581446
2532.239660,2738.761985,-11917.315666,536.266849
2532.239988,74.020594,-11621.233289,0.000000
2532.240315,-1702.473667,-11769.274478,-2757.943793
2532.240643,-3256.906145,-10362.883188,-2604.724693
2532.240970,-1776.494261,-8956.491898,-1225.752797
2532.241298,888.247130,-8438.347739,842.705048
2532.241625,2368.659014,-7624.121203,2451.505594
2532.241953,2738.761985,-8142.265362,2298.286494
2532.242280,1258.350101,-9252.574275,383.047749
2532.242608,-1036.288319,-9252.574275,0.000000
2532.242936,-2368.659014,-9400.615463,-1608.800546
2532.243263,-1924.535449,-9400.615463,-2451.505594
2532.243591,0.000000,-9252.574275,-1225.752797
2532.243918,2664.741391,-10732.986159,0.000000
2532.244246,4737.318029,-11029.068536,1608.800546
2532.244573,3478.967927,-10955.047942,1608.800546
2532.244901,962.267725,-11843.295072,766.095498
2532.245228,-1480.411884,-11029.068536,-229.828649
2532.245556,-3701.029710,-9104.533087,-1532.190996
2532.245883,-3404.947333,-8216.285956,-1302.362347
2532.246211,-1406.391290,-7772.162391,76.609550
2532.246538,592.164754,-7772.162391,1532.190996
2532.246866,1850.514855,-7994.224174,1302.362347
2532.247193,222.061783,-8808.450710,1685.410096
2532.247521,-1332.370696,-9252.574275,0.000000
2532.247849,-2442.679609,-9474.636058,-1762.019645
2532.248176,-2812.782580,-9474.636058,-2528.115143
2532.248504,-740.205942,-9030.512492,-1302.362347
2532.248831,2886.803174,-10288.862594,-459.657299
2532.249159,3997.112087,-11177.109724,1762.019645
2532.249486,2738.761985,-11547.212695,1991.848295
2532.249814,518.144159,-11769.274478,536.266849
2532.250141,-1776.494261,-10881.027347,-1455.581446
2532.250469,-3775.050304,-9992.780217,-2834.553343
2532.250796,-3034.844362,-9474.636058,-2528.115143
2532.251124,-1110.308913,-8290.306550,-1838.629195
2532.251451,2294.638420,-8438.347739,919.314598
2532.251779,3034.844362,-8142.265362,2145.067394
2532.252107,1776.494261,-8660.409521,2298.286494
2532.252434,518.144159,-9844.739029,842.705048
2532.252762,-740.205942,-9918.759623,-1685.410096
2532.253089,-962.267725,-10288.862594,-2451.505594
2532.253417,-370.102971,-9992.780217,-1838.629195
2532.253744,2442.679609,-10288.862594,-459.657299
2532.254072,4737.318029,-11547.212695,1149.143247
2532.254399,4293.194464,-11473.192101,1608.800546
2532.254727,2220.617826,-11473.192101,919.314598
2532.255054,0.000000,-11325.150913,-919.314598
2532.255382,-2072.576638,-9844.739029,-1302.362347
2532.255710,-2886.803174,-7550.100608,-1608.800546
2532.256037,-1184.329507,-7846.182985,229.828649
2532.256365,1036.288319,-7550.100608,1455.581446
2532.256692,2516.700203,-7698.141797,2068.457845
2532.257020,2146.597232,-8068.244768,1838.629195
2532.257348,0.000000,-8882.471304,766.095498
2532.257675,-1628.453072,-9474.636058,-689.485948
2532.258003,-2442.679609,-9918.759623,-2374.896044
2532.258330,-1850.514855,-9474.636058,-2298.286494
2532.258658,296.082377,-10214.842000,-1532.190996
2532.258986,3404.947333,-11251.130318,0.000000
2532.259313,4441.235652,-11695.253884,1608.800546
2532.259641,2590.720797,-11547.212695,1608.800546
2532.259968,74.020594,-11325.150913,612.876398
2532.260296,-2442.679609,-9770.718434,-1225.752797
2532.260624,-3404.947333,-8586.388927,-1915.238745
2532.260951,-2442.679609,-7624.121203,-1225.752797
2532.261279,-518.144159,-7698.141797,76.609550
2532.261606,1998.556043,-8364.327145,1378.971896
2532.261934,2220.617826,-9030.512492,842.705048
2532.262262,740.205942,-9696.697840,536.266849
2532.262589,-518.144159,-10436.903782,-536.266849
2532.262917,-1184.329507,-11029.068536,-2451.505594
2532.263244,-1258.350101,-10066.800811,-2911.162892
2532.263572,296.082377,-10362.883188,-1762.019645
2532.263900,3034.844362,-10881.027347,76.609550
2532.264227,4441.235652,-11103.089130,1762.019645
2532.264555,3034.844362,-10658.965565,1991.848295
2532.264882,296.082377,-10510.924376,1072.533697
2532.265210,-2368.659014,-9770.718434,-383.047749
2532.265538,-3478.967927,-9252.574275,-2451.505594
2532.265865,-3256.906145,-8068.244768,-1608.800546
2532.266193,-1110.308913,-7846.182985,-306.438199
2532.266521,1998.556043,-8216.285956,1302.362347
2532.266848,2590.720797,-7772.162391,2221.676944
2532.267176,1258.350101,-8438.347739,2374.896044
2532.267503,-518.144159,-9622.677246,612.876398
2532.267831,-1258.350101,-10214.842000,-1838.629195
2532.268159,-1850.514855,-10066.800811,-2221.676944
2532.268486,-814.226536,-9474.636058,-1378.971896
2532.268814,1924.535449,-9918.759623,76.609550
2532.269141,4219.173869,-11029.068536,1608.800546
2532.269469,3108.864956,-10510.924376,1685.410096
2532.269797,592.164754,-10881.027347,766.095498
2532.270124,-2146.597232,-10881.027347,-612.876398
2532.270452,-3034.844362,-9918.759623,-1991.848295
2532.270779,-3182.885551,-8142.265362,-1838.629195
2532.271107,-1036.288319,-7550.100608,-459.657299
2532.271435,1998.556043,-7994.224174,919.314598
2532.271762,3775.050304,-8660.409521,2451.505594
2532.272090,3108.864956,-9030.512492,2068.457845
2532.272417,1184.329507,-9918.759623,459.657299
2532.272745,-148.041188,-11103.089130,-1915.238745
2532.273073,-814.226536,-11399.171507,-3600.648841
2532.273400,-370.102971,-10732.986159,-3140.991542
2532.273728,2368.659014,-10955.047942,-1915.238745
2532.274055,4589.276840,-11917.315666,766.095498
2532.274383,4589.276840,-11843.295072,2528.115143
2532.274711,2368.659014,-10881.027347,1685.410096
2532.275038,-592.164754,-9770.718434,306.438199
2532.275366,-2590.720797,-9326.594869,-1378.971896
2532.275693,-3701.029710,-8438.347739,-1608.800546
2532.276021,-2664.741391,-6809.894666,-229.828649
2532.276349,0.000000,-7179.997637,229.828649
2532.276676,1998.556043,-8438.347739,1991.848295
2532.277004,1850.514855,-8734.430116,1225.752797
2532.277331,296.082377,-9474.636058,766.095498
2532.277659,-888.247130,-10436.903782,-1072.533697
2532.277987,-1480.411884,-11251.130318,-2298.286494
2532.278314,-1184.329507,-10288.862594,-2604.724693
2532.278642,740.205942,-9696.697840,-842.705048
2532.278969,3478.967927,-9992.780217,2145.067394
2532.279297,4145.153275,-10658.965565,2145.067394
2532.279625,2516.700203,-10807.006753,2374.896044
2532.279952,-1184.329507,-9992.780217,842.705048
2532.280280,-3552.988522,-9030.512492,-995.924147
2532.280607,-5329.482782,-7772.162391,-2451.505594
2532.280935,-4219.173869,-7550.100608,-2451.505594
2532.281263,-1184.329507,-7550.100608,-1149.143247
2532.281590,1258.350101,-8290.306550,1302.362347
2532.281918,2960.823768,-9696.697840,1455.581446
2532.282245,1702.473667,-10436.903782,612.876398
2532.282573,0.000000,-10658.965565,-995.924147
2532.282901,-1480.411884,-11399.171507,-2451.505594
2532.283228,-962.267725,-11251.130318,-2757.943793
2532.283556,74.020594,-10214.842000,-1762.019645
2532.283884,2442.679609,-10807.006753,76.609550
2532.284211,4219.173869,-11695.253884,1302.362347
2532.284539,3478.967927,-11473.192101,1378.971896
2532.284866,296.082377,-10732.986159,842.705048
2532.285194,-1850.514855,-9400.615463,-842.705048
2532.285522,-2516.700203,-8882.471304,-1685.410096
2532.285849,-3256.906145,-7254.018232,-1532.190996
2532.286177,-1258.350101,-6587.832884,536.266849
2532.286504,2368.659014,-7476.080014,1685.410096
2532.286832,3256.906145,-8290.306550,2451.505594
2532.287160,1850.514855,-8808.450710,1532.190996
2532.287487,518.144159,-10066.800811,0.000000
2532.287815,-888.247130,-11399.171507,-1532.190996
2532.288142,-1554.432478,-11695.253884,-2757.943793
2532.288470,-888.247130,-10732.986159,-2757.943793
2532.288798,1850.514855,-10807.006753,-995.924147
2532.289125,4441.235652,-11029.068536,1149.143247
2532.289453,3997.112087,-10955.047942,2145.067394
2532.289780,2368.659014,-10807.006753,2221.676944
2532.290108,-592.164754,-9474.636058,-229.828649
2532.290436,-2664.741391,-8586.388927,-1302.362347
2532.290763,-3627.009116,-7476.080014,-1991.848295
2532.291091,-2368.659014,-6957.935855,-995.924147
2532.291418,444.123565,-7031.956449,229.828649
2532.291746,1850.514855,-8364.327145,1302.362347
2532.292074,1924.535449,-9992.780217,1072.533697
2532.292401,1258.350101,-10807.006753,-919.314598
2532.292729,-148.041188,-11843.295072,-2374.896044
2532.293056,-814.226536,-12953.603985,-2834.553343
2532.293384,0.000000,-11473.192101,-2451.505594
2532.293712,2146.597232,-10658.965565,-612.876398
2532.294039,4515.256246,-11103.089130,1378.971896
2532.294367,4737.318029,-10881.027347,2451.505594
2532.294694,2368.659014,-9770.718434,2528.115143
2532.295022,-1184.329507,-9030.512492,0.000000
2532.295350,-3034.844362,-8734.430116,-1302.362347
2532.295677,-4367.215058,-8142.265362,-2068.457845
2532.296005,-3701.029710,-7550.100608,-1455.581446
2532.296332,74.020594,-7994.224174,0.000000
2532.296660,2442.679609,-8660.409521,1685.410096
2532.296988,2294.638420,-9104.533087,2298.286494
2532.297315,1332.370696,-10584.944971,1915.238745
2532.297643,-222.061783,-11843.295072,-153.219100
2532.297970,-1628.453072,-11325.150913,-2221.676944
2532.298298,-2146.597232,-10066.800811,-3064.381992
2532.298626,-1184.329507,-9474.636058,-1608.800546
2532.298953,1702.473667,-9770.718434,0.000000
2532.299281,3478.967927,-10140.821405,842.705048
2532.299608,2664.741391,-10436.903782,1225.752797
2532.299936,-444.123565,-10288.862594,842.705048
2532.300264,-1850.514855,-9252.574275,-689.485948
2532.300591,-3034.844362,-8290.306550,-1302.362347
2532.300919,-2812.782580,-7476.080014,-766.095498
2532.301247,-814.226536,-7031.956449,689.485948
2532.301574,2368.659014,-8438.347739,1685.410096
2532.301902,3108.864956,-9474.636058,1838.629195
2532.302229,2072.576638,-9622.677246,536.266849
2532.302557,222.061783,-11547.212695,-919.314598
2532.302885,-1036.288319,-12509.480420,-2757.943793
2532.303212,-1702.473667,-11547.212695,-3600.648841
2532.303540,-370.102971,-10436.903782,-2604.724693
2532.303867,2072.576638,-10436.903782,-536.266849
2532.304195,4885.359217,-10732.986159,1838.629195
2532.304523,3997.112087,-9844.739029,2451.505594
2532.304850,1332.370696,-9400.615463,2528.115143
2532.305178,-370.102971,-9474.636058,229.828649
2532.305505,-2368.659014,-9104.533087,-995.924147
2532.305833,-2960.823768,-7402.059420,-1225.752797
2532.306161,-592.164754,-7698.141797,-842.705048
2532.306488,2146.597232,-8438.347739,1072.533697
2532.306816,2516.700203,-8956.491898,1991.848295
2532.307143,2590.720797,-11251.130318,919.314598
2532.307471,888.247130,-12361.439231,-306.438199
2532.307799,-1036.288319,-11769.274478,-1762.019645
2532.308126,-1110.308913,-11473.192101,-2374.896044
2532.308454,-1406.391290,-8808.450710,-1838.629195
2532.308781,666.185348,-9104.533087,-766.095498
2532.309109,3404.947333,-9696.697840,1225.752797
2532.309437,3182.885551,-9178.553681,2298.286494
2532.309764,1184.329507,-8660.409521,2374.896044
2532.310092,-666.185348,-8734.430116,689.485948
2532.310419,-2960.823768,-7994.224174,-536.266849
2532.310747,-4145.153275,-7550.100608,-1838.629195
2532.311075,-2368.659014,-8512.368333,-2145.067394
2532.311402,814.226536,-9548.656652,-536.266849
2532.311730,3330.926739,-9770.718434,689.485948
2532.312057,3627.009116,-10066.800811,1072.533697
2532.312385,1332.370696,-11177.109724,995.924147
2532.312713,-592.164754,-11399.171507,-842.705048
2532.313040,-1332.370696,-10955.047942,-2834.553343
2532.313368,-2146.597232,-9400.615463,-3600.648841
2532.313695,-592.164754,-8660.409521,-1762.019645
2532.314023,2368.659014,-9844.739029,0.000000
2532.314351,2738.761985,-10140.821405,1762.019645
2532.314678,1406.391290,-10214.842000,1762.019645
2532.315006,296.082377,-9844.739029,0.000000
2532.315333,-1998.556043,-9548.656652,-536.266849
2532.315661,-2442.679609,-9622.677246,-2221.676944
2532.315989,-962.267725,-8660.409521,-2145.067394
2532.316316,370.102971,-8364.327145,76.609550
2532.316644,2294.638420,-8660.409521,1685.410096
2532.316971,2590.720797,-9770.718434,1302.362347
2532.317299,370.102971,-10732.986159,229.828649
2532.317627,-1110.308913,-10955.047942,-766.095498
2532.317954,-2368.659014,-10362.883188,-3677.258390
2532.318282,-3256.906145,-9696.697840,-2451.505594
2532.318610,-1406.391290,-9474.636058,-1608.800546
2532.318937,1776.494261,-9474.636058,76.609550
2532.319265,3330.926739,-9844.739029,2221.676944
2532.319592,2886.803174,-9326.594869,3140.991542
2532.319920,666.185348,-9252.574275,1532.190996
2532.320248,-2294.638420,-9178.553681,0.000000
2532.320575,-3627.009116,-8068.244768,-919.314598
2532.320903,-2738.761985,-7846.182985,-1915.238745
2532.321230,0.000000,-9030.512492,-689.485948
2532.321558,2442.679609,-9548.656652,842.705048
2532.321886,3849.070898,-9548.656652,1378.971896
2532.322213,2368.659014,-10214.842000,1378.971896
2532.322541,666.185348,-11177.109724,0.000000
2532.322868,-222.061783,-11473.192101,-2145.067394
2532.323196,-1702.473667,-9844.739029,-2451.505594
2532.323524,-592.164754,-8882.471304,-1762.019645
2532.323851,2294.638420,-9474.636058,0.000000
2532.324179,3997.112087,-9770.718434,1762.019645
2532.324506,3108.864956,-9622.677246,1838.629195
2532.324834,1332.370696,-10066.800811,766.095498
2532.325162,-222.061783,-9918.759623,-1225.752797
2532.325489,-2146.597232,-9918.759623,-2374.896044
2532.325817,-2146.597232,-9548.656652,-2145.067394
2532.326144,-296.082377,-9252.574275,-766.095498
2532.326472,2442.679609,-9252.574275,1072.533697
2532.326800,3627.009116,-10510.924376,1532.190996
2532.327127,2738.761985,-10807.006753,689.485948
2532.327455,444.123565,-10584.944971,76.609550
2532.327782,-1924.535449,-10436.903782,-1532.190996
2532.328110,-3256.906145,-9622.677246,-2604.724693
2532.328438,-2368.659014,-8512.368333,-2298.286494
2532.328765,-666.185348,-8512.368333,-842.705048
2532.329093,2368.659014,-9770.718434,1149.143247
2532.329420,3034.844362,-9696.697840,1838.629195
2532.329748,1924.535449,-9844.739029,1302.362347
2532.330076,-740.205942,-10436.903782,612.876398
2532.330403,-2442.679609,-9844.739029,-1149.143247
2532.330731,-2516.700203,-8808.450710,-1685.410096
2532.331058,-1258.350101,-7846.182985,-689.485948
2532.331386,2368.659014,-8216.285956,842.705048
2532.331714,3923.091493,-9474.636058,1455.581446
2532.332041,2294.638420,-9474.636058,2145.067394
2532.332369,0.000000,-10436.903782,612.876398
2532.332696,-2220.617826,-10658.965565,-2145.067394
2532.333024,-3627.009116,-9918.759623,-3600.648841
2532.333352,-3330.926739,-9178.553681,-2451.505594
2532.333679,0.000000,-9252.574275,-1378.971896
2532.334007,2590.720797,-9844.739029,1455.581446
2532.334334,4293.194464,-10140.821405,2298.286494
2532.334662,2738.761985,-9770.718434,1915.238745
2532.334990,518.144159,-10140.821405,229.828649
2532.335317,-1406.391290,-10362.883188,-1532.190996
2532.335645,-2664.741391,-9474.636058,-2604.724693
2532.335973,-1776.494261,-9104.533087,-1378.971896
2532.336300,1258.350101,-9474.636058,-229.828649
2532.336628,3478.967927,-9696.697840,1149.143247
2532.336955,2738.761985,-10955.047942,1455.581446
2532.337283,1036.288319,-11547.212695,459.657299
2532.337611,-666.185348,-11399.171507,-1608.800546
2532.337938,-2220.617826,-10288.862594,-2068.457845
2532.338266,-3256.906145,-8660.409521,-1838.629195
2532.338593,-592.164754,-7476.080014,-459.657299
2532.338921,2368.659014,-8512.368333,1378.971896
2532.339249,3627.009116,-9844.739029,2451.505594
2532.339576,2812.782580,-9400.615463,1762.019645
2532.339904,666.185348,-10140.821405,0.000000
2532.340231,-1184.329507,-10436.903782,-1915.238745
2532.340559,-2442.679609,-8956.491898,-2298.286494
2532.340887,-1628.453072,-9474.636058,-1838.629195
2532.341214,1110.308913,-9104.533087,0.000000
2532.341542,4145.153275,-9400.615463,1302.362347
2532.341869,4515.256246,-9400.615463,2451.505594
2532.342197,2368.659014,-9548.656652,2374.896044
2532.342525,0.000000,-10140.821405,0.000000
2532.342852,-1628.453072,-9548.656652,-1455.581446
2532.343180,-2516.700203,-8956.491898,-2681.334243
2532.343507,-1554.432478,-8142.265362,-1455.581446
2532.343835,1258.350101,-8660.409521,0.000000
2532.344163,3330.926739,-10066.800811,1149.143247
2532.344490,3478.967927,-11029.068536,1455.581446
2532.344818,1776.494261,-11103.089130,919.314598
2532.345145,0.000000,-11399.171507,-766.095498
2532.345473,-1554.432478,-10584.944971,-1532.190996
2532.345801,-2146.597232,-9252.574275,-2374.896044
2532.346128,-370.102971,-9104.533087,-766.095498
2532.346456,1702.473667,-9252.574275,689.485948
2532.346783,2664.741391,-9474.636058,1685.410096
2532.347111,814.226536,-9548.656652,1532.190996
2532.347439,-592.164754,-10140.821405,536.266849
2532.347766,-1924.535449,-10140.821405,-2221.676944
2532.348094,-3182.885551,-9474.636058,-2451.505594
2532.348421,-2368.659014,-8734.430116,-2068.457845
2532.348749,592.164754,-8660.409521,-306.438199
2532.349077,3330.926739,-9474.636058,1378.971896
2532.349404,4367.215058,-9770.718434,2681.334243
2532.349732,2886.803174,-10436.903782,1991.848295
2532.350059,0.000000,-10881.027347,689.485948
2532.350387,-2368.659014,-10658.965565,-1455.581446
2532.350715,-3701.029710,-9252.574275,-2298.286494
2532.351042,-2442.679609,-8586.388927,-2221.676944
2532.351370,814.226536,-9178.553681,-689.485948
2532.351697,2886.803174,-9474.636058,1532.190996
2532.352025,2960.823768,-9918.759623,2068.457845
2532.352353,1628.453072,-9844.739029,612.876398
2532.352680,-148.041188,-9992.780217,-919.314598
2532.353008,-2220.617826,-9326.594869,-1762.019645
2532.353336,-2294.638420,-7994.224174,-1915.238745
2532.353663,-740.205942,-7994.224174,-995.924147
2532.353991,2294.638420,-9474.636058,919.314598
2532.354318,3330.926739,-9030.512492,1378.971896
2532.354646,2072.576638,-9844.739029,1608.800546
2532.354974,296.082377,-11473.192101,306.438199
2532.355301,-1184.329507,-11695.253884,-1378.971896
2532.355629,-2220.617826,-11251.130318,-2374.896044
2532.355956,-1776.494261,-9918.759623,-1685.410096
2532.356284,1258.350101,-9474.636058,0.000000
2532.356612,3034.844362,-9474.636058,1378.971896
2532.356939,2368.659014,-8438.347739,3294.210641
2532.357267,1036.288319,-9326.594869,1608.800546
2532.357594,-1110.308913,-9178.553681,-459.657299
2532.357922,-3256.906145,-8956.491898,-2145.067394
2532.358250,-3330.926739,-8882.471304,-2681.334243
2532.358577,-1554.432478,-8882.471304,-2528.115143
2532.358905,1702.473667,-9400.615463,153.219100
2532.359233,3997.112087,-10214.842000,1072.533697
2532.359560,3775.050304,-11621.233289,1225.752797
2532.359888,1406.391290,-12213.398043,995.924147
2532.360216,0.000000,-11843.295072,-536.266849
2532.360543,-1702.473667,-10214.842000,-1762.019645
2532.360871,-2146.597232,-9104.533087,-1532.190996
2532.361199,74.020594,-8512.368333,0.000000
2532.361526,2368.659014,-8142.265362,1072.533697
2532.361854,2812.782580,-7994.224174,1685.410096
2532.362181,1776.494261,-9104.533087,1072.533697
2532.362509,74.020594,-9696.697840,-536.266849
2532.362837,-1702.473667,-9622.677246,-1302.362347
2532.363164,-2072.576638,-9918.759623,-2298.286494
2532.363492,-666.185348,-9178.553681,-2221.676944
2532.363820,1406.391290,-9178.553681,153.219100
2532.364147,4145.153275,-9844.739029,1915.238745
2532.364475,3775.050304,-9992.780217,1762.019645
2532.364803,1332.370696,-11103.089130,1302.362347
2532.365130,-444.123565,-11325.150913,-536.266849
2532.365458,-2738.761985,-9992.780217,-2068.457845
2532.365786,-3849.070898,-8734.430116,-2298.286494
2532.366113,-1776.494261,-8956.491898,-1608.800546
2532.366441,814.226536,-8364.327145,0.000000
2532.366768,1924.535449,-8734.430116,1685.410096
2532.367096,1406.391290,-9400.615463,1455.581446
2532.367424,0.000000,-9992.780217,536.266849
2532.367751,-1776.494261,-9474.636058,-383.047749
2532.368079,-2368.659014,-8734.430116,-2068.457845
2532.368407,-1850.514855,-8364.327145,-2298.286494
2532.368734,518.144159,-8956.491898,-229.828649
2532.369062,3256.906145,-10510.924376,1072.533697
2532.369390,3849.070898,-11621.233289,1225.752797
2532.369717,1998.556043,-12139.377449,229.828649
2532.370045,-222.061783,-12435.459826,-1072.533697
2532.370372,-2442.679609,-10436.903782,-1991.848295
2532.370700,-2812.782580,-9104.533087,-2834.553343
2532.371028,-1776.494261,-8290.306550,-1072.533697
2532.371355,1406.391290,-8364.327145,689.485948
2532.371683,3256.906145,-8216.285956,2528.115143
2532.372011,3182.885551,-7994.224174,3064.381992
2532.372338,1258.350101,-8586.388927,1532.190996
2532.372666,-1110.308913,-9326.594869,-306.438199
2532.372994,-2738.761985,-8956.491898,-2145.067394
2532.373321,-2220.617826,-9104.533087,-2451.505594
2532.373649,222.061783,-9474.636058,-1532.190996
2532.373977,3404.947333,-10955.047942,0.000000
2532.374304,4737.318029,-11991.336260,995.924147
2532.374632,3330.926739,-11325.150913,2068.457845
2532.374959,888.247130,-10881.027347,919.314598
2532.375287,-1184.329507,-10658.965565,-689.485948
2532.375615,-2294.638420,-9030.512492,-1608.800546
2532.375942,-2442.679609,-7328.038826,-1455.581446
2532.376270,-888.247130,-7550.100608,0.000000
2532.376598,1776.494261,-8438.347739,1455.581446
2532.376925,2072.576638,-8586.388927,2451.505594
2532.377253,296.082377,-8438.347739,919.314598
2532.377581,-740.205942,-10584.944971,-459.657299
2532.377908,-1776.494261,-11843.295072,-2604.724693
2532.378236,-1850.514855,-10658.965565,-3064.381992
2532.378564,-148.041188,-10066.800811,-1762.019645
2532.378891,2442.679609,-10584.944971,229.828649
2532.379219,4293.194464,-11103.089130,2145.067394
2532.379546,3478.967927,-11399.171507,1685.410096
2532.379874,666.185348,-10436.903782,612.876398
2532.380202,-1258.350101,-10140.821405,-1225.752797
2532.380529,-3627.009116,-9326.594869,-2298.286494
2532.380857,-4219.173869,-7920.203579,-1915.238745
2532.381185,-1776.494261,-7772.162391,-919.314598
2532.381512,1628.453072,-8290.306550,536.266849
2532.381840,2590.720797,-8586.388927,1915.238745
2532.382168,1480.411884,-8882.471304,1991.848295
2532.382495,74.020594,-9474.636058,459.657299
2532.382823,-1628.453072,-9770.718434,-612.876398
2532.383150,-2072.576638,-9918.759623,-2221.676944
2532.383478,-740.205942,-9474.636058,-1991.848295
2532.383806,1924.535449,-9918.759623,-306.438199
2532.384133,4293.194464,-10732.986159,1072.533697
2532.384461,3997.112087,-11029.068536,1532.190996
2532.384789,1628.453072,-10807.006753,1991.848295
2532.385116,-1258.350101,-10214.842000,-229.828649
2532.385444,-2812.782580,-9474.636058,-1838.629195
2532.385772,-3404.947333,-8586.388927,-1762.019645
2532.386099,-1406.391290,-7846.182985,-229.828649
2532.386427,1406.391290,-7624.121203,1302.362347
2532.386755,2368.659014,-7920.203579,3217.601092
2532.387082,2294.638420,-8290.306550,1915.238745
2532.387410,444.123565,-9400.615463,0.000000
2532.387737,-1480.411884,-10436.903782,-1685.410096
2532.388065,-2146.597232,-10436.903782,-3064.381992
2532.388393,-1628.453072,-9992.780217,-2757.943793
2532.388720,592.164754,-10362.883188,-1225.752797
2532.389048,3627.009116,-11177.109724,1532.190996
2532.389376,4515.256246,-11991.336260,1991.848295
2532.389703,2886.803174,-11769.274478,612.876398
2532.390031,518.144159,-11103.089130,0.000000
2532.390359,-2368.659014,-10214.842000,-1378.971896
2532.390686,-3182.885551,-9178.553681,-1302.362347
2532.391014,-1924.535449,-7698.141797,-229.828649
2532.391342,-518.144159,-6735.874072,689.485948
2532.391669,2146.597232,-7698.141797,1225.752797
2532.391997,2368.659014,-9030.512492,1455.581446
2532.392324,666.185348,-9474.636058,612.876398
2532.392652,-592.164754,-10288.862594,-995.924147
2532.392980,-1036.288319,-11251.130318,-2604.724693
2532.393307,-888.247130,-10214.842000,-2298.286494
2532.393635,1258.350101,-9474.636058,-919.314598
2532.393963,3997.112087,-10362.883188,1455.581446
2532.394290,5033.400406,-11695.253884,2221.676944
2532.394618,3404.947333,-10955.047942,2068.457845
2532.394946,0.000000,-10140.821405,995.924147
2532.395273,-3034.844362,-8882.471304,-689.485948
2532.395601,-4071.132681,-8290.306550,-1915.238745
2532.395928,-3775.050304,-7624.121203,-1838.629195
2532.396256,-1184.329507,-7105.977043,-612.876398
2532.396584,2072.576638,-8290.306550,1149.143247
2532.396911,2590.720797,-8660.409521,2145.067394
2532.397239,1850.514855,-9474.636058,1762.019645
2532.397567,74.020594,-10362.883188,0.000000
2532.397894,-1702.473667,-10732.986159,-2068.457845
2532.398222,-1480.411884,-10436.903782,-3370.820191
2532.398550,-222.061783,-9474.636058,-2451.505594
2532.398877,1924.535449,-10066.800811,-153.219100
2532.399205,4219.173869,-11621.233289,1455.581446
2532.399533,3256.906145,-11695.253884,1532.190996
2532.399860,0.000000,-10881.027347,306.438199
2532.400188,-1998.556043,-10362.883188,-766.095498
2532.400515,-3404.947333,-9474.636058,-2681.334243
2532.400843,-3034.844362,-8734.430116,-1838.629195
2532.401171,-1332.370696,-7624.121203,76.609550
2532.401498,2072.576638,-8216.285956,2298.286494
2532.401826,3404.947333,-8586.388927,2681.334243
2532.402154,2664.741391,-8956.491898,1302.362347
2532.402481,592.164754,-9918.759623,0.000000
2532.402809,-962.267725,-10732.986159,-612.876398
2532.403137,-1036.288319,-10955.047942,-3064.381992
2532.403464,-814.226536,-10066.800811,-2604.724693
2532.403792,2072.576638,-10658.965565,-995.924147
2532.404120,4663.297435,-11769.274478,1149.143247
2532.404447,4515.256246,-11547.212695,2451.505594
2532.404775,1998.556043,-10658.965565,1378.971896
2532.405102,-518.144159,-9622.677246,-536.266849
2532.405430,-3478.967927,-8290.306550,-229.828649
2532.405758,-3997.112087,-7624.121203,-919.314598
2532.406085,-2590.720797,-6735.874072,0.000000
2532.406413,-592.164754,-6143.709319,1378.971896
2532.406741,1924.535449,-8364.327145,1685.410096
2532.407068,1924.535449,-9696.697840,1225.752797
2532.407396,444.123565,-10436.903782,-153.219100
2532.407724,-1258.350101,-11843.295072,-1532.190996
2532.408051,-1480.411884,-11769.274478,-2604.724693
2532.408379,-1110.308913,-10584.944971,-2911.162892
2532.408706,814.226536,-10140.821405,-1225.752797
2532.409034,3404.947333,-10955.047942,1378.971896
2532.409362,3997.112087,-11103.089130,2145.067394
2532.409689,2146.597232,-10510.924376,1685.410096
2532.410017,-444.123565,-8956.491898,0.000000
2532.410345,-3330.926739,-8660.409521,-1225.752797
2532.410672,-4219.173869,-8142.265362,-2145.067394
2532.411000,-2960.823768,-7402.059420,-1915.238745
2532.411328,0.000000,-8364.327145,-383.047749
2532.411655,3034.844362,-9400.615463,1532.190996
2532.411983,3478.967927,-9696.697840,1762.019645
2532.412311,1702.473667,-9918.759623,76.609550
2532.412638,518.144159,-11473.192101,-995.924147
2532.412966,-592.164754,-12435.459826,-2987.772442
2532.413293,-444.123565,-11325.150913,-2681.334243
2532.413621,1110.308913,-10214.842000,-1455.581446
2532.413949,3701.029710,-10658.965565,229.828649
2532.414276,4811.338623,-10881.027347,1838.629195
2532.414604,3034.844362,-10066.800811,1838.629195
2532.414932,0.000000,-9770.718434,766.095498
2532.415259,-2146.597232,-8882.471304,-919.314598
2532.415587,-3478.967927,-8216.285956,-1685.410096
2532.415915,-3404.947333,-7105.977043,-1072.533697
2532.416242,-1702.473667,-5921.647536,536.266849
2532.416570,1702.473667,-7179.997637,1838.629195
2532.416898,2442.679609,-8660.409521,1685.410096
2532.417225,1406.391290,-9474.636058,1225.752797
2532.417553,-592.164754,-10288.862594,-383.047749
2532.417880,-1332.370696,-11399.171507,-2451.505594
2532.418208,-1702.473667,-11621.233289,-2987.772442
2532.418536,-740.205942,-10362.883188,-2145.067394
2532.418863,1406.391290,-10584.944971,995.924147
2532.419191,4293.194464,-12065.356855,1838.629195
2532.419519,3627.009116,-10362.883188,1532.190996
2532.419846,1258.350101,-9992.780217,995.924147
2532.420174,-962.267725,-9252.574275,229.828649
2532.420502,-3404.947333,-8364.327145,-689.485948
2532.420829,-4145.153275,-6809.894666,-995.924147
2532.421157,-2220.617826,-6809.894666,-612.876398
2532.421484,1554.432478,-8364.327145,-459.657299
2532.421812,2886.803174,-9696.697840,689.485948
2532.422140,2886.803174,-10584.944971,536.266849
2532.422467,1184.329507,-11621.233289,-612.876398
2532.422795,0.000000,-13027.624579,-2298.286494
2532.423123,0.000000,-12435.459826,-3064.381992
2532.423450,-370.102971,-10140.821405,-2528.115143
2532.423778,1628.453072,-10140.821405,-612.876398
2532.424106,4367.215058,-11177.109724,689.485948
2532.424433,4071.132681,-10658.965565,1915.238745
2532.424761,1776.494261,-9474.636058,1915.238745
2532.425089,-1110.308913,-8586.388927,919.314598
2532.425416,-3701.029710,-9030.512492,-1378.971896
2532.425744,-3182.885551,-8734.430116,-2528.115143
2532.426071,-2442.679609,-6883.915261,-1991.848295
2532.426399,0.000000,-6587.832884,229.828649
2532.426727,3182.885551,-9474.636058,1532.190996
2532.427054,2886.803174,-10362.883188,2221.676944
2532.427382,888.247130,-10066.800811,1302.362347
2532.427710,-888.247130,-10881.027347,-536.266849
2532.428037,-1480.411884,-10955.047942,-3830.477490
2532.428365,-2442.679609,-9252.574275,-3064.381992
2532.428693,-888.247130,-8882.471304,-1378.971896
2532.429020,1480.411884,-9622.677246,1378.971896
2532.429348,3478.967927,-10066.800811,2374.896044
2532.429676,2146.597232,-10436.903782,1532.190996
2532.430003,-518.144159,-9992.780217,842.705048
2532.430331,-2368.659014,-9030.512492,-1225.752797
2532.430658,-3404.947333,-7846.182985,-1838.629195
2532.430986,-3330.926739,-7772.162391,-1225.752797
2532.431314,814.226536,-8364.327145,306.438199
2532.431641,4071.132681,-9178.553681,1685.410096
2532.431969,3330.926739,-9178.553681,2068.457845
2532.432297,2368.659014,-11103.089130,0.000000
2532.432624,148.041188,-12213.398043,-1838.629195
2532.432952,-2072.576638,-11325.150913,-3370.820191
2532.433280,-2590.720797,-10214.842000,-3677.258390
2532.433607,-370.102971,-9770.718434,-2834.553343
2532.433935,3256.906145,-11177.109724,76.609550
2532.434262,4737.318029,-10288.862594,2221.676944
2532.434590,3849.070898,-9622.677246,2528.115143
2532.434918,1110.308913,-9474.636058,1608.800546
2532.435245,-814.226536,-9178.553681,0.000000
2532.435573,-3701.029710,-8216.285956,-1302.362347
2532.435901,-3478.967927,-7772.162391,-919.314598
2532.436228,-592.164754,-8364.327145,-459.657299
2532.436556,1776.494261,-9252.574275,919.314598
2532.436884,3034.844362,-10584.944971,1455.581446
2532.437211,2220.617826,-10362.883188,1072.533697
2532.437539,0.000000,-10807.006753,-766.095498
2532.437867,-1702.473667,-10955.047942,-2145.067394
2532.438194,-2368.659014,-10140.821405,-2834.553343
2532.438522,-1554.432478,-8438.347739,-1838.629195
2532.438849,444.123565,-8438.347739,536.266849
2532.439177,3108.864956,-9474.636058,1991.848295
2532.439505,3627.009116,-9844.739029,2221.676944
2532.439832,666.185348,-9178.553681,2068.457845
2532.440160,-1036.288319,-9474.636058,-229.828649
2532.440488,-2960.823768,-9548.656652,-1915.238745
2532.440815,-3034.844362,-9326.594869,-2451.505594
2532.441143,-666.185348,-9030.512492,-1378.971896
2532.441471,1702.473667,-9030.512492,689.485948
2532.441798,3775.050304,-9252.574275,2298.286494
2532.442126,3256.906145,-10436.903782,1225.752797
2532.442454,1332.370696,-11621.233289,0.000000
2532.442781,-666.185348,-11399.171507,-1915.238745
2532.443109,-2072.576638,-10955.047942,-3140.991542
2532.443436,-2368.659014,-9030.512492,-2604.724693
2532.443764,444.123565,-8956.491898,-1762.019645
2532.444092,2442.679609,-9622.677246,459.657299
2532.444419,2886.803174,-9474.636058,1685.410096
2532.444747,1480.411884,-9918.759623,919.314598
2532.445075,0.000000,-10288.862594,-153.219100
2532.445402,-2294.638420,-9622.677246,-1225.752797
2532.445730,-2960.823768,-9030.512492,-1608.800546
2532.446058,-1184.329507,-9474.636058,-766.095498
2532.446385,1036.288319,-9030.512492,766.095498
2532.446713,3478.967927,-9252.574275,1532.190996
2532.447040,3182.885551,-10658.965565,1302.362347
2532.447368,296.082377,-10362.883188,1149.143247
2532.447696,-1184.329507,-10436.903782,-842.705048
2532.448023,-2664.741391,-10362.883188,-2757.943793
2532.448351,-2590.720797,-9252.574275,-2987.772442
2532.448679,-592.164754,-8438.347739,-1838.629195
2532.449006,1850.514855,-8882.471304,0.000000
2532.449334,3256.906145,-9474.636058,2528.115143
2532.449662,2442.679609,-9622.677246,2451.505594
2532.449989,0.000000,-9474.636058,1302.362347
2532.450317,-2294.638420,-9474.636058,-383.047749
2532.450645,-2442.679609,-8586.388927,-1685.410096
2532.450972,-2072.576638,-7772.162391,-1991.848295
2532.451300,148.041188,-8660.409521,306.438199
2532.451627,3404.947333,-9918.759623,1225.752797
2532.451955,4145.153275,-10066.800811,1302.362347
2532.452283,2220.617826,-10732.986159,689.485948
2532.452610,222.061783,-11621.233289,-383.047749
2532.452938,-962.267725,-11399.171507,-1685.410096
2532.453266,-1776.494261,-9770.718434,-2374.896044
2532.453593,-518.144159,-9030.512492,-1915.238745
2532.453921,2072.576638,-9548.656652,536.266849
2532.454249,4071.132681,-10140.821405,2068.457845
2532.454576,3182.885551,-9326.594869,1991.848295
2532.454904,592.164754,-9844.739029,689.485948
2532.455232,-1258.350101,-10807.006753,-1225.752797
2532.455559,-2960.823768,-9400.615463,-2145.067394
2532.455887,-2590.720797,-9474.636058,-3294.210641
2532.456214,0.000000,-9622.677246,-1378.971896
2532.456542,3182.885551,-9696.697840,919.314598
2532.456870,4367.215058,-10288.862594,2068.457845
2532.457197,2220.617826,-10288.862594,2374.896044
2532.457525,-370.102971,-9844.739029,919.314598
2532.457853,-2442.679609,-10140.821405,-1685.410096
2532.458180,-3997.112087,-8660.409521,-2451.505594
2532.458508,-3034.844362,-8068.244768,-1915.238745
2532.458835,-444.123565,-8290.306550,0.000000
2532.459163,1850.514855,-9326.594869,1532.190996
2532.459490,2442.679609,-9992.780217,2068.457845
2532.459818,1036.288319,-9992.780217,842.705048
2532.460145,-1184.329507,-9992.780217,-689.485948
2532.460473,-2220.617826,-10510.924376,-1838.629195
2532.460800,-2072.576638,-9400.615463,-2298.286494
2532.461128,74.020594,-8734.430116,-1072.533697
2532.461455,3182.885551,-9178.553681,1378.971896
2532.461783,4441.235652,-9548.656652,2451.505594
2532.462110,3034.844362,-9622.677246,2068.457845
2532.462438,148.041188,-9770.718434,153.219100
2532.462765,-1480.411884,-10066.800811,-2298.286494
2532.463093,-2368.659014,-10436.903782,-4213.525239
2532.463420,-2368.659014,-9474.636058,-2757.943793
2532.463748,444.123565,-9178.553681,-919.314598
2532.464076,3701.029710,-10214.842000,1378.971896
2532.464403,4663.297435,-10288.862594,2221.676944
2532.464731,3034.844362,-10066.800811,1838.629195
2532.465058,370.102971,-10140.821405,0.000000
2532.465386,-1258.350101,-10214.842000,-1532.190996
2532.465713,-2516.700203,-9474.636058,-2221.676944
2532.466041,-1628.453072,-8438.347739,-1302.362347
2532.466368,1110.308913,-9326.594869,76.609550
2532.466696,3182.885551,-9770.718434,919.314598
2532.467023,2590.720797,-9844.739029,1838.629195
2532.467351,0.000000,-9918.759623,0.000000
2532.467678,-1702.473667,-9696.697840,-919.314598
2532.468006,-2590.720797,-9474.636058,-2298.286494
2532.468333,-2738.761985,-8586.388927,-1378.971896
2532.468661,-1258.350101,-7624.121203,536.266849
2532.468988,2368.659014,-7920.203579,1532.190996
2532.469316,3923.091493,-9770.718434,1991.848295
2532.469643,2368.659014,-10436.903782,1915.238745
2532.469971,-444.123565,-10436.903782,153.219100
2532.470298,-2442.679609,-10807.006753,-1608.800546
2532.470626,-3108.864956,-10214.842000,-2834.553343
2532.470953,-2294.638420,-9474.636058,-2298.286494
2532.471281,518.144159,-9252.574275,0.000000
2532.471608,3478.967927,-9696.697840,1532.190996
2532.471936,4293.194464,-9770.718434,2374.896044
2532.472263,1850.514855,-9474.636058,1072.533697
2532.472591,-444.123565,-9104.533087,0.000000
2532.472918,-2368.659014,-9326.594869,-1762.019645
2532.473246,-3108.864956,-8512.368333,-2221.676944
2532.473573,-1480.411884,-8142.265362,-919.314598
2532.473901,888.247130,-8586.388927,-229.828649
2532.474228,3701.029710,-10807.006753,919.314598
2532.474556,3997.112087,-11991.336260,229.828649
2532.474883,1184.329507,-11843.295072,0.000000
2532.475211,-740.205942,-11991.336260,-995.924147
2532.475538,-1850.514855,-11621.233289,-2145.067394
2532.475866,-1628.453072,-9474.636058,-1762.019645
2532.476193,814.226536,-8142.265362,76.609550
2532.476521,2664.741391,-9252.574275,1685.410096
2532.476848,3478.967927,-8956.491898,2911.162892
2532.477176,1702.473667,-9474.636058,1991.848295
2532.477504,-1110.308913,-9474.636058,76.609550
2532.477831,-2960.823768,-9178.553681,-2068.457845
2532.478159,-3256.906145,-8438.347739,-2681.334243
2532.478486,-2368.659014,-8586.388927,-1608.800546
2532.478814,740.205942,-8808.450710,383.047749
2532.479141,3923.091493,-9474.636058,1608.800546
2532.479469,3478.967927,-10732.986159,2221.676944
2532.479796,1406.391290,-10584.944971,1608.800546
2532.480124,-666.185348,-10066.800811,-306.438199
2532.480451,-2516.700203,-10584.944971,-2374.896044
2532.480779,-3404.947333,-8586.388927,-2298.286494
2532.481106,-888.247130,-8512.368333,-1532.190996
2532.481434,1998.556043,-9178.553681,689.485948
2532.481761,3478.967927,-9622.677246,2298.286494
2532.482089,3034.844362,-9474.636058,1838.629195
2532.482416,296.082377,-9400.615463,459.657299
2532.482744,-1480.411884,-9696.697840,-1378.971896
2532.483071,-2220.617826,-9474.636058,-2528.115143
2532.483399,-666.185348,-9252.574275,-2221.676944
2532.483726,1258.350101,-8586.388927,0.000000
2532.484054,4293.194464,-9696.697840,1532.190996
2532.484381,4737.318029,-10658.965565,1762.019645
2532.484709,2368.659014,-11251.130318,842.705048
2532.485036,-444.123565,-12065.356855,-766.095498
2532.485364,-1998.556043,-11621.233289,-2834.553343
2532.485691,-2812.782580,-9992.780217,-3294.210641
2532.486019,-1480.411884,-9178.553681,-2068.457845
2532.486346,1406.391290,-9696.697840,0.000000
2532.486674,3034.844362,-9548.656652,2374.896044
2532.487001,3108.864956,-9104.533087,2221.676944
2532.487329,888.247130,-9104.533087,689.485948
2532.487656,-1184.329507,-9252.574275,-536.266849
2532.487984,-2886.803174,-8586.388927,-1532.190996
2532.488311,-3182.885551,-7698.141797,-2068.457845
2532.488639,-1036.288319,-8586.388927,-459.657299
2532.488966,2294.638420,-9696.697840,766.095498
2532.489294,3849.070898,-11251.130318,1149.143247
2532.489621,2590.720797,-11769.274478,1302.362347
2532.489949,-148.041188,-11325.150913,-612.876398
2532.490277,-1702.473667,-10510.924376,-2145.067394
2532.490604,-3775.050304,-9548.656652,-2451.505594
2532.490932,-3108.864956,-7476.080014,-995.924147
2532.491259,0.000000,-7031.956449,0.000000
2532.491587,2294.638420,-8068.244768,2451.505594
2532.491914,3034.844362,-8364.327145,2604.724693
2532.492242,1480.411884,-8512.368333,1915.238745
2532.492569,-1258.350101,-9104.533087,-459.657299
2532.492897,-2590.720797,-9400.615463,-2068.457845
2532.493224,-2368.659014,-9992.780217,-3217.601092
2532.493552,-592.164754,-9622.677246,-1762.019645
2532.493879,3404.947333,-10658.965565,229.828649
2532.494207,6809.894666,-11991.336260,1455.581446
2532.494534,5477.523971,-12287.418637,2604.724693
2532.494862,2146.597232,-11473.192101,1455.581446
2532.495189,74.020594,-10510.924376,-1838.629195
2532.495517,-3034.844362,-9474.636058,-2528.115143
2532.495844,-3478.967927,-8808.450710,-2604.724693
2532.496172,-814.226536,-8290.306550,-1302.362347
2532.496499,1998.556043,-8290.306550,919.314598
2532.496827,2368.659014,-8808.450710,2451.505594
2532.497154,1850.514855,-10214.842000,1302.362347
2532.497482,296.082377,-10510.924376,-536.266849
2532.497809,-2072.576638,-9474.636058,-1532.190996
2532.498137,-2368.659014,-9400.615463,-2451.505594
2532.498464,-1924.535449,-9326.594869,-1455.581446
2532.498792,888.247130,-9696.697840,459.657299
2532.499119,4589.276840,-10658.965565,1685.410096
2532.499447,4145.153275,-11769.274478,1685.410096
2532.499774,1480.411884,-11621.233289,1532.190996
2532.500102,-1406.391290,-11103.089130,-1149.143247
2532.500429,-3478.967927,-9474.636058,-2604.724693
2532.500757,-3923.091493,-8512.368333,-2451.505594
2532.501084,-1850.514855,-7772.162391,-689.485948
2532.501412,1036.288319,-7624.121203,1149.143247
2532.501739,2516.700203,-7624.121203,3140.991542
2532.502067,3182.885551,-8512.368333,2451.505594
2532.502394,592.164754,-8660.409521,1149.143247
2532.502722,-1406.391290,-9844.739029,-842.705048
2532.503049,-1998.556043,-10436.903782,-2451.505594
2532.503377,-1110.308913,-9622.677246,-3140.991542
2532.503705,1628.453072,-10288.862594,-1225.752797
2532.504032,3997.112087,-11103.089130,383.047749
2532.504360,5033.400406,-11399.171507,1532.190996
2532.504687,3256.906145,-11917.315666,842.705048
2532.505015,74.020594,-11473.192101,-459.657299
2532.505342,-2442.679609,-10658.965565,-1532.190996
2532.505670,-2960.823768,-9030.512492,-1915.238745
2532.505997,-2368.659014,-7994.224174,-383.047749
2532.506325,222.061783,-8142.265362,612.876398
2532.506652,1924.535449,-6957.935855,2145.067394
2532.506980,2072.576638,-8660.409521,919.314598
2532.507307,0.000000,-10288.862594,0.000000
2532.507635,-1850.514855,-9622.677246,-1685.410096
2532.507962,-2442.679609,-10140.821405,-2911.162892
2532.508290,-2220.617826,-10584.944971,-1991.848295
2532.508617,-222.061783,-9844.739029,-1149.143247
2532.508945,2960.823768,-10436.903782,536.266849
2532.509272,4071.132681,-11473.192101,1685.410096
2532.509600,3182.885551,-11695.253884,1455.581446
2532.509927,1110.308913,-11029.068536,612.876398
2532.510255,-2072.576638,-9474.636058,0.000000
2532.510582,-3923.091493,-8438.347739,-919.314598
2532.510910,-2294.638420,-8142.265362,-1302.362347
2532.511237,-518.144159,-7402.059420,0.000000
2532.511565,962.267725,-7550.100608,1225.752797
2532.511892,2960.823768,-8438.347739,1608.800546
2532.512220,1850.514855,-8956.491898,1225.752797
2532.512547,148.041188,-9622.677246,229.828649
2532.512875,-592.164754,-10881.027347,-1378.971896
2532.513202,-666.185348,-10807.006753,-2451.505594
2532.513530,888.247130,-9030.512492,-2298.286494
2532.513857,3256.906145,-10140.821405,0.000000
2532.514185,4885.359217,-11621.233289,1838.629195
2532.514512,4145.153275,-11177.109724,2298.286494
2532.514840,1554.432478,-10584.944971,919.314598
2532.515167,-1110.308913,-10584.944971,-1532.190996
2532.515495,-2442.679609,-9992.780217,-2604.724693
2532.515822,-2812.782580,-8734.430116,-1915.238745
2532.516150,-1554.432478,-8290.306550,-153.219100
2532.516478,1332.370696,-8734.430116,1225.752797
2532.516805,3330.926739,-8956.491898,1532.190996
2532.517133,1850.514855,-8956.491898,1378.971896
2532.517460,-444.123565,-9104.533087,0.000000
2532.517788,-1628.453072,-10214.842000,-1685.410096
2532.518115,-2590.720797,-10362.883188,-2145.067394
2532.518443,-1554.432478,-9696.697840,-2451.505594
2532.518770,1110.308913,-10140.821405,-1149.143247
2532.519098,3330.926739,-11325.150913,689.485948
2532.519425,4219.173869,-12139.377449,1685.410096
2532.519753,2294.638420,-11843.295072,1225.752797
2532.520080,-666.185348,-10807.006753,0.000000
2532.520408,-2812.782580,-9178.553681,-1149.143247
2532.520735,-3552.988522,-8364.327145,-1762.019645
2532.521063,-2146.597232,-7402.059420,-383.047749
2532.521390,444.123565,-7105.977043,1455.581446
2532.521718,1628.453072,-7328.038826,2528.115143
2532.522045,2368.659014,-8438.347739,2068.457845
2532.522373,888.247130,-9400.615463,-306.438199
2532.522700,-740.205942,-9918.759623,-1762.019645
2532.523028,-1850.514855,-11473.192101,-3064.381992
2532.523355,-814.226536,-10955.047942,-2987.772442
2532.523683,1406.391290,-10214.842000,-1608.800546
2532.524010,3849.070898,-11473.192101,842.705048
2532.524338,5107.421000,-10955.047942,2451.505594
2532.524665,3775.050304,-10807.006753,2221.676944
2532.524993,370.102971,-10658.965565,919.314598
2532.525320,-2368.659014,-9474.636058,-1072.533697
2532.525648,-3627.009116,-7994.224174,-2221.676944
2532.525975,-3034.844362,-7328.038826,-1302.362347
2532.526303,-814.226536,-7476.080014,-383.047749
2532.526630,2294.638420,-8142.265362,1149.143247
2532.526958,2960.823768,-9252.574275,1225.752797
2532.527285,1554.432478,-10066.800811,229.828649
2532.527613,0.000000,-11621.233289,-842.705048
2532.527940,-962.267725,-10955.047942,-2068.457845
2532.528268,-1184.329507,-10584.944971,-2374.896044
2532.528595,0.000000,-9844.739029,-995.924147
2532.528923,2664.741391,-10214.842000,612.876398
2532.529250,4515.256246,-11177.109724,1072.533697
2532.529578,2738.761985,-11843.295072,1455.581446
2532.529906,-518.144159,-10658.965565,76.609550
2532.530233,-3034.844362,-9400.615463,-1149.143247
2532.530561,-4441.235652,-8216.285956,-1991.848295
2532.530888,-3923.091493,-6957.935855,-1991.848295
2532.531216,-814.226536,-7105.977043,-612.876398
2532.531543,2516.700203,-8216.285956,2145.067394
2532.531871,3849.070898,-8512.368333,2681.334243
2532.532198,3404.947333,-9548.656652,1762.019645
2532.532526,740.205942,-10436.903782,0.000000
2532.532853,-962.267725,-10881.027347,-1762.019645
2532.533181,-1332.370696,-11103.089130,-3370.820191
2532.533508,-740.205942,-9844.739029,-2528.115143
2532.533836,1998.556043,-10658.965565,-153.219100
2532.534163,5329.482782,-11843.295072,689.485948
2532.534491,3923.091493,-11547.212695,2374.896044
2532.534818,1110.308913,-10288.862594,1762.019645
2532.535146,-888.247130,-9252.574275,-612.876398
2532.535473,-3034.844362,-8364.327145,-1685.410096
2532.535801,-4441.235652,-7624.121203,-919.314598
2532.536128,-2220.617826,-7476.080014,-229.828649
2532.536456,148.041188,-7772.162391,1225.752797
2532.536783,2072.576638,-8586.388927,1149.143247
2532.537111,1850.514855,-10362.883188,-306.438199
2532.537438,-444.123565,-11621.233289,-766.095498
2532.537766,-1702.473667,-11769.274478,-1838.629195
2532.538093,-1258.350101,-11621.233289,-3294.210641
2532.538421,-148.041188,-10955.047942,-2451.505594
2532.538748,1998.556043,-9844.739029,-536.266849
2532.539076,4367.215058,-10807.006753,1455.581446
2532.539403,4293.194464,-11177.109724,2987.772442
2532.539731,2072.576638,-9992.780217,2145.067394
2532.540058,-740.205942,-9178.553681,0.000000
2532.540386,-3108.864956,-8068.244768,-1302.362347
2532.540713,-3997.112087,-7328.038826,-1685.410096
2532.541041,-2516.700203,-7254.018232,-1149.143247
2532.541368,0.000000,-8142.265362,459.657299
2532.541696,1850.514855,-8660.409521,1762.019645
2532.542023,2812.782580,-8586.388927,842.705048
2532.542351,1702.473667,-10510.924376,-229.828649
2532.542679,518.144159,-11843.295072,0.000000
2532.543006,0.000000,-11325.150913,-1915.238745
2532.543334,-148.041188,-10881.027347,-1608.800546
2532.543661,1110.308913,-10140.821405,-1608.800546
2532.543989,3108.864956,-10066.800811,689.485948
2532.544316,4293.194464,-10955.047942,1608.800546
2532.544644,2516.700203,-10436.903782,1608.800546
2532.544971,148.041188,-9400.615463,-459.657299
2532.545299,-1332.370696,-9178.553681,-766.095498
2532.545626,-3478.967927,-8364.327145,-842.705048
2532.545954,-2368.659014,-7550.100608,-842.705048
2532.546281,0.000000,-7105.977043,536.266849
2532.546609,2368.659014,-8438.347739,1455.581446
2532.546936,3552.988522,-9844.739029,842.705048
2532.547264,2442.679609,-10955.047942,689.485948
2532.547591,-222.061783,-11547.212695,-612.876398
2532.547919,-1184.329507,-11621.233289,-1685.410096
2532.548246,-666.185348,-10658.965565,-3217.601092
2532.548574,-592.164754,-10288.862594,-1915.238745
2532.548901,1776.494261,-10584.944971,-459.657299
2532.549229,4293.194464,-11991.336260,536.266849
2532.549556,3034.844362,-11621.233289,1149.143247
2532.549884,740.205942,-9474.636058,919.314598
2532.550211,-1406.391290,-8142.265362,0.000000
2532.550539,-4515.256246,-7476.080014,0.000000
2532.550866,-3330.926739,-7328.038826,-383.047749
2532.551194,-1184.329507,-7105.977043,229.828649
2532.551521,814.226536,-7254.018232,995.924147
2532.551849,2812.782580,-9622.677246,1455.581446
2532.552176,1924.535449,-10066.800811,536.266849
2532.552504,-888.247130,-10732.986159,0.000000
2532.552831,-962.267725,-11843.295072,-2374.896044
2532.553159,-1332.370696,-11399.171507,-3677.258390
2532.553486,-1332.370696,-10362.883188,-2145.067394
2532.553814,1110.308913,-10658.965565,229.828649
2532.554141,3701.029710,-9992.780217,2145.067394
2532.554469,3404.947333,-10362.883188,2451.505594
2532.554796,814.226536,-9622.677246,2528.115143
2532.555124,-1998.556043,-7254.018232,229.828649
2532.555451,-3849.070898,-7476.080014,-1149.143247
2532.555779,-3478.967927,-8438.347739,-2068.457845
2532.556107,-1776.494261,-8216.285956,-1455.581446
2532.556434,1184.329507,-8956.491898,1225.752797
2532.556762,3997.112087,-9992.780217,1455.581446
2532.557089,3627.009116,-10510.924376,689.485948
2532.557417,1110.308913,-11547.212695,0.000000
2532.557744,-1110.308913,-11769.274478,-1762.019645
2532.558072,-1702.473667,-10807.006753,-3524.039291
2532.558399,-1776.494261,-9474.636058,-2757.943793
2532.558727,0.000000,-9252.574275,-612.876398
2532.559054,3108.864956,-10288.862594,1685.410096
2532.559382,4219.173869,-10436.903782,1685.410096
2532.559709,1628.453072,-9844.739029,459.657299
2532.560037,-1036.288319,-8882.471304,-306.438199
2532.560364,-2664.741391,-8956.491898,-1532.190996
2532.560692,-3330.926739,-8586.388927,-1378.971896
2532.561020,-2220.617826,-7846.182985,-766.095498
2532.561347,962.267725,-8512.368333,919.314598
2532.561675,4071.132681,-10066.800811,3064.381992
2532.562002,4663.297435,-9992.780217,1915.238745
2532.562330,2442.679609,-11103.089130,153.219100
2532.562657,0.000000,-11399.171507,-1532.190996
2532.562985,-1924.535449,-10881.027347,-2911.162892
2532.563312,-1924.535449,-9844.739029,-3217.601092
2532.563640,-296.082377,-9326.594869,-2068.457845
2532.563967,2738.761985,-9918.759623,-766.095498
2532.564295,4589.276840,-10140.821405,2451.505594
2532.564622,3701.029710,-10436.903782,2604.724693
2532.564950,1036.288319,-9030.512492,1455.581446
2532.565277,-888.247130,-8956.491898,-612.876398
2532.565605,-2220.617826,-8808.450710,-1762.019645
2532.565933,-1850.514855,-7920.203579,-1225.752797
2532.566260,222.061783,-7772.162391,153.219100
2532.566588,2516.700203,-9622.677246,1072.533697
2532.566915,3034.844362,-10807.006753,1378.971896
2532.567243,1406.391290,-10881.027347,-229.828649
2532.567570,-1258.350101,-11251.130318,-1225.752797
2532.567898,-2960.823768,-11029.068536,-3140.991542
2532.568225,-2442.679609,-10288.862594,-3600.648841
2532.568553,-1480.411884,-8734.430116,-1991.848295
2532.568880,1406.391290,-9178.553681,383.047749
2532.569208,3108.864956,-9474.636058,2451.505594
2532.569535,2886.803174,-9548.656652,2681.334243
2532.569863,296.082377,-9696.697840,1302.362347
2532.570191,-2738.761985,-9178.553681,-919.314598
2532.570518,-3627.009116,-8512.368333,-2068.457845
2532.570846,-3478.967927,-8438.347739,-1685.410096
2532.571173,-1554.432478,-9104.533087,-842.705048
2532.571501,1702.473667,-9622.677246,766.095498
2532.571828,3478.967927,-10584.944971,842.705048
2532.572156,3034.844362,-10955.047942,842.705048
2532.572483,370.102971,-10658.965565,-153.219100
2532.572811,-1332.370696,-10658.965565,-1225.752797
2532.573138,-2664.741391,-9326.594869,-2221.676944
2532.573466,-1554.432478,-8216.285956,-1762.019645
2532.573793,1332.370696,-8956.491898,153.219100
2532.574121,2960.823768,-9178.553681,1915.238745
2532.574448,3552.988522,-9696.697840,1915.238745
2532.574776,1998.556043,-10436.903782,919.314598
2532.575104,-518.144159,-9918.759623,-842.705048
2532.575431,-2146.597232,-10140.821405,-2221.676944
2532.575759,-1480.411884,-9400.615463,-1838.629195
2532.576086,-370.102971,-8586.388927,0.000000
2532.576414,2146.597232,-9178.553681,1149.143247
2532.576741,4071.132681,-9992.780217,2145.067394
2532.577069,3034.844362,-10362.883188,1378.971896
2532.577396,1110.308913,-10066.800811,76.609550
2532.577724,-1406.391290,-10288.862594,-1608.800546
2532.578051,-3256.906145,-9992.780217,-3447.429741
2532.578379,-3256.906145,-8512.368333,-2374.896044
2532.578706,-888.247130,-9104.533087,-995.924147
2532.579034,2220.617826,-9992.780217,995.924147
2532.579362,3775.050304,-10658.965565,1915.238745
2532.579689,3034.844362,-10362.883188,1302.362347
2532.580017,-148.041188,-10140.821405,766.095498
2532.580344,-1924.535449,-9326.594869,-612.876398
2532.580672,-2442.679609,-8808.450710,-1762.019645
2532.580999,-1406.391290,-8438.347739,-1149.143247
2532.581327,1110.308913,-8216.285956,306.438199
2532.581654,3404.947333,-10140.821405,1302.362347
2532.581982,3478.967927,-10436.903782,1915.238745
2532.582309,1110.308913,-10288.862594,536.266849
2532.582637,-1924.535449,-10288.862594,-1685.410096
2532.582964,-3034.844362,-11103.089130,-2604.724693
2532.583292,-2442.679609,-9252.574275,-2834.553343
2532.583619,148.041188,-8660.409521,-1608.800546
2532.583947,2368.659014,-9474.636058,1378.971896
2532.584275,4293.194464,-9770.718434,2911.162892
2532.584602,3478.967927,-9548.656652,3294.210641
2532.584930,518.144159,-9992.780217,1072.533697
2532.585257,-1332.370696,-9844.739029,-1762.019645
2532.585585,-2664.741391,-10214.842000,-2834.553343
2532.585912,-2442.679609,-9474.636058,-2374.896044
2532.586240,814.226536,-9474.636058,-1072.533697
2532.586567,3552.988522,-9992.780217,995.924147
2532.586895,3701.029710,-10510.924376,2451.505594
2532.587222,1776.494261,-10436.903782,1455.581446
2532.587550,0.000000,-10732.986159,-842.705048
2532.587877,-2738.761985,-9400.615463,-1991.848295
2532.588205,-3552.988522,-8660.409521,-2374.896044
2532.588533,-1776.494261,-7698.141797,-1149.143247
2532.588860,740.205942,-8512.368333,1532.190996
2532.589188,2516.700203,-9844.739029,2451.505594
2532.589515,3330.926739,-11177.109724,1302.362347
2532.589843,962.267725,-10955.047942,-536.266849
2532.590170,-888.247130,-10584.944971,-1685.410096
2532.590498,-2442.679609,-10140.821405,-2221.676944
2532.590825,-2294.638420,-9548.656652,-1455.581446
2532.591153,518.144159,-8438.347739,0.000000
2532.591480,2886.803174,-8586.388927,1685.410096
2532.591808,3849.070898,-9622.677246,2757.943793
2532.592135,2294.638420,-9548.656652,1991.848295
2532.592463,-592.164754,-9770.718434,-306.438199
2532.592790,-2886.803174,-9622.677246,-2068.457845
2532.593118,-3552.988522,-9326.594869,-2757.943793
2532.593446,-2368.659014,-7772.162391,-1532.190996
2532.593773,592.164754,-8808.450710,-383.047749
2532.594101,3478.967927,-10584.944971,1378.971896
2532.594428,5033.400406,-11325.150913,1915.238745
2532.594756,2812.782580,-10510.924376,1378.971896
2532.595083,148.041188,-10807.006753,0.000000
2532.595411,-1184.329507,-11177.109724,-1915.238745
2532.595738,-1850.514855,-9474.636058,-2604.724693
2532.596066,-222.061783,-8142.265362,-995.924147
2532.596393,1850.514855,-8734.430116,153.219100
2532.596721,3701.029710,-10140.821405,1455.581446
2532.597048,2368.659014,-9918.759623,1455.581446
2532.597376,-148.041188,-9770.718434,76.609550
2532.597704,-1924.535449,-9992.780217,-1915.238745
2532.598031,-2368.659014,-9326.594869,-2911.162892
2532.598359,-2516.700203,-8660.409521,-2451.505594
2532.598686,0.000000,-8660.409521,0.000000
2532.599014,3552.988522,-9548.656652,1685.410096
2532.599341,4663.297435,-10362.883188,2145.067394
2532.599669,2220.617826,-10584.944971,1915.238745
2532.599996,-888.247130,-10955.047942,229.828649
2532.600324,-2812.782580,-10362.883188,-2145.067394
2532.600651,-4071.132681,-9252.574275,-3140.991542
2532.600979,-2664.741391,-8882.471304,-1838.629195
2532.601306,148.041188,-9400.615463,-383.047749
2532.601634,2664.741391,-9844.739029,2528.115143
2532.601961,3552.988522,-9918.759623,2834.553343
2532.602289,2220.617826,-9918.759623,1762.019645
2532.602617,0.000000,-9474.636058,0.000000
2532.602944,-1702.473667,-8660.409521,-2221.676944
2532.603272,-1924.535449,-7476.080014,-1838.629195
2532.603599,-592.164754,-7920.203579,-306.438199
2532.603927,1850.514855,-9030.512492,1608.800546
2532.604254,4071.132681,-10436.903782,1838.629195
2532.604582,3330.926739,-11177.109724,1072.533697
2532.604909,1406.391290,-11695.253884,0.000000
2532.605237,-592.164754,-11769.274478,-1685.410096
2532.605564,-2368.659014,-10362.883188,-1915.238745
2532.605892,-1924.535449,-9030.512492,-1991.848295
2532.606219,74.020594,-8364.327145,0.000000
2532.606547,2294.638420,-9030.512492,1991.848295
2532.606875,2886.803174,-9474.636058,2604.724693
2532.607202,1258.350101,-9326.594869,1225.752797
2532.607530,-1184.329507,-9252.574275,0.000000
2532.607857,-3182.885551,-9696.697840,-2528.115143
2532.608185,-3330.926739,-9844.739029,-3370.820191
2532.608512,-1924.535449,-8808.450710,-2298.286494
2532.608840,1184.329507,-9178.553681,-612.876398
2532.609167,3997.112087,-10807.006753,919.314598
2532.609495,4663.297435,-11621.233289,1608.800546
2532.609822,1998.556043,-11399.171507,689.485948
2532.610150,-518.144159,-10955.047942,0.000000
2532.610477,-1628.453072,-10436.903782,-2068.457845
2532.610805,-2516.700203,-8882.471304,-2068.457845
2532.611132,-1036.288319,-8512.368333,-1532.190996
2532.611460,1998.556043,-9104.533087,459.657299
2532.611788,3627.009116,-9770.718434,1532.190996
2532.612115,3108.864956,-9992.780217,1608.800546
2532.612443,444.123565,-10584.944971,-536.266849
2532.612770,-1628.453072,-9844.739029,-1838.629195
2532.613098,-2294.638420,-9252.574275,-2604.724693
2532.613425,-1480.411884,-8734.430116,-1991.848295
2532.613753,1258.350101,-8882.471304,0.000000
2532.614080,4367.215058,-9844.739029,2145.067394
2532.614408,4441.235652,-9992.780217,3600.648841
2532.614735,2368.659014,-9770.718434,1685.410096
2532.615063,74.020594,-11251.130318,0.000000
2532.615390,-2220.617826,-10140.821405,-2451.505594
2532.615718,-3034.844362,-8956.491898,-2987.772442
2532.616046,-1850.514855,-8882.471304,-1378.971896
2532.616373,1110.308913,-9178.553681,1455.581446
2532.616701,2812.782580,-8660.409521,2451.505594
2532.617028,2368.659014,-9252.574275,2374.896044
2532.617356,0.000000,-9548.656652,612.876398
2532.617683,-1850.514855,-9030.512492,-1838.629195
2532.618011,-3108.864956,-8512.368333,-2911.162892
2532.618338,-3108.864956,-8586.388927,-1991.848295
2532.618666,-370.102971,-8586.388927,153.219100
2532.618993,2590.720797,-10066.800811,1072.533697
2532.619321,3849.070898,-11769.274478,1455.581446
2532.619648,2220.617826,-12065.356855,76.609550
2532.619976,148.041188,-12139.377449,-1532.190996
2532.620303,-1628.453072,-11325.150913,-2451.505594
2532.620631,-3108.864956,-9474.636058,-2221.676944
2532.620959,-1554.432478,-8290.306550,-766.095498
2532.621286,1110.308913,-8290.306550,1762.019645
2532.621614,2960.823768,-8956.491898,2298.286494
2532.621941,3182.885551,-9326.594869,1838.629195
2532.622269,1110.308913,-9326.594869,459.657299
2532.622596,-1628.453072,-9252.574275,-995.924147
2532.622924,-2812.782580,-9252.574275,-2298.286494
2532.623251,-2812.782580,-9252.574275,-1991.848295
2532.623579,-814.226536,-9178.553681,-995.924147
2532.623906,2886.803174,-10732.986159,689.485948
2532.624234,5181.441594,-12361.439231,1532.190996
2532.624561,3775.050304,-11547.212695,1915.238745
2532.624889,1406.391290,-11029.068536,612.876398
2532.625217,-962.267725,-10140.821405,-766.095498
2532.625544,-3108.864956,-8882.471304,-1378.971896
2532.625872,-2516.700203,-7994.224174,-1532.190996
2532.626199,-296.082377,-7698.141797,536.266849
2532.626527,1406.391290,-7994.224174,1302.362347
2532.626854,2738.761985,-8586.388927,1838.629195
2532.627182,1480.411884,-9474.636058,1302.362347
2532.627509,-296.082377,-9844.739029,-306.438199
2532.627837,-1554.432478,-9252.574275,-2221.676944
2532.628164,-1850.514855,-9104.533087,-2757.943793
2532.628492,0.000000,-9770.718434,-1762.019645
2532.628819,2146.597232,-9548.656652,229.828649
2532.629147,4293.194464,-11177.109724,1838.629195
2532.629474,3923.091493,-11991.336260,1608.800546
2532.629802,1702.473667,-11621.233289,229.828649
2532.630130,-1332.370696,-10732.986159,-1149.143247
2532.630457,-3330.926739,-9622.677246,-2528.115143
2532.630785,-3330.926739,-9252.574275,-2757.943793
2532.631112,-1036.288319,-8660.409521,-1455.581446
2532.631440,1258.350101,-8142.265362,1225.752797
2532.631767,3108.864956,-9104.533087,1991.848295
2532.632095,2886.803174,-9696.697840,1455.581446
2532.632422,1110.308913,-9030.512492,842.705048
2532.632750,-1480.411884,-9474.636058,-1838.629195
2532.633077,-2072.576638,-9696.697840,-1762.019645
2532.633405,-1110.308913,-9030.512492,-2528.115143
2532.633732,1184.329507,-9844.739029,-995.924147
2532.634060,3404.947333,-11473.192101,689.485948
2532.634387,4145.153275,-11991.336260,995.924147
2532.634715,2590.720797,-11843.295072,612.876398
2532.635043,0.000000,-10955.047942,-766.095498
2532.635370,-2072.576638,-10066.800811,-1302.362347
2532.635698,-2664.741391,-8734.430116,-1072.533697
2532.636025,-1554.432478,-7994.224174,-153.219100
2532.636353,296.082377,-7402.059420,1838.629195
2532.636680,1924.535449,-6883.915261,2987.772442
2532.637008,1702.473667,-7698.141797,2451.505594
2532.637335,-296.082377,-8882.471304,995.924147
2532.637663,-1332.370696,-9104.533087,-766.095498
2532.637990,-2368.659014,-9474.636058,-2221.676944
2532.638318,-1776.494261,-9770.718434,-2221.676944
2532.638645,296.082377,-10066.800811,-1225.752797
2532.638973,3034.844362,-11399.171507,536.266849
2532.639301,4293.194464,-11843.295072,1455.581446
2532.639628,3034.844362,-11843.295072,1838.629195
2532.639956,888.247130,-11547.212695,-383.047749
2532.640283,-1480.411884,-9622.677246,-842.705048
2532.640611,-3552.988522,-8364.327145,-1915.238745
2532.640938,-3108.864956,-8216.285956,-1302.362347
2532.641266,-1184.329507,-7402.059420,306.438199
2532.641593,740.205942,-7994.224174,1149.143247
2532.641921,1924.535449,-9548.656652,0.000000
2532.642248,962.267725,-9696.697840,-229.828649
2532.642576,222.061783,-10436.903782,-1915.238745
2532.642903,-1258.350101,-11029.068536,-2145.067394
2532.643231,-592.164754,-10955.047942,-2145.067394
2532.643558,1110.308913,-9400.615463,-1302.362347
2532.643886,3552.988522,-10214.842000,919.314598
2532.644214,5181.441594,-12065.356855,1149.143247
2532.644541,4367.215058,-11769.274478,1302.362347
2532.644869,1924.535449,-10658.965565,0.000000
2532.645196,-1998.556043,-10288.862594,-689.485948
2532.645524,-3552.988522,-9104.533087,-1991.848295
2532.645851,-2960.823768,-7920.203579,-1915.238745
2532.646179,-962.267725,-7624.121203,-306.438199
2532.646506,1702.473667,-7920.203579,1072.533697
2532.646834,2812.782580,-7698.141797,2298.286494
2532.647161,1406.391290,-7846.182985,1838.629195
2532.647489,-592.164754,-9474.636058,306.438199
2532.647816,-1628.453072,-9622.677246,-1532.190996
2532.648144,-2072.576638,-9622.677246,-2451.505594
2532.648472,-1036.288319,-9400.615463,-1762.019645
2532.648799,1406.391290,-10658.965565,0.000000
2532.649127,3775.050304,-11251.130318,1378.971896
2532.649454,3627.009116,-11769.274478,1915.238745
2532.649782,1406.391290,-11621.233289,536.266849
2532.650109,-1406.391290,-10214.842000,-689.485948
2532.650437,-3701.029710,-8882.471304,-1608.800546
2532.650764,-3627.009116,-8068.244768,-1608.800546
2532.651092,-1332.370696,-7179.997637,536.266849
2532.651419,518.144159,-7105.977043,1455.581446
2532.651747,2146.597232,-9104.533087,1838.629195
2532.652074,1998.556043,-9548.656652,536.266849
2532.652402,592.164754,-9770.718434,-1225.752797
2532.652729,-1184.329507,-10955.047942,-2528.115143
2532.653057,-962.267725,-11695.253884,-2681.334243
2532.653385,-444.123565,-10881.027347,-2681.334243
2532.653712,2368.659014,-10510.924376,-689.485948
2532.654040,5181.441594,-11695.253884,1225.752797
2532.654367,5477.523971,-12509.480420,2451.505594
2532.654695,2886.803174,-11325.150913,1991.848295
2532.655022,-296.082377,-9844.739029,306.438199
2532.655350,-2886.803174,-8512.368333,-842.705048
2532.655677,-4515.256246,-7772.162391,-1608.800546
2532.656005,-3701.029710,-6809.894666,-1072.533697
2532.656332,-740.205942,-8068.244768,-229.828649
2532.656660,1702.473667,-8512.368333,1455.581446
2532.656987,2220.617826,-8216.285956,1225.752797
2532.657315,1776.494261,-10436.903782,-459.657299
2532.657643,-370.102971,-11695.253884,-919.314598
2532.657970,-1332.370696,-10807.006753,-1915.238745
2532.658296,-222.061783,-10066.800811,-1532.190996
2532.658623,814.226536,-9696.697840,-766.095498
2532.658951,3182.885551,-10288.862594,1149.143247
2532.659278,4367.215058,-11473.192101,2068.457845
2532.659606,2368.659014,-10658.965565,1838.629195
2532.659933,-222.061783,-9696.697840,842.705048
2532.660261,-2516.700203,-9400.615463,-1838.629195
2532.660588,-3849.070898,-7476.080014,-2298.286494
2532.660916,-3330.926739,-6587.832884,-1072.533697
2532.661244,-962.267725,-7105.977043,536.266849
2532.661571,1480.411884,-9252.574275,1608.800546
2532.661899,3182.885551,-10214.842000,1378.971896
2532.662226,2590.720797,-9918.759623,-306.438199
2532.662554,222.061783,-10214.842000,-1685.410096
2532.662881,-888.247130,-11621.233289,-2221.676944
2532.663209,-888.247130,-11547.212695,-3064.381992
2532.663536,-296.082377,-10214.842000,-2068.457845
2532.663864,2812.782580,-10362.883188,-306.438199
2532.664191,4737.318029,-12065.356855,689.485948
2532.664519,4367.215058,-12509.480420,1991.848295
2532.664846,1406.391290,-9992.780217,919.314598
2532.665174,-296.082377,-8438.347739,-689.485948
2532.665501,-2812.782580,-8364.327145,-1225.752797
2532.665829,-3627.009116,-7031.956449,-689.485948
2532.666156,-444.123565,-7105.977043,383.047749
2532.666484,1480.411884,-8068.244768,2451.505594
2532.666811,2368.659014,-8364.327145,2757.943793
2532.667139,2442.679609,-9918.759623,0.000000
2532.667466,-1184.329507,-11029.068536,-1378.971896
2532.667794,-2368.659014,-10658.965565,-2834.553343
2532.668121,-1924.535449,-11177.109724,-3370.820191
2532.668449,-1406.391290,-10658.965565,-2068.457845
2532.668776,814.226536,-10436.903782,0.000000
2532.669104,3627.009116,-11547.212695,1455.581446
2532.669431,3404.947333,-10807.006753,2374.896044
2532.669759,1258.350101,-9548.656652,1685.410096
2532.670086,-1554.432478,-8956.491898,229.828649
2532.670414,-3997.112087,-7254.018232,-995.924147
2532.670741,-4589.276840,-6957.935855,-766.095498
2532.671069,-2294.638420,-6735.874072,0.000000
2532.671396,518.144159,-8142.265362,1225.752797
2532.671724,3108.864956,-10510.924376,1991.848295
2532.672051,3923.091493,-10807.006753,306.438199
2532.672379,1406.391290,-10584.944971,-766.095498
2532.672706,-740.205942,-11325.150913,-1991.848295
2532.673034,-814.226536,-11177.109724,-3140.991542
2532.673361,-666.185348,-9844.739029,-1991.848295
2532.673689,1258.350101,-9252.574275,0.000000
2532.674016,4293.194464,-10510.924376,1302.362347
2532.674344,5181.441594,-11769.274478,1838.629195
2532.674671,3108.864956,-10214.842000,2145.067394
2532.674999,-296.082377,-9400.615463,-229.828649
2532.675326,-2960.823768,-8808.450710,-1608.800546
2532.675654,-3404.947333,-8142.265362,-1838.629195
2532.675982,-2072.576638,-7846.182985,-919.314598
2532.676309,1036.288319,-8586.388927,1072.533697
2532.676637,3701.029710,-9918.759623,2298.286494
2532.676964,3108.864956,-9622.677246,2221.676944
2532.677292,962.267725,-10362.883188,0.000000
2532.677619,-1702.473667,-10658.965565,-1685.410096
2532.677947,-2442.679609,-10436.903782,-3064.381992
2532.678274,-2812.782580,-9844.739029,-3294.210641
2532.678602,-1258.350101,-9474.636058,-1225.752797
2532.678929,2664.741391,-10140.821405,612.876398
2532.679257,3552.988522,-10807.006753,1915.238745
2532.679584,2294.638420,-10955.047942,2451.505594
2532.679912,-148.041188,-9326.594869,842.705048
2532.680239,-2590.720797,-7994.224174,-919.314598
2532.680567,-3849.070898,-6957.935855,-1225.752797
2532.680894,-3108.864956,-7031.956449,-1149.143247
2532.681222,-592.164754,-8068.244768,1455.581446
2532.681549,2072.576638,-8660.409521,2451.505594
2532.681877,3256.906145,-10140.821405,1762.019645
2532.682204,2146.597232,-10658.965565,0.000000
2532.682532,-592.164754,-11029.068536,-1608.800546
