#time,accel_x,accel_y,accel_z
3238.444817,666.185348,-9992.780217,76.609550
3238.445145,888.247130,-9770.718434,-306.438199
3238.445472,814.226536,-9844.739029,-383.047749
3238.445800,740.205942,-10140.821405,0.000000
3238.446128,518.144159,-9992.780217,0.000000
3238.446455,370.102971,-9992.780217,-383.047749
3238.446783,0.000000,-9770.718434,-612.876398
3238.447110,74.020594,-10066.800811,-689.485948
3238.447438,0.000000,-10732.986159,-1302.362347
3238.447766,0.000000,-10140.821405,-689.485948
3238.448093,0.000000,-10732.986159,-612.876398
3238.448421,518.144159,-10732.986159,-459.657299
3238.448748,518.144159,-10436.903782,-689.485948
3238.449076,518.144159,-10881.027347,-536.266849
3238.449404,666.185348,-9992.780217,76.609550
3238.449731,518.144159,-9918.759623,153.219100
3238.450059,74.020594,-9622.677246,0.000000
3238.450386,74.020594,-9252.574275,-459.657299
3238.450714,0.000000,-9178.553681,-229.828649
3238.451041,0.000000,-9178.553681,-306.438199
3238.451369,0.000000,-9178.553681,-229.828649
3238.451697,222.061783,-9548.656652,153.219100
3238.452024,222.061783,-9696.697840,-842.705048
3238.452352,444.123565,-9474.636058,76.609550
3238.452679,444.123565,-9622.677246,536.266849
3238.453007,444.123565,-9548.656652,306.438199
3238.453335,370.102971,-9252.574275,306.438199
3238.453662,148.041188,-9252.574275,306.438199
3238.453990,222.061783,-9104.533087,383.047749
3238.454317,-296.082377,-8586.388927,383.047749
3238.454645,0.000000,-9104.533087,-612.876398
3238.454972,-296.082377,-8882.471304,-536.266849
3238.455300,222.061783,-9400.615463,-612.876398
3238.455628,444.123565,-9770.718434,-536.266849
3238.455955,740.205942,-10066.800811,-383.047749
3238.456283,962.267725,-9844.739029,-306.438199
3238.456610,1110.308913,-10510.924376,-459.657299
3238.456938,1036.288319,-10066.800811,383.047749
3238.457266,666.185348,-10066.800811,-229.828649
3238.457593,444.123565,-9844.739029,-383.047749
3238.457921,74.020594,-9622.677246,-536.266849
3238.458248,0.000000,-10140.821405,-766.095498
3238.458576,0.000000,-9992.780217,-995.924147
3238.458904,0.000000,-10140.821405,-1225.752797
3238.459231,0.000000,-10510.924376,-1149.143247
3238.459559,370.102971,-10436.903782,-766.095498
3238.459886,444.123565,-10288.862594,-459.657299
3238.460214,592.164754,-10658.965565,0.000000
3238.460541,518.144159,-10140.821405,0.000000
3238.460869,296.082377,-9622.677246,-383.047749
3238.461197,1036.288319,-9178.553681,0.000000
3238.461524,1036.288319,-8808.450710,459.657299
3238.461852,1628.453072,-8586.388927,76.609550
3238.462179,2368.659014,-8290.306550,0.000000
3238.462507,3182.885551,-8364.327145,-306.438199
3238.462835,4293.194464,-8956.491898,0.000000
3238.463162,5329.482782,-9696.697840,229.828649
3238.463490,6513.812290,-9770.718434,536.266849
3238.463817,7179.997637,-9696.697840,306.438199
3238.464145,8068.244768,-9474.636058,536.266849
3238.464472,8364.327145,-9622.677246,306.438199
3238.464800,7550.100608,-9770.718434,1072.533697
3238.465128,7476.080014,-9252.574275,1149.143247
3238.465455,8364.327145,-8734.430116,76.609550
3238.465783,9178.553681,-8364.327145,153.219100
3238.466110,9992.780217,-8882.471304,-306.438199
3238.466438,10510.924376,-8734.430116,0.000000
3238.466766,11103.089130,-9474.636058,0.000000
3238.467093,11695.253884,-10807.006753,0.000000
3238.467421,11103.089130,-10807.006753,-306.438199
3238.467748,11769.274478,-9252.574275,0.000000
3238.468076,12139.377449,-9252.574275,153.219100
3238.468404,13841.851115,-10955.047942,-383.047749
3238.468731,13619.789333,-11251.130318,0.000000
3238.469059,13915.871710,-9844.739029,306.438199
3238.469386,14434.015869,-9326.594869,-229.828649
3238.469714,14285.974681,-9622.677246,0.000000
3238.470041,13693.809927,-9252.574275,153.219100
3238.470369,13841.851115,-9622.677246,229.828649
3238.470697,13545.768739,-11103.089130,229.828649
3238.471024,13693.809927,-11621.233289,383.047749
3238.471352,12361.439231,-10214.842000,612.876398
3238.471679,11769.274478,-9030.512492,842.705048
3238.472007,11029.068536,-8808.450710,689.485948
3238.472335,11843.295072,-9030.512492,0.000000
3238.472662,11029.068536,-9030.512492,306.438199
3238.472990,10732.986159,-9622.677246,612.876398
3238.473317,9844.739029,-9474.636058,689.485948
3238.473645,8364.327145,-8808.450710,229.828649
3238.473972,7550.100608,-8808.450710,0.000000
3238.474300,8734.430116,-8068.244768,-536.266849
3238.474628,10140.821405,-9252.574275,0.000000
3238.474955,11103.089130,-11473.192101,-306.438199
3238.475283,10288.862594,-11029.068536,1762.019645
3238.475610,9104.533087,-9474.636058,1838.629195
3238.475938,8068.244768,-7846.182985,383.047749
3238.476266,7920.203579,-7328.038826,689.485948
3238.476593,8142.265362,-8882.471304,0.000000
3238.476921,8290.306550,-10510.924376,766.095498
3238.477248,7846.182985,-9770.718434,383.047749
3238.477576,7772.162391,-8068.244768,-995.924147
3238.477903,6513.812290,-9400.615463,-229.828649
3238.478231,6217.729913,-11325.150913,306.438199
3238.478559,7105.977043,-10658.965565,-842.705048
3238.478886,8660.409521,-10140.821405,-1991.848295
3238.479214,10140.821405,-9474.636058,-1685.410096
3238.479541,10140.821405,-9252.574275,306.438199
3238.479869,7846.182985,-8364.327145,1991.848295
3238.480197,6513.812290,-7328.038826,2221.676944
3238.480524,8808.450710,-9548.656652,-612.876398
3238.480852,10881.027347,-10955.047942,-2911.162892
3238.481179,10436.903782,-10140.821405,-2145.067394
3238.481507,9474.636058,-10066.800811,-766.095498
3238.481835,9548.656652,-11251.130318,1991.848295
3238.482162,8956.491898,-12139.377449,306.438199
3238.482490,7105.977043,-9548.656652,-995.924147
3238.482817,5921.647536,-8216.285956,-1302.362347
3238.483145,7476.080014,-9696.697840,-766.095498
3238.483472,8586.388927,-9770.718434,76.609550
3238.483800,7402.059420,-9474.636058,1532.190996
3238.484128,6217.729913,-8882.471304,2604.724693
3238.484455,5847.626942,-7550.100608,76.609550
3238.484783,4367.215058,-7698.141797,-1225.752797
3238.485110,4663.297435,-9474.636058,-1225.752797
3238.485438,6883.915261,-8956.491898,-1915.238745
3238.485766,7476.080014,-8438.347739,-536.266849
3238.486093,7328.038826,-10658.965565,1455.581446
3238.486421,7476.080014,-10732.986159,1455.581446
3238.486748,8290.306550,-9400.615463,995.924147
3238.487076,7624.121203,-9104.533087,-306.438199
3238.487403,6661.853478,-10658.965565,-1302.362347
3238.487731,7031.956449,-10140.821405,-842.705048
3238.488059,7402.059420,-10214.842000,1302.362347
3238.488386,6513.812290,-9474.636058,3294.210641
3238.488714,3997.112087,-8956.491898,2068.457845
3238.489041,-222.061783,-11029.068536,1838.629195
3238.489369,-1554.432478,-11029.068536,-306.438199
3238.489697,-444.123565,-8882.471304,-3524.039291
3238.490024,-740.205942,-9474.636058,-3294.210641
3238.490352,-666.185348,-10288.862594,0.000000
3238.490679,666.185348,-9104.533087,1225.752797
3238.491007,0.000000,-9918.759623,2145.067394
3238.491335,-814.226536,-10066.800811,766.095498
3238.491662,-592.164754,-10436.903782,-2374.896044
3238.491990,-2738.761985,-10066.800811,-2834.553343
3238.492317,-2072.576638,-9770.718434,-2221.676944
3238.492645,-1184.329507,-9474.636058,-1072.533697
3238.492972,-1036.288319,-9844.739029,1149.143247
3238.493300,-444.123565,-11251.130318,3064.381992
3238.493628,814.226536,-11473.192101,2604.724693
3238.493955,148.041188,-9474.636058,1149.143247
3238.494283,-1110.308913,-8364.327145,-229.828649
3238.494610,-2294.638420,-7698.141797,-766.095498
3238.494938,-2220.617826,-7179.997637,-153.219100
3238.495266,-1332.370696,-7624.121203,153.219100
3238.495593,-666.185348,-9400.615463,1149.143247
3238.495921,-148.041188,-8586.388927,1378.971896
3238.496248,740.205942,-8956.491898,-1225.752797
3238.496576,0.000000,-10584.944971,-1532.190996
3238.496903,-740.205942,-11769.274478,-383.047749
3238.497231,-1258.350101,-12509.480420,-229.828649
3238.497559,-1184.329507,-10807.006753,-612.876398
3238.497886,-1184.329507,-9104.533087,-1455.581446
3238.498214,-2220.617826,-8068.244768,-383.047749
3238.498541,-2664.741391,-8586.388927,459.657299
3238.498869,-1924.535449,-8438.347739,-536.266849
3238.499197,-1406.391290,-7698.141797,-2068.457845
3238.499524,-814.226536,-8882.471304,-2221.676944
3238.499852,-296.082377,-9400.615463,-1225.752797
3238.500179,888.247130,-9696.697840,0.000000
3238.500507,3627.009116,-11695.253884,-1608.800546
3238.500835,3330.926739,-12879.583391,-995.924147
3238.501162,3775.050304,-12435.459826,0.000000
3238.501490,3997.112087,-11621.233289,0.000000
3238.501817,2220.617826,-12287.418637,1225.752797
3238.502145,1480.411884,-12361.439231,842.705048
3238.502472,0.000000,-9844.739029,-919.314598
3238.502800,-1702.473667,-7698.141797,-1072.533697
3238.503128,-1258.350101,-7772.162391,-2374.896044
3238.503455,-1776.494261,-7920.203579,-1149.143247
3238.503783,-740.205942,-7624.121203,1149.143247
3238.504110,1110.308913,-9474.636058,766.095498
3238.504438,3034.844362,-10881.027347,995.924147
3238.504766,3552.988522,-8364.327145,536.266849
3238.505093,2664.741391,-8882.471304,689.485948
3238.505421,2886.803174,-10955.047942,1225.752797
3238.505748,3997.112087,-12213.398043,153.219100
3238.506076,1850.514855,-11251.130318,536.266849
3238.506403,1776.494261,-10436.903782,919.314598
3238.506731,888.247130,-9992.780217,0.000000
3238.507059,-296.082377,-10288.862594,459.657299
3238.507386,-1110.308913,-8438.347739,76.609550
3238.507714,-1184.329507,-8956.491898,-766.095498
3238.508041,-1332.370696,-7105.977043,0.000000
3238.508369,222.061783,-6069.688724,306.438199
3238.508697,962.267725,-7105.977043,1608.800546
3238.509024,1406.391290,-7772.162391,2451.505594
3238.509352,1998.556043,-9474.636058,229.828649
3238.509680,1036.288319,-11843.295072,-306.438199
3238.510007,1332.370696,-11399.171507,-995.924147
3238.510335,962.267725,-10881.027347,-1838.629195
3238.510663,-1184.329507,-12435.459826,-689.485948
3238.510990,-1554.432478,-12287.418637,-1685.410096
3238.511318,-222.061783,-12213.398043,-2451.505594
3238.511646,-740.205942,-9252.574275,-1072.533697
3238.511973,-1110.308913,-7846.182985,0.000000
3238.512301,-3627.009116,-8142.265362,2298.286494
3238.512629,-2886.803174,-8660.409521,919.314598
3238.512956,-1406.391290,-7179.997637,-1915.238745
3238.513284,-1628.453072,-6809.894666,-2757.943793
3238.513612,-1998.556043,-8734.430116,-1762.019645
3238.513939,-1776.494261,-11399.171507,-612.876398
3238.514267,0.000000,-11843.295072,-383.047749
3238.514595,1776.494261,-13397.727550,-2451.505594
3238.514922,592.164754,-13471.748144,-2757.943793
3238.515250,1184.329507,-11177.109724,-2145.067394
3238.515578,370.102971,-11325.150913,-1149.143247
3238.515905,-2220.617826,-11103.089130,842.705048
3238.516233,-740.205942,-8734.430116,1532.190996
3238.516561,0.000000,-7550.100608,1455.581446
3238.516888,518.144159,-6291.750507,1302.362347
3238.517216,1850.514855,-6365.771101,612.876398
3238.517544,444.123565,-6291.750507,1455.581446
3238.517871,370.102971,-8216.285956,1378.971896
3238.518199,518.144159,-10362.883188,-766.095498
3238.518527,1110.308913,-9696.697840,-306.438199
3238.518854,2960.823768,-9622.677246,0.000000
3238.519182,3627.009116,-12657.521608,1225.752797
3238.519510,3182.885551,-12435.459826,536.266849
3238.519837,1406.391290,-12213.398043,-306.438199
3238.520165,-2442.679609,-12361.439231,-229.828649
3238.520493,-2072.576638,-10362.883188,-1532.190996
3238.520820,-1998.556043,-6439.791695,-1762.019645
3238.521148,-1036.288319,-5995.668130,-766.095498
3238.521476,0.000000,-7846.182985,536.266849
3238.521803,888.247130,-9104.533087,995.924147
3238.522131,2368.659014,-7105.977043,1302.362347
3238.522459,3478.967927,-7994.224174,536.266849
3238.522786,1702.473667,-10436.903782,1532.190996
3238.523114,2590.720797,-11917.315666,1685.410096
3238.523442,3404.947333,-11769.274478,-306.438199
3238.523769,1850.514855,-11695.253884,-689.485948
3238.524097,1628.453072,-12139.377449,-1378.971896
3238.524425,518.144159,-12065.356855,-459.657299
3238.524752,-888.247130,-11103.089130,229.828649
3238.525080,-1036.288319,-10658.965565,-2221.676944
3238.525408,-2368.659014,-9474.636058,-2221.676944
3238.525735,-1110.308913,-7105.977043,-2451.505594
3238.526063,-592.164754,-6587.832884,-1532.190996
3238.526391,-740.205942,-7550.100608,1838.629195
3238.526718,1998.556043,-8142.265362,2834.553343
3238.527046,2072.576638,-9400.615463,2145.067394
3238.527374,1702.473667,-10214.842000,919.314598
3238.527701,2146.597232,-10658.965565,-536.266849
3238.528029,1184.329507,-12065.356855,-1072.533697
3238.528357,0.000000,-11843.295072,-919.314598
3238.528684,-962.267725,-12065.356855,-2145.067394
3238.529012,-2368.659014,-10140.821405,-995.924147
3238.529340,-1850.514855,-8068.244768,-842.705048
3238.529667,-2072.576638,-9622.677246,-842.705048
3238.529995,-1998.556043,-9548.656652,0.000000
3238.530323,-740.205942,-7105.977043,-536.266849
3238.530650,-888.247130,-6439.791695,459.657299
3238.530978,-592.164754,-6513.812290,2068.457845
3238.531306,296.082377,-7772.162391,1608.800546
3238.531633,74.020594,-9474.636058,1532.190996
3238.531961,814.226536,-11177.109724,-229.828649
3238.532289,296.082377,-11325.150913,-1915.238745
3238.532616,0.000000,-10732.986159,-1685.410096
3238.532944,0.000000,-12213.398043,-995.924147
3238.533272,740.205942,-12287.418637,-842.705048
3238.533599,740.205942,-9400.615463,-229.828649
3238.533927,0.000000,-9252.574275,1302.362347
3238.534255,-1628.453072,-10140.821405,1225.752797
3238.534582,-1998.556043,-8364.327145,0.000000
3238.534910,-1776.494261,-7402.059420,-1302.362347
3238.535238,-1554.432478,-7179.997637,-1762.019645
3238.535565,-888.247130,-9918.759623,0.000000
3238.535893,-888.247130,-11325.150913,1455.581446
3238.536221,1332.370696,-9030.512492,536.266849
3238.536548,3034.844362,-9696.697840,-2221.676944
3238.536876,2072.576638,-13323.706956,-1991.848295
3238.537204,2368.659014,-11769.274478,0.000000
3238.537531,2368.659014,-9696.697840,0.000000
3238.537859,222.061783,-10066.800811,842.705048
3238.538186,962.267725,-10807.006753,459.657299
3238.538514,1850.514855,-9474.636058,459.657299
3238.538842,1406.391290,-7772.162391,1302.362347
3238.539169,962.267725,-7920.203579,536.266849
3238.539497,0.000000,-7105.977043,842.705048
3238.539825,0.000000,-7476.080014,-766.095498
3238.540152,518.144159,-8438.347739,-1225.752797
3238.540480,1776.494261,-8956.491898,0.000000
3238.540808,3775.050304,-10066.800811,1225.752797
3238.541135,3923.091493,-12361.439231,2145.067394
3238.541463,2812.782580,-11325.150913,612.876398
3238.541791,888.247130,-10066.800811,-689.485948
3238.542118,-2072.576638,-11843.295072,-612.876398
3238.542446,-2072.576638,-11029.068536,-1915.238745
3238.542774,-2368.659014,-8882.471304,-2068.457845
3238.543101,-1628.453072,-7476.080014,-766.095498
3238.543429,-222.061783,-7846.182985,-689.485948
3238.543757,-222.061783,-9696.697840,-383.047749
3238.544084,-148.041188,-8438.347739,536.266849
3238.544412,2072.576638,-8438.347739,766.095498
3238.544740,962.267725,-9696.697840,1608.800546
3238.545067,1480.411884,-9844.739029,459.657299
3238.545395,1554.432478,-10732.986159,0.000000
3238.545723,444.123565,-11325.150913,0.000000
3238.546050,148.041188,-11991.336260,383.047749
3238.546378,-1480.411884,-12953.603985,306.438199
3238.546706,-1406.391290,-9992.780217,-1915.238745
3238.547033,-1776.494261,-8808.450710,-2911.162892
3238.547361,-1850.514855,-9030.512492,-2374.896044
3238.547689,-1702.473667,-8142.265362,229.828649
3238.548016,-1036.288319,-7402.059420,919.314598
3238.548344,-814.226536,-7031.956449,1378.971896
3238.548672,740.205942,-8216.285956,2145.067394
3238.548999,1554.432478,-9918.759623,1991.848295
3238.549327,666.185348,-10658.965565,1455.581446
3238.549655,740.205942,-11621.233289,612.876398
3238.549982,592.164754,-11473.192101,-1762.019645
3238.550310,-962.267725,-9918.759623,-2451.505594
3238.550638,-1406.391290,-9992.780217,-2528.115143
3238.550965,-1332.370696,-9104.533087,-689.485948
3238.551293,148.041188,-8808.450710,153.219100
3238.551621,370.102971,-9548.656652,0.000000
3238.551948,1258.350101,-9326.594869,766.095498
3238.552276,1258.350101,-7402.059420,919.314598
3238.552604,0.000000,-7994.224174,1225.752797
3238.552931,0.000000,-9844.739029,153.219100
3238.553259,222.061783,-10436.903782,0.000000
3238.553587,666.185348,-9770.718434,-1378.971896
3238.553914,2220.617826,-9770.718434,-1685.410096
3238.554242,1702.473667,-11621.233289,-153.219100
3238.554570,740.205942,-11843.295072,612.876398
3238.554897,592.164754,-11325.150913,-306.438199
3238.555225,888.247130,-10436.903782,-2451.505594
3238.555553,148.041188,-8660.409521,-1991.848295
3238.555880,0.000000,-9326.594869,612.876398
3238.556208,0.000000,-10658.965565,1685.410096
3238.556536,1184.329507,-10584.944971,766.095498
3238.556863,1406.391290,-9178.553681,-842.705048
3238.557191,1480.411884,-8216.285956,-689.485948
3238.557519,592.164754,-8734.430116,919.314598
3238.557846,74.020594,-10066.800811,1532.190996
3238.558174,1110.308913,-9474.636058,76.609550
3238.558502,518.144159,-9030.512492,-2374.896044
3238.558829,-1036.288319,-10584.944971,-1532.190996
3238.559157,814.226536,-9474.636058,-459.657299
3238.559485,1480.411884,-8364.327145,-229.828649
3238.559812,518.144159,-10288.862594,1608.800546
3238.560140,444.123565,-11251.130318,919.314598
3238.560468,1258.350101,-9992.780217,-229.828649
3238.560795,1554.432478,-8142.265362,-383.047749
3238.561123,592.164754,-8438.347739,-383.047749
3238.561451,0.000000,-9696.697840,536.266849
3238.561778,1258.350101,-8216.285956,306.438199
3238.562106,962.267725,-8364.327145,0.000000
3238.562434,962.267725,-8438.347739,1225.752797
3238.562761,1776.494261,-9474.636058,306.438199
3238.563089,1110.308913,-10658.965565,689.485948
3238.563417,0.000000,-11399.171507,-536.266849
3238.563744,-1258.350101,-13027.624579,-2221.676944
3238.564072,-1258.350101,-12287.418637,-1915.238745
3238.564400,1110.308913,-10955.047942,-2451.505594
3238.564727,888.247130,-9770.718434,-1762.019645
3238.565055,-370.102971,-9844.739029,1149.143247
3238.565383,-888.247130,-9844.739029,1455.581446
3238.565710,-1406.391290,-8956.491898,-306.438199
3238.566038,-1776.494261,-6809.894666,-1455.581446
3238.566366,-1924.535449,-7624.121203,-1225.752797
3238.566693,-2812.782580,-9770.718434,0.000000
3238.567021,-2146.597232,-10807.006753,1225.752797
3238.567349,444.123565,-11547.212695,-842.705048
3238.567676,222.061783,-11029.068536,-919.314598
3238.568004,1406.391290,-11029.068536,0.000000
3238.568331,1998.556043,-10584.944971,-306.438199
3238.568659,370.102971,-10510.924376,842.705048
3238.568987,74.020594,-9400.615463,383.047749
3238.569314,-518.144159,-6957.935855,-459.657299
3238.569642,-740.205942,-5625.565159,536.266849
3238.569970,-592.164754,-7105.977043,153.219100
3238.570297,-1406.391290,-9992.780217,1762.019645
3238.570625,-666.185348,-10140.821405,536.266849
3238.570953,222.061783,-9622.677246,-1608.800546
3238.571280,444.123565,-9474.636058,-995.924147
3238.571608,1850.514855,-9770.718434,-229.828649
3238.571936,0.000000,-10214.842000,0.000000
3238.572263,1036.288319,-10881.027347,306.438199
3238.572591,1554.432478,-10807.006753,-383.047749
3238.572919,1850.514855,-9696.697840,-153.219100
3238.573246,1998.556043,-8586.388927,76.609550
3238.573574,1036.288319,-9548.656652,766.095498
3238.573902,74.020594,-10658.965565,766.095498
3238.574229,666.185348,-9770.718434,-1455.581446
3238.574557,444.123565,-9400.615463,-2221.676944
3238.574885,222.061783,-8734.430116,-1608.800546
3238.575212,148.041188,-9030.512492,-995.924147
3238.575540,148.041188,-10288.862594,612.876398
3238.575868,2146.597232,-10436.903782,153.219100
3238.576195,2294.638420,-10658.965565,383.047749
3238.576523,1776.494261,-10362.883188,689.485948
3238.576851,2442.679609,-10066.800811,-689.485948
3238.577178,1776.494261,-10436.903782,-1302.362347
3238.577506,0.000000,-9696.697840,76.609550
3238.577834,-740.205942,-9696.697840,-306.438199
3238.578161,-296.082377,-10807.006753,-1225.752797
3238.578489,740.205942,-10140.821405,-1991.848295
3238.578817,2442.679609,-8364.327145,-1838.629195
3238.579144,1776.494261,-8660.409521,1072.533697
3238.579472,222.061783,-10436.903782,3294.210641
3238.579800,-592.164754,-9030.512492,2528.115143
3238.580127,518.144159,-7402.059420,0.000000
3238.580455,-888.247130,-8586.388927,-1608.800546
3238.580783,-2738.761985,-9252.574275,-1532.190996
3238.581110,-1702.473667,-8882.471304,-919.314598
3238.581438,-888.247130,-9622.677246,-612.876398
3238.581766,-296.082377,-10140.821405,-153.219100
3238.582093,1184.329507,-10288.862594,153.219100
3238.582421,1110.308913,-10807.006753,459.657299
3238.582749,2368.659014,-9770.718434,1072.533697
3238.583076,1480.411884,-9474.636058,306.438199
3238.583404,-1258.350101,-9178.553681,995.924147
3238.583732,-370.102971,-7179.997637,0.000000
3238.584059,370.102971,-8808.450710,-689.485948
3238.584387,0.000000,-9696.697840,1378.971896
3238.584715,1258.350101,-8956.491898,1532.190996
3238.585042,814.226536,-9178.553681,-383.047749
3238.585370,-1184.329507,-10732.986159,-2604.724693
3238.585698,-2664.741391,-11695.253884,-2987.772442
3238.586025,-1554.432478,-10732.986159,-2757.943793
3238.586353,1554.432478,-11325.150913,-1532.190996
3238.586681,2812.782580,-12879.583391,0.000000
3238.587008,2368.659014,-11325.150913,1225.752797
3238.587336,1628.453072,-10140.821405,1378.971896
3238.587664,-222.061783,-9696.697840,76.609550
3238.587991,-3627.009116,-8734.430116,-919.314598
3238.588319,-4515.256246,-7105.977043,-1991.848295
3238.588647,-4145.153275,-7550.100608,-2528.115143
3238.588974,-2220.617826,-8438.347739,-2298.286494
3238.589302,-222.061783,-10214.842000,-1225.752797
3238.589630,296.082377,-10955.047942,1532.190996
3238.589957,2738.761985,-12287.418637,2221.676944
3238.590285,3182.885551,-11251.130318,0.000000
3238.590613,1850.514855,-10362.883188,-383.047749
3238.590940,592.164754,-9326.594869,-919.314598
3238.591268,-518.144159,-8512.368333,0.000000
3238.591596,370.102971,-8142.265362,995.924147
3238.591923,-370.102971,-9696.697840,2068.457845
3238.592251,-814.226536,-9252.574275,2068.457845
3238.592579,370.102971,-7846.182985,229.828649
3238.592906,666.185348,-9992.780217,-1915.238745
3238.593234,148.041188,-9326.594869,-1225.752797
3238.593562,888.247130,-9252.574275,0.000000
3238.593889,1258.350101,-9474.636058,612.876398
3238.594217,2368.659014,-9622.677246,1149.143247
3238.594545,1554.432478,-8586.388927,766.095498
3238.594872,1406.391290,-10066.800811,1302.362347
3238.595200,1554.432478,-11251.130318,459.657299
3238.595528,1184.329507,-11103.089130,-1149.143247
3238.595855,0.000000,-9252.574275,-1225.752797
3238.596183,444.123565,-8956.491898,-1685.410096
3238.596511,148.041188,-9104.533087,-1225.752797
3238.596838,666.185348,-9992.780217,0.000000
3238.597166,0.000000,-9548.656652,0.000000
3238.597494,518.144159,-9770.718434,306.438199
3238.597821,1332.370696,-10140.821405,-153.219100
3238.598149,0.000000,-9696.697840,-306.438199
3238.598477,-592.164754,-10288.862594,383.047749
3238.598804,1110.308913,-11325.150913,-1302.362347
3238.599132,-592.164754,-10436.903782,-1915.238745
3238.599459,-1184.329507,-8734.430116,153.219100
3238.599787,-1628.453072,-9622.677246,-1608.800546
3238.600115,-2368.659014,-9770.718434,-1608.800546
3238.600442,666.185348,-9918.759623,-2145.067394
3238.600770,1110.308913,-10658.965565,-1225.752797
3238.601098,888.247130,-10362.883188,1685.410096
3238.601425,2294.638420,-9622.677246,2451.505594
3238.601753,1776.494261,-9326.594869,1685.410096
3238.602081,0.000000,-9400.615463,1455.581446
3238.602408,-1776.494261,-9252.574275,0.000000
3238.602736,-2738.761985,-7994.224174,-766.095498
3238.603064,-2072.576638,-5847.626942,-2298.286494
3238.603391,-1702.473667,-7254.018232,-1302.362347
3238.603719,-2072.576638,-9474.636058,2298.286494
3238.604047,444.123565,-10362.883188,2298.286494
3238.604374,1480.411884,-9770.718434,-536.266849
3238.604702,1554.432478,-10214.842000,-1225.752797
3238.605030,518.144159,-9770.718434,-1302.362347
3238.605357,0.000000,-10732.986159,0.000000
3238.605685,592.164754,-10807.006753,766.095498
3238.606013,1110.308913,-10362.883188,1072.533697
3238.606340,1776.494261,-8586.388927,689.485948
3238.606668,2146.597232,-7402.059420,0.000000
3238.606996,0.000000,-9326.594869,0.000000
3238.607323,-1184.329507,-11177.109724,0.000000
3238.607651,-1332.370696,-11177.109724,-1608.800546
3238.607979,0.000000,-9992.780217,-2757.943793
3238.608306,2146.597232,-8586.388927,-2145.067394
3238.608634,1036.288319,-10881.027347,766.095498
3238.608962,1258.350101,-13471.748144,3064.381992
3238.609289,2738.761985,-13249.686362,459.657299
3238.609617,1776.494261,-10436.903782,-2987.772442
3238.609945,-444.123565,-8364.327145,-3370.820191
3238.610273,-2812.782580,-8364.327145,-1455.581446
3238.610600,-2738.761985,-8660.409521,153.219100
3238.610928,0.000000,-7994.224174,0.000000
3238.611256,74.020594,-9104.533087,-766.095498
3238.611584,222.061783,-9474.636058,612.876398
3238.611912,1850.514855,-9474.636058,306.438199
3238.612239,1776.494261,-11177.109724,536.266849
3238.612567,814.226536,-11029.068536,383.047749
3238.612895,444.123565,-9770.718434,-1455.581446
3238.613223,74.020594,-8512.368333,-1532.190996
3238.613550,962.267725,-7698.141797,-766.095498
3238.613878,1776.494261,-7698.141797,536.266849
3238.614206,222.061783,-8882.471304,2451.505594
3238.614534,370.102971,-10807.006753,1838.629195
3238.614861,-296.082377,-9030.512492,-459.657299
3238.615189,-444.123565,-7254.018232,-1455.581446
3238.615517,-370.102971,-9400.615463,-1302.362347
3238.615845,0.000000,-10955.047942,-689.485948
3238.616172,-222.061783,-10362.883188,0.000000
3238.616500,370.102971,-10584.944971,-229.828649
3238.616828,1554.432478,-9474.636058,-229.828649
3238.617156,1628.453072,-9844.739029,-766.095498
3238.617484,0.000000,-10066.800811,153.219100
3238.617811,888.247130,-9918.759623,459.657299
3238.618139,222.061783,-8808.450710,-612.876398
3238.618467,-666.185348,-10066.800811,-536.266849
3238.618795,814.226536,-9696.697840,-536.266849
3238.619122,370.102971,-10140.821405,-995.924147
3238.619450,-814.226536,-11325.150913,306.438199
3238.619778,-444.123565,-12213.398043,153.219100
3238.620106,-888.247130,-10510.924376,-1532.190996
3238.620433,-148.041188,-8734.430116,-1838.629195
3238.620761,-518.144159,-8142.265362,-1378.971896
3238.621089,-1332.370696,-8734.430116,612.876398
3238.621417,-1110.308913,-9400.615463,1225.752797
3238.621744,-296.082377,-9326.594869,-383.047749
3238.622072,444.123565,-9030.512492,-2145.067394
3238.622400,1628.453072,-8586.388927,-612.876398
3238.622728,740.205942,-10362.883188,0.000000
3238.623056,666.185348,-12435.459826,2374.896044
3238.623383,2294.638420,-11991.336260,459.657299
3238.623711,2368.659014,-10214.842000,-1302.362347
3238.624039,370.102971,-8216.285956,-153.219100
3238.624367,-518.144159,-8216.285956,0.000000
3238.624694,-1036.288319,-7105.977043,1532.190996
3238.625022,-740.205942,-7550.100608,1762.019645
3238.625350,-518.144159,-8216.285956,919.314598
3238.625678,-370.102971,-7624.121203,689.485948
3238.626005,592.164754,-8882.471304,76.609550
3238.626333,518.144159,-10066.800811,-919.314598
3238.626661,444.123565,-10807.006753,0.000000
3238.626989,370.102971,-10955.047942,-995.924147
3238.627317,1924.535449,-10732.986159,-1838.629195
3238.627644,3108.864956,-11325.150913,-995.924147
3238.627972,2146.597232,-10732.986159,306.438199
3238.628300,2516.700203,-9844.739029,1685.410096
3238.628628,3182.885551,-9178.553681,1072.533697
3238.628955,592.164754,-8586.388927,612.876398
3238.629283,-1702.473667,-9104.533087,459.657299
3238.629611,-1480.411884,-8882.471304,-1838.629195
3238.629939,-518.144159,-8882.471304,-2221.676944
3238.630266,444.123565,-11103.089130,-536.266849
3238.630594,666.185348,-11843.295072,-306.438199
3238.630922,1036.288319,-11251.130318,-383.047749
3238.631250,2886.803174,-12583.501014,-1072.533697
3238.631577,1998.556043,-11251.130318,-1302.362347
3238.631905,148.041188,-9474.636058,0.000000
3238.632233,-1110.308913,-9178.553681,0.000000
3238.632561,-2220.617826,-8956.491898,-153.219100
3238.632889,-2368.659014,-8586.388927,-459.657299
3238.633216,-2294.638420,-8364.327145,0.000000
3238.633544,-592.164754,-9844.739029,306.438199
3238.633872,740.205942,-11103.089130,306.438199
3238.634200,222.061783,-10658.965565,-612.876398
3238.634527,74.020594,-9326.594869,-995.924147
3238.634855,74.020594,-8216.285956,-995.924147
3238.635183,74.020594,-7179.997637,153.219100
3238.635511,592.164754,-7624.121203,2451.505594
3238.635838,888.247130,-8882.471304,2604.724693
3238.636166,1628.453072,-9104.533087,1685.410096
3238.636494,740.205942,-9992.780217,0.000000
3238.636822,-1332.370696,-10140.821405,-536.266849
3238.637149,-2664.741391,-10584.944971,-153.219100
3238.637477,-1850.514855,-10955.047942,-1915.238745
3238.637805,-1776.494261,-9326.594869,-2911.162892
3238.638133,-518.144159,-9178.553681,-2145.067394
3238.638461,444.123565,-10510.924376,0.000000
3238.638788,1110.308913,-9252.574275,1608.800546
3238.639116,2368.659014,-8734.430116,1838.629195
3238.639444,1406.391290,-9548.656652,1378.971896
3238.639772,888.247130,-9474.636058,536.266849
3238.640099,1258.350101,-8882.471304,-1149.143247
3238.640427,-592.164754,-9696.697840,-1685.410096
3238.640755,0.000000,-12139.377449,229.828649
3238.641083,740.205942,-12361.439231,-1532.190996
3238.641410,222.061783,-11473.192101,-1762.019645
3238.641738,-148.041188,-11695.253884,-1838.629195
3238.642066,148.041188,-10807.006753,-1608.800546
3238.642394,1850.514855,-9844.739029,-995.924147
3238.642722,1554.432478,-9400.615463,612.876398
3238.643049,-592.164754,-7550.100608,2451.505594
3238.643377,-370.102971,-6809.894666,2374.896044
3238.643705,296.082377,-8142.265362,459.657299
3238.644033,0.000000,-8882.471304,0.000000
3238.644360,814.226536,-10288.862594,-459.657299
3238.644688,888.247130,-11251.130318,-153.219100
3238.645016,2664.741391,-10732.986159,-689.485948
3238.645344,1702.473667,-10584.944971,-1762.019645
3238.645671,2368.659014,-11325.150913,0.000000
3238.645999,2368.659014,-10362.883188,1149.143247
3238.646327,1702.473667,-9030.512492,689.485948
3238.646655,296.082377,-7254.018232,842.705048
3238.646982,-370.102971,-6365.771101,1225.752797
3238.647310,-1702.473667,-6809.894666,1378.971896
3238.647638,-1998.556043,-8734.430116,1685.410096
3238.647966,-888.247130,-9400.615463,0.000000
3238.648294,-222.061783,-9326.594869,-1455.581446
3238.648621,592.164754,-9474.636058,-2451.505594
3238.648949,1036.288319,-10140.821405,-2451.505594
3238.649277,1480.411884,-11547.212695,-536.266849
3238.649605,2664.741391,-11917.315666,536.266849
3238.649932,2442.679609,-11621.233289,842.705048
3238.650260,2590.720797,-9770.718434,229.828649
3238.650588,2146.597232,-8660.409521,459.657299
3238.650916,-592.164754,-10510.924376,0.000000
3238.651243,-1776.494261,-12361.439231,-383.047749
3238.651571,-2590.720797,-9548.656652,-1762.019645
3238.651899,-1480.411884,-6883.915261,-2604.724693
3238.652227,0.000000,-8956.491898,-1225.752797
3238.652554,0.000000,-10807.006753,153.219100
3238.652882,666.185348,-10066.800811,1378.971896
3238.653210,2294.638420,-11251.130318,0.000000
3238.653538,1406.391290,-10658.965565,-919.314598
3238.653866,222.061783,-8512.368333,-995.924147
3238.654193,-1850.514855,-8882.471304,-612.876398
3238.654521,-2442.679609,-10214.842000,0.000000
3238.654849,-1258.350101,-11029.068536,-766.095498
3238.655177,-1628.453072,-11103.089130,-1378.971896
3238.655504,-1184.329507,-10288.862594,0.000000
3238.655832,148.041188,-9030.512492,-153.219100
3238.656160,296.082377,-9474.636058,-536.266849
3238.656488,-296.082377,-9474.636058,0.000000
3238.656815,296.082377,-7624.121203,0.000000
3238.657143,74.020594,-5403.503377,153.219100
3238.657471,1036.288319,-7994.224174,1838.629195
3238.657799,1184.329507,-9622.677246,2374.896044
3238.658127,592.164754,-9400.615463,1838.629195
3238.658454,1110.308913,-11029.068536,612.876398
3238.658782,-444.123565,-11547.212695,-1532.190996
3238.659110,-518.144159,-9844.739029,-1762.019645
3238.659438,-962.267725,-8882.471304,-2374.896044
3238.659765,-1702.473667,-9918.759623,-1072.533697
3238.660093,518.144159,-10362.883188,-536.266849
3238.660421,1110.308913,-8956.491898,0.000000
3238.660749,1258.350101,-9104.533087,1762.019645
3238.661076,2368.659014,-10140.821405,689.485948
3238.661404,1480.411884,-10362.883188,612.876398
3238.661732,518.144159,-9252.574275,306.438199
3238.662060,222.061783,-10214.842000,-383.047749
3238.662387,222.061783,-10362.883188,-1225.752797
3238.662715,962.267725,-9696.697840,-919.314598
3238.663043,1110.308913,-10362.883188,-995.924147
3238.663371,740.205942,-11325.150913,0.000000
3238.663699,518.144159,-10658.965565,229.828649
3238.664026,962.267725,-9622.677246,-612.876398
3238.664354,666.185348,-10288.862594,-1225.752797
3238.664682,0.000000,-10510.924376,-612.876398
3238.665010,148.041188,-8068.244768,0.000000
3238.665337,-148.041188,-7476.080014,1455.581446
3238.665665,-1702.473667,-9622.677246,306.438199
3238.665993,-1110.308913,-9252.574275,0.000000
3238.666321,148.041188,-8734.430116,-1225.752797
3238.666648,592.164754,-9696.697840,-1838.629195
3238.666976,1628.453072,-11325.150913,0.000000
3238.667304,1184.329507,-10732.986159,1685.410096
3238.667632,1332.370696,-9104.533087,1149.143247
3238.667959,4145.153275,-10066.800811,-689.485948
3238.668287,2368.659014,-10881.027347,-536.266849
3238.668615,-518.144159,-9474.636058,1532.190996
3238.668943,0.000000,-9030.512492,1378.971896
3238.669271,-666.185348,-7550.100608,-306.438199
3238.669598,-2294.638420,-8216.285956,229.828649
3238.669926,-1998.556043,-8290.306550,-229.828649
3238.670254,-1850.514855,-7846.182985,-1149.143247
3238.670582,-444.123565,-8586.388927,-689.485948
3238.670909,444.123565,-9696.697840,-1685.410096
3238.671237,222.061783,-9918.759623,-766.095498
3238.671565,1554.432478,-10955.047942,-383.047749
3238.671893,1998.556043,-11695.253884,-383.047749
3238.672220,962.267725,-11843.295072,919.314598
3238.672548,1184.329507,-11103.089130,1072.533697
3238.672876,1258.350101,-9622.677246,0.000000
3238.673204,296.082377,-9030.512492,-919.314598
3238.673532,-1628.453072,-9844.739029,-1455.581446
3238.673859,-2664.741391,-9548.656652,-229.828649
3238.674187,-962.267725,-9252.574275,-153.219100
3238.674515,-222.061783,-8068.244768,-1455.581446
3238.674843,0.000000,-8734.430116,-995.924147
3238.675170,814.226536,-10436.903782,76.609550
3238.675498,592.164754,-10881.027347,229.828649
3238.675826,1480.411884,-12139.377449,0.000000
3238.676154,222.061783,-10881.027347,-536.266849
3238.676481,-592.164754,-9104.533087,-919.314598
3238.676809,-740.205942,-8438.347739,-689.485948
3238.677137,-962.267725,-9770.718434,-766.095498
3238.677465,-1406.391290,-8660.409521,459.657299
3238.677792,74.020594,-10140.821405,306.438199
3238.678120,0.000000,-9400.615463,-536.266849
3238.678448,518.144159,-9030.512492,-612.876398
3238.678776,-148.041188,-9252.574275,-306.438199
3238.679104,222.061783,-9030.512492,76.609550
3238.679431,444.123565,-9326.594869,689.485948
3238.679759,888.247130,-9030.512492,383.047749
3238.680087,814.226536,-8808.450710,1455.581446
3238.680415,1702.473667,-10288.862594,1149.143247
3238.680742,1554.432478,-9548.656652,842.705048
3238.681070,962.267725,-10214.842000,689.485948
3238.681398,814.226536,-10214.842000,-229.828649
3238.681726,-444.123565,-9622.677246,-1225.752797
3238.682053,-592.164754,-9252.574275,-1225.752797
3238.682381,296.082377,-9252.574275,-1991.848295
3238.682709,0.000000,-10288.862594,-306.438199
3238.683037,888.247130,-11769.274478,306.438199
3238.683364,1184.329507,-9474.636058,0.000000
3238.683692,1702.473667,-9326.594869,-536.266849
3238.684020,1036.288319,-9326.594869,-1072.533697
3238.684348,74.020594,-9474.636058,306.438199
3238.684676,370.102971,-9622.677246,689.485948
3238.685003,296.082377,-9844.739029,76.609550
3238.685331,518.144159,-9992.780217,0.000000
3238.685659,1406.391290,-10214.842000,-1225.752797
3238.685987,0.000000,-11103.089130,-153.219100
3238.686314,-666.185348,-12065.356855,612.876398
3238.686642,962.267725,-11251.130318,-1532.190996
3238.686970,444.123565,-8660.409521,-919.314598
3238.687298,-1110.308913,-7031.956449,536.266849
3238.687625,-1998.556043,-7105.977043,612.876398
3238.687953,-1480.411884,-8660.409521,842.705048
3238.688281,-74.020594,-9400.615463,229.828649
3238.688609,666.185348,-8512.368333,-459.657299
3238.688937,1554.432478,-9252.574275,153.219100
3238.689264,1036.288319,-11325.150913,1685.410096
3238.689592,740.205942,-10955.047942,1225.752797
3238.689920,1554.432478,-11769.274478,-383.047749
3238.690248,814.226536,-11177.109724,-2068.457845
3238.690575,-148.041188,-8586.388927,-1378.971896
3238.690903,-296.082377,-7994.224174,-612.876398
3238.691231,-814.226536,-8586.388927,1608.800546
3238.691559,-814.226536,-8808.450710,2681.334243
3238.691886,74.020594,-8512.368333,995.924147
3238.692214,-444.123565,-7550.100608,-459.657299
3238.692542,-370.102971,-9030.512492,-612.876398
3238.692870,-518.144159,-9770.718434,-1225.752797
3238.693197,-740.205942,-10214.842000,-1225.752797
3238.693525,888.247130,-11399.171507,-1532.190996
3238.693853,1628.453072,-11769.274478,-1302.362347
3238.694181,1998.556043,-11399.171507,0.000000
3238.694509,2368.659014,-11177.109724,536.266849
3238.694836,2146.597232,-10732.986159,766.095498
3238.695164,1406.391290,-10510.924376,0.000000
3238.695492,-296.082377,-9548.656652,-842.705048
3238.695820,-1480.411884,-7698.141797,0.000000
3238.696147,-518.144159,-7624.121203,229.828649
3238.696475,-666.185348,-8882.471304,-229.828649
3238.696803,0.000000,-10658.965565,459.657299
3238.697131,962.267725,-11251.130318,-536.266849
3238.697458,1628.453072,-10955.047942,-1302.362347
3238.697786,1184.329507,-9844.739029,-1225.752797
3238.698114,1036.288319,-9770.718434,-1225.752797
3238.698442,0.000000,-8586.388927,-689.485948
3238.698769,0.000000,-9474.636058,536.266849
3238.699097,296.082377,-9844.739029,612.876398
3238.699425,962.267725,-9252.574275,995.924147
3238.699753,666.185348,-9696.697840,1378.971896
3238.700081,148.041188,-9548.656652,536.266849
3238.700408,-666.185348,-10658.965565,76.609550
3238.700736,-962.267725,-9252.574275,-2298.286494
3238.701064,-740.205942,-7624.121203,-2757.943793
3238.701392,666.185348,-7698.141797,-1455.581446
3238.701719,296.082377,-8660.409521,842.705048
3238.702047,1480.411884,-9548.656652,3524.039291
3238.702375,2368.659014,-10807.006753,3064.381992
3238.702703,1332.370696,-11251.130318,1455.581446
3238.703030,666.185348,-9030.512492,-919.314598
3238.703358,-296.082377,-9326.594869,-1991.848295
3238.703686,-1258.350101,-10362.883188,-1455.581446
3238.704014,-518.144159,-11325.150913,-766.095498
3238.704342,-740.205942,-9770.718434,-1608.800546
3238.704669,74.020594,-9622.677246,-1378.971896
3238.704997,1036.288319,-9992.780217,-1378.971896
3238.705325,1332.370696,-10362.883188,-229.828649
3238.705653,1258.350101,-10066.800811,612.876398
3238.705980,1036.288319,-9622.677246,306.438199
3238.706308,74.020594,-9252.574275,383.047749
3238.706636,592.164754,-9326.594869,229.828649
3238.706964,0.000000,-9770.718434,459.657299
3238.707291,-592.164754,-9844.739029,1149.143247
3238.707619,962.267725,-11695.253884,-1378.971896
3238.707947,148.041188,-11177.109724,-2451.505594
3238.708275,-148.041188,-9326.594869,-1915.238745
3238.708602,0.000000,-8734.430116,-1455.581446
3238.708930,0.000000,-9696.697840,612.876398
3238.709258,222.061783,-8290.306550,1991.848295
3238.709586,2220.617826,-7105.977043,842.705048
3238.709914,888.247130,-7254.018232,1685.410096
3238.710241,-666.185348,-8660.409521,2757.943793
3238.710569,-1406.391290,-9770.718434,1072.533697
3238.710897,-1110.308913,-11251.130318,-1149.143247
3238.711225,-518.144159,-10881.027347,-3907.087040
3238.711552,814.226536,-10288.862594,-4060.306139
3238.711880,888.247130,-11325.150913,76.609550
3238.712208,2368.659014,-10955.047942,1072.533697
3238.712536,3775.050304,-10214.842000,612.876398
3238.712864,2960.823768,-9844.739029,689.485948
3238.713192,-444.123565,-8586.388927,1302.362347
3238.713519,-1258.350101,-7550.100608,842.705048
3238.713847,-1406.391290,-7328.038826,0.000000
3238.714175,-2368.659014,-7254.018232,-612.876398
3238.714503,-1036.288319,-8808.450710,0.000000
3238.714831,0.000000,-9844.739029,-383.047749
3238.715159,1554.432478,-10955.047942,-1532.190996
3238.715486,2812.782580,-11769.274478,-2221.676944
3238.715814,1628.453072,-11325.150913,-2145.067394
3238.716142,1110.308913,-10066.800811,-229.828649
3238.716470,2442.679609,-10436.903782,-153.219100
3238.716798,1406.391290,-9844.739029,1225.752797
3238.717126,1406.391290,-11029.068536,2604.724693
3238.717453,2146.597232,-10362.883188,1838.629195
3238.717781,1776.494261,-8882.471304,536.266849
3238.718109,0.000000,-8068.244768,-995.924147
3238.718437,-3034.844362,-8734.430116,-995.924147
3238.718765,-3701.029710,-8290.306550,-1532.190996
3238.719093,-1480.411884,-7920.203579,-2451.505594
3238.719420,296.082377,-8586.388927,-1532.190996
3238.719748,2072.576638,-10510.924376,766.095498
3238.720076,2072.576638,-12361.439231,2451.505594
3238.720404,2072.576638,-11769.274478,1838.629195
3238.720732,2072.576638,-10214.842000,-306.438199
3238.721059,-222.061783,-9770.718434,-1532.190996
3238.721387,-1850.514855,-9326.594869,-229.828649
3238.721715,-2146.597232,-8882.471304,-1455.581446
3238.722043,-1258.350101,-8956.491898,-1762.019645
3238.722371,-814.226536,-9178.553681,-1149.143247
3238.722699,-1258.350101,-9474.636058,0.000000
3238.723026,592.164754,-9474.636058,306.438199
3238.723354,1850.514855,-9400.615463,-1991.848295
3238.723682,0.000000,-9548.656652,-766.095498
3238.724010,0.000000,-8660.409521,153.219100
3238.724338,1628.453072,-9252.574275,76.609550
3238.724666,1628.453072,-9992.780217,1378.971896
3238.724993,962.267725,-10881.027347,2451.505594
3238.725321,740.205942,-11769.274478,689.485948
3238.725649,0.000000,-11843.295072,-995.924147
3238.725977,-370.102971,-11103.089130,-3907.087040
3238.726305,-1702.473667,-8882.471304,-3294.210641
3238.726633,-962.267725,-7920.203579,-1838.629195
3238.726960,0.000000,-8364.327145,-306.438199
3238.727288,-148.041188,-9400.615463,1685.410096
3238.727616,888.247130,-8808.450710,1685.410096
3238.727944,1480.411884,-8438.347739,1072.533697
3238.728272,1036.288319,-9622.677246,383.047749
3238.728600,0.000000,-12213.398043,153.219100
3238.728927,-296.082377,-12213.398043,-306.438199
3238.729255,0.000000,-9770.718434,-1378.971896
3238.729583,592.164754,-9622.677246,-2451.505594
3238.729911,370.102971,-10066.800811,-1149.143247
3238.730239,814.226536,-10362.883188,459.657299
3238.730567,370.102971,-9474.636058,689.485948
3238.730894,-222.061783,-9252.574275,383.047749
3238.731222,148.041188,-8808.450710,306.438199
3238.731550,666.185348,-7846.182985,153.219100
3238.731878,-444.123565,-7994.224174,2068.457845
3238.732206,-962.267725,-9770.718434,2145.067394
3238.732533,-888.247130,-10510.924376,-1072.533697
3238.732861,-444.123565,-9770.718434,-2451.505594
3238.733189,0.000000,-7772.162391,-2987.772442
3238.733517,1332.370696,-8660.409521,-766.095498
3238.733845,2886.803174,-12361.439231,1762.019645
3238.734173,1998.556043,-12879.583391,2068.457845
3238.734500,2886.803174,-10510.924376,229.828649
3238.734828,2072.576638,-9474.636058,-1762.019645
3238.735156,-888.247130,-9104.533087,153.219100
3238.735484,-1554.432478,-8956.491898,1302.362347
3238.735812,-1628.453072,-8882.471304,76.609550
3238.736140,-1850.514855,-7920.203579,-612.876398
3238.736467,0.000000,-7402.059420,-1072.533697
3238.736795,370.102971,-7994.224174,-229.828649
3238.737123,1036.288319,-10658.965565,1915.238745
3238.737451,2220.617826,-11695.253884,536.266849
3238.737779,1184.329507,-10140.821405,-1532.190996
3238.738107,1036.288319,-9770.718434,-1608.800546
3238.738434,1332.370696,-10140.821405,-995.924147
3238.738762,1258.350101,-11251.130318,1149.143247
3238.739090,1184.329507,-13249.686362,2528.115143
3238.739418,1406.391290,-12065.356855,0.000000
3238.739746,962.267725,-9178.553681,-1149.143247
3238.740074,148.041188,-7179.997637,-2298.286494
3238.740401,-2220.617826,-7254.018232,-1149.143247
3238.740729,-3701.029710,-7920.203579,459.657299
3238.741057,-1554.432478,-8438.347739,-229.828649
3238.741385,740.205942,-8068.244768,-383.047749
3238.741713,2146.597232,-9770.718434,1532.190996
3238.742040,1702.473667,-11769.274478,2221.676944
3238.742368,2220.617826,-13101.645173,1302.362347
3238.742696,1850.514855,-12879.583391,-689.485948
3238.743024,0.000000,-10584.944971,-2757.943793
3238.743352,-2072.576638,-9030.512492,-2374.896044
3238.743680,-1850.514855,-6661.853478,-1685.410096
3238.744007,-1480.411884,-6883.915261,0.000000
3238.744335,296.082377,-10140.821405,1991.848295
3238.744663,0.000000,-9770.718434,1532.190996
3238.744991,592.164754,-7698.141797,153.219100
3238.745319,888.247130,-8956.491898,-1225.752797
3238.745647,-740.205942,-10288.862594,-612.876398
3238.745974,-222.061783,-9622.677246,-536.266849
3238.746302,592.164754,-8956.491898,-383.047749
3238.746630,148.041188,-10658.965565,383.047749
3238.746958,1184.329507,-10955.047942,842.705048
3238.747286,1258.350101,-10288.862594,842.705048
3238.747614,1332.370696,-11695.253884,153.219100
3238.747941,296.082377,-12213.398043,-842.705048
3238.748269,-888.247130,-8734.430116,-2604.724693
3238.748597,-1258.350101,-7105.977043,-2145.067394
3238.748925,-888.247130,-7920.203579,-689.485948
3238.749253,0.000000,-9844.739029,766.095498
3238.749581,592.164754,-10881.027347,2298.286494
3238.749908,1332.370696,-9770.718434,459.657299
3238.750236,1554.432478,-8956.491898,-995.924147
3238.750564,666.185348,-9770.718434,-1685.410096
3238.750892,-222.061783,-9992.780217,-612.876398
3238.751220,74.020594,-9844.739029,1072.533697
3238.751547,1110.308913,-9326.594869,-766.095498
3238.751875,740.205942,-9548.656652,-689.485948
3238.752203,1184.329507,-10288.862594,229.828649
3238.752531,0.000000,-9474.636058,76.609550
3238.752859,-592.164754,-9992.780217,1149.143247
3238.753187,370.102971,-10362.883188,-689.485948
3238.753514,-1258.350101,-8512.368333,-1608.800546
3238.753842,0.000000,-7698.141797,-1302.362347
3238.754170,888.247130,-8216.285956,-306.438199
3238.754498,0.000000,-9030.512492,2068.457845
3238.754826,148.041188,-9622.677246,2604.724693
3238.755154,-148.041188,-8956.491898,0.000000
3238.755481,370.102971,-9474.636058,-1915.238745
3238.755809,2590.720797,-11251.130318,-2451.505594
3238.756137,1406.391290,-12361.439231,-612.876398
3238.756465,1258.350101,-12361.439231,1378.971896
3238.756793,2220.617826,-10881.027347,-536.266849
3238.757121,592.164754,-10214.842000,-1149.143247
3238.757448,-592.164754,-9400.615463,-766.095498
3238.757776,-1332.370696,-8956.491898,-919.314598
3238.758104,-1332.370696,-7846.182985,0.000000
3238.758432,-518.144159,-7105.977043,-153.219100
3238.758760,-296.082377,-7624.121203,536.266849
3238.759088,814.226536,-9326.594869,1685.410096
3238.759415,1628.453072,-10955.047942,1225.752797
3238.759743,1554.432478,-10807.006753,0.000000
3238.760071,740.205942,-10955.047942,-1149.143247
3238.760399,0.000000,-10807.006753,-995.924147
3238.760727,592.164754,-10584.944971,-1302.362347
3238.761055,666.185348,-11399.171507,-153.219100
3238.761382,444.123565,-9918.759623,842.705048
3238.761710,1998.556043,-9104.533087,1762.019645
3238.762038,1776.494261,-8290.306550,1532.190996
3238.762366,-222.061783,-6217.729913,689.485948
3238.762694,-2220.617826,-6883.915261,153.219100
3238.763021,-2294.638420,-9326.594869,-919.314598
3238.763349,-1628.453072,-9178.553681,-1225.752797
3238.763677,1036.288319,-11325.150913,-689.485948
3238.764005,2220.617826,-12435.459826,-306.438199
3238.764333,3034.844362,-13027.624579,689.485948
3238.764661,2294.638420,-11843.295072,-536.266849
3238.764988,518.144159,-10362.883188,-766.095498
3238.765316,-518.144159,-10214.842000,306.438199
3238.765644,-1258.350101,-7179.997637,-766.095498
3238.765972,-1406.391290,-7031.956449,-229.828649
3238.766300,-296.082377,-9326.594869,459.657299
3238.766628,-296.082377,-8882.471304,383.047749
3238.766955,444.123565,-9326.594869,2298.286494
3238.767283,1036.288319,-10658.965565,689.485948
3238.767611,592.164754,-10510.924376,-2145.067394
3238.767939,0.000000,-9400.615463,-2604.724693
3238.768267,-592.164754,-8068.244768,-2451.505594
3238.768595,-666.185348,-8956.491898,0.000000
3238.768922,1554.432478,-10288.862594,1685.410096
3238.769250,1184.329507,-9548.656652,3140.991542
3238.769578,444.123565,-11325.150913,1685.410096
3238.769906,444.123565,-11547.212695,0.000000
3238.770234,-740.205942,-9474.636058,-2528.115143
3238.770562,-592.164754,-8882.471304,-1991.848295
3238.770889,-1258.350101,-9252.574275,-1838.629195
3238.771217,-888.247130,-9030.512492,-612.876398
3238.771545,0.000000,-8068.244768,383.047749
3238.771873,1258.350101,-7920.203579,153.219100
3238.772201,1628.453072,-9770.718434,1915.238745
3238.772528,962.267725,-10288.862594,1378.971896
3238.772856,518.144159,-10140.821405,383.047749
3238.773184,1110.308913,-11399.171507,-766.095498
3238.773512,962.267725,-11251.130318,-1532.190996
3238.773840,370.102971,-9770.718434,0.000000
3238.774168,592.164754,-10288.862594,0.000000
3238.774495,148.041188,-11547.212695,-1455.581446
3238.774823,1110.308913,-11177.109724,-1915.238745
3238.775151,0.000000,-8956.491898,-766.095498
3238.775479,-814.226536,-7624.121203,-306.438199
3238.775807,74.020594,-8290.306550,689.485948
3238.776135,296.082377,-8660.409521,1072.533697
3238.776462,-740.205942,-8216.285956,1991.848295
3238.776790,0.000000,-7402.059420,689.485948
3238.777118,-148.041188,-9474.636058,-612.876398
3238.777446,0.000000,-11029.068536,-1225.752797
3238.777774,1702.473667,-12435.459826,-1608.800546
3238.778102,1628.453072,-11695.253884,-1302.362347
3238.778429,1332.370696,-10436.903782,0.000000
3238.778757,2294.638420,-10140.821405,459.657299
3238.779085,592.164754,-9326.594869,0.000000
3238.779413,-370.102971,-9548.656652,306.438199
3238.779741,-962.267725,-8956.491898,-229.828649
3238.780069,-1110.308913,-7254.018232,-612.876398
3238.780396,-592.164754,-6883.915261,0.000000
3238.780724,-888.247130,-7328.038826,919.314598
3238.781052,0.000000,-9992.780217,1762.019645
3238.781380,2220.617826,-12065.356855,306.438199
3238.781708,2738.761985,-11843.295072,-1532.190996
3238.782035,1702.473667,-10288.862594,-1532.190996
3238.782363,296.082377,-9104.533087,-995.924147
3238.782691,888.247130,-10214.842000,0.000000
3238.783019,1480.411884,-11473.192101,383.047749
3238.783347,814.226536,-10510.924376,919.314598
3238.783675,962.267725,-8142.265362,1302.362347
3238.784002,1776.494261,-8068.244768,919.314598
3238.784330,888.247130,-7772.162391,612.876398
3238.784658,-592.164754,-9178.553681,306.438199
3238.784986,-2812.782580,-9474.636058,-1302.362347
3238.785314,-1332.370696,-7402.059420,-2911.162892
3238.785642,888.247130,-8808.450710,-2298.286494
3238.785969,1036.288319,-11251.130318,689.485948
3238.786297,2368.659014,-11103.089130,2987.772442
3238.786625,2886.803174,-11325.150913,995.924147
3238.786953,1332.370696,-12361.439231,-1225.752797
3238.787281,0.000000,-11029.068536,-1915.238745
3238.787609,-1924.535449,-7476.080014,-1302.362347
3238.787936,-2738.761985,-7328.038826,0.000000
3238.788264,-666.185348,-10807.006753,-612.876398
3238.788592,-222.061783,-10584.944971,-766.095498
3238.788920,296.082377,-9770.718434,306.438199
3238.789248,740.205942,-10510.924376,919.314598
3238.789576,666.185348,-9474.636058,-229.828649
3238.789903,-518.144159,-9992.780217,-766.095498
3238.790231,-1998.556043,-9326.594869,-919.314598
3238.790559,-1998.556043,-6957.935855,-612.876398
3238.790887,222.061783,-9030.512492,153.219100
3238.791215,-370.102971,-11251.130318,1915.238745
3238.791543,-592.164754,-13101.645173,2451.505594
3238.791870,74.020594,-11695.253884,-536.266849
3238.792198,-962.267725,-9844.739029,-3524.039291
3238.792526,-370.102971,-9548.656652,-2451.505594
3238.792854,-1184.329507,-7105.977043,-1225.752797
3238.793182,-1406.391290,-7179.997637,306.438199
3238.793509,0.000000,-8290.306550,1991.848295
3238.793837,592.164754,-7920.203579,1455.581446
3238.794165,666.185348,-8734.430116,1838.629195
3238.794493,518.144159,-9696.697840,1608.800546
3238.794821,74.020594,-10807.006753,0.000000
3238.795149,1036.288319,-11917.315666,-1225.752797
3238.795476,296.082377,-12065.356855,-1608.800546
3238.795804,296.082377,-9400.615463,-1532.190996
3238.796132,666.185348,-9326.594869,-612.876398
3238.796460,444.123565,-9844.739029,76.609550
3238.796788,1110.308913,-9770.718434,383.047749
3238.797116,74.020594,-9400.615463,0.000000
3238.797443,-1110.308913,-7624.121203,153.219100
3238.797771,-592.164754,-8142.265362,229.828649
3238.798099,-222.061783,-9400.615463,-229.828649
3238.798427,0.000000,-10436.903782,689.485948
3238.798755,740.205942,-10955.047942,0.000000
3238.799083,1998.556043,-10362.883188,-1608.800546
3238.799410,2664.741391,-10436.903782,76.609550
3238.799738,1554.432478,-9770.718434,536.266849
3238.800066,666.185348,-9770.718434,229.828649
3238.800394,222.061783,-10436.903782,-383.047749
3238.800722,-444.123565,-10214.842000,-1532.190996
3238.801050,444.123565,-9326.594869,-2221.676944
3238.801377,296.082377,-9918.759623,306.438199
3238.801705,0.000000,-9770.718434,612.876398
3238.802033,814.226536,-8364.327145,306.438199
3238.802361,1702.473667,-9918.759623,-1685.410096
3238.802689,592.164754,-9992.780217,-842.705048
3238.803016,1332.370696,-9030.512492,-689.485948
3238.803344,740.205942,-7698.141797,76.609550
3238.803672,740.205942,-7476.080014,1149.143247
3238.804000,1480.411884,-9696.697840,0.000000
3238.804328,1332.370696,-10288.862594,842.705048
3238.804656,814.226536,-11029.068536,1225.752797
3238.804983,1702.473667,-11251.130318,0.000000
3238.805311,296.082377,-9548.656652,-1072.533697
3238.805639,-592.164754,-10140.821405,-689.485948
3238.805967,-222.061783,-9622.677246,-1455.581446
3238.806295,296.082377,-8512.368333,-536.266849
3238.806623,444.123565,-9326.594869,459.657299
3238.806950,1406.391290,-8586.388927,1225.752797
3238.807278,3330.926739,-7846.182985,459.657299
3238.807606,2368.659014,-9474.636058,766.095498
3238.807934,-814.226536,-11621.233289,689.485948
3238.808262,-740.205942,-10955.047942,-612.876398
3238.808590,0.000000,-9326.594869,-2451.505594
3238.808917,-1184.329507,-9992.780217,-2145.067394
3238.809245,-592.164754,-12731.542202,0.000000
3238.809573,0.000000,-10955.047942,0.000000
3238.809901,962.267725,-9622.677246,-995.924147
3238.810229,518.144159,-10732.986159,-1378.971896
3238.810557,-592.164754,-8068.244768,0.000000
3238.810884,-1184.329507,-6439.791695,536.266849
3238.811212,-962.267725,-8216.285956,536.266849
3238.811540,-666.185348,-9030.512492,0.000000
3238.811868,222.061783,-9622.677246,229.828649
3238.812196,-518.144159,-10436.903782,995.924147
3238.812523,0.000000,-11621.233289,383.047749
3238.812851,370.102971,-12435.459826,-1302.362347
3238.813179,-1332.370696,-11177.109724,-1455.581446
3238.813507,-1924.535449,-9400.615463,-1762.019645
3238.813834,-1850.514855,-7179.997637,-2298.286494
3238.814162,-740.205942,-7179.997637,-229.828649
3238.814490,444.123565,-8882.471304,2757.943793
3238.814818,740.205942,-9770.718434,1838.629195
3238.815145,814.226536,-9474.636058,995.924147
3238.815473,370.102971,-9548.656652,-1532.190996
3238.815801,-444.123565,-8512.368333,-1532.190996
3238.816128,-1332.370696,-9844.739029,-612.876398
3238.816456,-1258.350101,-10807.006753,-229.828649
3238.816784,444.123565,-9992.780217,-306.438199
3238.817112,2072.576638,-10881.027347,0.000000
3238.817439,1628.453072,-10288.862594,0.000000
3238.817767,1776.494261,-9770.718434,842.705048
3238.818095,666.185348,-9400.615463,919.314598
3238.818422,-962.267725,-9104.533087,153.219100
3238.818750,-148.041188,-8586.388927,-766.095498
3238.819078,-296.082377,-8660.409521,-1072.533697
3238.819406,-740.205942,-8364.327145,153.219100
3238.819733,444.123565,-10066.800811,612.876398
3238.820061,296.082377,-11251.130318,-766.095498
3238.820389,740.205942,-11251.130318,-995.924147
3238.820717,2072.576638,-9770.718434,-2604.724693
3238.821044,1480.411884,-8660.409521,-1838.629195
3238.821372,1702.473667,-10288.862594,1378.971896
3238.821700,888.247130,-10881.027347,1838.629195
3238.822027,296.082377,-9918.759623,536.266849
3238.822355,444.123565,-8956.491898,-1378.971896
3238.822683,814.226536,-9030.512492,-1302.362347
3238.823011,370.102971,-10584.944971,153.219100
3238.823338,0.000000,-12583.501014,1608.800546
3238.823666,0.000000,-10288.862594,-995.924147
3238.823994,888.247130,-8956.491898,-2834.553343
3238.824321,-148.041188,-9622.677246,-1762.019645
3238.824649,0.000000,-7920.203579,-612.876398
3238.824977,1110.308913,-7994.224174,1378.971896
3238.825305,1850.514855,-9474.636058,689.485948
3238.825632,1776.494261,-9548.656652,1225.752797
3238.825960,2220.617826,-10140.821405,1685.410096
3238.826288,1110.308913,-10807.006753,1532.190996
3238.826615,222.061783,-10881.027347,689.485948
3238.826943,148.041188,-11325.150913,-2451.505594
3238.827271,-666.185348,-8290.306550,-2681.334243
3238.827599,-296.082377,-7994.224174,-1302.362347
3238.827926,0.000000,-7920.203579,0.000000
3238.828254,-518.144159,-7698.141797,2068.457845
3238.828582,888.247130,-9918.759623,2451.505594
3238.828910,1332.370696,-8364.327145,766.095498
3238.829237,148.041188,-8882.471304,0.000000
3238.829565,-1258.350101,-10362.883188,229.828649
3238.829893,-296.082377,-10362.883188,-1455.581446
3238.830220,518.144159,-10881.027347,-766.095498
3238.830548,592.164754,-11621.233289,-689.485948
3238.830876,-592.164754,-11177.109724,536.266849
3238.831204,-296.082377,-10584.944971,612.876398
3238.831531,0.000000,-8438.347739,-1915.238745
3238.831859,-444.123565,-9400.615463,-1532.190996
3238.832187,-1480.411884,-9474.636058,-1149.143247
3238.832514,-1924.535449,-7550.100608,-306.438199
3238.832842,0.000000,-8364.327145,0.000000
3238.833170,518.144159,-9770.718434,-306.438199
3238.833498,296.082377,-11621.233289,1072.533697
3238.833825,518.144159,-12583.501014,766.095498
3238.834153,592.164754,-11103.089130,-1225.752797
3238.834481,1036.288319,-10955.047942,-2145.067394
3238.834808,-518.144159,-9622.677246,-1838.629195
3238.835136,-1332.370696,-7994.224174,-919.314598
3238.835464,-222.061783,-9326.594869,459.657299
3238.835792,222.061783,-9474.636058,766.095498
3238.836119,-444.123565,-8290.306550,536.266849
3238.836447,592.164754,-9252.574275,76.609550
3238.836775,148.041188,-10066.800811,76.609550
3238.837103,296.082377,-9548.656652,306.438199
3238.837430,1036.288319,-9474.636058,-612.876398
3238.837758,0.000000,-9252.574275,-1149.143247
3238.838086,148.041188,-9474.636058,-995.924147
3238.838413,962.267725,-8734.430116,-459.657299
3238.838741,1110.308913,-8882.471304,-306.438199
3238.839069,1702.473667,-11325.150913,383.047749
3238.839397,2072.576638,-11103.089130,153.219100
3238.839724,1110.308913,-9622.677246,536.266849
3238.840052,74.020594,-9474.636058,229.828649
3238.840380,444.123565,-9178.553681,-612.876398
3238.840707,74.020594,-9474.636058,0.000000
3238.841035,0.000000,-9844.739029,-153.219100
3238.841363,74.020594,-8364.327145,-612.876398
3238.841691,296.082377,-9770.718434,-919.314598
3238.842018,592.164754,-9104.533087,-919.314598
3238.842346,814.226536,-9030.512492,-383.047749
3238.842674,888.247130,-9992.780217,842.705048
3238.843001,518.144159,-9474.636058,612.876398
3238.843329,1332.370696,-9918.759623,-383.047749
3238.843657,592.164754,-11621.233289,-1378.971896
3238.843985,296.082377,-11769.274478,-689.485948
3238.844312,2146.597232,-10881.027347,-766.095498
3238.844640,1406.391290,-10140.821405,-766.095498
3238.844968,-296.082377,-10362.883188,995.924147
3238.845296,-148.041188,-9622.677246,766.095498
3238.845623,444.123565,-8660.409521,-612.876398
3238.845951,-370.102971,-8660.409521,-919.314598
3238.846279,-1332.370696,-8438.347739,-689.485948
3238.846606,-1480.411884,-7105.977043,0.000000
3238.846934,-296.082377,-7920.203579,0.000000
3238.847262,888.247130,-9252.574275,-612.876398
3238.847590,1406.391290,-10510.924376,459.657299
3238.847917,1702.473667,-12287.418637,1685.410096
3238.848245,1776.494261,-12287.418637,383.047749
3238.848573,740.205942,-11029.068536,-689.485948
3238.848900,222.061783,-9104.533087,-1532.190996
3238.849228,-518.144159,-7624.121203,-842.705048
3238.849556,0.000000,-8512.368333,766.095498
3238.849884,-222.061783,-7624.121203,1608.800546
3238.850211,518.144159,-8142.265362,1838.629195
3238.850539,592.164754,-8586.388927,612.876398
3238.850867,-296.082377,-9548.656652,-383.047749
3238.851194,-1258.350101,-10436.903782,-689.485948
3238.851522,0.000000,-11473.192101,-1838.629195
3238.851850,518.144159,-10510.924376,-2451.505594
3238.852178,1628.453072,-11251.130318,-306.438199
3238.852505,1184.329507,-11103.089130,1608.800546
3238.852833,1628.453072,-10214.842000,1072.533697
3238.853161,962.267725,-10510.924376,842.705048
3238.853489,-592.164754,-9326.594869,-1072.533697
3238.853816,-2368.659014,-8956.491898,-1072.533697
3238.854144,-2738.761985,-7550.100608,-842.705048
3238.854472,0.000000,-7402.059420,-1762.019645
3238.854799,518.144159,-11325.150913,0.000000
3238.855127,-148.041188,-13693.809927,1302.362347
3238.855455,592.164754,-10214.842000,153.219100
3238.855783,1998.556043,-9474.636058,-1608.800546
3238.856110,814.226536,-9474.636058,-1762.019645
3238.856438,0.000000,-9622.677246,0.000000
3238.856766,370.102971,-9474.636058,1225.752797
3238.857093,370.102971,-8512.368333,229.828649
3238.857421,0.000000,-10955.047942,76.609550
3238.857749,-666.185348,-10066.800811,229.828649
3238.858077,148.041188,-9548.656652,-153.219100
3238.858404,0.000000,-11251.130318,-689.485948
3238.858732,444.123565,-10288.862594,-1838.629195
3238.859060,296.082377,-8808.450710,-689.485948
3238.859388,1110.308913,-7920.203579,-459.657299
3238.859715,814.226536,-7105.977043,1378.971896
3238.860043,666.185348,-9400.615463,2834.553343
3238.860371,592.164754,-10066.800811,1302.362347
3238.860698,444.123565,-9844.739029,-766.095498
3238.861026,888.247130,-9548.656652,-1685.410096
3238.861354,962.267725,-9622.677246,-1302.362347
3238.861682,814.226536,-11843.295072,229.828649
3238.862009,888.247130,-11917.315666,0.000000
3238.862337,148.041188,-9992.780217,-1378.971896
3238.862665,444.123565,-9696.697840,-1378.971896
3238.862992,222.061783,-8142.265362,-1149.143247
3238.863320,74.020594,-7994.224174,842.705048
3238.863648,0.000000,-9104.533087,1915.238745
3238.863976,148.041188,-9030.512492,919.314598
3238.864303,962.267725,-9770.718434,0.000000
3238.864631,962.267725,-8660.409521,-536.266849
3238.864959,-148.041188,-8364.327145,153.219100
3238.865286,-370.102971,-11769.274478,536.266849
3238.865614,0.000000,-13249.686362,-1762.019645
3238.865942,222.061783,-11399.171507,-2451.505594
3238.866270,1998.556043,-9400.615463,-2451.505594
3238.866597,1110.308913,-9104.533087,0.000000
3238.866925,1110.308913,-10955.047942,2374.896044
3238.867253,888.247130,-10362.883188,1685.410096
3238.867581,444.123565,-9326.594869,0.000000
3238.867908,-1258.350101,-8660.409521,536.266849
3238.868236,-1776.494261,-6143.709319,-459.657299
3238.868564,-962.267725,-6661.853478,-1149.143247
3238.868891,-1702.473667,-10436.903782,383.047749
3238.869219,-1184.329507,-10955.047942,0.000000
3238.869547,1110.308913,-10732.986159,-689.485948
3238.869875,2590.720797,-11251.130318,-1302.362347
3238.870202,2516.700203,-10510.924376,-229.828649
3238.870530,1406.391290,-10807.006753,1838.629195
3238.870858,888.247130,-9474.636058,1225.752797
3238.871185,370.102971,-7698.141797,0.000000
3238.871513,0.000000,-8882.471304,306.438199
3238.871841,-666.185348,-8290.306550,1302.362347
3238.872169,0.000000,-8512.368333,1838.629195
3238.872496,1406.391290,-10066.800811,0.000000
3238.872824,-370.102971,-10436.903782,-1838.629195
3238.873152,-1480.411884,-10658.965565,-2451.505594
3238.873479,-740.205942,-7920.203579,-2834.553343
3238.873807,1184.329507,-8660.409521,-1991.848295
3238.874135,2146.597232,-11991.336260,1072.533697
3238.874463,1628.453072,-12213.398043,2604.724693
3238.874790,2294.638420,-10066.800811,2451.505594
3238.875118,2368.659014,-9770.718434,1072.533697
3238.875446,148.041188,-10066.800811,-229.828649
3238.875774,-2368.659014,-9474.636058,-612.876398
3238.876101,-3034.844362,-9474.636058,-2374.896044
3238.876429,-1184.329507,-8216.285956,-4366.744339
3238.876757,0.000000,-9770.718434,-2681.334243
3238.877084,666.185348,-10807.006753,76.609550
3238.877412,1554.432478,-10066.800811,2757.943793
3238.877740,2368.659014,-10288.862594,2298.286494
3238.878068,1332.370696,-9992.780217,229.828649
3238.878395,-296.082377,-8660.409521,0.000000
3238.878723,-370.102971,-7698.141797,-306.438199
3238.879051,-296.082377,-8956.491898,153.219100
3238.879378,-296.082377,-12213.398043,2068.457845
3238.879706,74.020594,-10362.883188,0.000000
3238.880034,148.041188,-9474.636058,-2451.505594
3238.880362,222.061783,-10955.047942,-1915.238745
3238.880689,0.000000,-9474.636058,-1685.410096
3238.881017,-518.144159,-7328.038826,0.000000
3238.881345,518.144159,-8364.327145,766.095498
3238.881672,666.185348,-8512.368333,1455.581446
3238.882000,74.020594,-8438.347739,2374.896044
3238.882328,740.205942,-8586.388927,2374.896044
3238.882656,518.144159,-8734.430116,-306.438199
3238.882983,0.000000,-12213.398043,-1149.143247
3238.883311,-148.041188,-12139.377449,-1838.629195
3238.883639,296.082377,-9770.718434,-1991.848295
3238.883967,888.247130,-9474.636058,-2221.676944
3238.884294,1628.453072,-11029.068536,-995.924147
3238.884622,592.164754,-10881.027347,919.314598
3238.884950,0.000000,-8068.244768,229.828649
3238.885277,0.000000,-7698.141797,459.657299
3238.885605,0.000000,-9696.697840,536.266849
3238.885933,0.000000,-9178.553681,459.657299
3238.886261,-296.082377,-9474.636058,766.095498
3238.886588,592.164754,-11029.068536,0.000000
3238.886916,148.041188,-9474.636058,-2221.676944
3238.887244,74.020594,-10214.842000,-1762.019645
3238.887571,-1406.391290,-10066.800811,-1532.190996
3238.887899,-296.082377,-9474.636058,-1685.410096
3238.888227,1258.350101,-10214.842000,-1072.533697
3238.888555,1924.535449,-10732.986159,459.657299
3238.888882,1036.288319,-10584.944971,3217.601092
3238.889210,1924.535449,-9918.759623,2757.943793
3238.889538,1332.370696,-8142.265362,612.876398
3238.889866,-296.082377,-9622.677246,0.000000
3238.890193,-1110.308913,-8586.388927,-1915.238745
3238.890521,-1628.453072,-7772.162391,-2221.676944
3238.890849,-888.247130,-7772.162391,-1762.019645
3238.891176,296.082377,-8364.327145,-1455.581446
3238.891504,370.102971,-9400.615463,-229.828649
3238.891832,1110.308913,-11547.212695,1608.800546
3238.892160,2442.679609,-10436.903782,689.485948
3238.892487,1628.453072,-10658.965565,766.095498
3238.892815,814.226536,-10214.842000,459.657299
3238.893143,1258.350101,-9178.553681,383.047749
3238.893470,666.185348,-9252.574275,-383.047749
3238.893798,0.000000,-8956.491898,0.000000
3238.894126,888.247130,-9178.553681,0.000000
3238.894454,592.164754,-8586.388927,-612.876398
3238.894781,0.000000,-8216.285956,-919.314598
3238.895109,-1036.288319,-10140.821405,-459.657299
3238.895437,-1332.370696,-9770.718434,-459.657299
3238.895764,518.144159,-9548.656652,-1072.533697
3238.896092,1406.391290,-11029.068536,-306.438199
3238.896420,1406.391290,-11029.068536,1072.533697
3238.896748,2590.720797,-12139.377449,1762.019645
3238.897075,2294.638420,-11843.295072,766.095498
3238.897403,888.247130,-10584.944971,-919.314598
3238.897731,-1628.453072,-9844.739029,-1225.752797
3238.898059,-2368.659014,-8956.491898,-1915.238745
3238.898386,-1628.453072,-6883.915261,-2834.553343
3238.898714,-518.144159,-7920.203579,-1532.190996
3238.899042,-740.205942,-9992.780217,1302.362347
3238.899369,1258.350101,-11103.089130,2145.067394
3238.899697,2294.638420,-10955.047942,1455.581446
3238.900025,1332.370696,-9844.739029,842.705048
3238.900353,740.205942,-9770.718434,76.609550
3238.900680,-296.082377,-10288.862594,0.000000
3238.901008,-444.123565,-9252.574275,-1225.752797
3238.901336,-1036.288319,-9400.615463,-995.924147
3238.901663,-148.041188,-9326.594869,-306.438199
3238.901991,518.144159,-9104.533087,-383.047749
3238.902319,666.185348,-10510.924376,-842.705048
3238.902647,-592.164754,-10066.800811,0.000000
3238.902974,-592.164754,-7920.203579,-229.828649
3238.903302,0.000000,-7328.038826,0.000000
3238.903630,740.205942,-8734.430116,612.876398
3238.903957,-222.061783,-10807.006753,1838.629195
3238.904285,-370.102971,-10807.006753,1378.971896
3238.904613,1110.308913,-10214.842000,-1302.362347
3238.904941,888.247130,-9622.677246,-2681.334243
3238.905268,370.102971,-9104.533087,-1991.848295
3238.905596,444.123565,-9326.594869,-995.924147
3238.905924,370.102971,-10140.821405,459.657299
3238.906252,1258.350101,-10288.862594,0.000000
3238.906579,592.164754,-10436.903782,306.438199
3238.906907,-370.102971,-9622.677246,919.314598
3238.907235,0.000000,-9030.512492,689.485948
3238.907562,222.061783,-10214.842000,-1072.533697
3238.907890,0.000000,-9918.759623,-1838.629195
3238.908218,1480.411884,-9770.718434,-1685.410096
3238.908546,1110.308913,-8586.388927,-689.485948
3238.908873,518.144159,-8364.327145,1072.533697
3238.909201,-592.164754,-10288.862594,766.095498
3238.909529,-888.247130,-10362.883188,-1149.143247
3238.909856,444.123565,-8882.471304,-2757.943793
3238.910184,1258.350101,-9770.718434,-919.314598
3238.910512,888.247130,-11621.233289,1991.848295
3238.910840,1998.556043,-12879.583391,2987.772442
3238.911167,2812.782580,-11251.130318,383.047749
3238.911495,1554.432478,-8586.388927,-1608.800546
3238.911822,-666.185348,-7846.182985,-1225.752797
3238.912150,-1850.514855,-5847.626942,-229.828649
3238.912478,-592.164754,-6735.874072,153.219100
3238.912805,-1406.391290,-8660.409521,1072.533697
3238.913133,-888.247130,-8512.368333,842.705048
3238.913461,666.185348,-9992.780217,766.095498
3238.913788,2294.638420,-11769.274478,76.609550
3238.914116,1554.432478,-11843.295072,-919.314598
3238.914443,1628.453072,-11251.130318,-766.095498
3238.914771,2294.638420,-10732.986159,-1608.800546
3238.915099,1258.350101,-9400.615463,-536.266849
3238.915426,0.000000,-8956.491898,689.485948
3238.915754,296.082377,-8660.409521,1378.971896
3238.916081,1184.329507,-8512.368333,612.876398
3238.916409,592.164754,-8438.347739,-689.485948
3238.916737,-1554.432478,-8956.491898,-842.705048
3238.917064,-2220.617826,-8956.491898,-1762.019645
3238.917392,-814.226536,-8956.491898,-1762.019645
3238.917720,888.247130,-10584.944971,-766.095498
3238.918047,1258.350101,-12805.562797,612.876398
3238.918375,1850.514855,-13027.624579,995.924147
3238.918702,2516.700203,-12509.480420,-229.828649
3238.919030,2146.597232,-10881.027347,-2374.896044
3238.919358,0.000000,-8734.430116,-1455.581446
3238.919685,-1406.391290,-8512.368333,-306.438199
3238.920013,-2294.638420,-7846.182985,-919.314598
3238.920340,-2072.576638,-7402.059420,-1225.752797
3238.920668,-1924.535449,-9104.533087,-383.047749
3238.920996,-1036.288319,-9918.759623,919.314598
3238.921323,962.267725,-11251.130318,1225.752797
3238.921651,2146.597232,-11769.274478,0.000000
3238.921979,740.205942,-10140.821405,-1149.143247
3238.922306,370.102971,-9104.533087,-1608.800546
3238.922634,814.226536,-7772.162391,-1838.629195
3238.922961,518.144159,-8438.347739,689.485948
3238.923289,148.041188,-9252.574275,2068.457845
3238.923617,-296.082377,-8660.409521,2604.724693
3238.923944,518.144159,-9474.636058,153.219100
3238.924272,0.000000,-10214.842000,-689.485948
3238.924600,-518.144159,-8882.471304,-306.438199
3238.924927,0.000000,-9474.636058,-306.438199
3238.925255,-962.267725,-9770.718434,-306.438199
3238.925582,-148.041188,-9030.512492,-919.314598
3238.925910,518.144159,-9918.759623,-229.828649
3238.926238,1036.288319,-9326.594869,842.705048
3238.926565,1702.473667,-9400.615463,919.314598
3238.926893,740.205942,-10807.006753,919.314598
3238.927220,370.102971,-9696.697840,153.219100
3238.927548,296.082377,-9326.594869,-612.876398
3238.927876,-444.123565,-9918.759623,-383.047749
3238.928203,-296.082377,-9400.615463,-1302.362347
3238.928531,370.102971,-11029.068536,-689.485948
3238.928859,666.185348,-11547.212695,-1225.752797
3238.929186,444.123565,-11325.150913,-612.876398
3238.929514,888.247130,-10362.883188,-459.657299
3238.929841,1776.494261,-7550.100608,-995.924147
3238.930169,222.061783,-8068.244768,1225.752797
3238.930497,-888.247130,-9030.512492,2451.505594
3238.930824,-740.205942,-9622.677246,-229.828649
3238.931152,-962.267725,-10658.965565,-1915.238745
3238.931479,0.000000,-9474.636058,-3294.210641
3238.931807,666.185348,-9770.718434,-1685.410096
3238.932135,1480.411884,-12657.521608,1225.752797
3238.932462,2368.659014,-13101.645173,1455.581446
3238.932790,1924.535449,-11399.171507,0.000000
3238.933118,518.144159,-8808.450710,-919.314598
3238.933445,1036.288319,-6587.832884,-1608.800546
3238.933773,-1036.288319,-6217.729913,919.314598
3238.934100,-962.267725,-5995.668130,2068.457845
3238.934428,-740.205942,-6883.915261,1378.971896
3238.934756,-888.247130,-10288.862594,1532.190996
3238.935083,1110.308913,-10436.903782,459.657299
3238.935411,1998.556043,-10584.944971,-612.876398
3238.935738,74.020594,-10658.965565,-689.485948
3238.936066,0.000000,-10955.047942,-2374.896044
3238.936394,0.000000,-10510.924376,-3140.991542
3238.936721,592.164754,-8956.491898,-2145.067394
3238.937049,2368.659014,-8882.471304,229.828649
3238.937377,2294.638420,-9770.718434,4136.915689
3238.937704,2368.659014,-9326.594869,4290.134789
3238.938032,1036.288319,-9622.677246,1608.800546
3238.938359,-1998.556043,-8882.471304,-689.485948
3238.938687,-2664.741391,-8290.306550,-2987.772442
3238.939015,-1184.329507,-9770.718434,-3524.039291
3238.939342,296.082377,-10066.800811,-1378.971896
3238.939670,1776.494261,-11843.295072,-612.876398
3238.939998,1332.370696,-13989.892304,1072.533697
3238.940325,3330.926739,-11843.295072,0.000000
3238.940653,2886.803174,-10214.842000,-459.657299
3238.940980,592.164754,-9400.615463,919.314598
3238.941308,-1406.391290,-7179.997637,766.095498
3238.941636,-1924.535449,-7846.182985,-306.438199
3238.941963,-1480.411884,-9252.574275,-612.876398
3238.942291,-666.185348,-9474.636058,-1455.581446
3238.942618,-1110.308913,-11177.109724,1378.971896
3238.942946,444.123565,-11621.233289,689.485948
3238.943274,962.267725,-10658.965565,-1838.629195
3238.943601,0.000000,-9844.739029,-2604.724693
3238.943929,0.000000,-7846.182985,-2145.067394
3238.944257,296.082377,-8586.388927,766.095498
3238.944584,592.164754,-8142.265362,2374.896044
3238.944912,518.144159,-9918.759623,3294.210641
3238.945239,0.000000,-10436.903782,2528.115143
3238.945567,740.205942,-8660.409521,0.000000
3238.945895,888.247130,-9696.697840,-1915.238745
3238.946222,-888.247130,-10584.944971,-1302.362347
3238.946550,-592.164754,-9104.533087,-1302.362347
3238.946877,-962.267725,-8512.368333,-1302.362347
3238.947205,-1110.308913,-8882.471304,-1302.362347
3238.947533,518.144159,-9844.739029,-383.047749
3238.947860,888.247130,-10362.883188,1302.362347
3238.948188,1110.308913,-10066.800811,2298.286494
3238.948516,2220.617826,-11029.068536,1302.362347
3238.948843,1480.411884,-9844.739029,383.047749
3238.949171,222.061783,-9252.574275,-383.047749
3238.949498,-1036.288319,-10140.821405,0.000000
3238.949826,-740.205942,-10584.944971,-1302.362347
3238.950154,74.020594,-10288.862594,-2757.943793
3238.950481,-740.205942,-10955.047942,-1608.800546
3238.950809,296.082377,-9474.636058,-383.047749
3238.951136,1628.453072,-9104.533087,76.609550
3238.951464,888.247130,-9548.656652,1149.143247
3238.951792,518.144159,-7994.224174,1149.143247
3238.952119,0.000000,-8512.368333,1072.533697
3238.952447,0.000000,-9474.636058,0.000000
3238.952775,0.000000,-9918.759623,-919.314598
3238.953102,518.144159,-11029.068536,-1838.629195
3238.953430,1480.411884,-10584.944971,-612.876398
3238.953757,1850.514855,-12731.542202,-229.828649
3238.954085,1628.453072,-11399.171507,0.000000
3238.954413,1332.370696,-8512.368333,-612.876398
3238.954740,296.082377,-8142.265362,-766.095498
3238.955068,74.020594,-8956.491898,-689.485948
3238.955396,0.000000,-7550.100608,995.924147
3238.955723,370.102971,-7994.224174,2145.067394
3238.956051,740.205942,-7624.121203,1762.019645
3238.956378,1184.329507,-8586.388927,1838.629195
3238.956706,1184.329507,-11843.295072,2068.457845
3238.957034,1332.370696,-11029.068536,0.000000
3238.957361,1110.308913,-10214.842000,-2068.457845
3238.957689,-666.185348,-9030.512492,-2681.334243
3238.958016,-592.164754,-7994.224174,-2528.115143
3238.958344,-740.205942,-9474.636058,-153.219100
3238.958672,-370.102971,-9474.636058,842.705048
3238.958999,1036.288319,-10214.842000,1455.581446
3238.959327,1406.391290,-11325.150913,2145.067394
3238.959655,2146.597232,-9474.636058,76.609550
3238.959982,-962.267725,-8956.491898,76.609550
3238.960310,-2220.617826,-10436.903782,-1302.362347
3238.960637,-1184.329507,-9474.636058,-3370.820191
3238.960965,296.082377,-9030.512492,-2911.162892
3238.961293,962.267725,-9178.553681,-229.828649
3238.961620,1776.494261,-11399.171507,1762.019645
3238.961948,1998.556043,-13101.645173,2528.115143
3238.962275,1258.350101,-9474.636058,1225.752797
3238.962603,-740.205942,-9178.553681,-536.266849
3238.962931,-1480.411884,-9622.677246,-1532.190996
3238.963258,-1332.370696,-8660.409521,-1455.581446
3238.963586,-814.226536,-11177.109724,-306.438199
3238.963914,370.102971,-10066.800811,-612.876398
3238.964241,1924.535449,-10214.842000,-612.876398
3238.964569,444.123565,-10436.903782,842.705048
3238.964896,-740.205942,-8364.327145,383.047749
3238.965224,-1480.411884,-8068.244768,-1838.629195
3238.965552,-888.247130,-8808.450710,-1302.362347
3238.965879,-1184.329507,-7846.182985,-612.876398
3238.966207,-666.185348,-9844.739029,766.095498
3238.966535,296.082377,-10362.883188,2451.505594
3238.966862,2442.679609,-11399.171507,1838.629195
3238.967190,962.267725,-11843.295072,0.000000
3238.967517,740.205942,-9474.636058,-1685.410096
3238.967845,0.000000,-8142.265362,-2681.334243
3238.968173,-296.082377,-8586.388927,-1225.752797
3238.968500,370.102971,-7698.141797,0.000000
3238.968828,-222.061783,-8586.388927,1072.533697
3238.969155,0.000000,-8512.368333,1532.190996
3238.969483,518.144159,-8956.491898,0.000000
3238.969811,-592.164754,-10362.883188,-229.828649
3238.970138,444.123565,-10288.862594,-383.047749
3238.970466,888.247130,-10955.047942,-995.924147
3238.970794,518.144159,-11547.212695,-536.266849
3238.971121,370.102971,-10732.986159,-842.705048
3238.971449,1036.288319,-11695.253884,-1378.971896
3238.971776,592.164754,-9252.574275,-1532.190996
3238.972104,1184.329507,-9030.512492,-1225.752797
3238.972432,74.020594,-9400.615463,229.828649
3238.972759,-370.102971,-8438.347739,766.095498
3238.973087,-444.123565,-8808.450710,1455.581446
3238.973414,1110.308913,-9548.656652,459.657299
3238.973742,1776.494261,-8882.471304,-459.657299
3238.974070,0.000000,-9992.780217,1685.410096
3238.974397,-1110.308913,-10658.965565,229.828649
3238.974725,-888.247130,-11325.150913,-1838.629195
3238.975053,0.000000,-10214.842000,-3064.381992
3238.975380,592.164754,-8956.491898,-2298.286494
3238.975708,518.144159,-10214.842000,612.876398
3238.976035,1036.288319,-10807.006753,2145.067394
3238.976363,2072.576638,-9474.636058,1225.752797
3238.976691,-370.102971,-9104.533087,306.438199
3238.977018,-814.226536,-7920.203579,-1149.143247
3238.977346,-444.123565,-7698.141797,-842.705048
3238.977673,-666.185348,-9400.615463,229.828649
3238.978001,0.000000,-9548.656652,-229.828649
3238.978329,1258.350101,-9252.574275,-459.657299
3238.978656,1258.350101,-9844.739029,1149.143247
3238.978984,2368.659014,-9252.574275,1302.362347
3238.979312,2368.659014,-9770.718434,689.485948
3238.979639,0.000000,-9474.636058,306.438199
3238.979967,-1184.329507,-9622.677246,0.000000
3238.980294,-1554.432478,-9474.636058,-1072.533697
3238.980622,-518.144159,-9104.533087,-995.924147
3238.980950,222.061783,-10362.883188,0.000000
3238.981277,1258.350101,-11547.212695,995.924147
3238.981605,2368.659014,-11251.130318,383.047749
3238.981933,1406.391290,-9770.718434,-919.314598
3238.982260,-222.061783,-8660.409521,-1302.362347
3238.982588,-962.267725,-7698.141797,-2221.676944
3238.982915,-296.082377,-9178.553681,-1149.143247
3238.983243,518.144159,-9918.759623,536.266849
3238.983571,2072.576638,-10807.006753,1302.362347
3238.983898,1110.308913,-11399.171507,1455.581446
3238.984226,1998.556043,-10955.047942,919.314598
3238.984553,814.226536,-11177.109724,-229.828649
3238.984881,-962.267725,-10807.006753,-919.314598
3238.985209,-1332.370696,-8586.388927,-2604.724693
3238.985536,-518.144159,-8734.430116,-2681.334243
3238.985864,0.000000,-9548.656652,-306.438199
3238.986192,1924.535449,-10066.800811,1455.581446
3238.986519,1850.514855,-10140.821405,2451.505594
3238.986847,1702.473667,-8734.430116,919.314598
3238.987174,-518.144159,-9252.574275,-1072.533697
3238.987502,-2072.576638,-8512.368333,-1378.971896
3238.987830,-1776.494261,-8216.285956,-766.095498
3238.988157,-1554.432478,-9178.553681,-842.705048
3238.988485,-740.205942,-10214.842000,0.000000
3238.988812,666.185348,-11103.089130,995.924147
3238.989140,888.247130,-11769.274478,1072.533697
3238.989468,2072.576638,-10436.903782,-612.876398
3238.989795,1406.391290,-8512.368333,-1838.629195
3238.990123,148.041188,-7772.162391,-612.876398
3238.990451,1184.329507,-7994.224174,-459.657299
3238.990778,148.041188,-8808.450710,1225.752797
3238.991106,-814.226536,-8364.327145,2145.067394
3238.991433,296.082377,-9622.677246,766.095498
3238.991761,0.000000,-12065.356855,-612.876398
3238.992089,148.041188,-11103.089130,-1991.848295
3238.992416,-592.164754,-10362.883188,-2451.505594
3238.992744,0.000000,-10140.821405,-1915.238745
3238.993071,1184.329507,-9918.759623,-1072.533697
3238.993399,444.123565,-11473.192101,612.876398
3238.993727,0.000000,-8586.388927,1762.019645
3238.994054,74.020594,-7920.203579,842.705048
3238.994382,222.061783,-9474.636058,0.000000
3238.994710,-296.082377,-9548.656652,-612.876398
3238.995037,-1480.411884,-9918.759623,-153.219100
3238.995365,-148.041188,-9918.759623,-612.876398
3238.995692,1776.494261,-11029.068536,-1915.238745
3238.996020,592.164754,-11473.192101,-689.485948
3238.996348,1332.370696,-9104.533087,-153.219100
3238.996675,2516.700203,-8142.265362,153.219100
3238.997003,1184.329507,-9252.574275,1302.362347
3238.997331,-296.082377,-9770.718434,2068.457845
3238.997658,-296.082377,-10362.883188,766.095498
3238.997986,-740.205942,-9104.533087,-612.876398
3238.998313,74.020594,-9252.574275,-2068.457845
3238.998641,-666.185348,-11843.295072,-1072.533697
3238.998969,666.185348,-10955.047942,-459.657299
3238.999296,1628.453072,-8956.491898,-1378.971896
3238.999624,814.226536,-8882.471304,-1149.143247
3238.999951,1776.494261,-8956.491898,-842.705048
3239.000279,1184.329507,-10362.883188,229.828649
3239.000607,592.164754,-8216.285956,1225.752797
3239.000934,444.123565,-6809.894666,919.314598
3239.001262,296.082377,-8956.491898,1302.362347
3239.001590,444.123565,-9844.739029,1302.362347
3239.001917,74.020594,-11177.109724,1608.800546
3239.002245,0.000000,-11473.192101,0.000000
3239.002572,148.041188,-9548.656652,-2145.067394
3239.002900,-814.226536,-9696.697840,-2681.334243
3239.003228,-1702.473667,-9252.574275,-1762.019645
3239.003555,-148.041188,-9104.533087,-689.485948
3239.003883,370.102971,-9918.759623,1149.143247
3239.004210,1406.391290,-10140.821405,1149.143247
3239.004538,1924.535449,-9474.636058,919.314598
3239.004866,2294.638420,-8364.327145,-383.047749
3239.005193,222.061783,-7846.182985,-383.047749
3239.005521,-2072.576638,-11325.150913,76.609550
3239.005849,-2368.659014,-11251.130318,-1149.143247
3239.006176,-814.226536,-9474.636058,-1915.238745
3239.006504,296.082377,-10140.821405,-612.876398
3239.006831,1184.329507,-12065.356855,306.438199
3239.007159,2072.576638,-12509.480420,842.705048
3239.007487,1702.473667,-10140.821405,536.266849
3239.007814,962.267725,-7624.121203,-612.876398
3239.008142,518.144159,-8364.327145,-383.047749
3239.008469,0.000000,-8660.409521,919.314598
3239.008797,-444.123565,-8364.327145,536.266849
3239.009125,-740.205942,-10288.862594,536.266849
3239.009452,0.000000,-12361.439231,-459.657299
3239.009780,0.000000,-11695.253884,-766.095498
3239.010108,-888.247130,-9992.780217,-1378.971896
3239.010435,-666.185348,-8068.244768,-1608.800546
3239.010763,-148.041188,-7476.080014,-1915.238745
3239.011090,-1036.288319,-7772.162391,306.438199
3239.011418,0.000000,-8512.368333,766.095498
3239.011746,814.226536,-9474.636058,2451.505594
3239.012073,1332.370696,-8734.430116,2221.676944
3239.012401,222.061783,-9696.697840,919.314598
3239.012729,-814.226536,-11843.295072,-612.876398
3239.013056,592.164754,-10362.883188,-3064.381992
3239.013384,1036.288319,-9252.574275,-2068.457845
3239.013711,518.144159,-9326.594869,-689.485948
3239.014039,1036.288319,-9770.718434,536.266849
3239.014367,888.247130,-10436.903782,689.485948
3239.014694,518.144159,-10214.842000,536.266849
3239.015022,962.267725,-9474.636058,0.000000
3239.015349,518.144159,-9918.759623,153.219100
3239.015677,888.247130,-9030.512492,0.000000
3239.016005,814.226536,-8438.347739,-459.657299
3239.016332,-148.041188,-10436.903782,-306.438199
3239.016660,666.185348,-11473.192101,-995.924147
3239.016988,222.061783,-10362.883188,-766.095498
3239.017315,296.082377,-7994.224174,-1072.533697
3239.017643,1776.494261,-9400.615463,-1532.190996
3239.017970,518.144159,-11251.130318,1072.533697
3239.018298,1480.411884,-9696.697840,612.876398
3239.018626,2072.576638,-8586.388927,0.000000
3239.018953,1332.370696,-10288.862594,766.095498
3239.019281,0.000000,-9844.739029,995.924147
3239.019608,-1110.308913,-10584.944971,459.657299
3239.019936,-370.102971,-9992.780217,-1608.800546
3239.020264,0.000000,-8956.491898,-3217.601092
3239.020591,-666.185348,-11251.130318,0.000000
3239.020919,296.082377,-10288.862594,1685.410096
3239.021247,1480.411884,-8364.327145,306.438199
3239.021574,1036.288319,-8660.409521,-536.266849
3239.021902,666.185348,-9178.553681,-1302.362347
3239.022229,0.000000,-10510.924376,-383.047749
3239.022557,1332.370696,-8734.430116,842.705048
3239.022885,1998.556043,-7105.977043,0.000000
3239.023212,-666.185348,-9844.739029,2068.457845
3239.023540,74.020594,-10584.944971,1532.190996
3239.023867,-148.041188,-11769.274478,689.485948
3239.024195,-814.226536,-10288.862594,-612.876398
3239.024523,-740.205942,-7550.100608,-2604.724693
3239.024850,-1924.535449,-8290.306550,-1225.752797
3239.025178,-1258.350101,-8512.368333,0.000000
3239.025506,0.000000,-9252.574275,459.657299
3239.025833,296.082377,-10436.903782,1762.019645
3239.026161,1850.514855,-10436.903782,1378.971896
3239.026488,3182.885551,-10510.924376,536.266849
3239.026816,1628.453072,-9622.677246,-153.219100
3239.027144,74.020594,-10658.965565,-459.657299
3239.027471,-2146.597232,-11251.130318,-459.657299
3239.027799,-666.185348,-9400.615463,-2528.115143
3239.028126,814.226536,-8068.244768,-2451.505594
3239.028454,444.123565,-10881.027347,1072.533697
3239.028782,814.226536,-11473.192101,3064.381992
3239.029109,1258.350101,-10584.944971,612.876398
3239.029437,592.164754,-8660.409521,-766.095498
3239.029765,-296.082377,-7105.977043,-2374.896044
3239.030092,-1110.308913,-8290.306550,-689.485948
3239.030420,-370.102971,-11251.130318,76.609550
3239.030747,1702.473667,-11843.295072,-1225.752797
3239.031075,1480.411884,-11251.130318,-536.266849
3239.031403,1702.473667,-9918.759623,459.657299
3239.031730,888.247130,-9696.697840,536.266849
3239.032058,-814.226536,-10066.800811,766.095498
3239.032386,-1850.514855,-8068.244768,-766.095498
3239.032713,-1924.535449,-7772.162391,-2145.067394
3239.033041,-1776.494261,-8438.347739,-1302.362347
3239.033368,-148.041188,-9400.615463,-306.438199
3239.033696,222.061783,-12435.459826,2145.067394
3239.034024,1332.370696,-11103.089130,1149.143247
3239.034351,1702.473667,-9696.697840,-919.314598
3239.034679,814.226536,-9992.780217,-1455.581446
3239.035006,1406.391290,-7846.182985,-1149.143247
3239.035334,666.185348,-7994.224174,1378.971896
3239.035662,296.082377,-8438.347739,2834.553343
3239.035989,518.144159,-9622.677246,536.266849
3239.036317,-666.185348,-10955.047942,153.219100
3239.036645,518.144159,-9548.656652,-995.924147
3239.036972,518.144159,-10140.821405,-1225.752797
3239.037300,740.205942,-12139.377449,-459.657299
3239.037627,0.000000,-10288.862594,-1378.971896
3239.037955,-740.205942,-9622.677246,-1072.533697
3239.038283,-1184.329507,-8068.244768,306.438199
3239.038610,1332.370696,-7846.182985,306.438199
3239.038938,444.123565,-8586.388927,689.485948
3239.039265,74.020594,-8586.388927,689.485948
3239.039593,888.247130,-9992.780217,-306.438199
3239.039921,888.247130,-10807.006753,-919.314598
3239.040248,1110.308913,-9770.718434,-1302.362347
3239.040576,888.247130,-11029.068536,-612.876398
3239.040904,1628.453072,-11547.212695,-842.705048
3239.041231,1184.329507,-9696.697840,-459.657299
3239.041559,444.123565,-10955.047942,766.095498
3239.041886,74.020594,-9770.718434,689.485948
3239.042214,296.082377,-9252.574275,-459.657299
3239.042542,-888.247130,-8882.471304,-536.266849
3239.042869,-518.144159,-9178.553681,-153.219100
3239.043197,148.041188,-9252.574275,153.219100
3239.043524,1480.411884,-8956.491898,-153.219100
3239.043852,2072.576638,-9326.594869,0.000000
3239.044180,1628.453072,-11621.233289,689.485948
3239.044507,2664.741391,-11029.068536,-995.924147
3239.044835,1406.391290,-9622.677246,-766.095498
3239.045163,296.082377,-9696.697840,76.609550
3239.045490,-1184.329507,-6735.874072,153.219100
3239.045818,-1332.370696,-8808.450710,919.314598
3239.046145,-222.061783,-9844.739029,1149.143247
3239.046473,148.041188,-9178.553681,-383.047749
3239.046801,-1554.432478,-9030.512492,459.657299
3239.047128,-1110.308913,-8512.368333,229.828649
3239.047456,-518.144159,-7846.182985,-612.876398
3239.047783,0.000000,-9548.656652,-306.438199
3239.048111,518.144159,-10584.944971,-689.485948
3239.048439,888.247130,-11769.274478,766.095498
3239.048766,2590.720797,-9252.574275,689.485948
3239.049094,2368.659014,-9252.574275,-153.219100
3239.049422,-518.144159,-11325.150913,919.314598
3239.049749,-444.123565,-9178.553681,-612.876398
3239.050077,-814.226536,-7846.182985,-919.314598
3239.050404,-222.061783,-8660.409521,76.609550
3239.050732,222.061783,-10362.883188,1072.533697
3239.051060,-222.061783,-11843.295072,1608.800546
3239.051387,444.123565,-10436.903782,306.438199
3239.051715,888.247130,-9548.656652,-2834.553343
3239.052043,518.144159,-11029.068536,-3294.210641
3239.052370,-1110.308913,-9474.636058,-2298.286494
3239.052698,0.000000,-8438.347739,-689.485948
3239.053025,444.123565,-9918.759623,689.485948
3239.053353,296.082377,-10807.006753,919.314598
3239.053681,74.020594,-9918.759623,1532.190996
3239.054008,-370.102971,-8586.388927,919.314598
3239.054336,-296.082377,-9474.636058,0.000000
3239.054663,74.020594,-11621.233289,-1608.800546
3239.054991,-518.144159,-9474.636058,-2604.724693
3239.055319,-370.102971,-8808.450710,-2221.676944
3239.055646,-296.082377,-10658.965565,-612.876398
3239.055974,740.205942,-9696.697840,612.876398
3239.056302,1184.329507,-8438.347739,919.314598
3239.056629,518.144159,-8216.285956,1838.629195
3239.056957,1776.494261,-8660.409521,-459.657299
3239.057284,1406.391290,-8882.471304,1762.019645
3239.057612,0.000000,-8734.430116,2068.457845
3239.057940,-444.123565,-8586.388927,1532.190996
3239.058267,-666.185348,-10436.903782,-153.219100
3239.058595,222.061783,-11029.068536,-2298.286494
3239.058922,148.041188,-10732.986159,-2221.676944
3239.059250,296.082377,-10436.903782,-1378.971896
3239.059578,1406.391290,-9030.512492,-1149.143247
3239.059905,888.247130,-8956.491898,689.485948
3239.060233,814.226536,-9252.574275,2068.457845
3239.060561,666.185348,-8142.265362,2068.457845
3239.060888,-148.041188,-8586.388927,1685.410096
3239.061216,74.020594,-9178.553681,306.438199
3239.061543,666.185348,-10436.903782,0.000000
3239.061871,148.041188,-11103.089130,-766.095498
3239.062199,296.082377,-10584.944971,-1608.800546
3239.062526,222.061783,-11399.171507,-2834.553343
3239.062854,1850.514855,-11695.253884,-2911.162892
3239.063181,2368.659014,-9844.739029,-1838.629195
3239.063509,962.267725,-9770.718434,1455.581446
3239.063837,-296.082377,-9474.636058,2145.067394
3239.064164,-888.247130,-10066.800811,1149.143247
3239.064492,-962.267725,-9474.636058,-995.924147
3239.064820,-666.185348,-8364.327145,-1762.019645
3239.065147,-740.205942,-9696.697840,-383.047749
3239.065475,814.226536,-11325.150913,0.000000
3239.065802,2368.659014,-11769.274478,-766.095498
3239.066130,1998.556043,-11547.212695,-995.924147
3239.066458,1776.494261,-9178.553681,-2451.505594
3239.066785,814.226536,-8956.491898,-612.876398
3239.067113,-444.123565,-8734.430116,1149.143247
3239.067441,-888.247130,-8290.306550,1149.143247
3239.067768,-2146.597232,-9844.739029,1762.019645
3239.068096,-666.185348,-9104.533087,1072.533697
3239.068423,74.020594,-8290.306550,1302.362347
3239.068751,222.061783,-9400.615463,536.266849
3239.069079,-444.123565,-9326.594869,-306.438199
3239.069406,-444.123565,-9252.574275,-1915.238745
3239.069734,-222.061783,-9696.697840,-2374.896044
3239.070061,666.185348,-9548.656652,-1608.800546
3239.070389,1628.453072,-9548.656652,536.266849
3239.070717,2442.679609,-9178.553681,3677.258390
3239.071044,2220.617826,-9400.615463,2298.286494
3239.071372,296.082377,-10214.842000,1455.581446
3239.071700,-666.185348,-8512.368333,-459.657299
3239.072027,148.041188,-8956.491898,-1225.752797
3239.072355,74.020594,-9770.718434,-766.095498
3239.072682,1258.350101,-10362.883188,-995.924147
3239.073010,-148.041188,-11251.130318,0.000000
3239.073338,666.185348,-11695.253884,-766.095498
3239.073665,2368.659014,-10288.862594,-2604.724693
3239.073993,2072.576638,-9844.739029,-1378.971896
3239.074320,74.020594,-9844.739029,153.219100
3239.074648,0.000000,-9548.656652,459.657299
3239.074976,-592.164754,-9252.574275,76.609550
3239.075303,-296.082377,-8808.450710,-536.266849
3239.075631,0.000000,-10732.986159,612.876398
3239.075959,74.020594,-11325.150913,1225.752797
3239.076286,296.082377,-10881.027347,-459.657299
3239.076614,-222.061783,-10584.944971,-2451.505594
3239.076941,-444.123565,-8660.409521,-3524.039291
3239.077269,-370.102971,-8142.265362,-2681.334243
3239.077597,0.000000,-8882.471304,842.705048
3239.077924,592.164754,-9326.594869,2145.067394
3239.078252,74.020594,-10584.944971,2374.896044
3239.078579,518.144159,-9326.594869,1072.533697
3239.078907,0.000000,-8216.285956,76.609550
3239.079235,592.164754,-8660.409521,842.705048
3239.079562,296.082377,-9030.512492,1532.190996
3239.079890,0.000000,-10658.965565,76.609550
3239.080218,-1184.329507,-10436.903782,-919.314598
3239.080545,444.123565,-9252.574275,-3677.258390
3239.080873,74.020594,-7846.182985,-2451.505594
3239.081200,-1258.350101,-9992.780217,1072.533697
3239.081528,-666.185348,-9548.656652,1149.143247
3239.081856,0.000000,-9400.615463,689.485948
3239.082183,518.144159,-8956.491898,-459.657299
3239.082511,1628.453072,-8882.471304,536.266849
3239.082838,0.000000,-9474.636058,1915.238745
3239.083166,592.164754,-10066.800811,1072.533697
3239.083494,0.000000,-10658.965565,-919.314598
3239.083821,-148.041188,-9696.697840,-2604.724693
3239.084149,814.226536,-8290.306550,-2987.772442
3239.084477,1554.432478,-10807.006753,-995.924147
3239.084804,1110.308913,-11029.068536,1302.362347
3239.085132,1258.350101,-10955.047942,689.485948
3239.085459,-296.082377,-10066.800811,459.657299
3239.085787,148.041188,-8512.368333,-689.485948
3239.086115,0.000000,-9252.574275,0.000000
3239.086442,0.000000,-10881.027347,842.705048
3239.086770,0.000000,-10214.842000,-306.438199
3239.087098,666.185348,-10066.800811,-1685.410096
3239.087425,1850.514855,-9178.553681,-2374.896044
3239.087753,1332.370696,-10288.862594,0.000000
3239.088080,0.000000,-11103.089130,1378.971896
3239.088408,740.205942,-9326.594869,-689.485948
3239.088736,518.144159,-8808.450710,-1225.752797
3239.089063,-444.123565,-9030.512492,-612.876398
3239.089391,0.000000,-10214.842000,1838.629195
3239.089718,-518.144159,-11103.089130,2987.772442
3239.090046,222.061783,-9992.780217,0.000000
3239.090374,-592.164754,-9104.533087,-2451.505594
3239.090701,-1110.308913,-8364.327145,-2681.334243
3239.091029,-666.185348,-7624.121203,-536.266849
3239.091357,1258.350101,-8290.306550,-306.438199
3239.091684,740.205942,-9992.780217,1685.410096
3239.092012,1702.473667,-10658.965565,1455.581446
3239.092339,1998.556043,-9548.656652,919.314598
3239.092667,2220.617826,-9252.574275,842.705048
3239.092995,1850.514855,-9622.677246,919.314598
3239.093322,814.226536,-10066.800811,995.924147
3239.093650,370.102971,-9030.512492,-306.438199
3239.093977,0.000000,-9548.656652,-1685.410096
3239.094305,222.061783,-9622.677246,-689.485948
3239.094633,814.226536,-9992.780217,153.219100
3239.094960,444.123565,-9844.739029,919.314598
3239.095288,592.164754,-9992.780217,-842.705048
3239.095616,0.000000,-9474.636058,-1685.410096
3239.095943,74.020594,-10066.800811,-1302.362347
3239.096271,518.144159,-10732.986159,-612.876398
3239.096598,888.247130,-9918.759623,612.876398
3239.096926,666.185348,-11177.109724,0.000000
3239.097254,518.144159,-11991.336260,-612.876398
3239.097581,0.000000,-11917.315666,-995.924147
3239.097909,-370.102971,-10362.883188,-1149.143247
3239.098236,-296.082377,-7994.224174,-1225.752797
3239.098564,-1924.535449,-8586.388927,-689.485948
3239.098892,-1184.329507,-9104.533087,-842.705048
3239.099219,-888.247130,-9474.636058,0.000000
3239.099547,-518.144159,-9622.677246,229.828649
3239.099875,1184.329507,-8512.368333,0.000000
3239.100202,962.267725,-10066.800811,919.314598
3239.100530,1036.288319,-10658.965565,919.314598
3239.100857,1628.453072,-10140.821405,-153.219100
3239.101185,666.185348,-9992.780217,-459.657299
3239.101513,370.102971,-8068.244768,-306.438199
3239.101840,0.000000,-8364.327145,1149.143247
3239.102168,148.041188,-8956.491898,1072.533697
3239.102495,0.000000,-8660.409521,459.657299
3239.102823,-444.123565,-10658.965565,76.609550
3239.103151,-1480.411884,-9326.594869,-612.876398
3239.103478,0.000000,-8216.285956,-1608.800546
3239.103806,0.000000,-8882.471304,-383.047749
3239.104134,-444.123565,-11325.150913,76.609550
3239.104461,-740.205942,-10584.944971,0.000000
3239.104789,148.041188,-8956.491898,-919.314598
3239.105116,1184.329507,-8216.285956,-766.095498
3239.105444,1332.370696,-9992.780217,229.828649
3239.105772,74.020594,-11251.130318,1685.410096
3239.106099,74.020594,-9474.636058,153.219100
3239.106427,444.123565,-10436.903782,-1378.971896
3239.106755,666.185348,-11103.089130,-1532.190996
3239.107082,148.041188,-10214.842000,0.000000
3239.107410,-518.144159,-9992.780217,766.095498
3239.107737,1036.288319,-10510.924376,-766.095498
3239.108065,814.226536,-11991.336260,-2068.457845
3239.108393,148.041188,-10732.986159,-1608.800546
3239.108720,0.000000,-8734.430116,-459.657299
3239.109048,296.082377,-9104.533087,995.924147
3239.109375,2590.720797,-8956.491898,536.266849
3239.109703,2590.720797,-10658.965565,1762.019645
3239.110031,592.164754,-10732.986159,2068.457845
3239.110358,1036.288319,-8734.430116,0.000000
3239.110686,814.226536,-9178.553681,-1072.533697
3239.111014,0.000000,-10288.862594,-995.924147
3239.111341,-666.185348,-10732.986159,-153.219100
3239.111669,-1184.329507,-10807.006753,-306.438199
3239.111996,-740.205942,-9178.553681,-1838.629195
3239.112324,296.082377,-8660.409521,-2068.457845
3239.112652,148.041188,-8586.388927,842.705048
3239.112979,0.000000,-7254.018232,1378.971896
3239.113307,-592.164754,-7624.121203,2068.457845
3239.113634,-518.144159,-9104.533087,1378.971896
3239.113962,814.226536,-9474.636058,0.000000
3239.114290,1406.391290,-8956.491898,536.266849
3239.114617,1258.350101,-9474.636058,919.314598
3239.114945,1332.370696,-11769.274478,-383.047749
3239.115272,814.226536,-11177.109724,-1608.800546
3239.115600,592.164754,-9252.574275,-2221.676944
3239.115927,296.082377,-8660.409521,-229.828649
3239.116255,962.267725,-9696.697840,1302.362347
3239.116582,2146.597232,-9178.553681,2068.457845
3239.116910,1406.391290,-9696.697840,1302.362347
3239.117238,148.041188,-9696.697840,-612.876398
3239.117565,1184.329507,-10584.944971,-1532.190996
3239.117893,1628.453072,-11621.233289,-1378.971896
3239.118220,2516.700203,-11251.130318,-1302.362347
3239.118548,1332.370696,-11029.068536,-689.485948
3239.118875,444.123565,-10658.965565,-1608.800546
3239.119203,444.123565,-9918.759623,-1608.800546
3239.119530,-444.123565,-9252.574275,-306.438199
3239.119858,-370.102971,-9104.533087,689.485948
3239.120185,-814.226536,-8364.327145,766.095498
3239.120513,-1406.391290,-9474.636058,229.828649
3239.120841,-1184.329507,-8956.491898,-689.485948
3239.121168,-666.185348,-9548.656652,-1072.533697
3239.121496,0.000000,-11251.130318,0.000000
3239.121823,1184.329507,-10436.903782,-1072.533697
3239.122151,0.000000,-11251.130318,-306.438199
3239.122478,0.000000,-9770.718434,-536.266849
3239.122806,888.247130,-8586.388927,-229.828649
3239.123133,666.185348,-8586.388927,1149.143247
3239.123461,0.000000,-8734.430116,2068.457845
3239.123788,-666.185348,-9326.594869,2451.505594
3239.124116,-888.247130,-9474.636058,1685.410096
3239.124444,148.041188,-8216.285956,-459.657299
3239.124771,0.000000,-9474.636058,-919.314598
3239.125099,-444.123565,-10955.047942,0.000000
3239.125426,0.000000,-9252.574275,0.000000
3239.125754,-444.123565,-9696.697840,-612.876398
3239.126081,-740.205942,-8660.409521,-1302.362347
3239.126409,148.041188,-8660.409521,-689.485948
3239.126736,0.000000,-9178.553681,995.924147
3239.127064,814.226536,-9326.594869,1608.800546
3239.127391,666.185348,-9992.780217,1532.190996
3239.127719,740.205942,-9030.512492,306.438199
3239.128047,0.000000,-9252.574275,-842.705048
3239.128374,-74.020594,-11251.130318,-306.438199
3239.128702,814.226536,-11399.171507,-842.705048
3239.129029,74.020594,-10140.821405,-2145.067394
3239.129357,-518.144159,-10214.842000,-1685.410096
3239.129684,148.041188,-10510.924376,-1608.800546
3239.130012,888.247130,-10214.842000,0.000000
3239.130339,-148.041188,-9326.594869,689.485948
3239.130667,-888.247130,-10066.800811,383.047749
3239.130994,-666.185348,-10140.821405,0.000000
3239.131322,666.185348,-8142.265362,-689.485948
3239.131650,0.000000,-8956.491898,459.657299
3239.131977,-370.102971,-11695.253884,1225.752797
3239.132305,370.102971,-11621.233289,-766.095498
3239.132632,0.000000,-10436.903782,-1532.190996
3239.132960,-148.041188,-8512.368333,-2298.286494
3239.133287,-592.164754,-8586.388927,-459.657299
3239.133615,-814.226536,-9918.759623,1225.752797
3239.133942,0.000000,-9030.512492,76.609550
3239.134270,-370.102971,-9030.512492,612.876398
3239.134597,148.041188,-9030.512492,536.266849
3239.134925,592.164754,-7994.224174,766.095498
3239.135253,1184.329507,-8068.244768,1608.800546
3239.135580,1406.391290,-9918.759623,0.000000
3239.135908,2368.659014,-10881.027347,-766.095498
3239.136235,2516.700203,-10066.800811,-612.876398
3239.136563,2368.659014,-8586.388927,-689.485948
3239.136890,2146.597232,-9178.553681,229.828649
3239.137218,962.267725,-8956.491898,306.438199
3239.137545,0.000000,-9178.553681,-229.828649
3239.137873,0.000000,-9696.697840,-306.438199
3239.138200,1480.411884,-9770.718434,-612.876398
3239.138528,1184.329507,-9178.553681,306.438199
3239.138856,592.164754,-11769.274478,766.095498
3239.139183,2294.638420,-12287.418637,-1991.848295
3239.139511,2294.638420,-10807.006753,-3140.991542
3239.139838,2664.741391,-10955.047942,-1608.800546
3239.140166,2960.823768,-10732.986159,-1072.533697
3239.140493,2516.700203,-10140.821405,459.657299
3239.140821,1332.370696,-9696.697840,229.828649
3239.141148,-518.144159,-10807.006753,0.000000
3239.141476,-1406.391290,-11029.068536,0.000000
3239.141803,-296.082377,-9474.636058,-766.095498
3239.142131,-296.082377,-8660.409521,-306.438199
3239.142459,148.041188,-9474.636058,229.828649
3239.142786,814.226536,-9918.759623,-689.485948
3239.143114,1406.391290,-11547.212695,-536.266849
3239.143441,1036.288319,-10214.842000,0.000000
3239.143769,666.185348,-8216.285956,76.609550
3239.144096,444.123565,-7920.203579,1149.143247
3239.144424,0.000000,-7846.182985,536.266849
3239.144751,-1406.391290,-8364.327145,1225.752797
3239.145079,-814.226536,-9844.739029,1149.143247
3239.145406,-888.247130,-9622.677246,1302.362347
3239.145734,-1036.288319,-9400.615463,842.705048
3239.146061,-2220.617826,-9178.553681,612.876398
3239.146389,-1776.494261,-8808.450710,-1532.190996
3239.146717,-1406.391290,-9548.656652,-919.314598
3239.147044,-1110.308913,-9622.677246,-153.219100
3239.147372,-592.164754,-9326.594869,842.705048
3239.147699,-370.102971,-9178.553681,1302.362347
3239.148027,-740.205942,-8364.327145,689.485948
3239.148354,-1628.453072,-9474.636058,0.000000
3239.148682,-1776.494261,-9474.636058,-229.828649
3239.149009,-666.185348,-9474.636058,-842.705048
3239.149337,-592.164754,-10436.903782,306.438199
3239.149664,-222.061783,-11547.212695,-383.047749
3239.149992,148.041188,-11547.212695,-1149.143247
3239.150320,222.061783,-11769.274478,-1685.410096
3239.150647,-444.123565,-10362.883188,-1838.629195
3239.150975,-518.144159,-9252.574275,-1685.410096
3239.151302,-1554.432478,-7698.141797,-536.266849
3239.151630,-888.247130,-8882.471304,-459.657299
3239.151957,-1036.288319,-10584.944971,995.924147
3239.152285,-444.123565,-11325.150913,536.266849
3239.152612,-518.144159,-10436.903782,153.219100
3239.152940,740.205942,-10288.862594,-1302.362347
3239.153267,2072.576638,-8882.471304,-3064.381992
3239.153595,1406.391290,-10807.006753,-1149.143247
3239.153923,1036.288319,-10584.944971,0.000000
3239.154250,1258.350101,-8290.306550,-153.219100
3239.154578,1406.391290,-8438.347739,536.266849
3239.154905,1702.473667,-8956.491898,919.314598
3239.155233,-740.205942,-9030.512492,1455.581446
3239.155560,-1110.308913,-9178.553681,842.705048
3239.155888,-444.123565,-9104.533087,-1762.019645
3239.156215,444.123565,-10362.883188,-1608.800546
3239.156543,1036.288319,-9474.636058,-766.095498
3239.156870,2146.597232,-9104.533087,-153.219100
3239.157198,3034.844362,-9992.780217,536.266849
3239.157526,4367.215058,-9548.656652,-229.828649
3239.157853,4145.153275,-7105.977043,689.485948
3239.158181,2368.659014,-7550.100608,2298.286494
3239.158508,666.185348,-8956.491898,2145.067394
3239.158836,1036.288319,-10436.903782,1225.752797
3239.159163,1332.370696,-11029.068536,-459.657299
3239.159491,296.082377,-9252.574275,-1991.848295
3239.159818,74.020594,-9918.759623,-612.876398
3239.160146,1480.411884,-10584.944971,-689.485948
3239.160473,1850.514855,-10658.965565,0.000000
3239.160801,1702.473667,-11251.130318,-153.219100
3239.161129,2664.741391,-9104.533087,-1225.752797
3239.161456,2368.659014,-8586.388927,-306.438199
3239.161784,2368.659014,-10214.842000,306.438199
3239.162111,2516.700203,-10214.842000,536.266849
3239.162439,740.205942,-9326.594869,76.609550
3239.162766,-444.123565,-10362.883188,-383.047749
3239.163094,-370.102971,-10881.027347,-1378.971896
3239.163421,296.082377,-10732.986159,-766.095498
3239.163749,-370.102971,-10362.883188,-995.924147
3239.164076,-814.226536,-10066.800811,-383.047749
3239.164404,-444.123565,-10140.821405,-229.828649
3239.164732,592.164754,-9400.615463,-229.828649
3239.165059,962.267725,-8808.450710,306.438199
3239.165387,740.205942,-7698.141797,919.314598
3239.165714,-814.226536,-9252.574275,919.314598
3239.166042,-2368.659014,-10658.965565,1455.581446
3239.166369,-2146.597232,-9252.574275,-689.485948
3239.166697,-2146.597232,-8290.306550,-383.047749
3239.167024,-1850.514855,-10658.965565,919.314598
3239.167352,-2220.617826,-10881.027347,0.000000
3239.167679,-2590.720797,-10066.800811,-153.219100
3239.168007,-1702.473667,-8660.409521,-1838.629195
3239.168335,-814.226536,-8438.347739,-2451.505594
3239.168662,-1480.411884,-9030.512492,306.438199
3239.168990,-962.267725,-8290.306550,1455.581446
3239.169317,-370.102971,-8364.327145,1302.362347
3239.169645,-1184.329507,-9326.594869,1685.410096
3239.169972,-1406.391290,-9918.759623,536.266849
3239.170300,-1480.411884,-9474.636058,-383.047749
3239.170627,-1480.411884,-10140.821405,-1072.533697
3239.170955,-592.164754,-11177.109724,-1685.410096
3239.171282,1332.370696,-10732.986159,-2834.553343
3239.171610,666.185348,-9474.636058,-2451.505594
3239.171938,962.267725,-9844.739029,0.000000
3239.172265,1110.308913,-9992.780217,612.876398
3239.172593,1628.453072,-9548.656652,766.095498
3239.172920,592.164754,-9622.677246,766.095498
3239.173248,0.000000,-9474.636058,-153.219100
3239.173575,-592.164754,-9474.636058,0.000000
3239.173903,518.144159,-10881.027347,-1302.362347
3239.174230,814.226536,-10584.944971,-2451.505594
3239.174558,1628.453072,-11177.109724,-2298.286494
3239.174885,1184.329507,-10658.965565,-1532.190996
3239.175213,1850.514855,-8660.409521,-766.095498
3239.175541,1628.453072,-8956.491898,0.000000
3239.175868,2072.576638,-11251.130318,842.705048
3239.176196,2960.823768,-9474.636058,306.438199
3239.176523,2812.782580,-9030.512492,1302.362347
3239.176851,1850.514855,-9770.718434,2145.067394
3239.177178,1258.350101,-10066.800811,1762.019645
3239.177506,444.123565,-10066.800811,0.000000
3239.177833,0.000000,-9474.636058,-2145.067394
3239.178161,-370.102971,-9178.553681,-1991.848295
3239.178488,0.000000,-7920.203579,-919.314598
3239.178816,740.205942,-7105.977043,229.828649
3239.179144,1258.350101,-8068.244768,1378.971896
3239.179471,2368.659014,-10066.800811,1608.800546
3239.179799,2590.720797,-10066.800811,1991.848295
3239.180126,2368.659014,-9844.739029,1532.190996
3239.180454,1924.535449,-8142.265362,0.000000
3239.180781,1332.370696,-8290.306550,229.828649
3239.181109,370.102971,-9474.636058,919.314598
3239.181436,0.000000,-9918.759623,919.314598
3239.181764,-296.082377,-9104.533087,766.095498
3239.182091,518.144159,-8660.409521,-689.485948
3239.182419,0.000000,-10436.903782,-1072.533697
3239.182747,148.041188,-10732.986159,-995.924147
3239.183074,962.267725,-9844.739029,-1225.752797
3239.183402,1554.432478,-11103.089130,0.000000
3239.183729,1184.329507,-12065.356855,-153.219100
3239.184057,0.000000,-9696.697840,-153.219100
3239.184384,-518.144159,-9844.739029,612.876398
3239.184712,-1110.308913,-11843.295072,0.000000
3239.185039,-1850.514855,-11103.089130,-612.876398
3239.185367,-2368.659014,-9400.615463,-995.924147
3239.185694,-1850.514855,-9030.512492,-1991.848295
3239.186022,-1184.329507,-9104.533087,-766.095498
3239.186350,-1036.288319,-9178.553681,76.609550
3239.186677,-1554.432478,-8808.450710,383.047749
3239.187005,-888.247130,-10436.903782,153.219100
3239.187332,-444.123565,-10584.944971,0.000000
3239.187660,-1184.329507,-8586.388927,306.438199
3239.187987,-444.123565,-9918.759623,1838.629195
3239.188315,-518.144159,-10881.027347,689.485948
3239.188642,-296.082377,-9474.636058,-919.314598
3239.188970,-962.267725,-8068.244768,-1302.362347
3239.189297,-740.205942,-8734.430116,-1532.190996
3239.189625,-1628.453072,-9696.697840,0.000000
3239.189953,-1110.308913,-8660.409521,306.438199
3239.190280,0.000000,-9178.553681,-612.876398
3239.190608,0.000000,-10362.883188,766.095498
3239.190935,888.247130,-8882.471304,766.095498
3239.191263,592.164754,-8734.430116,1149.143247
3239.191590,296.082377,-9992.780217,153.219100
3239.191918,962.267725,-9178.553681,-1685.410096
3239.192245,-296.082377,-8808.450710,-1149.143247
3239.192573,-666.185348,-9326.594869,-995.924147
3239.192900,592.164754,-9548.656652,-383.047749
3239.193228,888.247130,-9992.780217,-383.047749
3239.193556,1628.453072,-11399.171507,-766.095498
3239.193883,1776.494261,-12213.398043,0.000000
3239.194211,2072.576638,-10732.986159,-153.219100
3239.194538,1702.473667,-9400.615463,612.876398
3239.194866,1702.473667,-9622.677246,-459.657299
3239.195193,2442.679609,-10436.903782,0.000000
3239.195521,1998.556043,-10214.842000,229.828649
3239.195848,1406.391290,-10362.883188,689.485948
3239.196176,1554.432478,-10362.883188,-689.485948
3239.196503,1628.453072,-10362.883188,-995.924147
3239.196831,1110.308913,-9474.636058,-459.657299
3239.197159,0.000000,-9548.656652,-459.657299
3239.197486,222.061783,-9548.656652,-1072.533697
3239.197814,1480.411884,-9178.553681,-1838.629195
3239.198141,2812.782580,-8956.491898,-919.314598
3239.198469,1850.514855,-10881.027347,1685.410096
3239.198796,2886.803174,-11325.150913,2528.115143
3239.199124,2812.782580,-9178.553681,1762.019645
3239.199451,962.267725,-9030.512492,995.924147
3239.199779,-296.082377,-9030.512492,0.000000
3239.200106,-2072.576638,-8808.450710,306.438199
3239.200434,-1998.556043,-7402.059420,-689.485948
3239.200762,-2368.659014,-7550.100608,-1302.362347
3239.201089,-2516.700203,-9474.636058,0.000000
3239.201417,-1332.370696,-10066.800811,-689.485948
3239.201744,1036.288319,-10436.903782,153.219100
3239.202072,1924.535449,-10436.903782,153.219100
3239.202399,740.205942,-10436.903782,842.705048
3239.202727,0.000000,-9770.718434,842.705048
3239.203054,592.164754,-8364.327145,-612.876398
3239.203382,0.000000,-8216.285956,0.000000
3239.203709,-518.144159,-8438.347739,766.095498
3239.204037,-814.226536,-9474.636058,306.438199
3239.204365,-1036.288319,-10214.842000,-459.657299
3239.204692,-962.267725,-11399.171507,-1378.971896
3239.205020,-962.267725,-10436.903782,-1915.238745
3239.205347,222.061783,-10066.800811,-1532.190996
3239.205675,1110.308913,-10066.800811,-1838.629195
3239.206002,592.164754,-11177.109724,-766.095498
3239.206330,444.123565,-12657.521608,383.047749
3239.206657,1036.288319,-10214.842000,-306.438199
3239.206985,1480.411884,-7994.224174,-1608.800546
3239.207312,-370.102971,-9178.553681,0.000000
3239.207640,-1850.514855,-9548.656652,919.314598
3239.207968,-1776.494261,-9918.759623,536.266849
3239.208295,-1110.308913,-9844.739029,-1455.581446
3239.208623,-296.082377,-9400.615463,-1838.629195
3239.208950,-222.061783,-9474.636058,-1302.362347
3239.209278,888.247130,-9400.615463,-536.266849
3239.209605,814.226536,-9918.759623,153.219100
3239.209933,518.144159,-10510.924376,153.219100
3239.210260,1110.308913,-8512.368333,-306.438199
3239.210588,1258.350101,-7476.080014,1455.581446
3239.210915,1258.350101,-8364.327145,1685.410096
3239.211243,0.000000,-9474.636058,1762.019645
3239.211570,-1332.370696,-10732.986159,1532.190996
3239.211898,-592.164754,-7846.182985,-1991.848295
3239.212226,74.020594,-7698.141797,-2298.286494
3239.212553,1480.411884,-10881.027347,-689.485948
3239.212881,1332.370696,-11399.171507,459.657299
3239.213208,814.226536,-9844.739029,536.266849
3239.213536,888.247130,-8956.491898,-1532.190996
3239.213863,962.267725,-8364.327145,-919.314598
3239.214191,518.144159,-8512.368333,459.657299
3239.214518,814.226536,-8512.368333,919.314598
3239.214846,1036.288319,-9770.718434,459.657299
3239.215173,1480.411884,-11029.068536,229.828649
3239.215501,962.267725,-10510.924376,-842.705048
3239.215829,1258.350101,-9992.780217,0.000000
3239.216156,1036.288319,-10066.800811,-842.705048
3239.216484,666.185348,-11621.233289,-689.485948
3239.216811,592.164754,-12139.377449,-995.924147
3239.217139,1406.391290,-9918.759623,-1532.190996
3239.217466,1406.391290,-8512.368333,0.000000
3239.217794,592.164754,-10436.903782,2911.162892
3239.218121,962.267725,-9844.739029,766.095498
3239.218449,-370.102971,-7550.100608,153.219100
3239.218776,-1850.514855,-8882.471304,-153.219100
3239.219104,-1998.556043,-9548.656652,-842.705048
3239.219432,-296.082377,-10807.006753,-1532.190996
3239.219759,740.205942,-10436.903782,-1915.238745
3239.220087,666.185348,-10066.800811,-229.828649
3239.220414,592.164754,-11325.150913,0.000000
3239.220742,1702.473667,-9326.594869,-306.438199
3239.221069,1480.411884,-8364.327145,0.000000
3239.221397,1554.432478,-10066.800811,1072.533697
3239.221724,592.164754,-8808.450710,1762.019645
3239.222052,296.082377,-7105.977043,1762.019645
3239.222379,-1554.432478,-5995.668130,1149.143247
3239.222707,-2664.741391,-7920.203579,1072.533697
3239.223034,-2294.638420,-10510.924376,153.219100
3239.223362,-518.144159,-10658.965565,-2451.505594
3239.223690,0.000000,-10066.800811,-3140.991542
3239.224017,-740.205942,-9696.697840,-1991.848295
3239.224345,222.061783,-9474.636058,-1149.143247
3239.224672,740.205942,-10288.862594,1072.533697
3239.225000,1332.370696,-10732.986159,1302.362347
3239.225327,1184.329507,-10066.800811,1762.019645
3239.225655,444.123565,-9400.615463,1762.019645
3239.225982,1258.350101,-9474.636058,383.047749
3239.226310,1110.308913,-9844.739029,-383.047749
3239.226637,592.164754,-11103.089130,-1225.752797
3239.226965,-148.041188,-10658.965565,-1685.410096
3239.227293,296.082377,-9992.780217,-2451.505594
3239.227620,296.082377,-9844.739029,-2604.724693
3239.227948,-148.041188,-10807.006753,-766.095498
3239.228275,-222.061783,-10955.047942,766.095498
3239.228603,962.267725,-9844.739029,153.219100
3239.228930,1258.350101,-10362.883188,459.657299
3239.229258,1036.288319,-10436.903782,842.705048
3239.229585,1480.411884,-9326.594869,536.266849
3239.229913,1850.514855,-9252.574275,0.000000
3239.230240,518.144159,-10510.924376,-766.095498
3239.230568,-1184.329507,-10584.944971,-536.266849
3239.230896,-592.164754,-9992.780217,-1225.752797
3239.231223,0.000000,-8586.388927,-2451.505594
3239.231551,1184.329507,-9696.697840,-2145.067394
3239.231878,592.164754,-9918.759623,612.876398
3239.232206,1110.308913,-7179.997637,1762.019645
3239.232533,2072.576638,-7994.224174,1685.410096
3239.232861,888.247130,-9178.553681,1685.410096
3239.233188,0.000000,-7772.162391,1532.190996
3239.233516,444.123565,-8364.327145,689.485948
3239.233843,74.020594,-9696.697840,-689.485948
3239.234171,444.123565,-11103.089130,-1915.238745
3239.234498,296.082377,-10955.047942,-1685.410096
3239.234826,1184.329507,-9770.718434,-1685.410096
3239.235154,296.082377,-10584.944971,0.000000
3239.235481,74.020594,-9696.697840,153.219100
3239.235809,-1110.308913,-7920.203579,-306.438199
3239.236136,-888.247130,-9474.636058,766.095498
3239.236464,-592.164754,-8068.244768,-689.485948
3239.236791,0.000000,-8882.471304,536.266849
3239.237119,962.267725,-11695.253884,842.705048
3239.237446,1332.370696,-11621.233289,-612.876398
3239.237774,296.082377,-10658.965565,-1532.190996
3239.238101,518.144159,-9918.759623,-1915.238745
3239.238429,74.020594,-9770.718434,-1225.752797
3239.238757,518.144159,-10362.883188,-842.705048
3239.239084,370.102971,-9622.677246,0.000000
3239.239412,148.041188,-10362.883188,1072.533697
3239.239739,814.226536,-10214.842000,612.876398
3239.240067,0.000000,-8586.388927,153.219100
3239.240394,-2146.597232,-9474.636058,536.266849
3239.240722,-1480.411884,-10066.800811,-689.485948
3239.241049,666.185348,-9030.512492,-3064.381992
3239.241377,1332.370696,-8882.471304,-3064.381992
3239.241704,0.000000,-10140.821405,-842.705048
3239.242032,370.102971,-11325.150913,1762.019645
3239.242359,1998.556043,-9770.718434,995.924147
3239.242687,1850.514855,-8586.388927,-459.657299
3239.243015,444.123565,-9400.615463,1225.752797
3239.243342,-592.164754,-8808.450710,919.314598
3239.243670,-444.123565,-7698.141797,1685.410096
3239.243997,1110.308913,-9696.697840,1685.410096
3239.244325,1850.514855,-10066.800811,612.876398
3239.244652,1258.350101,-8290.306550,383.047749
3239.244980,370.102971,-9844.739029,0.000000
3239.245307,-1258.350101,-9770.718434,-536.266849
3239.245635,-1480.411884,-9326.594869,0.000000
3239.245962,-2072.576638,-7105.977043,-1302.362347
3239.246290,-1554.432478,-8068.244768,-1378.971896
3239.246618,-1554.432478,-10436.903782,229.828649
3239.246945,-148.041188,-10436.903782,1149.143247
3239.247273,1998.556043,-9474.636058,0.000000
3239.247600,2442.679609,-11695.253884,0.000000
3239.247928,1554.432478,-11991.336260,-689.485948
3239.248255,370.102971,-10436.903782,306.438199
3239.248583,1480.411884,-9992.780217,-1455.581446
3239.248910,1702.473667,-9474.636058,-2451.505594
3239.249238,1406.391290,-9622.677246,-1072.533697
3239.249565,296.082377,-9844.739029,229.828649
3239.249893,0.000000,-9474.636058,1302.362347
3239.250221,444.123565,-10584.944971,0.000000
3239.250548,148.041188,-9918.759623,-995.924147
3239.250876,-1110.308913,-8808.450710,0.000000
3239.251203,-222.061783,-9548.656652,536.266849
3239.251531,740.205942,-10658.965565,-612.876398
3239.251858,1258.350101,-12879.583391,-689.485948
3239.252186,1184.329507,-11695.253884,-2068.457845
3239.252513,1110.308913,-9030.512492,-1915.238745
