#time,accel_x,accel_y,accel_z
3152.346721,296.082377,-10214.842000,-766.095498
3152.347048,0.000000,-9696.697840,0.000000
3152.347376,148.041188,-10214.842000,-383.047749
3152.347703,222.061783,-9696.697840,-459.657299
3152.348031,0.000000,-9622.677246,-459.657299
3152.348358,0.000000,-9474.636058,-306.438199
3152.348686,0.000000,-9400.615463,-459.657299
3152.349013,0.000000,-9104.533087,-383.047749
3152.349341,518.144159,-9622.677246,-153.219100
3152.349668,296.082377,-9770.718434,0.000000
3152.349996,592.164754,-9696.697840,153.219100
3152.350323,666.185348,-9548.656652,306.438199
3152.350651,296.082377,-9104.533087,229.828649
3152.350978,296.082377,-9178.553681,612.876398
3152.351305,518.144159,-8734.430116,459.657299
3152.351633,0.000000,-8364.327145,995.924147
3152.351960,74.020594,-8808.450710,-536.266849
3152.352288,-370.102971,-8882.471304,-229.828649
3152.352615,-148.041188,-9178.553681,-383.047749
3152.352943,0.000000,-9474.636058,-689.485948
3152.353270,518.144159,-9622.677246,-536.266849
3152.353598,296.082377,-9918.759623,-536.266849
3152.353925,1110.308913,-10066.800811,0.000000
3152.354253,888.247130,-10066.800811,0.000000
3152.354580,740.205942,-9770.718434,-306.438199
3152.354908,518.144159,-9696.697840,-306.438199
3152.355235,222.061783,-9844.739029,-306.438199
3152.355563,444.123565,-9992.780217,-229.828649
3152.355890,148.041188,-9770.718434,229.828649
3152.356218,-222.061783,-9918.759623,-995.924147
3152.356545,74.020594,-9992.780217,-1149.143247
3152.356872,444.123565,-10658.965565,-1072.533697
3152.357200,518.144159,-10881.027347,-612.876398
3152.357527,518.144159,-10510.924376,-689.485948
3152.357855,592.164754,-10584.944971,-229.828649
3152.358182,814.226536,-10362.883188,-383.047749
3152.358510,296.082377,-9622.677246,229.828649
3152.358837,296.082377,-9844.739029,-459.657299
3152.359165,74.020594,-9178.553681,-459.657299
3152.359492,592.164754,-8734.430116,-306.438199
3152.359820,1258.350101,-9178.553681,0.000000
3152.360147,1776.494261,-8734.430116,153.219100
3152.360475,3108.864956,-8882.471304,0.000000
3152.360802,4219.173869,-8586.388927,459.657299
3152.361130,5625.565159,-9178.553681,536.266849
3152.361457,6439.791695,-9770.718434,536.266849
3152.361785,7105.977043,-9548.656652,842.705048
3152.362112,7476.080014,-9474.636058,383.047749
3152.362440,7550.100608,-9104.533087,689.485948
3152.362767,7698.141797,-9474.636058,1608.800546
3152.363094,7105.977043,-9474.636058,995.924147
3152.363422,7994.224174,-9030.512492,0.000000
3152.363749,9030.512492,-8882.471304,0.000000
3152.364077,9622.677246,-8956.491898,0.000000
3152.364404,9918.759623,-9400.615463,153.219100
3152.364732,10584.944971,-9178.553681,306.438199
3152.365059,11473.192101,-8586.388927,76.609550
3152.365387,11547.212695,-9696.697840,0.000000
3152.365714,11251.130318,-9844.739029,0.000000
3152.366042,11473.192101,-9770.718434,229.828649
3152.366369,11769.274478,-9252.574275,-306.438199
3152.366697,12435.459826,-10362.883188,-612.876398
3152.367024,13545.768739,-11177.109724,229.828649
3152.367352,13767.830521,-10214.842000,0.000000
3152.367679,14211.954086,-8734.430116,-842.705048
3152.368007,13915.871710,-9696.697840,-995.924147
3152.368334,14211.954086,-10881.027347,459.657299
3152.368661,13767.830521,-9622.677246,919.314598
3152.368989,13915.871710,-10214.842000,766.095498
3152.369316,13249.686362,-11029.068536,842.705048
3152.369644,13323.706956,-9770.718434,459.657299
3152.369971,12361.439231,-8956.491898,842.705048
3152.370299,11917.315666,-8956.491898,766.095498
3152.370626,11251.130318,-9030.512492,689.485948
3152.370954,10955.047942,-10288.862594,383.047749
3152.371281,9622.677246,-10214.842000,76.609550
3152.371609,8956.491898,-9326.594869,-153.219100
3152.371936,8364.327145,-8068.244768,459.657299
3152.372264,7476.080014,-7846.182985,0.000000
3152.372591,9252.574275,-8808.450710,76.609550
3152.372919,11029.068536,-9548.656652,612.876398
3152.373246,10584.944971,-10436.903782,1762.019645
3152.373574,9622.677246,-10436.903782,1915.238745
3152.373901,8734.430116,-8438.347739,1302.362347
3152.374228,7994.224174,-7402.059420,459.657299
3152.374556,7772.162391,-8142.265362,-306.438199
3152.374883,7994.224174,-10066.800811,-536.266849
3152.375211,7846.182985,-11769.274478,383.047749
3152.375538,8142.265362,-10066.800811,459.657299
3152.375866,8290.306550,-8142.265362,-689.485948
3152.376193,6957.935855,-10140.821405,76.609550
3152.376521,6217.729913,-10955.047942,76.609550
3152.376848,7476.080014,-9622.677246,-1762.019645
3152.377176,9918.759623,-8956.491898,-1685.410096
3152.377503,10362.883188,-9474.636058,-689.485948
3152.377831,9548.656652,-8956.491898,919.314598
3152.378158,6513.812290,-8660.409521,2757.943793
3152.378486,5255.462188,-9696.697840,1225.752797
3152.378813,6809.894666,-10658.965565,-2221.676944
3152.379141,6957.935855,-11177.109724,-3907.087040
3152.379468,5255.462188,-11177.109724,-1838.629195
3152.379795,4441.235652,-9770.718434,0.000000
3152.380123,4589.276840,-11177.109724,536.266849
3152.380450,3627.009116,-10732.986159,689.485948
3152.380778,2368.659014,-7846.182985,-229.828649
3152.381105,2664.741391,-6217.729913,-1072.533697
3152.381433,4367.215058,-8512.368333,-766.095498
3152.381760,4959.379811,-9252.574275,0.000000
3152.382088,4219.173869,-8438.347739,1455.581446
3152.382415,3701.029710,-8660.409521,2068.457845
3152.382743,4367.215058,-9474.636058,-383.047749
3152.383070,3627.009116,-10362.883188,-1838.629195
3152.383398,4959.379811,-11251.130318,-1532.190996
3152.383725,8290.306550,-10436.903782,-1991.848295
3152.384053,8660.409521,-10955.047942,-306.438199
3152.384380,4737.318029,-11547.212695,3524.039291
3152.384708,4885.359217,-11843.295072,3294.210641
3152.385035,5181.441594,-8142.265362,612.876398
3152.385362,3256.906145,-6661.853478,-1838.629195
3152.385690,1332.370696,-9178.553681,-1149.143247
3152.386017,1776.494261,-8142.265362,-842.705048
3152.386345,1036.288319,-7179.997637,1532.190996
3152.386672,1406.391290,-9326.594869,2298.286494
3152.387000,2294.638420,-10214.842000,1532.190996
3152.387327,1998.556043,-10140.821405,995.924147
3152.387655,888.247130,-9992.780217,995.924147
3152.387982,74.020594,-9622.677246,-1455.581446
3152.388310,-1036.288319,-9770.718434,-2068.457845
3152.388637,-2146.597232,-12583.501014,-459.657299
3152.388965,-1628.453072,-10732.986159,-612.876398
3152.389292,-518.144159,-8882.471304,-1685.410096
3152.389620,-1924.535449,-11029.068536,-306.438199
3152.389947,-1184.329507,-11177.109724,-229.828649
3152.390275,1554.432478,-9030.512492,-2451.505594
3152.390602,444.123565,-9696.697840,-1608.800546
3152.390929,666.185348,-9474.636058,1455.581446
3152.391257,1850.514855,-7402.059420,1225.752797
3152.391584,0.000000,-9252.574275,1685.410096
3152.391912,-740.205942,-11029.068536,2451.505594
3152.392239,1184.329507,-9030.512492,-612.876398
3152.392567,-444.123565,-8956.491898,-1149.143247
3152.392894,-1776.494261,-11843.295072,612.876398
3152.393222,-1258.350101,-9474.636058,-919.314598
3152.393549,-3701.029710,-9400.615463,-1378.971896
3152.393877,-4441.235652,-11103.089130,-995.924147
3152.394204,-1258.350101,-9474.636058,-2834.553343
3152.394532,-666.185348,-9104.533087,-2451.505594
3152.394859,-814.226536,-10658.965565,2451.505594
3152.395187,518.144159,-8660.409521,1532.190996
3152.395514,296.082377,-8142.265362,1149.143247
3152.395842,-1554.432478,-9400.615463,1532.190996
3152.396169,-962.267725,-7994.224174,-766.095498
3152.396496,-2368.659014,-7624.121203,-1532.190996
3152.396824,-2516.700203,-10658.965565,-306.438199
3152.397151,740.205942,-9918.759623,-2221.676944
3152.397479,666.185348,-10436.903782,-1915.238745
3152.397806,-1110.308913,-11769.274478,1149.143247
3152.398134,1702.473667,-10955.047942,229.828649
3152.398461,1480.411884,-10436.903782,-689.485948
3152.398789,888.247130,-11547.212695,0.000000
3152.399116,2738.761985,-9326.594869,-1762.019645
3152.399444,2294.638420,-8438.347739,-1455.581446
3152.399771,0.000000,-8882.471304,1302.362347
3152.400099,1702.473667,-9992.780217,1225.752797
3152.400426,814.226536,-10584.944971,229.828649
3152.400754,-370.102971,-11843.295072,0.000000
3152.401081,1480.411884,-9548.656652,-2528.115143
3152.401409,962.267725,-9474.636058,-2757.943793
3152.401736,0.000000,-11695.253884,153.219100
3152.402063,1924.535449,-9622.677246,1149.143247
3152.402391,2146.597232,-9252.574275,153.219100
3152.402718,2072.576638,-11177.109724,1149.143247
3152.403046,3923.091493,-9770.718434,76.609550
3152.403373,2442.679609,-8438.347739,-229.828649
3152.403701,370.102971,-9400.615463,1838.629195
3152.404028,1258.350101,-8882.471304,459.657299
3152.404356,962.267725,-8068.244768,-689.485948
3152.404683,-296.082377,-9622.677246,612.876398
3152.405011,0.000000,-9178.553681,153.219100
3152.405338,296.082377,-9030.512492,-1302.362347
3152.405666,-518.144159,-11029.068536,0.000000
3152.405993,1036.288319,-9770.718434,0.000000
3152.406321,962.267725,-7772.162391,0.000000
3152.406648,370.102971,-9178.553681,1762.019645
3152.406976,1332.370696,-9252.574275,612.876398
3152.407303,518.144159,-8364.327145,-842.705048
3152.407630,-1184.329507,-9030.512492,0.000000
3152.407958,666.185348,-9104.533087,-995.924147
3152.408285,962.267725,-9326.594869,-1838.629195
3152.408613,-518.144159,-11695.253884,536.266849
3152.408940,592.164754,-10881.027347,689.485948
3152.409268,888.247130,-8808.450710,-1455.581446
3152.409595,-1554.432478,-10214.842000,-689.485948
3152.409922,-1628.453072,-10807.006753,76.609550
3152.410250,-1036.288319,-9770.718434,-1608.800546
3152.410577,-2220.617826,-10807.006753,-1685.410096
3152.410905,-222.061783,-9770.718434,-1302.362347
3152.411232,370.102971,-8660.409521,-2298.286494
3152.411559,-1406.391290,-11029.068536,306.438199
3152.411887,296.082377,-10584.944971,612.876398
3152.412214,1406.391290,-9992.780217,-1455.581446
3152.412542,-888.247130,-11695.253884,0.000000
3152.412869,-962.267725,-9992.780217,0.000000
3152.413196,0.000000,-7698.141797,-1991.848295
3152.413524,-2368.659014,-9104.533087,-612.876398
3152.413851,-2886.803174,-8882.471304,1225.752797
3152.414179,-814.226536,-8438.347739,-612.876398
3152.414506,-1110.308913,-9770.718434,536.266849
3152.414833,1184.329507,-9178.553681,612.876398
3152.415161,2294.638420,-8068.244768,-459.657299
3152.415488,-666.185348,-9696.697840,1838.629195
3152.415816,0.000000,-9030.512492,995.924147
3152.416143,2294.638420,-8734.430116,-1072.533697
3152.416470,962.267725,-11029.068536,-153.219100
3152.416798,1998.556043,-11473.192101,1455.581446
3152.417125,3404.947333,-7994.224174,0.000000
3152.417453,1406.391290,-9178.553681,919.314598
3152.417780,592.164754,-10214.842000,2068.457845
3152.418107,1036.288319,-8290.306550,-306.438199
3152.418435,-1332.370696,-9030.512492,-306.438199
3152.418762,-148.041188,-8734.430116,-919.314598
3152.419090,1554.432478,-7698.141797,-1915.238745
3152.419417,444.123565,-9030.512492,-459.657299
3152.419745,1332.370696,-10955.047942,919.314598
3152.420072,3997.112087,-11843.295072,-229.828649
3152.420399,4441.235652,-12953.603985,-1455.581446
3152.420727,3552.988522,-13027.624579,-459.657299
3152.421054,2590.720797,-9252.574275,-1915.238745
3152.421382,0.000000,-8660.409521,-1378.971896
3152.421709,-1332.370696,-10732.986159,383.047749
3152.422036,-148.041188,-9474.636058,-459.657299
3152.422364,-370.102971,-8808.450710,-306.438199
3152.422691,222.061783,-9400.615463,919.314598
3152.423019,222.061783,-8660.409521,-612.876398
3152.423346,-1406.391290,-9696.697840,-612.876398
3152.423673,-2220.617826,-9844.739029,-689.485948
3152.424001,0.000000,-10214.842000,-2374.896044
3152.424328,444.123565,-10955.047942,-1915.238745
3152.424656,1480.411884,-11473.192101,612.876398
3152.424983,2664.741391,-9326.594869,995.924147
3152.425310,1628.453072,-9252.574275,766.095498
3152.425638,-888.247130,-10584.944971,1762.019645
3152.425965,-1480.411884,-9400.615463,306.438199
3152.426293,-2294.638420,-7920.203579,-842.705048
3152.426620,-2146.597232,-8068.244768,-306.438199
3152.426947,-1924.535449,-6661.853478,-229.828649
3152.427275,-2368.659014,-7698.141797,-1455.581446
3152.427602,-2590.720797,-8808.450710,1455.581446
3152.427930,74.020594,-10140.821405,689.485948
3152.428257,222.061783,-11103.089130,0.000000
3152.428584,666.185348,-11843.295072,-153.219100
3152.428912,1110.308913,-9548.656652,-1302.362347
3152.429239,518.144159,-9030.512492,-1532.190996
3152.429567,-962.267725,-10807.006753,306.438199
3152.429894,-1258.350101,-10658.965565,1149.143247
3152.430221,-814.226536,-9474.636058,383.047749
3152.430549,-296.082377,-9622.677246,0.000000
3152.430876,0.000000,-9474.636058,-1532.190996
3152.431204,-1776.494261,-9252.574275,-766.095498
3152.431531,-2664.741391,-9844.739029,229.828649
3152.431859,-1702.473667,-10510.924376,-1072.533697
3152.432186,-1110.308913,-9326.594869,-1685.410096
3152.432513,592.164754,-9326.594869,-459.657299
3152.432841,2368.659014,-9030.512492,-919.314598
3152.433168,1776.494261,-10955.047942,0.000000
3152.433496,370.102971,-11843.295072,1225.752797
3152.433823,1110.308913,-10140.821405,-306.438199
3152.434150,1702.473667,-10584.944971,-1455.581446
3152.434478,666.185348,-11029.068536,-536.266849
3152.434805,-666.185348,-9770.718434,76.609550
3152.435133,-1776.494261,-9622.677246,-459.657299
3152.435460,-592.164754,-9548.656652,-1149.143247
3152.435787,1480.411884,-9696.697840,-1762.019645
3152.436115,518.144159,-8956.491898,0.000000
3152.436442,1702.473667,-9622.677246,3217.601092
3152.436770,4293.194464,-8586.388927,1378.971896
3152.437097,3256.906145,-7105.977043,-689.485948
3152.437424,814.226536,-8290.306550,306.438199
3152.437752,1332.370696,-7994.224174,612.876398
3152.438079,962.267725,-9030.512492,1072.533697
3152.438407,0.000000,-10732.986159,919.314598
3152.438734,962.267725,-10214.842000,-1532.190996
3152.439061,-962.267725,-9918.759623,-1762.019645
3152.439389,0.000000,-11177.109724,-842.705048
3152.439716,1554.432478,-10584.944971,-459.657299
3152.440044,1776.494261,-9918.759623,-229.828649
3152.440371,1184.329507,-9474.636058,536.266849
3152.440698,2294.638420,-7550.100608,-536.266849
3152.441026,1702.473667,-7994.224174,229.828649
3152.441353,518.144159,-9104.533087,2145.067394
3152.441681,1110.308913,-8586.388927,1685.410096
3152.442008,1850.514855,-8882.471304,0.000000
3152.442336,2294.638420,-10362.883188,-1302.362347
3152.442663,0.000000,-11991.336260,153.219100
3152.442990,-666.185348,-10066.800811,-919.314598
3152.443318,-2664.741391,-9844.739029,0.000000
3152.443645,-296.082377,-11769.274478,-2528.115143
3152.443973,-518.144159,-11843.295072,-2221.676944
3152.444300,0.000000,-10436.903782,-383.047749
3152.444627,1332.370696,-8660.409521,-842.705048
3152.444955,1480.411884,-9918.759623,842.705048
3152.445282,1776.494261,-9918.759623,153.219100
3152.445610,148.041188,-9622.677246,1455.581446
3152.445937,-1480.411884,-7476.080014,-459.657299
3152.446264,222.061783,-8586.388927,-2604.724693
3152.446592,-962.267725,-9474.636058,-1072.533697
3152.446919,-1110.308913,-11103.089130,689.485948
3152.447247,-1480.411884,-10140.821405,1608.800546
3152.447574,296.082377,-10732.986159,536.266849
3152.447901,-888.247130,-10066.800811,-1608.800546
3152.448229,-1480.411884,-10214.842000,-1991.848295
3152.448556,-1776.494261,-8068.244768,-1991.848295
3152.448884,-592.164754,-7476.080014,-2145.067394
3152.449211,-370.102971,-9252.574275,-536.266849
3152.449538,518.144159,-9770.718434,1149.143247
3152.449866,1628.453072,-9252.574275,1915.238745
3152.450193,2072.576638,-10658.965565,1225.752797
3152.450521,888.247130,-10807.006753,306.438199
3152.450848,-740.205942,-9400.615463,-689.485948
3152.451175,-1702.473667,-9474.636058,-1072.533697
3152.451503,-666.185348,-9252.574275,-1685.410096
3152.451830,-518.144159,-9844.739029,-612.876398
3152.452158,296.082377,-11251.130318,689.485948
3152.452485,1406.391290,-9474.636058,-153.219100
3152.452813,1332.370696,-9178.553681,-1072.533697
3152.453140,0.000000,-10658.965565,-766.095498
3152.453467,296.082377,-10807.006753,-612.876398
3152.453795,1184.329507,-8734.430116,-1072.533697
3152.454122,1850.514855,-9252.574275,-689.485948
3152.454450,1850.514855,-10510.924376,1072.533697
3152.454777,1184.329507,-10214.842000,1838.629195
3152.455104,740.205942,-9918.759623,1302.362347
3152.455432,1776.494261,-10214.842000,0.000000
3152.455759,962.267725,-10510.924376,-1532.190996
3152.456087,-444.123565,-10436.903782,-1225.752797
3152.456414,-1184.329507,-8808.450710,-766.095498
3152.456741,-222.061783,-7550.100608,-1915.238745
3152.457069,-296.082377,-9400.615463,-689.485948
3152.457396,1850.514855,-9474.636058,-229.828649
3152.457724,2960.823768,-8216.285956,459.657299
3152.458051,3108.864956,-9622.677246,2068.457845
3152.458378,2960.823768,-10584.944971,2604.724693
3152.458706,2368.659014,-8882.471304,995.924147
3152.459033,518.144159,-8364.327145,536.266849
3152.459361,-296.082377,-9770.718434,459.657299
3152.459688,-1110.308913,-11029.068536,-1378.971896
3152.460015,-1998.556043,-11251.130318,-1838.629195
3152.460343,-1332.370696,-10140.821405,-2221.676944
3152.460670,296.082377,-9104.533087,-2834.553343
3152.460998,-222.061783,-10658.965565,-229.828649
3152.461325,888.247130,-11325.150913,2145.067394
3152.461652,3256.906145,-8068.244768,459.657299
3152.461980,2368.659014,-8216.285956,-995.924147
3152.462307,592.164754,-8512.368333,1302.362347
3152.462635,0.000000,-7920.203579,1455.581446
3152.462962,-1776.494261,-9030.512492,1608.800546
3152.463289,-1850.514855,-10288.862594,306.438199
3152.463617,-2368.659014,-10066.800811,-1991.848295
3152.463944,-1110.308913,-11547.212695,-2834.553343
3152.464272,148.041188,-12435.459826,-2451.505594
3152.464599,1036.288319,-11251.130318,-2451.505594
3152.464927,-740.205942,-10066.800811,-919.314598
3152.465254,-148.041188,-9918.759623,0.000000
3152.465581,1554.432478,-8882.471304,-306.438199
3152.465909,2516.700203,-9326.594869,842.705048
3152.466236,1406.391290,-8660.409521,2604.724693
3152.466564,1554.432478,-7994.224174,2374.896044
3152.466891,148.041188,-8586.388927,919.314598
3152.467218,-962.267725,-9030.512492,536.266849
3152.467546,-1628.453072,-9252.574275,-1072.533697
3152.467873,-3404.947333,-11177.109724,-1991.848295
3152.468201,-2368.659014,-11547.212695,-2757.943793
3152.468528,370.102971,-9992.780217,-4060.306139
3152.468855,222.061783,-10658.965565,-1685.410096
3152.469183,222.061783,-11325.150913,1762.019645
3152.469510,2886.803174,-9992.780217,2145.067394
3152.469838,4145.153275,-9992.780217,689.485948
3152.470165,2886.803174,-10362.883188,536.266849
3152.470492,666.185348,-8512.368333,383.047749
3152.470820,-1258.350101,-6365.771101,-229.828649
3152.471147,-1406.391290,-7846.182985,-383.047749
3152.471475,-666.185348,-10214.842000,-536.266849
3152.471802,-1554.432478,-11547.212695,0.000000
3152.472129,-148.041188,-10658.965565,0.000000
3152.472457,1184.329507,-9622.677246,-2068.457845
3152.472784,0.000000,-9696.697840,-1762.019645
3152.473112,-666.185348,-11251.130318,-612.876398
3152.473439,1184.329507,-8068.244768,-766.095498
3152.473766,2368.659014,-8290.306550,-153.219100
3152.474094,3182.885551,-10658.965565,1149.143247
3152.474421,2738.761985,-9548.656652,1991.848295
3152.474749,1480.411884,-9178.553681,2145.067394
3152.475076,666.185348,-10066.800811,1225.752797
3152.475404,74.020594,-10881.027347,-766.095498
3152.475731,-1480.411884,-9844.739029,-1915.238745
3152.476058,-1036.288319,-9252.574275,-2068.457845
3152.476386,-444.123565,-8290.306550,-1762.019645
3152.476713,518.144159,-9326.594869,-383.047749
3152.477041,370.102971,-10214.842000,2221.676944
3152.477368,2146.597232,-9548.656652,2374.896044
3152.477695,1924.535449,-8660.409521,-153.219100
3152.478023,2146.597232,-10510.924376,-766.095498
3152.478350,1554.432478,-10066.800811,-1072.533697
3152.478678,-444.123565,-9770.718434,-306.438199
3152.479005,-814.226536,-9918.759623,0.000000
3152.479332,518.144159,-10436.903782,-766.095498
3152.479660,444.123565,-11473.192101,-919.314598
3152.479987,-370.102971,-11399.171507,0.000000
3152.480315,444.123565,-8882.471304,-153.219100
3152.480642,0.000000,-8586.388927,-383.047749
3152.480969,-1924.535449,-9030.512492,76.609550
3152.481297,-1776.494261,-7550.100608,-229.828649
3152.481624,-666.185348,-7846.182985,0.000000
3152.481952,370.102971,-9548.656652,995.924147
3152.482279,1998.556043,-9178.553681,306.438199
3152.482606,1184.329507,-9178.553681,-153.219100
3152.482934,-222.061783,-10807.006753,459.657299
3152.483261,1110.308913,-11177.109724,-153.219100
3152.483589,518.144159,-10658.965565,-612.876398
3152.483916,-592.164754,-11399.171507,-689.485948
3152.484243,-962.267725,-10955.047942,-1608.800546
3152.484571,-2146.597232,-9104.533087,-2068.457845
3152.484898,-1850.514855,-8586.388927,-1225.752797
3152.485226,0.000000,-8808.450710,-536.266849
3152.485553,-222.061783,-9696.697840,995.924147
3152.485880,814.226536,-8882.471304,1149.143247
3152.486208,2294.638420,-8364.327145,-536.266849
3152.486535,1776.494261,-9548.656652,-536.266849
3152.486863,592.164754,-9104.533087,229.828649
3152.487190,666.185348,-8216.285956,612.876398
3152.487518,370.102971,-9696.697840,229.828649
3152.487845,74.020594,-11843.295072,0.000000
3152.488172,370.102971,-11325.150913,-306.438199
3152.488500,-666.185348,-10066.800811,-1378.971896
3152.488827,-1258.350101,-9770.718434,-842.705048
3152.489155,0.000000,-9474.636058,-995.924147
3152.489482,592.164754,-9844.739029,-536.266849
3152.489809,1110.308913,-9400.615463,-306.438199
3152.490137,2294.638420,-7846.182985,-459.657299
3152.490464,2146.597232,-8438.347739,612.876398
3152.490792,1036.288319,-10288.862594,2145.067394
3152.491119,1554.432478,-9918.759623,1762.019645
3152.491446,2146.597232,-9548.656652,76.609550
3152.491774,1184.329507,-11103.089130,-383.047749
3152.492101,1776.494261,-10214.842000,-536.266849
3152.492429,370.102971,-8216.285956,-306.438199
3152.492756,-1702.473667,-8586.388927,459.657299
3152.493083,-2072.576638,-10436.903782,0.000000
3152.493411,-444.123565,-9918.759623,-1991.848295
3152.493738,666.185348,-9770.718434,-1915.238745
3152.494066,1406.391290,-9770.718434,-383.047749
3152.494393,1184.329507,-9696.697840,1072.533697
3152.494720,814.226536,-9992.780217,1532.190996
3152.495048,2072.576638,-9770.718434,0.000000
3152.495375,2220.617826,-9770.718434,-1302.362347
3152.495703,888.247130,-11251.130318,-383.047749
3152.496030,1184.329507,-10807.006753,0.000000
3152.496357,148.041188,-9400.615463,-1225.752797
3152.496685,-2220.617826,-9104.533087,-536.266849
3152.497012,-2294.638420,-10066.800811,-306.438199
3152.497340,-1184.329507,-10140.821405,-1149.143247
3152.497667,-962.267725,-9918.759623,-1915.238745
3152.497995,-592.164754,-8956.491898,-1302.362347
3152.498322,-888.247130,-8068.244768,-536.266849
3152.498649,-592.164754,-9400.615463,0.000000
3152.498977,518.144159,-9844.739029,1149.143247
3152.499304,1184.329507,-9844.739029,842.705048
3152.499632,1110.308913,-11325.150913,536.266849
3152.499959,740.205942,-11103.089130,-229.828649
3152.500286,0.000000,-8808.450710,-1302.362347
3152.500614,-1924.535449,-8364.327145,383.047749
3152.500941,-1850.514855,-9770.718434,459.657299
3152.501269,-1628.453072,-8438.347739,-459.657299
3152.501596,-1480.411884,-8660.409521,-842.705048
3152.501923,296.082377,-9178.553681,-459.657299
3152.502251,740.205942,-8882.471304,459.657299
3152.502578,0.000000,-9474.636058,1838.629195
3152.502906,296.082377,-9474.636058,1302.362347
3152.503233,444.123565,-9844.739029,0.000000
3152.503560,148.041188,-10584.944971,-1072.533697
3152.503888,370.102971,-10510.924376,-1225.752797
3152.504215,518.144159,-9030.512492,-842.705048
3152.504543,444.123565,-9548.656652,-153.219100
3152.504870,518.144159,-11103.089130,842.705048
3152.505197,814.226536,-10510.924376,306.438199
3152.505525,-370.102971,-9844.739029,-229.828649
3152.505852,148.041188,-9474.636058,-995.924147
3152.506180,888.247130,-8660.409521,-1915.238745
3152.506507,-666.185348,-8882.471304,-306.438199
3152.506834,370.102971,-9178.553681,766.095498
3152.507162,2590.720797,-9474.636058,536.266849
3152.507489,1998.556043,-10140.821405,76.609550
3152.507817,2442.679609,-10510.924376,153.219100
3152.508144,2294.638420,-10140.821405,-612.876398
3152.508471,0.000000,-10214.842000,-689.485948
3152.508799,-1184.329507,-11695.253884,-1378.971896
3152.509126,-814.226536,-10881.027347,-2068.457845
3152.509454,296.082377,-9770.718434,-2145.067394
3152.509781,1258.350101,-9696.697840,-383.047749
3152.510109,370.102971,-11325.150913,1225.752797
3152.510436,-444.123565,-9622.677246,2451.505594
3152.510764,962.267725,-7846.182985,995.924147
3152.511091,1554.432478,-8142.265362,-919.314598
3152.511419,888.247130,-9474.636058,-689.485948
3152.511746,1628.453072,-9178.553681,1532.190996
3152.512074,1628.453072,-7105.977043,1302.362347
3152.512401,444.123565,-7624.121203,459.657299
3152.512728,0.000000,-10955.047942,1455.581446
3152.513056,0.000000,-10436.903782,1302.362347
3152.513383,74.020594,-10436.903782,229.828649
3152.513711,0.000000,-10955.047942,-1072.533697
3152.514038,-1258.350101,-9992.780217,-1915.238745
3152.514366,-2886.803174,-8364.327145,-995.924147
3152.514693,-1480.411884,-7550.100608,306.438199
3152.515021,148.041188,-8438.347739,-153.219100
3152.515348,962.267725,-9918.759623,689.485948
3152.515676,1628.453072,-10362.883188,689.485948
3152.516003,1332.370696,-9918.759623,153.219100
3152.516331,518.144159,-9474.636058,-612.876398
3152.516658,148.041188,-9770.718434,0.000000
3152.516986,888.247130,-9918.759623,0.000000
3152.517313,370.102971,-10362.883188,-919.314598
3152.517640,-296.082377,-11029.068536,-689.485948
3152.517968,666.185348,-10658.965565,-1302.362347
3152.518295,0.000000,-10807.006753,-766.095498
3152.518623,-592.164754,-11325.150913,153.219100
3152.518950,-296.082377,-10362.883188,1378.971896
3152.519278,0.000000,-10436.903782,-1608.800546
3152.519605,0.000000,-9548.656652,-3064.381992
3152.519933,-370.102971,-7920.203579,-2604.724693
3152.520260,-814.226536,-8290.306550,-995.924147
3152.520588,740.205942,-9400.615463,1302.362347
3152.520915,2590.720797,-10066.800811,1838.629195
3152.521243,2960.823768,-11547.212695,1685.410096
3152.521570,2368.659014,-11251.130318,919.314598
3152.521898,296.082377,-8882.471304,0.000000
3152.522225,-2294.638420,-8734.430116,-766.095498
3152.522552,-2886.803174,-9178.553681,-1302.362347
3152.522880,-1332.370696,-8882.471304,-1378.971896
3152.523207,-222.061783,-9104.533087,-995.924147
3152.523535,296.082377,-9622.677246,383.047749
3152.523862,1702.473667,-8808.450710,842.705048
3152.524190,1924.535449,-8808.450710,0.000000
3152.524517,740.205942,-9474.636058,536.266849
3152.524845,888.247130,-8882.471304,229.828649
3152.525172,518.144159,-8364.327145,-383.047749
3152.525500,1184.329507,-9178.553681,383.047749
3152.525827,1184.329507,-8808.450710,1608.800546
3152.526155,0.000000,-9400.615463,1991.848295
3152.526482,-1184.329507,-9696.697840,229.828649
3152.526810,0.000000,-10362.883188,-1762.019645
3152.527137,74.020594,-11843.295072,-3370.820191
3152.527464,814.226536,-11695.253884,-2681.334243
3152.527792,592.164754,-9104.533087,-842.705048
3152.528119,888.247130,-8068.244768,0.000000
3152.528447,518.144159,-10140.821405,1378.971896
3152.528774,740.205942,-10955.047942,919.314598
3152.529102,1554.432478,-9844.739029,459.657299
3152.529429,1998.556043,-10066.800811,0.000000
3152.529757,814.226536,-10362.883188,153.219100
3152.530084,-1406.391290,-10066.800811,842.705048
3152.530412,-2368.659014,-9326.594869,-612.876398
3152.530739,-1036.288319,-9918.759623,-1915.238745
3152.531067,-148.041188,-10658.965565,-2757.943793
3152.531394,296.082377,-11029.068536,-2068.457845
3152.531722,888.247130,-9178.553681,-536.266849
3152.532049,1184.329507,-8068.244768,842.705048
3152.532377,814.226536,-9326.594869,1915.238745
3152.532704,2368.659014,-10362.883188,1838.629195
3152.533031,2072.576638,-8438.347739,1072.533697
3152.533359,888.247130,-7772.162391,995.924147
3152.533686,-518.144159,-9252.574275,766.095498
3152.534014,-2220.617826,-9622.677246,-306.438199
3152.534341,-2738.761985,-9326.594869,-919.314598
3152.534669,-1184.329507,-10362.883188,-1608.800546
3152.534996,-888.247130,-11695.253884,-842.705048
3152.535324,444.123565,-11695.253884,-1685.410096
3152.535651,1110.308913,-9104.533087,-1302.362347
3152.535979,1184.329507,-7698.141797,-1149.143247
3152.536306,518.144159,-9030.512492,229.828649
3152.536634,1332.370696,-9030.512492,1915.238745
3152.536961,2368.659014,-6957.935855,1455.581446
3152.537289,2960.823768,-7920.203579,1455.581446
3152.537616,1480.411884,-9178.553681,1608.800546
3152.537943,-592.164754,-10658.965565,1455.581446
3152.538271,-1406.391290,-11029.068536,-306.438199
3152.538598,-740.205942,-12139.377449,-2681.334243
3152.538926,-1776.494261,-11917.315666,-3677.258390
3152.539253,-1406.391290,-11399.171507,-3294.210641
3152.539581,444.123565,-10436.903782,-1838.629195
3152.539908,2220.617826,-9844.739029,229.828649
3152.540236,2812.782580,-9474.636058,1532.190996
3152.540563,2220.617826,-9622.677246,2145.067394
3152.540891,2072.576638,-8290.306550,1302.362347
3152.541218,2368.659014,-8660.409521,536.266849
3152.541546,1628.453072,-8808.450710,536.266849
3152.541873,-888.247130,-8882.471304,1149.143247
3152.542201,-2220.617826,-9474.636058,-229.828649
3152.542528,-666.185348,-10807.006753,-1302.362347
3152.542855,296.082377,-11547.212695,-1915.238745
3152.543183,666.185348,-12435.459826,-1532.190996
3152.543510,814.226536,-10955.047942,-536.266849
3152.543838,592.164754,-9178.553681,-766.095498
3152.544165,296.082377,-8290.306550,-383.047749
3152.544493,0.000000,-7772.162391,689.485948
3152.544820,0.000000,-7031.956449,229.828649
3152.545148,1110.308913,-7772.162391,995.924147
3152.545475,1998.556043,-10214.842000,1225.752797
3152.545803,1406.391290,-10510.924376,1225.752797
3152.546130,0.000000,-9992.780217,689.485948
3152.546458,-518.144159,-10066.800811,-459.657299
3152.546785,-740.205942,-11547.212695,-2681.334243
3152.547113,-1110.308913,-10881.027347,-2757.943793
3152.547440,-814.226536,-9400.615463,-2221.676944
3152.547767,-296.082377,-8216.285956,-1455.581446
3152.548095,0.000000,-9326.594869,-459.657299
3152.548422,0.000000,-9770.718434,766.095498
3152.548750,1480.411884,-8956.491898,842.705048
3152.549077,2072.576638,-9992.780217,-229.828649
3152.549405,1110.308913,-9992.780217,-459.657299
3152.549732,-592.164754,-9030.512492,-766.095498
3152.550060,-1110.308913,-8808.450710,153.219100
3152.550387,0.000000,-10510.924376,0.000000
3152.550715,-1036.288319,-11769.274478,229.828649
3152.551042,-1258.350101,-11473.192101,0.000000
3152.551370,0.000000,-10288.862594,-1991.848295
3152.551697,148.041188,-9178.553681,-1915.238745
3152.552025,-888.247130,-9622.677246,-995.924147
3152.552352,-370.102971,-9696.697840,383.047749
3152.552679,740.205942,-8142.265362,612.876398
3152.553007,1628.453072,-8660.409521,689.485948
3152.553334,814.226536,-9696.697840,0.000000
3152.553662,0.000000,-8586.388927,1532.190996
3152.553989,74.020594,-8956.491898,689.485948
3152.554317,370.102971,-10066.800811,306.438199
3152.554644,0.000000,-11103.089130,-229.828649
3152.554972,-518.144159,-11769.274478,-612.876398
3152.555299,74.020594,-10436.903782,-1225.752797
3152.555627,-740.205942,-7550.100608,-1685.410096
3152.555954,74.020594,-8364.327145,-1378.971896
3152.556282,222.061783,-9622.677246,0.000000
3152.556609,1036.288319,-8216.285956,1225.752797
3152.556937,1924.535449,-8364.327145,612.876398
3152.557264,2664.741391,-9474.636058,306.438199
3152.557591,1628.453072,-9770.718434,1149.143247
3152.557919,0.000000,-9252.574275,1378.971896
3152.558246,-370.102971,-9918.759623,536.266849
3152.558574,-296.082377,-11917.315666,-1149.143247
3152.558901,296.082377,-12139.377449,-2834.553343
3152.559229,1184.329507,-11621.233289,-2528.115143
3152.559556,814.226536,-9918.759623,-1149.143247
3152.559884,222.061783,-9992.780217,76.609550
3152.560211,-740.205942,-9474.636058,842.705048
3152.560539,740.205942,-8290.306550,-689.485948
3152.560866,1850.514855,-8734.430116,-2221.676944
3152.561194,1258.350101,-8956.491898,-383.047749
3152.561521,592.164754,-8216.285956,1762.019645
3152.561849,1406.391290,-8438.347739,1532.190996
3152.562176,2146.597232,-10362.883188,1838.629195
3152.562504,1480.411884,-11695.253884,1685.410096
3152.562831,1480.411884,-11843.295072,-229.828649
3152.563158,-444.123565,-11325.150913,-919.314598
3152.563486,-1554.432478,-10436.903782,-1838.629195
3152.563813,-2516.700203,-8882.471304,-2987.772442
3152.564141,-2812.782580,-8956.491898,-1608.800546
3152.564468,-1184.329507,-8142.265362,306.438199
3152.564796,1184.329507,-7328.038826,76.609550
3152.565123,2072.576638,-8512.368333,842.705048
3152.565451,1776.494261,-8734.430116,1838.629195
3152.565778,1480.411884,-8586.388927,1685.410096
3152.566106,1998.556043,-8956.491898,1225.752797
3152.566433,1332.370696,-9474.636058,536.266849
3152.566761,-444.123565,-10066.800811,306.438199
3152.567088,-1554.432478,-11399.171507,-1302.362347
3152.567416,-888.247130,-10436.903782,-1915.238745
3152.567743,0.000000,-9474.636058,-2604.724693
3152.568070,-592.164754,-10955.047942,-459.657299
3152.568398,-296.082377,-11473.192101,995.924147
3152.568725,1036.288319,-9474.636058,-383.047749
3152.569053,1258.350101,-8660.409521,-2221.676944
3152.569380,-740.205942,-7772.162391,-383.047749
3152.569708,-2294.638420,-7624.121203,689.485948
3152.570035,-444.123565,-8882.471304,1072.533697
3152.570363,1406.391290,-11103.089130,689.485948
3152.570690,1776.494261,-12435.459826,153.219100
3152.571018,1036.288319,-11843.295072,-459.657299
3152.571345,0.000000,-11177.109724,-995.924147
3152.571673,-1036.288319,-9918.759623,-2604.724693
3152.572000,-1776.494261,-9548.656652,-2911.162892
3152.572328,-1628.453072,-9400.615463,-1762.019645
3152.572655,0.000000,-7698.141797,-995.924147
3152.572982,1332.370696,-8956.491898,-383.047749
3152.573310,1036.288319,-9770.718434,2145.067394
3152.573637,814.226536,-8956.491898,2681.334243
3152.573965,814.226536,-9400.615463,995.924147
3152.574292,666.185348,-10288.862594,-306.438199
3152.574620,0.000000,-9474.636058,-1072.533697
3152.574947,222.061783,-9622.677246,-766.095498
3152.575275,0.000000,-10510.924376,383.047749
3152.575602,0.000000,-9474.636058,842.705048
3152.575930,-518.144159,-8882.471304,-383.047749
3152.576257,0.000000,-9844.739029,-689.485948
3152.576585,888.247130,-10510.924376,-1532.190996
3152.576912,1702.473667,-8808.450710,-1532.190996
3152.577240,296.082377,-8290.306550,153.219100
3152.577567,296.082377,-8956.491898,1532.190996
3152.577894,1110.308913,-8586.388927,612.876398
3152.578222,888.247130,-10807.006753,919.314598
3152.578549,444.123565,-11029.068536,919.314598
3152.578877,1776.494261,-10510.924376,-1608.800546
3152.579204,1036.288319,-9992.780217,-1302.362347
3152.579532,-1258.350101,-10436.903782,0.000000
3152.579859,-1776.494261,-9770.718434,-536.266849
3152.580187,-296.082377,-9474.636058,-995.924147
3152.580514,444.123565,-9400.615463,-1302.362347
3152.580842,1628.453072,-10436.903782,-842.705048
3152.581169,1702.473667,-9770.718434,842.705048
3152.581497,1258.350101,-7846.182985,1915.238745
3152.581824,1480.411884,-8512.368333,766.095498
3152.582152,888.247130,-10584.944971,536.266849
3152.582479,444.123565,-10658.965565,536.266849
3152.582806,0.000000,-9326.594869,0.000000
3152.583134,-1258.350101,-9030.512492,-459.657299
3152.583461,-1776.494261,-10658.965565,-1762.019645
3152.583789,-1776.494261,-10955.047942,-1991.848295
3152.584116,-444.123565,-10436.903782,-1149.143247
3152.584444,962.267725,-9622.677246,-1225.752797
3152.584771,1332.370696,-9844.739029,-842.705048
3152.585099,1406.391290,-9548.656652,536.266849
3152.585426,518.144159,-8512.368333,1532.190996
3152.585754,740.205942,-7328.038826,919.314598
3152.586081,444.123565,-8438.347739,1149.143247
3152.586409,148.041188,-9696.697840,383.047749
3152.586736,444.123565,-9622.677246,-153.219100
3152.587064,1036.288319,-9918.759623,-689.485948
3152.587391,222.061783,-11399.171507,153.219100
3152.587719,-222.061783,-11695.253884,536.266849
3152.588046,962.267725,-9770.718434,-842.705048
3152.588373,518.144159,-9622.677246,-689.485948
3152.588701,-148.041188,-10288.862594,0.000000
3152.589028,-370.102971,-8956.491898,0.000000
3152.589356,-1332.370696,-7994.224174,229.828649
3152.589683,-1110.308913,-7254.018232,-153.219100
3152.590011,0.000000,-8068.244768,-306.438199
3152.590338,148.041188,-10362.883188,842.705048
3152.590666,2294.638420,-10807.006753,229.828649
3152.590993,2368.659014,-10584.944971,-842.705048
3152.591321,1258.350101,-10140.821405,0.000000
3152.591648,-444.123565,-10140.821405,-153.219100
3152.591976,-518.144159,-10955.047942,-612.876398
3152.592303,0.000000,-10510.924376,-306.438199
3152.592631,1110.308913,-9992.780217,-383.047749
3152.592958,2294.638420,-10510.924376,-459.657299
3152.593285,740.205942,-9474.636058,766.095498
3152.593613,222.061783,-8290.306550,842.705048
3152.593940,518.144159,-8364.327145,0.000000
3152.594268,-370.102971,-9992.780217,-536.266849
3152.594595,-296.082377,-10436.903782,-1225.752797
3152.594923,-222.061783,-8882.471304,-2451.505594
3152.595250,-296.082377,-9104.533087,-536.266849
3152.595578,222.061783,-10584.944971,612.876398
3152.595905,1406.391290,-11917.315666,995.924147
3152.596233,1258.350101,-11843.295072,1532.190996
3152.596560,2146.597232,-10066.800811,-1378.971896
3152.596888,1406.391290,-10066.800811,-2757.943793
3152.597215,-666.185348,-8586.388927,-689.485948
3152.597543,-1480.411884,-7254.018232,459.657299
3152.597870,-518.144159,-7846.182985,229.828649
3152.598197,-592.164754,-9400.615463,536.266849
3152.598525,-148.041188,-10881.027347,-306.438199
3152.598852,962.267725,-10807.006753,-919.314598
3152.599180,518.144159,-9548.656652,-153.219100
3152.599507,0.000000,-9326.594869,76.609550
3152.599835,-518.144159,-9992.780217,306.438199
3152.600162,-444.123565,-8808.450710,306.438199
3152.600490,296.082377,-8438.347739,0.000000
3152.600817,1036.288319,-9104.533087,-153.219100
3152.601145,0.000000,-9918.759623,536.266849
3152.601472,-888.247130,-9622.677246,1072.533697
3152.601800,-1184.329507,-8956.491898,-612.876398
3152.602127,-666.185348,-9696.697840,-1455.581446
3152.602455,296.082377,-11177.109724,-1608.800546
3152.602782,1406.391290,-10584.944971,-919.314598
3152.603109,666.185348,-9326.594869,459.657299
3152.603437,814.226536,-9844.739029,1072.533697
3152.603764,296.082377,-9696.697840,612.876398
3152.604092,0.000000,-9770.718434,995.924147
3152.604419,-296.082377,-9400.615463,-153.219100
3152.604747,0.000000,-9474.636058,-1072.533697
3152.605074,-666.185348,-9252.574275,-1072.533697
3152.605402,-1036.288319,-8882.471304,-1149.143247
3152.605729,0.000000,-9474.636058,-766.095498
3152.606057,1332.370696,-10881.027347,-689.485948
3152.606384,1998.556043,-11473.192101,0.000000
3152.606712,2812.782580,-10955.047942,0.000000
3152.607039,2516.700203,-9622.677246,76.609550
3152.607367,444.123565,-9104.533087,1378.971896
3152.607694,-1036.288319,-8734.430116,1991.848295
3152.608021,-814.226536,-9548.656652,0.000000
3152.608349,-962.267725,-9622.677246,-1072.533697
3152.608676,666.185348,-10140.821405,-1838.629195
3152.609004,296.082377,-9548.656652,-919.314598
3152.609331,74.020594,-9474.636058,919.314598
3152.609659,888.247130,-9844.739029,306.438199
3152.609986,1776.494261,-10214.842000,-383.047749
3152.610314,1258.350101,-10510.924376,-612.876398
3152.610641,740.205942,-9770.718434,-536.266849
3152.610969,0.000000,-8216.285956,-766.095498
3152.611297,444.123565,-7254.018232,-229.828649
3152.611624,592.164754,-8586.388927,689.485948
3152.611952,666.185348,-10288.862594,2374.896044
3152.612280,1480.411884,-10214.842000,1685.410096
3152.612607,2368.659014,-10584.944971,-536.266849
3152.612935,666.185348,-9918.759623,-1455.581446
3152.613263,-1924.535449,-7328.038826,-1302.362347
3152.613590,-814.226536,-8808.450710,-995.924147
3152.613918,-370.102971,-10955.047942,0.000000
3152.614246,370.102971,-10658.965565,0.000000
3152.614573,592.164754,-9992.780217,-995.924147
3152.614901,370.102971,-9252.574275,-459.657299
3152.615229,814.226536,-9326.594869,-153.219100
3152.615556,0.000000,-9992.780217,0.000000
3152.615884,740.205942,-9178.553681,689.485948
3152.616212,1406.391290,-8364.327145,0.000000
3152.616539,814.226536,-9178.553681,-459.657299
3152.616867,-1184.329507,-10955.047942,459.657299
3152.617195,-1480.411884,-10584.944971,229.828649
3152.617522,888.247130,-10362.883188,-1455.581446
3152.617850,888.247130,-12065.356855,-1685.410096
3152.618178,592.164754,-11991.336260,-306.438199
3152.618505,1258.350101,-9992.780217,-383.047749
3152.618833,1406.391290,-8364.327145,-536.266849
3152.619161,-370.102971,-8438.347739,-306.438199
3152.619488,-2368.659014,-8586.388927,0.000000
3152.619816,-2664.741391,-7550.100608,76.609550
3152.620144,-222.061783,-8364.327145,76.609550
3152.620471,592.164754,-10510.924376,-766.095498
3152.620799,-222.061783,-10955.047942,842.705048
3152.621127,370.102971,-10288.862594,1149.143247
3152.621454,1406.391290,-9992.780217,-995.924147
3152.621782,814.226536,-10658.965565,-1608.800546
3152.622110,222.061783,-9770.718434,-1838.629195
3152.622437,0.000000,-8216.285956,-919.314598
3152.622765,1110.308913,-8882.471304,-306.438199
3152.623093,74.020594,-9030.512492,383.047749
3152.623420,-814.226536,-9400.615463,1302.362347
3152.623748,-962.267725,-9326.594869,536.266849
3152.624076,-148.041188,-9474.636058,-1225.752797
3152.624404,0.000000,-9474.636058,-2528.115143
3152.624731,962.267725,-9844.739029,-919.314598
3152.625059,0.000000,-9400.615463,1072.533697
3152.625387,1184.329507,-9474.636058,1378.971896
3152.625714,1184.329507,-10214.842000,229.828649
3152.626042,888.247130,-11325.150913,-229.828649
3152.626370,1036.288319,-10732.986159,-995.924147
3152.626697,888.247130,-9252.574275,-1455.581446
3152.627025,74.020594,-8660.409521,-1225.752797
3152.627353,0.000000,-10732.986159,-383.047749
3152.627680,888.247130,-9474.636058,383.047749
3152.628008,1406.391290,-8512.368333,919.314598
3152.628336,666.185348,-9844.739029,919.314598
3152.628663,148.041188,-10288.862594,689.485948
3152.628991,0.000000,-9252.574275,689.485948
3152.629319,0.000000,-9400.615463,0.000000
3152.629646,-296.082377,-10214.842000,0.000000
3152.629974,296.082377,-10955.047942,-536.266849
3152.630302,296.082377,-9622.677246,-1302.362347
3152.630629,666.185348,-9030.512492,-1225.752797
3152.630957,592.164754,-8364.327145,-919.314598
3152.631285,296.082377,-9252.574275,153.219100
3152.631612,1184.329507,-10066.800811,536.266849
3152.631940,2738.761985,-9400.615463,689.485948
3152.632268,1702.473667,-9770.718434,1532.190996
3152.632595,-444.123565,-9474.636058,2221.676944
3152.632923,-2442.679609,-9178.553681,919.314598
3152.633251,-2146.597232,-9326.594869,-1149.143247
3152.633578,-222.061783,-9548.656652,-1838.629195
3152.633906,296.082377,-10658.965565,-1685.410096
3152.634234,962.267725,-10955.047942,0.000000
3152.634561,1036.288319,-10140.821405,0.000000
3152.634889,1036.288319,-9474.636058,-306.438199
3152.635217,296.082377,-8734.430116,-1532.190996
3152.635544,-740.205942,-9252.574275,-1072.533697
3152.635872,0.000000,-8586.388927,0.000000
3152.636200,1184.329507,-8660.409521,459.657299
3152.636527,1110.308913,-10955.047942,1685.410096
3152.636855,1110.308913,-10436.903782,2911.162892
3152.637183,1924.535449,-10584.944971,1838.629195
3152.637510,1924.535449,-11399.171507,229.828649
3152.637838,148.041188,-10881.027347,-919.314598
3152.638166,-666.185348,-8586.388927,-2068.457845
3152.638493,-1184.329507,-8142.265362,-2221.676944
3152.638821,-1850.514855,-8142.265362,0.000000
3152.639149,-1258.350101,-8882.471304,0.000000
3152.639476,-1110.308913,-9252.574275,306.438199
3152.639804,444.123565,-10066.800811,229.828649
3152.640132,1924.535449,-10066.800811,-1302.362347
3152.640459,1406.391290,-9770.718434,229.828649
3152.640787,1332.370696,-8808.450710,2451.505594
3152.641115,1924.535449,-8068.244768,2145.067394
3152.641443,592.164754,-9696.697840,1455.581446
3152.641770,-740.205942,-10807.006753,153.219100
3152.642098,0.000000,-10362.883188,-1915.238745
3152.642426,1554.432478,-11325.150913,-2604.724693
3152.642753,74.020594,-10584.944971,-842.705048
3152.643081,370.102971,-8882.471304,-766.095498
3152.643409,518.144159,-8882.471304,-459.657299
3152.643736,1110.308913,-9474.636058,-536.266849
3152.644064,1480.411884,-9326.594869,-383.047749
3152.644392,444.123565,-9030.512492,153.219100
3152.644719,-1406.391290,-8438.347739,1685.410096
3152.645047,-740.205942,-8364.327145,1072.533697
3152.645375,148.041188,-10732.986159,-306.438199
3152.645702,518.144159,-12805.562797,306.438199
3152.646030,1554.432478,-12583.501014,-1532.190996
3152.646358,2072.576638,-10510.924376,-3140.991542
3152.646685,740.205942,-10584.944971,-2757.943793
3152.647013,-444.123565,-10066.800811,-2145.067394
3152.647341,-1036.288319,-8586.388927,-842.705048
3152.647668,370.102971,-7772.162391,1149.143247
3152.647996,1702.473667,-8438.347739,1302.362347
3152.648324,814.226536,-10436.903782,995.924147
3152.648651,-1036.288319,-9400.615463,2145.067394
3152.648979,-1258.350101,-7846.182985,842.705048
3152.649307,-222.061783,-9030.512492,-1149.143247
3152.649634,-592.164754,-10214.842000,0.000000
3152.649962,-592.164754,-9326.594869,-306.438199
3152.650290,444.123565,-9030.512492,-536.266849
3152.650617,814.226536,-9548.656652,-459.657299
3152.650945,666.185348,-10140.821405,-766.095498
3152.651273,0.000000,-9918.759623,-612.876398
3152.651600,-148.041188,-9252.574275,536.266849
3152.651928,888.247130,-8290.306550,0.000000
3152.652256,1110.308913,-9104.533087,-919.314598
3152.652583,-148.041188,-9030.512492,1685.410096
3152.652911,518.144159,-7994.224174,1991.848295
3152.653239,518.144159,-9400.615463,766.095498
3152.653566,0.000000,-11473.192101,383.047749
3152.653894,74.020594,-11325.150913,-1378.971896
3152.654222,222.061783,-10362.883188,-2987.772442
3152.654549,-1184.329507,-10066.800811,-1838.629195
3152.654877,-370.102971,-9622.677246,-1991.848295
3152.655205,296.082377,-9474.636058,-1302.362347
3152.655532,1184.329507,-10066.800811,0.000000
3152.655860,2664.741391,-10436.903782,229.828649
3152.656188,2368.659014,-10066.800811,76.609550
3152.656515,1628.453072,-9474.636058,1225.752797
3152.656843,666.185348,-8586.388927,1608.800546
3152.657171,-888.247130,-8808.450710,766.095498
3152.657498,-2368.659014,-10140.821405,-306.438199
3152.657826,-2590.720797,-11399.171507,-1685.410096
3152.658154,-1480.411884,-10658.965565,-3753.867940
3152.658482,0.000000,-10214.842000,-2987.772442
3152.658809,1110.308913,-10658.965565,-1149.143247
3152.659137,740.205942,-10584.944971,995.924147
3152.659465,1554.432478,-8512.368333,1838.629195
3152.659792,2812.782580,-8882.471304,919.314598
3152.660120,1998.556043,-8734.430116,-612.876398
3152.660448,-296.082377,-8142.265362,766.095498
3152.660775,-1332.370696,-7550.100608,1455.581446
3152.661103,-1258.350101,-7698.141797,689.485948
3152.661431,-148.041188,-9770.718434,459.657299
3152.661758,666.185348,-11621.233289,919.314598
3152.662086,2442.679609,-11251.130318,-689.485948
3152.662414,1628.453072,-11325.150913,-459.657299
3152.662741,1036.288319,-10066.800811,-689.485948
3152.663069,888.247130,-7772.162391,-1302.362347
3152.663397,592.164754,-7994.224174,76.609550
3152.663724,0.000000,-8068.244768,1838.629195
3152.664052,222.061783,-8660.409521,1455.581446
3152.664380,74.020594,-9104.533087,1302.362347
3152.664707,-666.185348,-9918.759623,-153.219100
3152.665035,-1110.308913,-9992.780217,-1762.019645
3152.665363,-814.226536,-10732.986159,-1378.971896
3152.665690,0.000000,-10584.944971,-689.485948
3152.666018,1998.556043,-9844.739029,-1378.971896
3152.666346,1480.411884,-9770.718434,-153.219100
3152.666673,-444.123565,-10658.965565,689.485948
3152.667001,0.000000,-10510.924376,229.828649
3152.667329,1110.308913,-10436.903782,-459.657299
3152.667656,444.123565,-11103.089130,-229.828649
3152.667984,962.267725,-10436.903782,-842.705048
3152.668312,888.247130,-9252.574275,-612.876398
3152.668639,-592.164754,-7846.182985,383.047749
3152.668967,74.020594,-8956.491898,-1149.143247
3152.669295,-888.247130,-10881.027347,0.000000
3152.669622,-1184.329507,-10881.027347,153.219100
3152.669950,0.000000,-9474.636058,-1378.971896
3152.670278,0.000000,-10066.800811,-1149.143247
3152.670605,-1332.370696,-10214.842000,383.047749
3152.670933,1184.329507,-9918.759623,536.266849
3152.671261,2072.576638,-9326.594869,-1378.971896
3152.671588,1258.350101,-10584.944971,-306.438199
3152.671916,1332.370696,-10436.903782,-153.219100
3152.672244,1184.329507,-8290.306550,0.000000
3152.672571,0.000000,-7179.997637,76.609550
3152.672899,296.082377,-8882.471304,612.876398
3152.673227,-222.061783,-10066.800811,536.266849
3152.673554,-296.082377,-10807.006753,536.266849
3152.673882,888.247130,-10140.821405,-1685.410096
3152.674210,444.123565,-9474.636058,-1762.019645
3152.674537,-296.082377,-8882.471304,383.047749
3152.674865,888.247130,-8512.368333,0.000000
3152.675193,1628.453072,-8882.471304,612.876398
3152.675521,1702.473667,-9400.615463,153.219100
3152.675848,888.247130,-9474.636058,-1225.752797
3152.676176,1776.494261,-10066.800811,-689.485948
3152.676504,740.205942,-9326.594869,0.000000
3152.676831,222.061783,-10066.800811,0.000000
3152.677159,222.061783,-11325.150913,-306.438199
3152.677487,814.226536,-11769.274478,-383.047749
3152.677814,1554.432478,-9844.739029,-1378.971896
3152.678142,592.164754,-9918.759623,76.609550
3152.678470,-1184.329507,-10436.903782,842.705048
3152.678797,-666.185348,-8882.471304,0.000000
3152.679125,-814.226536,-8808.450710,-766.095498
3152.679453,-1554.432478,-9844.739029,0.000000
3152.679780,-444.123565,-9770.718434,-536.266849
3152.680108,-444.123565,-8290.306550,-1455.581446
3152.680436,0.000000,-8512.368333,306.438199
3152.680763,1110.308913,-10214.842000,76.609550
3152.681091,1258.350101,-11251.130318,459.657299
3152.681419,1554.432478,-11399.171507,1149.143247
3152.681746,3108.864956,-10510.924376,-612.876398
3152.682074,1480.411884,-9844.739029,0.000000
3152.682402,-1628.453072,-9844.739029,1455.581446
3152.682729,-3627.009116,-7624.121203,76.609550
3152.683057,-3108.864956,-8364.327145,-1915.238745
3152.683385,-1480.411884,-9474.636058,-2298.286494
3152.683712,148.041188,-9844.739029,-2221.676944
3152.684040,148.041188,-9844.739029,306.438199
3152.684368,0.000000,-8512.368333,2451.505594
3152.684695,1406.391290,-8290.306550,383.047749
3152.685023,1110.308913,-10436.903782,-1302.362347
3152.685351,444.123565,-10362.883188,-459.657299
3152.685678,592.164754,-8586.388927,-689.485948
3152.686006,888.247130,-9104.533087,0.000000
3152.686334,0.000000,-10288.862594,612.876398
3152.686661,0.000000,-10807.006753,1455.581446
3152.686989,814.226536,-9918.759623,229.828649
3152.687317,1776.494261,-11103.089130,0.000000
3152.687644,1702.473667,-10510.924376,-1608.800546
3152.687972,888.247130,-8364.327145,-1378.971896
3152.688300,-814.226536,-7846.182985,229.828649
3152.688627,0.000000,-8660.409521,766.095498
3152.688955,-148.041188,-8290.306550,766.095498
3152.689283,0.000000,-9622.677246,2221.676944
3152.689610,1110.308913,-10214.842000,-536.266849
3152.689938,1776.494261,-11103.089130,-1532.190996
3152.690266,888.247130,-10881.027347,-383.047749
3152.690593,1184.329507,-9326.594869,0.000000
3152.690921,1332.370696,-8956.491898,153.219100
3152.691249,148.041188,-8512.368333,919.314598
3152.691576,0.000000,-9696.697840,153.219100
3152.691904,-148.041188,-10955.047942,-766.095498
3152.692232,296.082377,-10214.842000,306.438199
3152.692560,1036.288319,-9474.636058,689.485948
3152.692887,666.185348,-8438.347739,229.828649
3152.693215,-222.061783,-9326.594869,842.705048
3152.693543,444.123565,-9844.739029,-689.485948
3152.693870,1184.329507,-10510.924376,-1991.848295
3152.694198,-1036.288319,-8956.491898,-612.876398
3152.694526,-1776.494261,-7994.224174,-842.705048
3152.694853,-592.164754,-9474.636058,-1225.752797
3152.695181,518.144159,-12139.377449,306.438199
3152.695509,1110.308913,-12065.356855,459.657299
3152.695836,2146.597232,-11547.212695,-689.485948
3152.696164,1628.453072,-11177.109724,0.000000
3152.696492,1110.308913,-9622.677246,-1072.533697
3152.696819,814.226536,-8956.491898,-612.876398
3152.697147,-666.185348,-8586.388927,689.485948
3152.697475,148.041188,-9252.574275,0.000000
3152.697802,814.226536,-9992.780217,-919.314598
3152.698130,-740.205942,-9696.697840,842.705048
3152.698458,-1702.473667,-8808.450710,76.609550
3152.698785,-1258.350101,-8290.306550,-2145.067394
3152.699113,-1628.453072,-10140.821405,-1225.752797
3152.699441,0.000000,-10658.965565,-383.047749
3152.699768,1184.329507,-9992.780217,0.000000
3152.700096,814.226536,-9770.718434,1838.629195
3152.700424,1184.329507,-9844.739029,1149.143247
3152.700751,444.123565,-10066.800811,612.876398
3152.701079,-814.226536,-9474.636058,1532.190996
3152.701407,0.000000,-8734.430116,-919.314598
3152.701734,-148.041188,-9400.615463,-1608.800546
3152.702062,-1406.391290,-10214.842000,-229.828649
3152.702390,-1110.308913,-8438.347739,306.438199
3152.702717,370.102971,-7624.121203,-229.828649
3152.703045,0.000000,-9474.636058,536.266849
3152.703373,74.020594,-9696.697840,229.828649
3152.703700,1258.350101,-10510.924376,-153.219100
3152.704028,148.041188,-11103.089130,0.000000
3152.704356,-444.123565,-9770.718434,0.000000
3152.704683,-370.102971,-8512.368333,-1225.752797
3152.705011,-222.061783,-9844.739029,-459.657299
3152.705339,296.082377,-10362.883188,-153.219100
3152.705666,888.247130,-10214.842000,-1225.752797
3152.705994,518.144159,-11029.068536,-766.095498
3152.706322,1998.556043,-9770.718434,-689.485948
3152.706649,2368.659014,-8956.491898,-689.485948
3152.706977,148.041188,-9548.656652,1455.581446
3152.707305,-444.123565,-9474.636058,1455.581446
3152.707632,-592.164754,-10214.842000,-229.828649
3152.707960,-296.082377,-10881.027347,-1455.581446
3152.708288,814.226536,-9400.615463,-1532.190996
3152.708615,1258.350101,-9326.594869,-383.047749
3152.708943,1110.308913,-10658.965565,1608.800546
3152.709271,1998.556043,-11177.109724,383.047749
3152.709598,2368.659014,-10584.944971,-2757.943793
3152.709926,0.000000,-9770.718434,-1532.190996
3152.710253,-592.164754,-8216.285956,-1302.362347
3152.710581,592.164754,-7846.182985,-1072.533697
3152.710909,592.164754,-8586.388927,229.828649
3152.711236,518.144159,-9770.718434,2298.286494
3152.711564,1776.494261,-9918.759623,2068.457845
3152.711891,2072.576638,-10584.944971,1762.019645
3152.712219,1702.473667,-10436.903782,1149.143247
3152.712547,888.247130,-7994.224174,-766.095498
3152.712874,-1332.370696,-7254.018232,-612.876398
3152.713202,-1184.329507,-9030.512492,-229.828649
3152.713529,74.020594,-10362.883188,-1072.533697
3152.713857,-370.102971,-10510.924376,0.000000
3152.714185,-814.226536,-8956.491898,689.485948
3152.714512,518.144159,-8956.491898,-689.485948
3152.714840,370.102971,-10807.006753,0.000000
3152.715167,296.082377,-10288.862594,689.485948
3152.715495,2294.638420,-8364.327145,76.609550
3152.715822,2072.576638,-8512.368333,1532.190996
3152.716150,74.020594,-7846.182985,2145.067394
3152.716478,-1184.329507,-9400.615463,612.876398
3152.716805,-1036.288319,-11843.295072,-306.438199
3152.717133,518.144159,-12065.356855,-1991.848295
3152.717460,1332.370696,-12065.356855,-3370.820191
3152.717788,74.020594,-11251.130318,-1991.848295
3152.718116,0.000000,-9474.636058,0.000000
3152.718443,888.247130,-9326.594869,-1302.362347
3152.718771,666.185348,-10140.821405,-1072.533697
3152.719098,-592.164754,-9104.533087,229.828649
3152.719426,-370.102971,-8734.430116,-153.219100
3152.719753,-592.164754,-9474.636058,0.000000
3152.720081,-592.164754,-10436.903782,612.876398
3152.720409,888.247130,-9992.780217,-383.047749
3152.720736,1110.308913,-11621.233289,-306.438199
3152.721064,1406.391290,-12509.480420,0.000000
3152.721391,1776.494261,-10436.903782,-2604.724693
3152.721719,0.000000,-10066.800811,-1991.848295
3152.722047,-740.205942,-9400.615463,-842.705048
3152.722374,0.000000,-8142.265362,-383.047749
3152.722702,0.000000,-8290.306550,1225.752797
3152.723029,-740.205942,-8956.491898,2298.286494
3152.723357,-888.247130,-9178.553681,306.438199
3152.723684,-1628.453072,-8956.491898,-536.266849
3152.724012,-2442.679609,-8882.471304,229.828649
3152.724340,0.000000,-7624.121203,-842.705048
3152.724667,0.000000,-7550.100608,229.828649
3152.724995,1628.453072,-11103.089130,1072.533697
3152.725322,2072.576638,-11917.315666,-153.219100
3152.725650,1776.494261,-11251.130318,-383.047749
3152.725978,222.061783,-9104.533087,229.828649
3152.726305,814.226536,-8956.491898,-383.047749
3152.726633,0.000000,-9400.615463,0.000000
3152.726960,-518.144159,-9770.718434,1072.533697
3152.727288,296.082377,-9030.512492,536.266849
3152.727615,1776.494261,-9770.718434,306.438199
3152.727943,-296.082377,-9326.594869,2145.067394
3152.728271,-222.061783,-7476.080014,536.266849
3152.728598,-592.164754,-8660.409521,-995.924147
3152.728926,-518.144159,-12065.356855,-1762.019645
3152.729253,518.144159,-11103.089130,-2374.896044
3152.729581,1406.391290,-10214.842000,-2451.505594
3152.729909,888.247130,-9696.697840,0.000000
3152.730236,962.267725,-9474.636058,766.095498
3152.730564,1406.391290,-10732.986159,0.000000
3152.730891,1332.370696,-10584.944971,153.219100
3152.731219,1776.494261,-9844.739029,-612.876398
3152.731546,1110.308913,-9992.780217,0.000000
3152.731874,-814.226536,-8882.471304,1302.362347
3152.732202,-740.205942,-7994.224174,536.266849
3152.732529,-518.144159,-10066.800811,229.828649
3152.732857,-740.205942,-11029.068536,-153.219100
3152.733184,444.123565,-10436.903782,-1455.581446
3152.733512,1554.432478,-10140.821405,-1991.848295
3152.733840,74.020594,-8734.430116,-229.828649
3152.734167,-444.123565,-8364.327145,229.828649
3152.734495,-1184.329507,-9622.677246,0.000000
3152.734822,-2146.597232,-9696.697840,0.000000
3152.735150,222.061783,-8586.388927,-2221.676944
3152.735477,1332.370696,-9178.553681,-2145.067394
3152.735805,-148.041188,-11399.171507,995.924147
3152.736133,296.082377,-11103.089130,2374.896044
3152.736460,444.123565,-9400.615463,1149.143247
3152.736788,1036.288319,-10362.883188,459.657299
3152.737115,1924.535449,-10140.821405,-1685.410096
3152.737443,1036.288319,-8660.409521,-1532.190996
3152.737771,-444.123565,-7328.038826,1072.533697
3152.738098,-814.226536,-6957.935855,536.266849
3152.738426,-370.102971,-9030.512492,0.000000
3152.738753,-1110.308913,-9844.739029,766.095498
3152.739081,74.020594,-10066.800811,-536.266849
3152.739408,962.267725,-10436.903782,-1378.971896
3152.739736,370.102971,-10658.965565,-919.314598
3152.740064,666.185348,-9474.636058,-612.876398
3152.740391,1406.391290,-9474.636058,536.266849
3152.740719,1406.391290,-11843.295072,1762.019645
3152.741046,2368.659014,-11843.295072,919.314598
3152.741374,2516.700203,-9992.780217,-1302.362347
3152.741702,814.226536,-9030.512492,-1302.362347
3152.742029,-148.041188,-8808.450710,-306.438199
3152.742357,-740.205942,-8216.285956,-919.314598
3152.742684,148.041188,-9326.594869,0.000000
3152.743012,2146.597232,-8290.306550,0.000000
3152.743339,2442.679609,-7920.203579,-689.485948
3152.743667,222.061783,-9992.780217,995.924147
3152.743995,-666.185348,-10955.047942,1149.143247
3152.744322,296.082377,-10436.903782,0.000000
3152.744650,1702.473667,-11621.233289,-1302.362347
3152.744977,2812.782580,-11843.295072,-612.876398
3152.745305,3478.967927,-11547.212695,0.000000
3152.745633,2368.659014,-11547.212695,1149.143247
3152.745960,1406.391290,-9474.636058,229.828649
3152.746288,-370.102971,-6883.915261,-1838.629195
3152.746615,-3478.967927,-7476.080014,-1302.362347
3152.746943,-2442.679609,-7550.100608,-995.924147
3152.747270,-888.247130,-7920.203579,-612.876398
3152.747598,-518.144159,-10140.821405,383.047749
3152.747926,-370.102971,-9918.759623,1225.752797
3152.748253,666.185348,-9252.574275,306.438199
3152.748581,962.267725,-10807.006753,612.876398
3152.748908,518.144159,-11325.150913,-383.047749
3152.749236,222.061783,-9474.636058,-383.047749
3152.749564,-814.226536,-8660.409521,-1302.362347
3152.749891,-888.247130,-9178.553681,-383.047749
3152.750219,0.000000,-10807.006753,0.000000
3152.750546,-814.226536,-10510.924376,0.000000
3152.750874,-814.226536,-10510.924376,-459.657299
3152.751202,0.000000,-10288.862594,-2451.505594
3152.751529,-1702.473667,-8512.368333,-1455.581446
3152.751857,-1628.453072,-6957.935855,612.876398
3152.752184,-592.164754,-7624.121203,1378.971896
3152.752512,0.000000,-9696.697840,2298.286494
3152.752839,814.226536,-11029.068536,2068.457845
3152.753167,518.144159,-9992.780217,153.219100
3152.753495,0.000000,-10436.903782,-306.438199
3152.753822,-518.144159,-10140.821405,-1915.238745
3152.754150,-814.226536,-9474.636058,-3140.991542
3152.754477,-888.247130,-9696.697840,-2528.115143
3152.754805,74.020594,-10658.965565,-766.095498
3152.755133,1184.329507,-11103.089130,0.000000
3152.755460,1036.288319,-9696.697840,1685.410096
3152.755788,666.185348,-8364.327145,1302.362347
3152.756115,740.205942,-8290.306550,995.924147
3152.756443,370.102971,-9400.615463,0.000000
3152.756770,444.123565,-9622.677246,153.219100
3152.757098,814.226536,-10140.821405,-459.657299
3152.757426,296.082377,-9918.759623,76.609550
3152.757753,592.164754,-8956.491898,229.828649
3152.758081,814.226536,-7846.182985,-842.705048
3152.758408,-148.041188,-9844.739029,0.000000
3152.758736,-370.102971,-10881.027347,-689.485948
3152.759064,296.082377,-10732.986159,-1991.848295
3152.759391,0.000000,-10140.821405,-1685.410096
3152.759719,296.082377,-8660.409521,-229.828649
3152.760046,1776.494261,-7402.059420,459.657299
3152.760374,2146.597232,-10955.047942,2451.505594
3152.760701,2146.597232,-11621.233289,2604.724693
3152.761029,2738.761985,-10807.006753,0.000000
3152.761357,1702.473667,-9992.780217,-842.705048
3152.761684,592.164754,-8290.306550,-536.266849
3152.762012,74.020594,-7550.100608,-1532.190996
3152.762339,-370.102971,-9474.636058,-306.438199
3152.762667,74.020594,-10288.862594,459.657299
3152.762995,1776.494261,-10881.027347,0.000000
3152.763322,1184.329507,-10214.842000,153.219100
3152.763650,74.020594,-8660.409521,995.924147
3152.763977,222.061783,-8216.285956,0.000000
3152.764305,74.020594,-9770.718434,0.000000
3152.764632,370.102971,-10732.986159,306.438199
3152.764960,1332.370696,-9844.739029,-229.828649
3152.765288,592.164754,-10140.821405,919.314598
3152.765615,222.061783,-9622.677246,1455.581446
3152.765943,962.267725,-9844.739029,-306.438199
3152.766270,296.082377,-11029.068536,-1455.581446
3152.766598,-592.164754,-10732.986159,-536.266849
3152.766926,888.247130,-9252.574275,-306.438199
3152.767253,592.164754,-7254.018232,0.000000
3152.767581,-1184.329507,-6661.853478,1991.848295
3152.767908,-2072.576638,-8068.244768,1302.362347
3152.768236,-962.267725,-9548.656652,0.000000
3152.768563,0.000000,-11399.171507,-536.266849
3152.768891,1036.288319,-11251.130318,-1302.362347
3152.769219,0.000000,-11029.068536,0.000000
3152.769546,0.000000,-9918.759623,459.657299
3152.769874,888.247130,-9030.512492,-2451.505594
3152.770201,74.020594,-10214.842000,-1685.410096
3152.770529,-962.267725,-10807.006753,0.000000
3152.770857,-370.102971,-9104.533087,-919.314598
3152.771184,-592.164754,-9252.574275,-1225.752797
3152.771512,-1258.350101,-8956.491898,-383.047749
3152.771839,-888.247130,-8808.450710,-306.438199
3152.772167,-666.185348,-9474.636058,919.314598
3152.772494,222.061783,-10362.883188,536.266849
3152.772822,296.082377,-10066.800811,-919.314598
3152.773150,-296.082377,-9474.636058,-919.314598
3152.773477,-296.082377,-8438.347739,-229.828649
3152.773805,814.226536,-8660.409521,-995.924147
3152.774132,370.102971,-10955.047942,76.609550
3152.774460,1110.308913,-12213.398043,766.095498
3152.774788,2294.638420,-11029.068536,-842.705048
3152.775115,1258.350101,-9992.780217,-1532.190996
3152.775443,-370.102971,-9104.533087,0.000000
3152.775770,-888.247130,-7698.141797,306.438199
3152.776098,444.123565,-8216.285956,153.219100
3152.776425,518.144159,-9844.739029,1532.190996
3152.776753,1258.350101,-10288.862594,1072.533697
3152.777081,370.102971,-9696.697840,1149.143247
3152.777408,370.102971,-8956.491898,995.924147
3152.777736,444.123565,-8142.265362,-766.095498
3152.778063,-592.164754,-10510.924376,-995.924147
3152.778391,0.000000,-10362.883188,-229.828649
3152.778719,1850.514855,-8512.368333,-1915.238745
3152.779046,2146.597232,-9252.574275,-1225.752797
3152.779374,740.205942,-9474.636058,1225.752797
3152.779701,0.000000,-8882.471304,1302.362347
3152.780029,296.082377,-9474.636058,536.266849
3152.780356,666.185348,-10584.944971,-842.705048
3152.780684,1110.308913,-10881.027347,-2068.457845
3152.781012,370.102971,-10066.800811,-766.095498
3152.781339,0.000000,-9178.553681,766.095498
3152.781667,296.082377,-9252.574275,0.000000
3152.781994,370.102971,-10140.821405,-612.876398
3152.782322,-592.164754,-10066.800811,229.828649
3152.782650,1332.370696,-9696.697840,-1302.362347
3152.782977,1480.411884,-8956.491898,-1991.848295
3152.783305,-1332.370696,-9030.512492,766.095498
3152.783632,-1850.514855,-8734.430116,-536.266849
3152.783960,-1258.350101,-10066.800811,-1532.190996
3152.784287,518.144159,-11695.253884,-1685.410096
3152.784615,2368.659014,-11325.150913,-2145.067394
3152.784943,2146.597232,-12139.377449,383.047749
3152.785270,1924.535449,-10732.986159,1991.848295
3152.785598,1702.473667,-9178.553681,1149.143247
3152.785925,592.164754,-9474.636058,-383.047749
3152.786253,-666.185348,-8438.347739,0.000000
3152.786581,-518.144159,-7328.038826,-689.485948
3152.786908,-518.144159,-7772.162391,-995.924147
3152.787236,-1628.453072,-8808.450710,536.266849
3152.787563,-1480.411884,-8586.388927,1149.143247
3152.787891,-666.185348,-9252.574275,76.609550
3152.788219,370.102971,-10362.883188,0.000000
3152.788546,370.102971,-10658.965565,-536.266849
3152.788874,222.061783,-9918.759623,-1455.581446
3152.789201,370.102971,-9474.636058,-383.047749
3152.789529,666.185348,-8882.471304,1149.143247
3152.789856,1036.288319,-9030.512492,766.095498
3152.790184,444.123565,-9400.615463,2374.896044
3152.790512,1110.308913,-9992.780217,995.924147
3152.790839,1332.370696,-10066.800811,-1225.752797
3152.791167,-222.061783,-9770.718434,-1378.971896
3152.791494,-148.041188,-7328.038826,-842.705048
3152.791822,-518.144159,-7105.977043,-1072.533697
3152.792150,-814.226536,-9992.780217,995.924147
3152.792477,-370.102971,-11843.295072,153.219100
3152.792805,1998.556043,-11251.130318,-2451.505594
3152.793132,2072.576638,-10807.006753,-1532.190996
3152.793460,1480.411884,-10881.027347,153.219100
3152.793787,592.164754,-10807.006753,842.705048
3152.794115,592.164754,-10140.821405,995.924147
3152.794443,2072.576638,-9252.574275,-459.657299
3152.794770,1924.535449,-9844.739029,-2451.505594
3152.795098,-296.082377,-9918.759623,0.000000
3152.795425,-444.123565,-8808.450710,383.047749
3152.795753,222.061783,-9400.615463,-1225.752797
3152.796081,666.185348,-11769.274478,-1149.143247
3152.796408,888.247130,-11843.295072,-459.657299
3152.796736,1184.329507,-10362.883188,-842.705048
3152.797063,814.226536,-8808.450710,-383.047749
3152.797391,1036.288319,-8068.244768,-229.828649
3152.797718,-148.041188,-8808.450710,229.828649
3152.798046,-518.144159,-8808.450710,1532.190996
3152.798374,444.123565,-8808.450710,1302.362347
3152.798701,666.185348,-9770.718434,0.000000
3152.799029,-1332.370696,-10066.800811,0.000000
3152.799356,-1628.453072,-9622.677246,0.000000
3152.799684,-888.247130,-8364.327145,-766.095498
3152.800012,0.000000,-9400.615463,-2068.457845
3152.800339,0.000000,-9992.780217,-766.095498
3152.800667,74.020594,-9252.574275,229.828649
3152.800994,0.000000,-9400.615463,1378.971896
3152.801322,592.164754,-8660.409521,1685.410096
3152.801649,-1036.288319,-8068.244768,995.924147
3152.801977,-1332.370696,-8808.450710,383.047749
3152.802305,0.000000,-9400.615463,0.000000
3152.802632,518.144159,-10436.903782,-1762.019645
3152.802960,-592.164754,-10510.924376,-995.924147
3152.803287,-814.226536,-9326.594869,-229.828649
3152.803615,444.123565,-9030.512492,-1072.533697
3152.803943,1554.432478,-11251.130318,-1532.190996
3152.804270,1776.494261,-12139.377449,-459.657299
3152.804598,1850.514855,-11473.192101,-229.828649
3152.804925,1406.391290,-9918.759623,-229.828649
3152.805253,888.247130,-8734.430116,-459.657299
3152.805580,-444.123565,-8586.388927,0.000000
3152.805908,-444.123565,-9844.739029,306.438199
3152.806236,148.041188,-10436.903782,306.438199
3152.806563,888.247130,-9992.780217,-1225.752797
3152.806891,-444.123565,-10066.800811,-459.657299
3152.807218,0.000000,-9548.656652,306.438199
3152.807546,-222.061783,-7920.203579,229.828649
3152.807874,-962.267725,-8734.430116,76.609550
3152.808201,-592.164754,-10955.047942,-536.266849
3152.808529,518.144159,-11177.109724,-2068.457845
3152.808856,518.144159,-9400.615463,-2374.896044
3152.809184,1850.514855,-8808.450710,-995.924147
3152.809511,1554.432478,-9770.718434,1149.143247
3152.809839,1332.370696,-10807.006753,2374.896044
3152.810167,1258.350101,-9770.718434,1838.629195
3152.810494,1998.556043,-9622.677246,-306.438199
3152.810822,370.102971,-9622.677246,-995.924147
3152.811150,-888.247130,-8512.368333,0.000000
3152.811477,-148.041188,-6587.832884,-153.219100
3152.811805,296.082377,-8216.285956,0.000000
3152.812133,444.123565,-10658.965565,1378.971896
3152.812460,1406.391290,-11325.150913,842.705048
3152.812788,1406.391290,-10362.883188,-383.047749
3152.813116,814.226536,-9104.533087,-995.924147
3152.813443,0.000000,-8068.244768,-2221.676944
3152.813771,-740.205942,-9400.615463,-995.924147
3152.814099,-148.041188,-9474.636058,383.047749
3152.814426,2072.576638,-10584.944971,383.047749
3152.814754,2516.700203,-11547.212695,842.705048
3152.815082,1554.432478,-11029.068536,1915.238745
3152.815409,1036.288319,-9622.677246,383.047749
3152.815737,962.267725,-9992.780217,-612.876398
3152.816065,888.247130,-10584.944971,-612.876398
3152.816393,888.247130,-9030.512492,-1532.190996
3152.816720,-962.267725,-8586.388927,-459.657299
3152.817048,-1036.288319,-8956.491898,-306.438199
3152.817376,-222.061783,-9696.697840,-1149.143247
3152.817703,444.123565,-10658.965565,-1072.533697
3152.818031,148.041188,-11325.150913,-229.828649
3152.818359,222.061783,-11103.089130,919.314598
3152.818686,1036.288319,-9992.780217,229.828649
3152.819014,740.205942,-8512.368333,536.266849
3152.819342,148.041188,-8660.409521,459.657299
3152.819669,-666.185348,-9622.677246,153.219100
3152.819997,-222.061783,-11029.068536,-76.609550
3152.820325,518.144159,-10510.924376,-383.047749
3152.820652,444.123565,-9770.718434,-2298.286494
3152.820980,-1332.370696,-8956.491898,-612.876398
3152.821308,-962.267725,-8660.409521,0.000000
3152.821636,-592.164754,-8512.368333,-919.314598
3152.821963,-814.226536,-9178.553681,0.000000
3152.822291,0.000000,-9326.594869,536.266849
3152.822619,222.061783,-9474.636058,459.657299
3152.822946,962.267725,-10436.903782,1838.629195
3152.823274,740.205942,-8808.450710,919.314598
3152.823602,-296.082377,-10288.862594,76.609550
3152.823929,222.061783,-11547.212695,-842.705048
3152.824257,1036.288319,-11251.130318,-2834.553343
3152.824585,814.226536,-9252.574275,-2604.724693
3152.824912,0.000000,-7846.182985,-766.095498
3152.825240,0.000000,-8734.430116,229.828649
3152.825568,74.020594,-9622.677246,536.266849
3152.825895,0.000000,-10066.800811,842.705048
3152.826223,666.185348,-9992.780217,536.266849
3152.826551,962.267725,-9474.636058,536.266849
3152.826878,296.082377,-9474.636058,1685.410096
3152.827206,0.000000,-9252.574275,1532.190996
3152.827534,74.020594,-9622.677246,-842.705048
3152.827862,296.082377,-10584.944971,-1455.581446
3152.828189,888.247130,-10732.986159,-1838.629195
3152.828517,1406.391290,-10066.800811,-1991.848295
3152.828845,740.205942,-9770.718434,-995.924147
3152.829172,518.144159,-9400.615463,-689.485948
3152.829500,74.020594,-9770.718434,-689.485948
3152.829828,1184.329507,-10807.006753,153.219100
3152.830155,1776.494261,-9844.739029,919.314598
3152.830483,1110.308913,-8660.409521,1685.410096
3152.830811,0.000000,-8142.265362,2068.457845
3152.831138,-444.123565,-8956.491898,1302.362347
3152.831466,-148.041188,-9844.739029,766.095498
3152.831794,-592.164754,-10288.862594,766.095498
3152.832121,518.144159,-9548.656652,-1608.800546
3152.832449,592.164754,-8586.388927,-2221.676944
3152.832777,-1184.329507,-9474.636058,-1225.752797
3152.833105,-2072.576638,-9622.677246,-1302.362347
3152.833432,-1184.329507,-9104.533087,-1838.629195
3152.833760,444.123565,-9844.739029,-1532.190996
3152.834088,2664.741391,-10214.842000,-1302.362347
3152.834415,1776.494261,-10584.944971,2374.896044
3152.834743,1258.350101,-10732.986159,3753.867940
3152.835071,1628.453072,-9622.677246,1762.019645
3152.835398,666.185348,-9992.780217,-612.876398
3152.835726,-592.164754,-10658.965565,-1302.362347
3152.836054,-814.226536,-9548.656652,-2604.724693
3152.836381,-666.185348,-9548.656652,-2068.457845
3152.836709,296.082377,-10288.862594,-1915.238745
3152.837037,74.020594,-9252.574275,-766.095498
3152.837364,0.000000,-9474.636058,536.266849
3152.837692,592.164754,-9696.697840,1302.362347
3152.838020,1480.411884,-10214.842000,689.485948
3152.838347,666.185348,-9992.780217,-306.438199
3152.838675,-1110.308913,-9104.533087,0.000000
3152.839003,-1258.350101,-8364.327145,919.314598
3152.839331,0.000000,-9326.594869,0.000000
3152.839658,962.267725,-11547.212695,536.266849
3152.839986,1110.308913,-11177.109724,612.876398
3152.840314,1406.391290,-10214.842000,-612.876398
3152.840641,1110.308913,-9918.759623,-1225.752797
3152.840969,592.164754,-9104.533087,-1302.362347
3152.841297,296.082377,-7846.182985,-1149.143247
3152.841624,-592.164754,-7846.182985,153.219100
3152.841952,0.000000,-8142.265362,995.924147
3152.842280,518.144159,-9474.636058,306.438199
3152.842607,1110.308913,-10658.965565,1072.533697
3152.842935,370.102971,-9474.636058,1608.800546
3152.843263,592.164754,-9400.615463,1149.143247
3152.843590,1924.535449,-10955.047942,0.000000
3152.843918,1998.556043,-11325.150913,-995.924147
3152.844246,666.185348,-10584.944971,-1762.019645
3152.844573,-370.102971,-10066.800811,-1685.410096
3152.844901,-814.226536,-9622.677246,-1838.629195
3152.845229,370.102971,-10436.903782,-2221.676944
3152.845557,0.000000,-9474.636058,-383.047749
3152.845884,814.226536,-9548.656652,536.266849
3152.846212,1110.308913,-9770.718434,383.047749
3152.846540,-296.082377,-9548.656652,459.657299
3152.846867,-1036.288319,-7328.038826,689.485948
3152.847195,-740.205942,-7772.162391,536.266849
3152.847523,-148.041188,-9474.636058,689.485948
3152.847850,962.267725,-11251.130318,306.438199
3152.848178,1776.494261,-12065.356855,-1608.800546
3152.848506,1998.556043,-11695.253884,-612.876398
3152.848833,1924.535449,-11399.171507,-689.485948
3152.849161,592.164754,-9844.739029,-1072.533697
3152.849489,-518.144159,-9030.512492,-842.705048
3152.849816,0.000000,-8142.265362,-612.876398
3152.850144,518.144159,-8512.368333,383.047749
3152.850472,-592.164754,-8808.450710,1685.410096
3152.850800,-888.247130,-7846.182985,3140.991542
3152.851127,-888.247130,-7624.121203,2374.896044
3152.851455,-518.144159,-10214.842000,919.314598
3152.851783,-296.082377,-11325.150913,0.000000
3152.852110,-296.082377,-9770.718434,-1838.629195
3152.852438,296.082377,-9622.677246,-1838.629195
3152.852766,444.123565,-9400.615463,-612.876398
3152.853093,222.061783,-8808.450710,-995.924147
3152.853421,0.000000,-10066.800811,0.000000
3152.853749,296.082377,-9622.677246,153.219100
3152.854076,740.205942,-9696.697840,-919.314598
3152.854404,0.000000,-10066.800811,0.000000
3152.854732,-888.247130,-8882.471304,919.314598
3152.855059,-962.267725,-8068.244768,612.876398
3152.855387,148.041188,-9696.697840,229.828649
3152.855715,296.082377,-10732.986159,-306.438199
3152.856042,666.185348,-10807.006753,-1149.143247
3152.856370,962.267725,-9992.780217,-842.705048
3152.856698,1258.350101,-9474.636058,-842.705048
3152.857026,1258.350101,-10214.842000,-2221.676944
3152.857353,74.020594,-10288.862594,-689.485948
3152.857681,-1110.308913,-8734.430116,0.000000
3152.858009,-962.267725,-9474.636058,-919.314598
3152.858336,-1776.494261,-11325.150913,-1455.581446
3152.858664,-1184.329507,-9992.780217,-1302.362347
3152.858992,74.020594,-9326.594869,-1149.143247
3152.859319,1332.370696,-11325.150913,-306.438199
3152.859647,2072.576638,-12435.459826,1455.581446
3152.859975,2960.823768,-10881.027347,689.485948
3152.860302,1998.556043,-9918.759623,76.609550
3152.860630,592.164754,-8512.368333,-383.047749
3152.860958,370.102971,-7698.141797,-1838.629195
3152.861285,0.000000,-7624.121203,-842.705048
3152.861613,740.205942,-8216.285956,612.876398
3152.861941,296.082377,-9030.512492,1302.362347
3152.862269,0.000000,-9622.677246,1455.581446
3152.862596,222.061783,-9326.594869,2068.457845
3152.862924,518.144159,-9474.636058,0.000000
3152.863252,222.061783,-9844.739029,-689.485948
3152.863579,0.000000,-9474.636058,153.219100
3152.863907,148.041188,-9474.636058,-689.485948
3152.864235,370.102971,-9622.677246,-306.438199
3152.864562,1036.288319,-9622.677246,919.314598
3152.864890,1184.329507,-9252.574275,919.314598
3152.865218,814.226536,-10510.924376,612.876398
3152.865545,1184.329507,-10510.924376,-842.705048
3152.865873,1406.391290,-9474.636058,-1685.410096
3152.866201,222.061783,-8586.388927,-536.266849
3152.866528,222.061783,-8216.285956,0.000000
3152.866856,0.000000,-7846.182985,229.828649
3152.867184,-888.247130,-9696.697840,0.000000
3152.867511,444.123565,-11991.336260,0.000000
3152.867839,1998.556043,-12213.398043,0.000000
3152.868167,1628.453072,-10658.965565,153.219100
3152.868495,296.082377,-9918.759623,306.438199
3152.868822,222.061783,-9844.739029,-536.266849
3152.869150,222.061783,-9992.780217,-2298.286494
3152.869478,-370.102971,-10288.862594,-1991.848295
3152.869805,-888.247130,-9622.677246,-1608.800546
3152.870133,-592.164754,-10362.883188,-1455.581446
3152.870461,0.000000,-9548.656652,536.266849
3152.870788,0.000000,-9178.553681,766.095498
3152.871116,0.000000,-9548.656652,383.047749
3152.871444,814.226536,-10288.862594,689.485948
3152.871771,740.205942,-9844.739029,-306.438199
3152.872099,74.020594,-8956.491898,-995.924147
3152.872427,-740.205942,-7920.203579,76.609550
3152.872754,-740.205942,-7772.162391,0.000000
3152.873082,-296.082377,-9252.574275,536.266849
3152.873410,370.102971,-10807.006753,689.485948
3152.873737,370.102971,-10955.047942,-612.876398
3152.874065,0.000000,-9918.759623,-995.924147
3152.874393,-296.082377,-8512.368333,-689.485948
3152.874721,-666.185348,-8290.306550,229.828649
3152.875048,-148.041188,-8808.450710,76.609550
3152.875376,666.185348,-9770.718434,1991.848295
3152.875704,814.226536,-10066.800811,995.924147
3152.876031,888.247130,-9326.594869,76.609550
3152.876359,296.082377,-8438.347739,153.219100
3152.876687,-740.205942,-8808.450710,536.266849
3152.877014,-370.102971,-10140.821405,-842.705048
3152.877342,518.144159,-10881.027347,-1838.629195
3152.877670,1110.308913,-10288.862594,-2374.896044
3152.877997,296.082377,-9696.697840,-1225.752797
3152.878325,814.226536,-10436.903782,229.828649
3152.878653,1184.329507,-9548.656652,229.828649
3152.878980,1110.308913,-10288.862594,76.609550
3152.879308,1036.288319,-11177.109724,536.266849
3152.879636,1702.473667,-11103.089130,229.828649
3152.879964,740.205942,-8734.430116,0.000000
3152.880291,518.144159,-9326.594869,229.828649
3152.880619,74.020594,-9474.636058,76.609550
3152.880947,222.061783,-10510.924376,-766.095498
3152.881274,518.144159,-10955.047942,-919.314598
3152.881602,1406.391290,-9622.677246,-1225.752797
3152.881930,592.164754,-9622.677246,306.438199
3152.882257,-1480.411884,-9326.594869,1838.629195
3152.882585,-2738.761985,-8734.430116,0.000000
3152.882913,-1702.473667,-8512.368333,-2374.896044
3152.883240,444.123565,-9030.512492,-2757.943793
3152.883568,1850.514855,-10807.006753,76.609550
3152.883896,2220.617826,-11621.233289,2451.505594
3152.884223,2442.679609,-10362.883188,2451.505594
3152.884551,1184.329507,-9474.636058,76.609550
3152.884879,0.000000,-8956.491898,-2298.286494
3152.885206,-740.205942,-9992.780217,-1302.362347
3152.885534,0.000000,-7772.162391,-766.095498
3152.885862,-518.144159,-8068.244768,-229.828649
3152.886190,-666.185348,-8956.491898,1302.362347
3152.886517,444.123565,-8586.388927,1378.971896
3152.886845,1258.350101,-9030.512492,1455.581446
3152.887173,1554.432478,-10362.883188,842.705048
3152.887500,1702.473667,-10436.903782,0.000000
3152.887828,888.247130,-9252.574275,-1532.190996
3152.888156,-888.247130,-9178.553681,-1532.190996
3152.888483,-1554.432478,-9104.533087,-995.924147
3152.888811,-888.247130,-10214.842000,76.609550
3152.889139,74.020594,-11029.068536,306.438199
3152.889466,1998.556043,-10881.027347,-766.095498
3152.889794,1258.350101,-11695.253884,-689.485948
3152.890122,1184.329507,-11029.068536,0.000000
3152.890449,1110.308913,-9104.533087,0.000000
3152.890777,518.144159,-7031.956449,76.609550
3152.891105,-962.267725,-7105.977043,0.000000
3152.891432,-1628.453072,-9696.697840,689.485948
3152.891760,0.000000,-10955.047942,-1608.800546
3152.892088,1332.370696,-10362.883188,-1762.019645
3152.892416,1702.473667,-10066.800811,-995.924147
3152.892743,1406.391290,-10732.986159,306.438199
3152.893071,1036.288319,-11399.171507,842.705048
3152.893399,1776.494261,-10214.842000,153.219100
3152.893726,1332.370696,-9252.574275,-995.924147
3152.894054,-592.164754,-9104.533087,0.000000
3152.894382,-1554.432478,-8290.306550,995.924147
3152.894709,-518.144159,-9622.677246,842.705048
3152.895037,518.144159,-10658.965565,229.828649
3152.895365,1184.329507,-9918.759623,-689.485948
3152.895692,296.082377,-9400.615463,-1378.971896
3152.896020,0.000000,-9474.636058,-1378.971896
3152.896348,-370.102971,-7402.059420,-1072.533697
3152.896675,-814.226536,-7476.080014,76.609550
3152.897003,-592.164754,-9104.533087,536.266849
3152.897331,814.226536,-9844.739029,842.705048
3152.897659,1554.432478,-10881.027347,919.314598
3152.897986,814.226536,-11547.212695,1455.581446
3152.898314,0.000000,-10807.006753,383.047749
3152.898642,0.000000,-9696.697840,-1838.629195
3152.898969,-1480.411884,-9844.739029,-2528.115143
3152.899297,592.164754,-9992.780217,-1915.238745
3152.899625,592.164754,-9326.594869,-919.314598
3152.899952,0.000000,-9770.718434,459.657299
3152.900280,-888.247130,-8660.409521,766.095498
3152.900608,-296.082377,-8660.409521,-459.657299
3152.900935,-666.185348,-10214.842000,-229.828649
3152.901263,74.020594,-10288.862594,536.266849
3152.901591,222.061783,-8512.368333,-306.438199
3152.901918,222.061783,-9770.718434,229.828649
3152.902246,814.226536,-10955.047942,536.266849
3152.902574,148.041188,-9992.780217,0.000000
3152.902901,148.041188,-10362.883188,0.000000
3152.903229,2072.576638,-10140.821405,-1302.362347
3152.903557,1998.556043,-10881.027347,-1991.848295
3152.903885,0.000000,-10214.842000,-459.657299
3152.904212,-592.164754,-9178.553681,306.438199
3152.904540,-222.061783,-8364.327145,0.000000
3152.904868,666.185348,-8586.388927,-153.219100
3152.905195,444.123565,-9770.718434,229.828649
3152.905523,0.000000,-10214.842000,1991.848295
3152.905851,1110.308913,-9326.594869,842.705048
3152.906178,1406.391290,-8660.409521,306.438199
3152.906506,-296.082377,-8438.347739,536.266849
3152.906834,-1258.350101,-9770.718434,229.828649
3152.907161,-1480.411884,-10955.047942,0.000000
3152.907489,74.020594,-10807.006753,-3524.039291
3152.907817,222.061783,-9548.656652,-4366.744339
3152.908144,370.102971,-9844.739029,-1225.752797
3152.908472,1850.514855,-9918.759623,1532.190996
3152.908800,2072.576638,-10214.842000,2374.896044
3152.909128,2220.617826,-10066.800811,1532.190996
3152.909455,1184.329507,-9474.636058,-536.266849
3152.909783,-370.102971,-8290.306550,-842.705048
3152.910111,-814.226536,-7476.080014,459.657299
3152.910438,-1554.432478,-7698.141797,0.000000
3152.910766,-740.205942,-9400.615463,0.000000
3152.911094,962.267725,-11843.295072,76.609550
3152.911421,3034.844362,-12657.521608,-612.876398
3152.911749,2294.638420,-10732.986159,-459.657299
3152.912077,1184.329507,-9696.697840,766.095498
3152.912404,296.082377,-8438.347739,-383.047749
3152.912732,370.102971,-8216.285956,-612.876398
3152.913060,0.000000,-8290.306550,612.876398
3152.913387,-370.102971,-9400.615463,1991.848295
3152.913715,-148.041188,-10584.944971,2374.896044
3152.914043,74.020594,-10362.883188,842.705048
3152.914371,-1184.329507,-8438.347739,-689.485948
3152.914698,-1258.350101,-8142.265362,-1378.971896
3152.915026,666.185348,-9844.739029,-612.876398
3152.915354,1998.556043,-9252.574275,-612.876398
3152.915681,148.041188,-8734.430116,-306.438199
3152.916009,-1110.308913,-10584.944971,459.657299
3152.916337,370.102971,-10436.903782,-459.657299
3152.916664,1332.370696,-9622.677246,-1455.581446
3152.916992,1332.370696,-10436.903782,536.266849
3152.917320,0.000000,-10807.006753,1072.533697
3152.917647,222.061783,-10362.883188,766.095498
3152.917975,0.000000,-7994.224174,-306.438199
3152.918303,-1184.329507,-7179.997637,-766.095498
3152.918631,-2368.659014,-9252.574275,0.000000
3152.918958,-1110.308913,-9918.759623,229.828649
3152.919286,0.000000,-10881.027347,-1455.581446
3152.919614,888.247130,-11177.109724,-1991.848295
3152.919941,962.267725,-10807.006753,-1149.143247
3152.920269,888.247130,-9770.718434,-229.828649
3152.920597,666.185348,-10066.800811,-612.876398
3152.920924,0.000000,-10510.924376,-229.828649
3152.921252,370.102971,-9104.533087,0.000000
3152.921580,74.020594,-9104.533087,229.828649
3152.921907,0.000000,-9252.574275,612.876398
3152.922235,-444.123565,-9400.615463,919.314598
3152.922563,-1036.288319,-11177.109724,536.266849
3152.922891,-148.041188,-11695.253884,-919.314598
3152.923218,1258.350101,-10140.821405,-3447.429741
3152.923546,888.247130,-9474.636058,-3140.991542
3152.923874,888.247130,-8882.471304,76.609550
3152.924201,1628.453072,-8438.347739,612.876398
3152.924529,888.247130,-8808.450710,766.095498
3152.924857,592.164754,-10066.800811,689.485948
3152.925184,74.020594,-10140.821405,612.876398
3152.925512,0.000000,-9622.677246,689.485948
3152.925840,740.205942,-8956.491898,612.876398
3152.926167,0.000000,-9474.636058,383.047749
3152.926495,-1184.329507,-9474.636058,229.828649
3152.926823,0.000000,-9326.594869,-919.314598
3152.927151,1554.432478,-9178.553681,-1225.752797
3152.927478,1406.391290,-9104.533087,-766.095498
3152.927806,74.020594,-8956.491898,536.266849
3152.928134,0.000000,-8808.450710,919.314598
3152.928461,0.000000,-9474.636058,-612.876398
3152.928789,0.000000,-9622.677246,-1072.533697
3152.929117,0.000000,-9844.739029,-766.095498
3152.929444,444.123565,-10140.821405,306.438199
3152.929772,1406.391290,-10584.944971,459.657299
3152.930100,592.164754,-10362.883188,1072.533697
3152.930427,1332.370696,-10584.944971,689.485948
3152.930755,1850.514855,-9326.594869,459.657299
3152.931083,1184.329507,-10066.800811,919.314598
3152.931411,-1406.391290,-10658.965565,0.000000
3152.931738,-2664.741391,-9474.636058,-1378.971896
3152.932066,-1850.514855,-7254.018232,-3217.601092
3152.932394,-296.082377,-8956.491898,-4060.306139
3152.932721,0.000000,-11917.315666,-536.266849
3152.933049,1850.514855,-11547.212695,1532.190996
3152.933377,1110.308913,-10362.883188,1072.533697
3152.933704,888.247130,-11621.233289,306.438199
3152.934032,0.000000,-9770.718434,-612.876398
3152.934360,-1036.288319,-8734.430116,0.000000
3152.934688,-222.061783,-9474.636058,536.266849
3152.935015,1332.370696,-9918.759623,-536.266849
3152.935343,1110.308913,-9770.718434,306.438199
3152.935671,814.226536,-9104.533087,919.314598
3152.935998,888.247130,-8438.347739,0.000000
3152.936326,74.020594,-8734.430116,-306.438199
3152.936654,-888.247130,-8660.409521,-1225.752797
3152.936981,-1406.391290,-8438.347739,-919.314598
3152.937309,-740.205942,-8438.347739,-383.047749
3152.937637,296.082377,-9548.656652,536.266849
3152.937964,1110.308913,-9992.780217,2068.457845
3152.938292,1184.329507,-10436.903782,1991.848295
3152.938620,1480.411884,-11251.130318,612.876398
3152.938948,1332.370696,-10732.986159,-306.438199
3152.939275,592.164754,-9326.594869,-995.924147
3152.939603,222.061783,-7920.203579,0.000000
3152.939931,222.061783,-6587.832884,0.000000
3152.940258,-1184.329507,-7402.059420,-919.314598
3152.940586,-2886.803174,-10584.944971,-1225.752797
3152.940914,-666.185348,-11251.130318,-2068.457845
3152.941241,1258.350101,-11473.192101,-2221.676944
3152.941569,1850.514855,-11621.233289,0.000000
3152.941897,1702.473667,-11177.109724,1608.800546
3152.942224,1702.473667,-10214.842000,1608.800546
3152.942552,2442.679609,-9104.533087,-306.438199
3152.942880,1776.494261,-9252.574275,306.438199
3152.943208,-148.041188,-9548.656652,-229.828649
3152.943535,-1036.288319,-9474.636058,-459.657299
3152.943863,-666.185348,-9918.759623,-995.924147
3152.944191,-148.041188,-9622.677246,-2451.505594
3152.944518,444.123565,-11399.171507,-2298.286494
3152.944846,666.185348,-11473.192101,-842.705048
3152.945174,666.185348,-10362.883188,-459.657299
3152.945501,-222.061783,-9030.512492,-995.924147
3152.945829,0.000000,-8512.368333,229.828649
3152.946157,148.041188,-8586.388927,1455.581446
3152.946484,962.267725,-8882.471304,2298.286494
3152.946812,2442.679609,-9918.759623,2451.505594
3152.947140,2590.720797,-11399.171507,1302.362347
3152.947468,814.226536,-10140.821405,-459.657299
3152.947795,-888.247130,-9474.636058,-2298.286494
3152.948123,-2146.597232,-7994.224174,-2757.943793
3152.948451,-962.267725,-8290.306550,-2757.943793
3152.948778,0.000000,-9030.512492,-1072.533697
3152.949106,-592.164754,-10066.800811,612.876398
3152.949434,222.061783,-9770.718434,2068.457845
3152.949761,1184.329507,-8882.471304,1838.629195
3152.950089,0.000000,-8808.450710,1532.190996
3152.950417,0.000000,-9252.574275,689.485948
3152.950744,740.205942,-8956.491898,0.000000
3152.951072,1332.370696,-9474.636058,-766.095498
3152.951400,666.185348,-10140.821405,0.000000
3152.951728,0.000000,-8882.471304,536.266849
3152.952055,0.000000,-9252.574275,-995.924147
3152.952383,-296.082377,-10658.965565,-1991.848295
3152.952711,-962.267725,-10732.986159,-2298.286494
3152.953038,-962.267725,-10732.986159,-1838.629195
3152.953366,-592.164754,-10140.821405,-995.924147
3152.953694,0.000000,-9252.574275,153.219100
3152.954021,0.000000,-9104.533087,1608.800546
3152.954349,0.000000,-10214.842000,919.314598
3152.954677,1036.288319,-10732.986159,1072.533697
3152.955004,888.247130,-10658.965565,-459.657299
3152.955332,74.020594,-9918.759623,-995.924147
3152.955660,1110.308913,-9252.574275,-919.314598
3152.955988,592.164754,-9474.636058,-766.095498
3152.956315,-592.164754,-10658.965565,229.828649
3152.956643,-1184.329507,-10658.965565,-612.876398
3152.956971,-962.267725,-10362.883188,-1991.848295
3152.957298,-296.082377,-9548.656652,-2528.115143
3152.957626,-518.144159,-8142.265362,-689.485948
3152.957954,-296.082377,-8956.491898,2068.457845
3152.958281,666.185348,-9696.697840,2604.724693
3152.958609,2516.700203,-10510.924376,1762.019645
3152.958937,2368.659014,-10510.924376,-383.047749
3152.959265,962.267725,-9696.697840,-536.266849
3152.959592,296.082377,-8956.491898,-766.095498
3152.959920,444.123565,-7698.141797,-1149.143247
3152.960248,-296.082377,-9030.512492,-612.876398
3152.960575,74.020594,-9400.615463,0.000000
3152.960903,1554.432478,-9918.759623,1378.971896
3152.961231,1628.453072,-10066.800811,459.657299
3152.961558,1184.329507,-8586.388927,459.657299
3152.961886,0.000000,-7920.203579,0.000000
3152.962214,0.000000,-8290.306550,-1149.143247
3152.962541,888.247130,-10066.800811,-536.266849
3152.962869,1554.432478,-10881.027347,0.000000
3152.963197,1332.370696,-10658.965565,536.266849
3152.963525,962.267725,-10140.821405,919.314598
3152.963852,740.205942,-9918.759623,0.000000
3152.964180,0.000000,-10362.883188,-1532.190996
3152.964508,370.102971,-10510.924376,-2145.067394
3152.964835,148.041188,-9178.553681,-1225.752797
3152.965163,0.000000,-9252.574275,0.000000
3152.965491,-1702.473667,-7772.162391,306.438199
3152.965818,-1702.473667,-9326.594869,0.000000
3152.966146,-444.123565,-11251.130318,-306.438199
3152.966474,1702.473667,-12657.521608,-306.438199
3152.966801,2294.638420,-11769.274478,76.609550
3152.967129,2072.576638,-9844.739029,383.047749
3152.967457,1184.329507,-8956.491898,1072.533697
3152.967785,814.226536,-9104.533087,306.438199
3152.968112,-518.144159,-9030.512492,0.000000
3152.968440,-1702.473667,-9252.574275,-536.266849
3152.968768,-1850.514855,-9474.636058,-1149.143247
3152.969095,-518.144159,-10510.924376,-1915.238745
3152.969423,-666.185348,-9770.718434,-459.657299
3152.969751,-1110.308913,-7550.100608,76.609550
3152.970078,-888.247130,-8364.327145,919.314598
3152.970406,740.205942,-9474.636058,-383.047749
3152.970734,1628.453072,-9992.780217,-536.266849
3152.971061,740.205942,-9474.636058,459.657299
3152.971389,1258.350101,-9474.636058,995.924147
3152.971717,1184.329507,-9178.553681,459.657299
3152.972045,888.247130,-10362.883188,0.000000
3152.972372,-1184.329507,-10955.047942,-306.438199
3152.972700,-518.144159,-10362.883188,-1532.190996
3152.973028,-962.267725,-9548.656652,-2911.162892
3152.973355,-962.267725,-8512.368333,-2834.553343
3152.973683,-1406.391290,-7994.224174,-1378.971896
3152.974011,-1406.391290,-8734.430116,1455.581446
3152.974338,-592.164754,-10140.821405,1225.752797
3152.974666,1628.453072,-12731.542202,842.705048
3152.974994,222.061783,-10658.965565,-229.828649
3152.975321,0.000000,-8586.388927,-536.266849
3152.975649,666.185348,-8512.368333,-383.047749
3152.975977,888.247130,-10807.006753,-383.047749
3152.976305,740.205942,-10881.027347,689.485948
3152.976632,1184.329507,-9992.780217,-612.876398
3152.976960,1184.329507,-9474.636058,-919.314598
3152.977288,666.185348,-8586.388927,-1915.238745
3152.977615,-518.144159,-9326.594869,-383.047749
3152.977943,-962.267725,-9992.780217,229.828649
3152.978271,888.247130,-10955.047942,383.047749
3152.978598,2368.659014,-11029.068536,-459.657299
3152.978926,1850.514855,-8808.450710,1072.533697
3152.979254,1628.453072,-8142.265362,1072.533697
3152.979581,2294.638420,-8068.244768,1072.533697
3152.979909,1184.329507,-8808.450710,383.047749
3152.980237,444.123565,-9474.636058,306.438199
3152.980565,1480.411884,-8808.450710,-306.438199
3152.980892,444.123565,-9474.636058,0.000000
3152.981220,-1480.411884,-10510.924376,383.047749
3152.981548,-2886.803174,-9474.636058,-689.485948
3152.981875,-2368.659014,-9030.512492,-3064.381992
3152.982203,888.247130,-10288.862594,-3064.381992
3152.982531,2294.638420,-11399.171507,-689.485948
3152.982858,2072.576638,-10955.047942,2451.505594
3152.983186,2590.720797,-10140.821405,3217.601092
3152.983514,2664.741391,-10288.862594,2374.896044
3152.983842,370.102971,-9252.574275,-995.924147
3152.984169,-888.247130,-9992.780217,-1149.143247
3152.984497,-888.247130,-8734.430116,-1378.971896
3152.984825,222.061783,-9696.697840,-1685.410096
3152.985152,0.000000,-11251.130318,-689.485948
3152.985480,-592.164754,-10214.842000,76.609550
3152.985808,-962.267725,-9252.574275,1072.533697
3152.986135,222.061783,-10510.924376,306.438199
3152.986463,740.205942,-10066.800811,-536.266849
3152.986791,0.000000,-8808.450710,-689.485948
3152.987118,-222.061783,-7846.182985,229.828649
3152.987446,518.144159,-8660.409521,1378.971896
3152.987774,666.185348,-10510.924376,1532.190996
3152.988102,370.102971,-9844.739029,1302.362347
3152.988429,74.020594,-9474.636058,0.000000
3152.988757,0.000000,-9326.594869,-1378.971896
3152.989085,-888.247130,-9400.615463,-1685.410096
3152.989412,-1258.350101,-8882.471304,-612.876398
3152.989740,-592.164754,-7476.080014,-919.314598
3152.990068,-370.102971,-8586.388927,-1072.533697
3152.990395,-1258.350101,-11621.233289,-306.438199
3152.990723,-444.123565,-11695.253884,-995.924147
3152.991051,1110.308913,-9474.636058,-995.924147
3152.991378,2886.803174,-10436.903782,0.000000
3152.991706,1776.494261,-11251.130318,1149.143247
3152.992034,1332.370696,-10732.986159,1685.410096
3152.992362,1628.453072,-8586.388927,-229.828649
3152.992689,1036.288319,-9252.574275,-2068.457845
3152.993017,-1480.411884,-10362.883188,-1302.362347
3152.993345,-1998.556043,-9474.636058,-766.095498
3152.993672,-1702.473667,-8438.347739,-995.924147
3152.994000,962.267725,-11473.192101,-1302.362347
3152.994328,2442.679609,-12953.603985,-536.266849
3152.994655,2368.659014,-11843.295072,919.314598
3152.994983,1480.411884,-9030.512492,1302.362347
3152.995311,592.164754,-8216.285956,-689.485948
3152.995638,0.000000,-8512.368333,-383.047749
3152.995966,222.061783,-8364.327145,0.000000
3152.996294,1110.308913,-9104.533087,1225.752797
3152.996622,2516.700203,-11473.192101,1225.752797
3152.996949,2368.659014,-12805.562797,842.705048
3152.997277,962.267725,-10732.986159,-229.828649
3152.997605,-814.226536,-7698.141797,-2451.505594
3152.997932,0.000000,-8216.285956,-2528.115143
3152.998260,222.061783,-8882.471304,-1762.019645
3152.998588,74.020594,-9918.759623,153.219100
3152.998915,74.020594,-9400.615463,1838.629195
3152.999243,962.267725,-8512.368333,2528.115143
3152.999571,296.082377,-9400.615463,842.705048
3152.999898,-444.123565,-10288.862594,766.095498
3153.000226,-370.102971,-8290.306550,0.000000
3153.000554,444.123565,-8586.388927,-1225.752797
3153.000882,0.000000,-10214.842000,-536.266849
3153.001209,666.185348,-10658.965565,459.657299
3153.001537,1036.288319,-8586.388927,919.314598
3153.001865,740.205942,-9252.574275,76.609550
3153.002192,1110.308913,-11251.130318,-306.438199
3153.002520,1036.288319,-11843.295072,-1685.410096
3153.002848,0.000000,-9770.718434,-1072.533697
3153.003175,-814.226536,-9252.574275,-229.828649
3153.003503,-666.185348,-9400.615463,0.000000
3153.003831,-1036.288319,-9622.677246,0.000000
3153.004158,-888.247130,-9400.615463,0.000000
3153.004486,-666.185348,-10658.965565,-306.438199
3153.004814,-962.267725,-11103.089130,0.000000
3153.005142,1036.288319,-10288.862594,383.047749
3153.005469,74.020594,-8512.368333,459.657299
3153.005797,0.000000,-8956.491898,459.657299
3153.006125,-1258.350101,-10288.862594,-153.219100
3153.006452,-1702.473667,-11473.192101,-1762.019645
3153.006780,-1628.453072,-9178.553681,-2451.505594
3153.007108,0.000000,-8956.491898,-1685.410096
3153.007435,-518.144159,-8734.430116,-383.047749
3153.007763,-296.082377,-9770.718434,1378.971896
3153.008091,888.247130,-10955.047942,1225.752797
3153.008418,1332.370696,-11325.150913,383.047749
3153.008746,0.000000,-9474.636058,-842.705048
3153.009074,-222.061783,-8142.265362,-383.047749
3153.009402,148.041188,-6957.935855,0.000000
3153.009729,74.020594,-8660.409521,0.000000
3153.010057,444.123565,-10436.903782,1302.362347
3153.010385,1776.494261,-10658.965565,842.705048
3153.010712,1998.556043,-10510.924376,-229.828649
3153.011040,1998.556043,-9622.677246,-842.705048
3153.011368,370.102971,-9104.533087,-689.485948
3153.011695,0.000000,-8216.285956,-383.047749
3153.012023,666.185348,-9548.656652,-459.657299
3153.012351,1110.308913,-11251.130318,306.438199
3153.012678,1036.288319,-10510.924376,1532.190996
3153.013006,962.267725,-9474.636058,2757.943793
3153.013334,1332.370696,-8808.450710,1685.410096
3153.013662,888.247130,-9844.739029,0.000000
3153.013989,0.000000,-10881.027347,-689.485948
3153.014317,370.102971,-9474.636058,-1991.848295
3153.014645,444.123565,-7846.182985,-2298.286494
3153.014972,-296.082377,-8364.327145,-1302.362347
3153.015300,-1258.350101,-10140.821405,0.000000
3153.015628,-148.041188,-10658.965565,-383.047749
3153.015955,2960.823768,-11325.150913,-2068.457845
3153.016283,3404.947333,-12657.521608,0.000000
3153.016611,2368.659014,-11917.315666,1685.410096
3153.016938,2072.576638,-8882.471304,1915.238745
3153.017266,1850.514855,-7254.018232,1302.362347
3153.017594,518.144159,-8882.471304,229.828649
3153.017922,-296.082377,-10066.800811,-612.876398
3153.018249,-518.144159,-9400.615463,-1838.629195
3153.018577,-1110.308913,-9400.615463,-2298.286494
3153.018905,148.041188,-10658.965565,-2221.676944
3153.019232,0.000000,-10881.027347,-1608.800546
3153.019560,-888.247130,-10362.883188,-306.438199
3153.019888,-740.205942,-9474.636058,-612.876398
3153.020215,518.144159,-8734.430116,-383.047749
3153.020543,444.123565,-9030.512492,459.657299
3153.020871,444.123565,-8290.306550,2757.943793
3153.021198,1036.288319,-8956.491898,2911.162892
3153.021526,814.226536,-10732.986159,1608.800546
3153.021854,1110.308913,-11547.212695,-153.219100
3153.022181,0.000000,-10140.821405,-1915.238745
3153.022509,-1850.514855,-9178.553681,-2834.553343
3153.022837,-2072.576638,-8956.491898,-2451.505594
3153.023165,-1480.411884,-8734.430116,-2451.505594
3153.023492,-1480.411884,-9770.718434,-1149.143247
3153.023820,-1036.288319,-9770.718434,536.266849
3153.024148,148.041188,-8808.450710,1838.629195
3153.024475,222.061783,-8882.471304,2068.457845
3153.024803,-370.102971,-8882.471304,1225.752797
3153.025131,0.000000,-8438.347739,1072.533697
3153.025458,-222.061783,-8660.409521,0.000000
3153.025786,1258.350101,-10658.965565,-1149.143247
3153.026114,1776.494261,-11325.150913,-1072.533697
3153.026441,1110.308913,-10732.986159,-1149.143247
3153.026769,296.082377,-9844.739029,-1608.800546
3153.027097,-370.102971,-10362.883188,-1455.581446
3153.027424,-740.205942,-9844.739029,-2145.067394
3153.027752,222.061783,-9844.739029,-1608.800546
3153.028080,666.185348,-10214.842000,995.924147
3153.028408,0.000000,-10066.800811,1991.848295
3153.028735,370.102971,-9178.553681,1072.533697
3153.029063,0.000000,-8068.244768,612.876398
3153.029391,148.041188,-9548.656652,0.000000
3153.029718,1480.411884,-11251.130318,0.000000
3153.030046,2220.617826,-10955.047942,0.000000
3153.030374,2368.659014,-10066.800811,-1225.752797
3153.030701,1036.288319,-9918.759623,-536.266849
3153.031029,-222.061783,-9770.718434,-459.657299
3153.031357,-1332.370696,-9770.718434,-842.705048
3153.031684,-370.102971,-9104.533087,-1532.190996
3153.032012,962.267725,-9104.533087,-1532.190996
3153.032340,0.000000,-9400.615463,1762.019645
3153.032668,444.123565,-8956.491898,3370.820191
3153.032995,1702.473667,-8290.306550,3217.601092
3153.033323,962.267725,-9252.574275,1532.190996
3153.033651,1036.288319,-10732.986159,-383.047749
3153.033978,888.247130,-9992.780217,-1991.848295
3153.034306,888.247130,-8438.347739,-2681.334243
3153.034634,592.164754,-9548.656652,-1225.752797
3153.034961,518.144159,-10436.903782,689.485948
3153.035289,740.205942,-10066.800811,1302.362347
3153.035617,1258.350101,-9548.656652,0.000000
3153.035944,1110.308913,-8660.409521,0.000000
3153.036272,222.061783,-9326.594869,0.000000
3153.036600,0.000000,-8290.306550,1378.971896
3153.036927,-518.144159,-7772.162391,1149.143247
3153.037255,-518.144159,-9178.553681,766.095498
3153.037583,666.185348,-10807.006753,1149.143247
3153.037911,1702.473667,-11843.295072,1225.752797
3153.038238,1776.494261,-11177.109724,-612.876398
3153.038566,518.144159,-10955.047942,-919.314598
3153.038894,-592.164754,-10362.883188,-1838.629195
3153.039221,-962.267725,-8216.285956,-2528.115143
3153.039549,-2294.638420,-7105.977043,-1762.019645
3153.039877,-2220.617826,-8512.368333,-766.095498
3153.040204,-1628.453072,-10584.944971,-229.828649
3153.040532,222.061783,-11621.233289,-306.438199
3153.040860,518.144159,-10066.800811,995.924147
3153.041187,1332.370696,-10881.027347,1608.800546
3153.041515,814.226536,-10807.006753,1915.238745
3153.041843,1850.514855,-10436.903782,306.438199
3153.042170,1628.453072,-8364.327145,-1302.362347
3153.042498,74.020594,-8882.471304,-1455.581446
3153.042826,-370.102971,-9622.677246,-1072.533697
3153.043154,-1258.350101,-9548.656652,-1302.362347
3153.043481,-1036.288319,-9474.636058,-689.485948
3153.043809,-518.144159,-9770.718434,-689.485948
3153.044137,-962.267725,-10140.821405,-459.657299
3153.044464,-888.247130,-9622.677246,-383.047749
3153.044792,-962.267725,-8290.306550,-383.047749
3153.045120,-814.226536,-8364.327145,229.828649
3153.045447,1036.288319,-8660.409521,1302.362347
3153.045775,3034.844362,-10584.944971,1762.019645
3153.046103,2146.597232,-11473.192101,1608.800546
3153.046430,2442.679609,-11177.109724,0.000000
3153.046758,1776.494261,-9474.636058,-766.095498
3153.047086,0.000000,-9030.512492,-1991.848295
3153.047414,-1332.370696,-9474.636058,-1915.238745
3153.047741,-518.144159,-8808.450710,-1149.143247
3153.048069,-1406.391290,-8586.388927,-1378.971896
3153.048397,-1480.411884,-9622.677246,766.095498
3153.048724,-296.082377,-9178.553681,842.705048
3153.049052,-740.205942,-8734.430116,1532.190996
3153.049380,-962.267725,-10881.027347,1762.019645
3153.049707,2220.617826,-11029.068536,-536.266849
3153.050035,2072.576638,-9622.677246,-612.876398
3153.050363,2664.741391,-10214.842000,153.219100
3153.050690,1850.514855,-10436.903782,1149.143247
3153.051018,1332.370696,-9030.512492,-229.828649
3153.051346,0.000000,-8882.471304,-1685.410096
3153.051673,444.123565,-10214.842000,-1991.848295
3153.052001,-296.082377,-10214.842000,-2068.457845
3153.052329,-1184.329507,-10140.821405,-383.047749
3153.052657,-740.205942,-9104.533087,842.705048
3153.052984,0.000000,-8882.471304,842.705048
3153.053312,148.041188,-9474.636058,1149.143247
3153.053640,1850.514855,-10955.047942,1378.971896
3153.053967,1184.329507,-10214.842000,842.705048
3153.054295,1628.453072,-10140.821405,-383.047749
3153.054623,1406.391290,-9030.512492,-1455.581446
3153.054950,296.082377,-8660.409521,-1302.362347
3153.055278,-814.226536,-8586.388927,-153.219100
3153.055606,0.000000,-9992.780217,-383.047749
3153.055933,-296.082377,-9844.739029,-1149.143247
3153.056261,-296.082377,-9548.656652,-1608.800546
3153.056589,-666.185348,-8586.388927,-612.876398
3153.056916,-962.267725,-8734.430116,766.095498
3153.057244,-666.185348,-9400.615463,1915.238745
3153.057572,1406.391290,-9918.759623,1378.971896
3153.057900,2368.659014,-11325.150913,76.609550
3153.058227,1702.473667,-10881.027347,-229.828649
3153.058555,1628.453072,-8660.409521,76.609550
3153.058883,0.000000,-7994.224174,-306.438199
3153.059210,-1036.288319,-9918.759623,-1455.581446
3153.059538,-1332.370696,-11399.171507,-1991.848295
3153.059866,-740.205942,-9992.780217,-3064.381992
3153.060193,-1480.411884,-9104.533087,-2221.676944
3153.060521,-518.144159,-9918.759623,306.438199
3153.060849,74.020594,-9474.636058,995.924147
3153.061176,814.226536,-9844.739029,1302.362347
3153.061504,888.247130,-9548.656652,1762.019645
3153.061832,1554.432478,-9844.739029,689.485948
3153.062160,1554.432478,-9548.656652,76.609550
3153.062487,1036.288319,-7920.203579,306.438199
3153.062815,-222.061783,-8364.327145,536.266849
3153.063143,-1184.329507,-9696.697840,919.314598
3153.063470,-666.185348,-11029.068536,-306.438199
3153.063798,-740.205942,-10140.821405,-1838.629195
3153.064126,-1628.453072,-10214.842000,-1991.848295
3153.064453,-1924.535449,-8290.306550,-1072.533697
3153.064781,-1480.411884,-7254.018232,-766.095498
3153.065109,-518.144159,-9030.512492,459.657299
3153.065436,1850.514855,-9918.759623,1302.362347
3153.065764,3552.988522,-11029.068536,1838.629195
3153.066092,2812.782580,-10955.047942,3140.991542
3153.066419,3182.885551,-10214.842000,2068.457845
3153.066747,1406.391290,-8290.306550,459.657299
3153.067075,666.185348,-7920.203579,-612.876398
3153.067403,888.247130,-8882.471304,-1532.190996
3153.067730,0.000000,-9326.594869,-995.924147
3153.068058,-1554.432478,-11399.171507,-153.219100
3153.068386,-1258.350101,-10955.047942,-306.438199
3153.068713,444.123565,-9770.718434,-2374.896044
3153.069041,222.061783,-9844.739029,-689.485948
3153.069369,888.247130,-11769.274478,459.657299
3153.069696,2072.576638,-10584.944971,995.924147
3153.070024,2146.597232,-9992.780217,153.219100
3153.070352,2442.679609,-9770.718434,153.219100
3153.070679,2294.638420,-9696.697840,76.609550
3153.071007,592.164754,-10510.924376,0.000000
3153.071335,-296.082377,-9992.780217,-766.095498
3153.071662,370.102971,-9992.780217,-2374.896044
3153.071990,-444.123565,-10140.821405,-2528.115143
3153.072318,-1332.370696,-9844.739029,-689.485948
3153.072646,-1480.411884,-8068.244768,229.828649
3153.072973,-1480.411884,-8290.306550,536.266849
3153.073301,-666.185348,-9326.594869,842.705048
3153.073629,0.000000,-9178.553681,0.000000
3153.073956,222.061783,-7994.224174,153.219100
3153.074284,666.185348,-9548.656652,1149.143247
3153.074612,962.267725,-10658.965565,842.705048
3153.074939,518.144159,-9030.512492,-229.828649
3153.075267,518.144159,-10288.862594,-612.876398
3153.075595,222.061783,-9992.780217,-995.924147
3153.075922,-370.102971,-8956.491898,-995.924147
3153.076250,-592.164754,-8586.388927,-306.438199
3153.076578,-592.164754,-8068.244768,-383.047749
3153.076906,-1480.411884,-9400.615463,459.657299
3153.077233,0.000000,-9918.759623,766.095498
3153.077561,666.185348,-9178.553681,459.657299
3153.077889,444.123565,-9622.677246,-306.438199
3153.078216,74.020594,-9696.697840,-995.924147
3153.078544,518.144159,-10066.800811,-919.314598
3153.078872,0.000000,-10288.862594,-536.266849
3153.079199,740.205942,-11547.212695,-919.314598
3153.079527,1036.288319,-11103.089130,-1072.533697
3153.079855,592.164754,-10362.883188,-842.705048
3153.080182,-1480.411884,-9474.636058,-153.219100
3153.080510,-962.267725,-9252.574275,153.219100
3153.080838,-1110.308913,-8586.388927,0.000000
3153.081165,74.020594,-10066.800811,-536.266849
3153.081493,814.226536,-9844.739029,-995.924147
3153.081821,222.061783,-10140.821405,383.047749
3153.082149,592.164754,-10140.821405,0.000000
3153.082476,1258.350101,-9030.512492,229.828649
3153.082804,592.164754,-9992.780217,0.000000
3153.083132,1184.329507,-10732.986159,0.000000
3153.083459,1998.556043,-9844.739029,-229.828649
3153.083787,814.226536,-10066.800811,306.438199
3153.084115,-444.123565,-10436.903782,689.485948
3153.084442,-666.185348,-8882.471304,0.000000
3153.084770,-2146.597232,-7402.059420,-1302.362347
3153.085098,-888.247130,-8734.430116,-1072.533697
3153.085425,592.164754,-9548.656652,229.828649
3153.085753,1628.453072,-9770.718434,612.876398
3153.086081,1184.329507,-9104.533087,1149.143247
3153.086408,1406.391290,-9104.533087,995.924147
3153.086736,1480.411884,-9474.636058,0.000000
3153.087064,1998.556043,-9326.594869,-612.876398
3153.087392,1554.432478,-9474.636058,1149.143247
3153.087719,1406.391290,-9030.512492,689.485948
3153.088047,222.061783,-9770.718434,1302.362347
3153.088375,74.020594,-10288.862594,919.314598
3153.088702,-814.226536,-9104.533087,-995.924147
3153.089030,-888.247130,-9548.656652,-1762.019645
3153.089358,0.000000,-9474.636058,-2145.067394
3153.089685,0.000000,-10140.821405,-2068.457845
3153.090013,370.102971,-9104.533087,-919.314598
3153.090341,2072.576638,-10362.883188,76.609550
3153.090668,1924.535449,-11399.171507,1685.410096
3153.090996,2294.638420,-10881.027347,1149.143247
3153.091324,2812.782580,-9474.636058,0.000000
3153.091652,1480.411884,-10066.800811,995.924147
3153.091979,0.000000,-9030.512492,-383.047749
3153.092307,-814.226536,-9030.512492,0.000000
3153.092635,-1998.556043,-9400.615463,0.000000
3153.092962,-1924.535449,-10584.944971,-1608.800546
3153.093290,-370.102971,-11547.212695,-2221.676944
3153.093618,0.000000,-10436.903782,-2221.676944
3153.093945,0.000000,-10955.047942,-1072.533697
3153.094273,-370.102971,-10214.842000,0.000000
3153.094601,-370.102971,-8512.368333,842.705048
3153.094928,814.226536,-7920.203579,459.657299
3153.095256,1924.535449,-9178.553681,1149.143247
3153.095584,1184.329507,-10807.006753,1685.410096
3153.095911,370.102971,-10732.986159,1378.971896
3153.096239,444.123565,-8068.244768,-229.828649
3153.096567,-888.247130,-7994.224174,-612.876398
3153.096895,-1850.514855,-9548.656652,-1225.752797
3153.097222,-1110.308913,-9474.636058,-1302.362347
3153.097550,-1776.494261,-9030.512492,-1302.362347
3153.097878,-1110.308913,-9474.636058,-1532.190996
3153.098205,-370.102971,-9178.553681,-766.095498
3153.098533,-592.164754,-7846.182985,919.314598
3153.098861,444.123565,-8512.368333,1608.800546
3153.099188,2294.638420,-9992.780217,1149.143247
3153.099516,2146.597232,-9992.780217,842.705048
3153.099844,740.205942,-9844.739029,919.314598
3153.100171,222.061783,-9400.615463,766.095498
3153.100499,296.082377,-8660.409521,76.609550
3153.100827,592.164754,-10066.800811,-995.924147
3153.101154,74.020594,-10732.986159,-1762.019645
3153.101482,740.205942,-11325.150913,-2298.286494
3153.101810,518.144159,-10732.986159,-1225.752797
3153.102138,888.247130,-10807.006753,-612.876398
3153.102465,814.226536,-9844.739029,0.000000
3153.102793,444.123565,-9326.594869,383.047749
3153.103121,1110.308913,-9030.512492,-536.266849
3153.103448,0.000000,-10510.924376,76.609550
3153.103776,-444.123565,-9992.780217,459.657299
3153.104104,592.164754,-9992.780217,0.000000
3153.104431,222.061783,-9696.697840,0.000000
3153.104759,-222.061783,-9992.780217,-153.219100
3153.105087,740.205942,-11325.150913,-919.314598
3153.105414,1406.391290,-11325.150913,-1225.752797
3153.105742,1258.350101,-10288.862594,-995.924147
3153.106070,518.144159,-8364.327145,-459.657299
3153.106398,444.123565,-7402.059420,306.438199
3153.106725,444.123565,-7624.121203,1455.581446
3153.107053,1480.411884,-9622.677246,1838.629195
3153.107381,740.205942,-10214.842000,2145.067394
3153.107708,1110.308913,-9844.739029,842.705048
3153.108036,1110.308913,-7402.059420,383.047749
3153.108364,-370.102971,-8142.265362,306.438199
3153.108691,-1998.556043,-9252.574275,536.266849
3153.109019,-740.205942,-10807.006753,-842.705048
3153.109347,0.000000,-10436.903782,-2374.896044
3153.109674,592.164754,-10658.965565,-2298.286494
3153.110002,0.000000,-9474.636058,-536.266849
3153.110330,1036.288319,-8734.430116,1838.629195
3153.110657,518.144159,-8808.450710,1149.143247
3153.110985,296.082377,-9770.718434,0.000000
3153.111313,74.020594,-9844.739029,-383.047749
3153.111641,0.000000,-9770.718434,-229.828649
3153.111968,74.020594,-9326.594869,1072.533697
3153.112296,0.000000,-8734.430116,1302.362347
3153.112623,-1184.329507,-10436.903782,1532.190996
3153.112951,-592.164754,-11695.253884,-459.657299
3153.113279,296.082377,-11843.295072,-2604.724693
3153.113606,-518.144159,-11251.130318,-2757.943793
3153.113934,-1406.391290,-9326.594869,-1838.629195
3153.114261,-1258.350101,-7772.162391,-1378.971896
3153.114589,-518.144159,-8956.491898,-919.314598
3153.114916,740.205942,-10732.986159,153.219100
3153.115244,1702.473667,-11621.233289,1302.362347
3153.115572,1036.288319,-10807.006753,1378.971896
3153.115899,888.247130,-8956.491898,0.000000
3153.116227,444.123565,-8290.306550,153.219100
3153.116554,444.123565,-7994.224174,689.485948
3153.116882,222.061783,-9992.780217,76.609550
3153.117210,666.185348,-11695.253884,0.000000
3153.117537,370.102971,-10066.800811,-1072.533697
3153.117865,1184.329507,-10214.842000,-1149.143247
3153.118192,1332.370696,-8808.450710,-612.876398
3153.118520,-814.226536,-8512.368333,229.828649
3153.118847,-1110.308913,-9622.677246,0.000000
3153.119175,444.123565,-10288.862594,-1378.971896
3153.119503,518.144159,-9474.636058,-689.485948
3153.119830,888.247130,-9326.594869,536.266849
3153.120158,1480.411884,-9400.615463,1991.848295
3153.120485,2072.576638,-11103.089130,2068.457845
3153.120813,3330.926739,-11769.274478,153.219100
3153.121140,2738.761985,-10955.047942,-766.095498
3153.121468,1406.391290,-9030.512492,-919.314598
3153.121796,148.041188,-9030.512492,-842.705048
3153.122123,-814.226536,-8734.430116,-229.828649
3153.122451,-1628.453072,-8290.306550,-1302.362347
3153.122778,-1702.473667,-9326.594869,-1915.238745
3153.123106,0.000000,-10214.842000,-1225.752797
3153.123434,0.000000,-10658.965565,842.705048
3153.123761,666.185348,-10955.047942,2068.457845
3153.124089,888.247130,-8364.327145,1532.190996
3153.124416,1184.329507,-8438.347739,0.000000
3153.124744,1406.391290,-10807.006753,0.000000
3153.125071,2368.659014,-11177.109724,536.266849
3153.125399,1850.514855,-9696.697840,0.000000
3153.125727,444.123565,-8512.368333,-536.266849
3153.126054,148.041188,-9030.512492,-383.047749
3153.126382,-740.205942,-9252.574275,-1378.971896
3153.126709,-1998.556043,-9992.780217,-383.047749
3153.127037,-1036.288319,-9326.594869,-766.095498
3153.127365,-740.205942,-9548.656652,-919.314598
3153.127692,-740.205942,-10288.862594,229.828649
3153.128020,-296.082377,-9178.553681,1762.019645
3153.128347,-296.082377,-8882.471304,2068.457845
3153.128675,222.061783,-10658.965565,766.095498
3153.129002,1776.494261,-11399.171507,0.000000
3153.129330,1702.473667,-10066.800811,-1072.533697
3153.129658,0.000000,-9104.533087,-383.047749
3153.129985,-592.164754,-8586.388927,0.000000
3153.130313,-518.144159,-9770.718434,-612.876398
3153.130640,-740.205942,-9918.759623,-1762.019645
3153.130968,0.000000,-9474.636058,-1838.629195
3153.131295,-666.185348,-8660.409521,-383.047749
3153.131623,-1480.411884,-9992.780217,1149.143247
3153.131951,0.000000,-10436.903782,1685.410096
3153.132278,0.000000,-10066.800811,1072.533697
3153.132606,0.000000,-9918.759623,153.219100
3153.132933,1110.308913,-10214.842000,-536.266849
3153.133261,1036.288319,-9992.780217,-1762.019645
3153.133589,-592.164754,-10066.800811,-1225.752797
3153.133916,-1258.350101,-9622.677246,-919.314598
3153.134244,-962.267725,-9474.636058,-2221.676944
3153.134571,-1628.453072,-9474.636058,-1915.238745
3153.134899,296.082377,-9992.780217,-1302.362347
3153.135226,666.185348,-10362.883188,0.000000
3153.135554,74.020594,-9918.759623,306.438199
3153.135882,1184.329507,-9474.636058,1378.971896
3153.136209,2072.576638,-8734.430116,1302.362347
3153.136537,1776.494261,-9548.656652,1838.629195
3153.136864,1998.556043,-9844.739029,2145.067394
3153.137192,1850.514855,-8290.306550,536.266849
3153.137520,592.164754,-9178.553681,-306.438199
3153.137847,-370.102971,-9474.636058,0.000000
3153.138175,0.000000,-8882.471304,-2374.896044
3153.138502,-740.205942,-8956.491898,-2528.115143
3153.138830,0.000000,-10584.944971,-2374.896044
3153.139157,666.185348,-10510.924376,-1762.019645
3153.139485,666.185348,-9548.656652,229.828649
3153.139813,1924.535449,-10214.842000,1838.629195
3153.140140,2146.597232,-9104.533087,2068.457845
3153.140468,2590.720797,-9030.512492,2068.457845
3153.140795,3997.112087,-9104.533087,766.095498
3153.141123,3404.947333,-8956.491898,306.438199
3153.141450,1258.350101,-9400.615463,229.828649
3153.141778,444.123565,-9622.677246,-459.657299
3153.142106,0.000000,-9696.697840,-1608.800546
3153.142433,-148.041188,-10362.883188,-2528.115143
3153.142761,1110.308913,-11695.253884,-2451.505594
3153.143088,888.247130,-10955.047942,-1915.238745
3153.143416,0.000000,-11473.192101,76.609550
3153.143744,-518.144159,-10807.006753,1378.971896
3153.144071,0.000000,-8290.306550,766.095498
3153.144399,888.247130,-8142.265362,229.828649
3153.144726,2072.576638,-10658.965565,-153.219100
3153.145054,1998.556043,-11843.295072,1532.190996
3153.145381,1554.432478,-10955.047942,1225.752797
3153.145709,888.247130,-8734.430116,-536.266849
3153.146037,-1406.391290,-7846.182985,-2298.286494
3153.146364,-3182.885551,-9844.739029,-2145.067394
3153.146692,-1776.494261,-9400.615463,-2528.115143
3153.147019,-1406.391290,-7846.182985,-2604.724693
3153.147347,-1924.535449,-9770.718434,-1302.362347
3153.147675,-1702.473667,-10362.883188,2068.457845
3153.148002,-666.185348,-8882.471304,2834.553343
3153.148330,222.061783,-9474.636058,2221.676944
3153.148657,518.144159,-10584.944971,1072.533697
3153.148985,1998.556043,-10066.800811,-689.485948
3153.149312,-592.164754,-9474.636058,-383.047749
3153.149640,-444.123565,-7920.203579,306.438199
3153.149968,-296.082377,-7994.224174,-306.438199
3153.150295,-1110.308913,-9770.718434,-612.876398
3153.150623,-592.164754,-9844.739029,-1378.971896
3153.150950,-592.164754,-9326.594869,-1608.800546
3153.151278,-1702.473667,-9918.759623,0.000000
3153.151605,-1110.308913,-10140.821405,919.314598
3153.151933,-222.061783,-8142.265362,-306.438199
3153.152261,-444.123565,-9178.553681,306.438199
3153.152588,370.102971,-11843.295072,689.485948
3153.152916,1036.288319,-11621.233289,229.828649
3153.153243,296.082377,-10140.821405,-612.876398
3153.153571,1406.391290,-9252.574275,-1302.362347
3153.153899,1628.453072,-9030.512492,-1302.362347
3153.154226,0.000000,-9918.759623,-842.705048
3153.154554,148.041188,-9992.780217,-766.095498
3153.154881,740.205942,-9252.574275,-1685.410096
3153.155209,814.226536,-10658.965565,-1685.410096
3153.155536,-296.082377,-10214.842000,0.000000
3153.155864,0.000000,-8512.368333,842.705048
