#time,accel_x,accel_y,accel_z
3372.889021,0.000000,-9696.697840,-612.876398
3372.889349,0.000000,-10288.862594,-995.924147
3372.889676,0.000000,-10140.821405,-1225.752797
3372.890004,296.082377,-10288.862594,-536.266849
3372.890332,518.144159,-10658.965565,-306.438199
3372.890660,444.123565,-10881.027347,-306.438199
3372.890988,592.164754,-10436.903782,-229.828649
3372.891316,444.123565,-10066.800811,0.000000
3372.891644,444.123565,-9918.759623,0.000000
3372.891971,370.102971,-9548.656652,-229.828649
3372.892299,222.061783,-9030.512492,-536.266849
3372.892627,-740.205942,-9030.512492,0.000000
3372.892955,-222.061783,-9474.636058,-459.657299
3372.893283,0.000000,-9400.615463,-766.095498
3372.893611,0.000000,-9548.656652,-306.438199
3372.893939,74.020594,-9918.759623,0.000000
3372.894267,592.164754,-10066.800811,0.000000
3372.894594,1036.288319,-9770.718434,-306.438199
3372.894922,592.164754,-9400.615463,0.000000
3372.895250,444.123565,-9030.512492,1455.581446
3372.895578,296.082377,-8956.491898,689.485948
3372.895906,0.000000,-8734.430116,459.657299
3372.896234,0.000000,-8808.450710,153.219100
3372.896562,0.000000,-8956.491898,0.000000
3372.896890,0.000000,-8956.491898,-229.828649
3372.897217,0.000000,-9252.574275,-153.219100
3372.897545,444.123565,-10140.821405,-229.828649
3372.897873,592.164754,-10140.821405,-153.219100
3372.898201,814.226536,-10066.800811,-383.047749
3372.898529,592.164754,-10066.800811,-306.438199
3372.898857,666.185348,-9918.759623,0.000000
3372.899185,592.164754,-9548.656652,0.000000
3372.899512,0.000000,-9474.636058,-229.828649
3372.899840,0.000000,-9696.697840,-1225.752797
3372.900168,0.000000,-9548.656652,-612.876398
3372.900496,0.000000,-9992.780217,-689.485948
3372.900824,0.000000,-10140.821405,-995.924147
3372.901152,222.061783,-10510.924376,-919.314598
3372.901480,444.123565,-10362.883188,-612.876398
3372.901808,444.123565,-10436.903782,-306.438199
3372.902135,814.226536,-10658.965565,229.828649
3372.902463,148.041188,-9844.739029,0.000000
3372.902791,666.185348,-9622.677246,-229.828649
3372.903119,444.123565,-9474.636058,-306.438199
3372.903447,592.164754,-8956.491898,-229.828649
3372.903775,1776.494261,-8586.388927,0.000000
3372.904103,2516.700203,-8586.388927,0.000000
3372.904431,3034.844362,-8660.409521,306.438199
3372.904758,4219.173869,-9178.553681,-153.219100
3372.905086,5329.482782,-10066.800811,-229.828649
3372.905414,6587.832884,-10140.821405,0.000000
3372.905742,7105.977043,-9696.697840,383.047749
3372.906070,7920.203579,-9696.697840,459.657299
3372.906398,7772.162391,-9548.656652,0.000000
3372.906726,7624.121203,-9548.656652,1378.971896
3372.907053,7624.121203,-9474.636058,229.828649
3372.907381,8068.244768,-8364.327145,0.000000
3372.907709,8438.347739,-8068.244768,0.000000
3372.908037,9178.553681,-8142.265362,153.219100
3372.908365,10584.944971,-8808.450710,-153.219100
3372.908693,11621.233289,-9252.574275,76.609550
3372.909021,12509.480420,-10288.862594,-383.047749
3372.909349,11843.295072,-9622.677246,153.219100
3372.909676,11621.233289,-9474.636058,229.828649
3372.910004,11991.336260,-9918.759623,536.266849
3372.910332,13027.624579,-9992.780217,0.000000
3372.910660,14137.933492,-10288.862594,229.828649
3372.910988,14211.954086,-9844.739029,459.657299
3372.911316,15322.262999,-9844.739029,306.438199
3372.911644,14434.015869,-9178.553681,76.609550
3372.911972,13767.830521,-9252.574275,0.000000
3372.912299,13323.706956,-9548.656652,-612.876398
3372.912627,13545.768739,-10658.965565,-383.047749
3372.912955,13841.851115,-10881.027347,76.609550
3372.913283,13619.789333,-9622.677246,2068.457845
3372.913611,13249.686362,-9326.594869,1762.019645
3372.913939,12509.480420,-9474.636058,1685.410096
3372.914267,11991.336260,-9548.656652,459.657299
3372.914594,11029.068536,-9770.718434,0.000000
3372.914922,10214.842000,-9992.780217,0.000000
3372.915250,9326.594869,-9252.574275,-536.266849
3372.915578,7476.080014,-8364.327145,0.000000
3372.915906,7105.977043,-8068.244768,0.000000
3372.916234,8882.471304,-8956.491898,-459.657299
3372.916562,10288.862594,-10066.800811,-383.047749
3372.916890,10732.986159,-11103.089130,766.095498
3372.917217,10140.821405,-11103.089130,1225.752797
3372.917545,8956.491898,-9030.512492,1225.752797
3372.917873,7772.162391,-7328.038826,459.657299
3372.918201,7772.162391,-6661.853478,306.438199
3372.918529,8512.368333,-9252.574275,153.219100
3372.918857,8808.450710,-11251.130318,842.705048
3372.919185,9178.553681,-10436.903782,76.609550
3372.919512,7920.203579,-8586.388927,-459.657299
3372.919840,6735.874072,-9474.636058,-459.657299
3372.920168,6513.812290,-10881.027347,-459.657299
3372.920496,7105.977043,-10732.986159,-536.266849
3372.920824,8734.430116,-9918.759623,-1608.800546
3372.921152,11029.068536,-9474.636058,-1225.752797
3372.921480,10584.944971,-9548.656652,995.924147
3372.921808,7254.018232,-8290.306550,2604.724693
3372.922135,6143.709319,-6587.832884,1455.581446
3372.922463,8068.244768,-7402.059420,-1072.533697
3372.922791,10288.862594,-10955.047942,-2987.772442
3372.923119,9992.780217,-10955.047942,-1915.238745
3372.923447,9326.594869,-9474.636058,0.000000
3372.923775,9844.739029,-10436.903782,0.000000
3372.924103,9696.697840,-11547.212695,76.609550
3372.924431,8216.285956,-9844.739029,459.657299
3372.924758,8808.450710,-7550.100608,-383.047749
3372.925086,11325.150913,-8586.388927,-1455.581446
3372.925414,11695.253884,-9326.594869,0.000000
3372.925742,10140.821405,-9622.677246,1685.410096
3372.926070,9030.512492,-7846.182985,2451.505594
3372.926398,9252.574275,-5995.668130,612.876398
3372.926726,9548.656652,-7476.080014,-1072.533697
3372.927053,11843.295072,-11177.109724,-1838.629195
3372.927381,15692.365970,-10436.903782,-1685.410096
3372.927709,16062.468941,-10658.965565,76.609550
3372.928037,12435.459826,-12139.377449,2834.553343
3372.928365,13693.809927,-10807.006753,1378.971896
3372.928693,12435.459826,-8216.285956,-766.095498
3372.929021,12287.418637,-12287.418637,-1762.019645
3372.929349,11177.109724,-12213.398043,-1072.533697
3372.929676,10955.047942,-9696.697840,0.000000
3372.930004,9104.533087,-8734.430116,2221.676944
3372.930332,8216.285956,-9252.574275,1838.629195
3372.930660,5699.585753,-9474.636058,383.047749
3372.930988,1702.473667,-9252.574275,1225.752797
3372.931316,3627.009116,-8734.430116,-1838.629195
3372.931644,5921.647536,-8956.491898,-3294.210641
3372.931972,3997.112087,-9030.512492,-995.924147
3372.932299,5181.441594,-9548.656652,2221.676944
3372.932627,5255.462188,-9770.718434,1915.238745
3372.932955,5847.626942,-10658.965565,229.828649
3372.933283,5329.482782,-12213.398043,-459.657299
3372.933611,4589.276840,-12435.459826,-1378.971896
3372.933939,4145.153275,-8808.450710,-2145.067394
3372.934267,4145.153275,-8956.491898,0.000000
3372.934594,3108.864956,-10066.800811,1455.581446
3372.934922,2886.803174,-11473.192101,2528.115143
3372.935250,2516.700203,-9770.718434,1991.848295
3372.935578,1998.556043,-7031.956449,306.438199
3372.935906,-444.123565,-8068.244768,919.314598
3372.936234,-1776.494261,-7920.203579,842.705048
3372.936562,-4145.153275,-8512.368333,1455.581446
3372.936890,-4515.256246,-8512.368333,229.828649
3372.937217,-4219.173869,-9178.553681,-2068.457845
3372.937545,-4737.318029,-11029.068536,-1455.581446
3372.937873,-2368.659014,-9548.656652,-1991.848295
3372.938201,-1628.453072,-8512.368333,-1455.581446
3372.938529,-3256.906145,-11177.109724,1072.533697
3372.938857,-3182.885551,-12139.377449,842.705048
3372.939185,-3108.864956,-9844.739029,-1991.848295
3372.939513,-3034.844362,-8068.244768,-2221.676944
3372.939840,-1998.556043,-6957.935855,-2221.676944
3372.940168,-1850.514855,-10732.986159,153.219100
3372.940496,-1480.411884,-9844.739029,1149.143247
3372.940824,592.164754,-7402.059420,-995.924147
3372.941152,962.267725,-10066.800811,-1608.800546
3372.941480,1776.494261,-12361.439231,-1072.533697
3372.941808,518.144159,-9992.780217,-612.876398
3372.942135,296.082377,-8364.327145,-1149.143247
3372.942463,-296.082377,-9474.636058,-2451.505594
3372.942791,1850.514855,-11843.295072,-2145.067394
3372.943119,3108.864956,-12287.418637,766.095498
3372.943447,4663.297435,-10362.883188,1378.971896
3372.943775,3627.009116,-10140.821405,1225.752797
3372.944103,814.226536,-10807.006753,0.000000
3372.944431,518.144159,-9548.656652,-1455.581446
3372.944758,2072.576638,-8364.327145,-1762.019645
3372.945086,1480.411884,-6735.874072,-766.095498
3372.945414,-740.205942,-8956.491898,1762.019645
3372.945742,1628.453072,-9474.636058,1149.143247
3372.946070,2664.741391,-10510.924376,76.609550
3372.946398,1332.370696,-10807.006753,459.657299
3372.946726,2072.576638,-11473.192101,-612.876398
3372.947054,2442.679609,-11029.068536,-1149.143247
3372.947381,4441.235652,-9474.636058,-536.266849
3372.947709,2960.823768,-9770.718434,612.876398
3372.948037,1110.308913,-8586.388927,1149.143247
3372.948365,370.102971,-8808.450710,1762.019645
3372.948693,1036.288319,-9400.615463,76.609550
3372.949021,1406.391290,-10658.965565,306.438199
3372.949349,1554.432478,-9622.677246,1225.752797
3372.949676,2072.576638,-9622.677246,612.876398
3372.950004,962.267725,-9918.759623,229.828649
3372.950332,296.082377,-9474.636058,229.828649
3372.950660,-1110.308913,-9326.594869,383.047749
3372.950988,-2146.597232,-8364.327145,76.609550
3372.951315,-592.164754,-8660.409521,-1225.752797
3372.951643,444.123565,-9918.759623,-1762.019645
3372.951971,518.144159,-11769.274478,383.047749
3372.952298,-592.164754,-9622.677246,153.219100
3372.952626,296.082377,-8660.409521,-995.924147
3372.952953,-222.061783,-10436.903782,-766.095498
3372.953281,666.185348,-11251.130318,-919.314598
3372.953609,1110.308913,-11621.233289,-383.047749
3372.953936,-296.082377,-9770.718434,919.314598
3372.954264,-370.102971,-9474.636058,842.705048
3372.954592,-1480.411884,-9622.677246,536.266849
3372.954919,-4737.318029,-9474.636058,1608.800546
3372.955247,-4515.256246,-7846.182985,-1762.019645
3372.955575,-4219.173869,-8290.306550,-3370.820191
3372.955902,-3108.864956,-9696.697840,-2451.505594
3372.956230,0.000000,-9104.533087,-2374.896044
3372.956557,444.123565,-9030.512492,0.000000
3372.956885,-962.267725,-8734.430116,2987.772442
3372.957213,-444.123565,-10510.924376,1149.143247
3372.957540,-1184.329507,-11991.336260,-2528.115143
3372.957868,-1406.391290,-11843.295072,-2681.334243
3372.958196,888.247130,-9400.615463,-2757.943793
3372.958523,1332.370696,-9844.739029,-1072.533697
3372.958851,0.000000,-10807.006753,2757.943793
3372.959179,1628.453072,-9326.594869,2221.676944
3372.959506,1776.494261,-8216.285956,842.705048
3372.959834,444.123565,-9252.574275,0.000000
3372.960161,1036.288319,-8734.430116,-1532.190996
3372.960489,148.041188,-7328.038826,-1838.629195
3372.960817,-1258.350101,-9030.512492,536.266849
3372.961144,0.000000,-9252.574275,76.609550
3372.961472,1406.391290,-10066.800811,-306.438199
3372.961800,2886.803174,-11473.192101,459.657299
3372.962127,4145.153275,-11769.274478,766.095498
3372.962455,2442.679609,-9992.780217,0.000000
3372.962782,962.267725,-8882.471304,0.000000
3372.963110,962.267725,-9104.533087,-1302.362347
3372.963438,-518.144159,-10214.842000,-383.047749
3372.963765,0.000000,-9844.739029,2068.457845
3372.964093,2368.659014,-7402.059420,459.657299
3372.964421,3404.947333,-9178.553681,-229.828649
3372.964748,2812.782580,-11547.212695,766.095498
3372.965076,2590.720797,-10584.944971,1455.581446
3372.965404,1554.432478,-8586.388927,1225.752797
3372.965731,1184.329507,-9918.759623,153.219100
3372.966059,0.000000,-9622.677246,-1225.752797
3372.966386,222.061783,-8068.244768,-1685.410096
3372.966714,148.041188,-9622.677246,-306.438199
3372.967042,518.144159,-11029.068536,0.000000
3372.967369,518.144159,-12805.562797,306.438199
3372.967697,370.102971,-11843.295072,306.438199
3372.968025,962.267725,-11177.109724,-1072.533697
3372.968352,-666.185348,-9844.739029,-1915.238745
3372.968680,-2220.617826,-8068.244768,-1072.533697
3372.969007,-2294.638420,-7254.018232,-919.314598
3372.969335,-1258.350101,-7624.121203,153.219100
3372.969663,-740.205942,-8290.306550,2374.896044
3372.969990,814.226536,-8660.409521,1991.848295
3372.970318,1406.391290,-10066.800811,689.485948
3372.970646,1554.432478,-9474.636058,-1149.143247
3372.970973,296.082377,-10436.903782,-459.657299
3372.971301,-1184.329507,-10214.842000,459.657299
3372.971629,-1924.535449,-9918.759623,0.000000
3372.971956,-1850.514855,-8512.368333,0.000000
3372.972284,-1480.411884,-9474.636058,0.000000
3372.972611,-2442.679609,-11029.068536,1532.190996
3372.972939,-1998.556043,-9252.574275,-153.219100
3372.973267,-1554.432478,-9548.656652,-536.266849
3372.973594,-2886.803174,-7476.080014,-2451.505594
3372.973922,-2664.741391,-8734.430116,-919.314598
3372.974250,-2812.782580,-7105.977043,0.000000
3372.974577,740.205942,-8216.285956,-766.095498
3372.974905,1628.453072,-8882.471304,229.828649
3372.975232,1480.411884,-12065.356855,2374.896044
3372.975560,740.205942,-12879.583391,1991.848295
3372.975888,888.247130,-12583.501014,-1378.971896
3372.976215,444.123565,-11325.150913,-3064.381992
3372.976543,814.226536,-10214.842000,-3753.867940
3372.976871,-222.061783,-11177.109724,-766.095498
3372.977198,-592.164754,-9696.697840,1608.800546
3372.977526,1036.288319,-7402.059420,995.924147
3372.977854,1628.453072,-7846.182985,-153.219100
3372.978181,444.123565,-10362.883188,1455.581446
3372.978509,370.102971,-9252.574275,383.047749
3372.978836,0.000000,-7105.977043,-995.924147
3372.979164,-1776.494261,-8734.430116,-1838.629195
3372.979492,296.082377,-10807.006753,-1915.238745
3372.979819,1702.473667,-10807.006753,-306.438199
3372.980147,3034.844362,-10362.883188,1685.410096
3372.980475,3034.844362,-10955.047942,2451.505594
3372.980802,1406.391290,-10214.842000,1072.533697
3372.981130,1332.370696,-9474.636058,229.828649
3372.981457,1628.453072,-7698.141797,-1149.143247
3372.981785,-296.082377,-8882.471304,0.000000
3372.982113,-888.247130,-8216.285956,2145.067394
3372.982440,1998.556043,-7846.182985,766.095498
3372.982768,3034.844362,-9844.739029,612.876398
3372.983096,2442.679609,-9844.739029,1685.410096
3372.983423,1554.432478,-9844.739029,1378.971896
3372.983751,1332.370696,-9474.636058,-229.828649
3372.984079,1258.350101,-10436.903782,-1378.971896
3372.984406,-74.020594,-8956.491898,-1302.362347
3372.984734,-1184.329507,-8882.471304,306.438199
3372.985061,0.000000,-9844.739029,-306.438199
3372.985389,2072.576638,-11399.171507,-1302.362347
3372.985717,1110.308913,-12435.459826,-459.657299
3372.986044,-666.185348,-11695.253884,919.314598
3372.986372,-148.041188,-9770.718434,-919.314598
3372.986700,-1406.391290,-8290.306550,-2604.724693
3372.987027,-2368.659014,-9844.739029,-1532.190996
3372.987355,-2368.659014,-8808.450710,-306.438199
3372.987682,-518.144159,-8290.306550,-612.876398
3372.988010,1184.329507,-9030.512492,0.000000
3372.988338,2368.659014,-10955.047942,612.876398
3372.988665,962.267725,-11473.192101,766.095498
3372.988993,-962.267725,-9696.697840,383.047749
3372.989321,-1628.453072,-8364.327145,-2451.505594
3372.989648,-1924.535449,-8512.368333,-2145.067394
3372.989976,-1332.370696,-11399.171507,0.000000
3372.990304,-222.061783,-10066.800811,1072.533697
3372.990631,1036.288319,-8142.265362,842.705048
3372.990959,888.247130,-8660.409521,919.314598
3372.991286,-518.144159,-11251.130318,1838.629195
3372.991614,-2590.720797,-7846.182985,919.314598
3372.991942,-2738.761985,-5921.647536,0.000000
3372.992269,-2368.659014,-7179.997637,-1608.800546
3372.992597,-1628.453072,-8956.491898,-1378.971896
3372.992925,0.000000,-9474.636058,842.705048
3372.993252,740.205942,-8068.244768,1225.752797
3372.993580,1406.391290,-11325.150913,766.095498
3372.993907,1184.329507,-13693.809927,-995.924147
3372.994235,888.247130,-12731.542202,-2528.115143
3372.994563,444.123565,-10436.903782,-3064.381992
3372.994890,814.226536,-9992.780217,-2757.943793
3372.995218,148.041188,-10584.944971,1072.533697
3372.995546,1406.391290,-10066.800811,2834.553343
3372.995873,2294.638420,-8586.388927,1762.019645
3372.996201,1554.432478,-7105.977043,0.000000
3372.996529,1184.329507,-8438.347739,-1378.971896
3372.996856,2294.638420,-10436.903782,-1455.581446
3372.997184,2368.659014,-12361.439231,-459.657299
3372.997511,814.226536,-9696.697840,-306.438199
3372.997839,0.000000,-8512.368333,-1685.410096
3372.998167,0.000000,-11103.089130,-1685.410096
3372.998494,1850.514855,-11843.295072,-536.266849
3372.998822,2072.576638,-10658.965565,306.438199
3372.999150,592.164754,-9696.697840,1302.362347
3372.999477,1332.370696,-8142.265362,0.000000
3372.999805,888.247130,-7476.080014,-536.266849
3373.000132,-1850.514855,-8734.430116,842.705048
3373.000460,-1480.411884,-7698.141797,1532.190996
3373.000788,1110.308913,-7179.997637,0.000000
3373.001115,1850.514855,-9030.512492,-1149.143247
3373.001443,2072.576638,-11769.274478,612.876398
3373.001771,2146.597232,-10881.027347,2374.896044
3373.002098,1258.350101,-8882.471304,1378.971896
3373.002426,1480.411884,-11029.068536,-842.705048
3373.002754,888.247130,-9696.697840,-2145.067394
3373.003081,-1480.411884,-8882.471304,-2068.457845
3373.003409,-1776.494261,-7550.100608,153.219100
3373.003736,962.267725,-9548.656652,0.000000
3373.004064,-444.123565,-10955.047942,1225.752797
3373.004392,-444.123565,-11769.274478,1608.800546
3373.004719,-518.144159,-9400.615463,-612.876398
3373.005047,-370.102971,-9104.533087,-3217.601092
3373.005375,-222.061783,-11695.253884,-2987.772442
3373.005702,0.000000,-10066.800811,-1149.143247
3373.006030,444.123565,-9326.594869,842.705048
3373.006357,888.247130,-9474.636058,1149.143247
3373.006685,592.164754,-10510.924376,842.705048
3373.007013,740.205942,-11177.109724,-383.047749
3373.007340,0.000000,-11843.295072,-1378.971896
3373.007668,-1702.473667,-11769.274478,-1225.752797
3373.007996,-1998.556043,-8438.347739,-1838.629195
3373.008323,-1258.350101,-9252.574275,-1455.581446
3373.008651,-222.061783,-10881.027347,76.609550
3373.008979,518.144159,-9770.718434,766.095498
3373.009306,444.123565,-7402.059420,689.485948
3373.009634,148.041188,-9400.615463,1149.143247
3373.009961,-888.247130,-8142.265362,383.047749
3373.010289,-1110.308913,-8882.471304,766.095498
3373.010617,-2812.782580,-8882.471304,1072.533697
3373.010944,0.000000,-8142.265362,-1915.238745
3373.011272,666.185348,-8956.491898,-2068.457845
3373.011600,222.061783,-10436.903782,153.219100
3373.011927,592.164754,-11399.171507,842.705048
3373.012255,1480.411884,-10066.800811,-229.828649
3373.012582,1036.288319,-11103.089130,-766.095498
3373.012910,1850.514855,-11769.274478,-995.924147
3373.013238,1480.411884,-10584.944971,76.609550
3373.013565,296.082377,-8956.491898,1532.190996
3373.013893,1480.411884,-8734.430116,689.485948
3373.014221,2146.597232,-8956.491898,-766.095498
3373.014548,1184.329507,-8512.368333,0.000000
3373.014876,592.164754,-7994.224174,1455.581446
3373.015204,2294.638420,-8660.409521,-383.047749
3373.015531,2146.597232,-12435.459826,-153.219100
3373.015859,1628.453072,-12657.521608,-459.657299
3373.016186,1850.514855,-11177.109724,-1991.848295
3373.016514,222.061783,-10881.027347,-2374.896044
3373.016842,-888.247130,-12435.459826,0.000000
3373.017169,0.000000,-10066.800811,-1072.533697
3373.017497,2812.782580,-6883.915261,-229.828649
3373.017825,2146.597232,-7402.059420,995.924147
3373.018152,-740.205942,-9252.574275,2221.676944
3373.018480,-1776.494261,-8142.265362,2068.457845
3373.018807,666.185348,-6587.832884,-1302.362347
3373.019135,2072.576638,-10732.986159,-2298.286494
3373.019463,1554.432478,-10584.944971,0.000000
3373.019790,2146.597232,-9178.553681,689.485948
3373.020118,3775.050304,-10214.842000,919.314598
3373.020446,4071.132681,-11695.253884,229.828649
3373.020773,1184.329507,-11843.295072,536.266849
3373.021101,-2294.638420,-8364.327145,383.047749
3373.021429,-2368.659014,-7031.956449,-383.047749
3373.021756,-1924.535449,-8290.306550,-1149.143247
3373.022084,-1184.329507,-10436.903782,306.438199
3373.022411,-2146.597232,-9548.656652,1991.848295
3373.022739,-370.102971,-9030.512492,766.095498
3373.023067,-296.082377,-8956.491898,-1991.848295
3373.023394,-1480.411884,-10955.047942,-1225.752797
3373.023722,-2516.700203,-10066.800811,0.000000
3373.024050,-2072.576638,-7920.203579,-1532.190996
3373.024377,0.000000,-9400.615463,-919.314598
3373.024705,888.247130,-10584.944971,-153.219100
3373.025033,666.185348,-12435.459826,1378.971896
3373.025360,0.000000,-11251.130318,1072.533697
3373.025688,592.164754,-10807.006753,-1149.143247
3373.026015,-1184.329507,-10066.800811,-2681.334243
3373.026343,-1480.411884,-10658.965565,-1149.143247
3373.026671,-1628.453072,-8734.430116,0.000000
3373.026998,-666.185348,-6735.874072,229.828649
3373.027326,-518.144159,-8808.450710,689.485948
3373.027654,74.020594,-10732.986159,766.095498
3373.027981,1258.350101,-10288.862594,0.000000
3373.028309,0.000000,-8734.430116,76.609550
3373.028636,-1184.329507,-9548.656652,459.657299
3373.028964,0.000000,-9400.615463,-1149.143247
3373.029292,0.000000,-9178.553681,0.000000
3373.029619,-1184.329507,-9326.594869,766.095498
3373.029947,-1480.411884,-9548.656652,0.000000
3373.030275,-1184.329507,-10584.944971,-1072.533697
3373.030602,0.000000,-9474.636058,-1608.800546
3373.030930,1628.453072,-8882.471304,-1072.533697
3373.031258,518.144159,-9918.759623,1302.362347
3373.031585,1332.370696,-11547.212695,2528.115143
3373.031913,3627.009116,-9400.615463,-306.438199
3373.032240,2812.782580,-9178.553681,-842.705048
3373.032568,1110.308913,-8660.409521,995.924147
3373.032896,1258.350101,-7254.018232,1149.143247
3373.033223,1258.350101,-7846.182985,1149.143247
3373.033551,888.247130,-9400.615463,76.609550
3373.033879,2516.700203,-10288.862594,-919.314598
3373.034206,2738.761985,-11547.212695,-1072.533697
3373.034534,3478.967927,-13545.768739,-1225.752797
3373.034861,3404.947333,-11473.192101,-2451.505594
3373.035189,1036.288319,-10807.006753,-995.924147
3373.035517,-1110.308913,-9104.533087,153.219100
3373.035844,0.000000,-7031.956449,-842.705048
3373.036172,-296.082377,-7550.100608,0.000000
3373.036500,-1036.288319,-9178.553681,1608.800546
3373.036827,-518.144159,-8882.471304,689.485948
3373.037155,0.000000,-8660.409521,-919.314598
3373.037483,1332.370696,-10658.965565,-2221.676944
3373.037810,2590.720797,-12065.356855,-1072.533697
3373.038138,2368.659014,-10732.986159,153.219100
3373.038465,1998.556043,-9326.594869,0.000000
3373.038793,370.102971,-9918.759623,0.000000
3373.039121,-1036.288319,-10658.965565,383.047749
3373.039448,-1036.288319,-9844.739029,0.000000
3373.039776,-740.205942,-9548.656652,383.047749
3373.040104,-888.247130,-9992.780217,-536.266849
3373.040431,-518.144159,-11251.130318,-306.438199
3373.040759,0.000000,-8734.430116,-919.314598
3373.041086,-1332.370696,-8512.368333,-536.266849
3373.041414,-3182.885551,-8586.388927,306.438199
3373.041742,-2738.761985,-8142.265362,536.266849
3373.042069,-2220.617826,-7920.203579,-919.314598
3373.042397,-888.247130,-9770.718434,-306.438199
3373.042725,-888.247130,-10584.944971,306.438199
3373.043052,592.164754,-10807.006753,0.000000
3373.043380,518.144159,-11621.233289,0.000000
3373.043708,0.000000,-11251.130318,-306.438199
3373.044035,-518.144159,-9178.553681,-229.828649
3373.044363,-592.164754,-7624.121203,-153.219100
3373.044690,-296.082377,-9474.636058,76.609550
3373.045018,-814.226536,-8734.430116,0.000000
3373.045346,-666.185348,-7550.100608,1072.533697
3373.045673,-222.061783,-9400.615463,995.924147
3373.046001,0.000000,-10658.965565,0.000000
3373.046329,1258.350101,-9548.656652,-1991.848295
3373.046656,1184.329507,-8956.491898,-2221.676944
3373.046984,1036.288319,-11843.295072,-1302.362347
3373.047311,444.123565,-8956.491898,0.000000
3373.047639,-592.164754,-9252.574275,1072.533697
3373.047967,-1702.473667,-9474.636058,459.657299
3373.048294,-740.205942,-11177.109724,-1455.581446
3373.048622,-518.144159,-10362.883188,-2068.457845
3373.048950,2368.659014,-10658.965565,-2681.334243
3373.049277,2590.720797,-10955.047942,-1608.800546
3373.049605,2368.659014,-12213.398043,2374.896044
3373.049933,2738.761985,-10140.821405,1991.848295
3373.050260,2812.782580,-8956.491898,76.609550
3373.050588,444.123565,-8882.471304,-306.438199
3373.050915,592.164754,-6809.894666,-995.924147
3373.051243,1702.473667,-7846.182985,153.219100
3373.051571,1924.535449,-8734.430116,995.924147
3373.051898,1998.556043,-10140.821405,1225.752797
3373.052226,2590.720797,-9622.677246,153.219100
3373.052554,3256.906145,-12213.398043,-612.876398
3373.052881,2294.638420,-13101.645173,-689.485948
3373.053209,592.164754,-9030.512492,-842.705048
3373.053536,-1110.308913,-8586.388927,-612.876398
3373.053864,-296.082377,-8290.306550,0.000000
3373.054191,444.123565,-7105.977043,76.609550
3373.054519,-888.247130,-7698.141797,1378.971896
3373.054846,-962.267725,-9326.594869,1991.848295
3373.055174,518.144159,-9104.533087,-1149.143247
3373.055502,1628.453072,-10807.006753,-1915.238745
3373.055829,1036.288319,-10066.800811,-612.876398
3373.056157,1258.350101,-8956.491898,842.705048
3373.056484,1628.453072,-8142.265362,842.705048
3373.056812,1110.308913,-9474.636058,0.000000
3373.057139,-296.082377,-11843.295072,383.047749
3373.057467,-1702.473667,-10510.924376,153.219100
3373.057795,-1110.308913,-8808.450710,-536.266849
3373.058122,148.041188,-9844.739029,-2604.724693
3373.058450,-666.185348,-12139.377449,0.000000
3373.058777,-1480.411884,-10881.027347,383.047749
3373.059105,-1406.391290,-8216.285956,0.000000
3373.059432,-2146.597232,-8808.450710,-1225.752797
3373.059760,-2442.679609,-9252.574275,-153.219100
3373.060088,-2146.597232,-8512.368333,0.000000
3373.060415,-1406.391290,-8364.327145,-306.438199
3373.060743,-296.082377,-11399.171507,-306.438199
3373.061070,-148.041188,-10658.965565,-1149.143247
3373.061398,592.164754,-11991.336260,-995.924147
3373.061725,-518.144159,-10658.965565,-306.438199
3373.062053,0.000000,-9030.512492,-1149.143247
3373.062381,-518.144159,-9178.553681,-459.657299
3373.062708,370.102971,-9844.739029,153.219100
3373.063036,222.061783,-9326.594869,1225.752797
3373.063363,-222.061783,-7772.162391,1608.800546
3373.063691,-222.061783,-7698.141797,995.924147
3373.064018,592.164754,-9474.636058,-689.485948
3373.064346,518.144159,-10214.842000,-383.047749
3373.064673,222.061783,-8290.306550,0.000000
3373.065001,148.041188,-7550.100608,-153.219100
3373.065329,222.061783,-9696.697840,0.000000
3373.065656,814.226536,-10066.800811,0.000000
3373.065984,74.020594,-9918.759623,766.095498
3373.066311,-1480.411884,-9474.636058,0.000000
3373.066639,-666.185348,-10955.047942,-1991.848295
3373.066966,1332.370696,-10955.047942,-2757.943793
3373.067294,3256.906145,-10288.862594,-2451.505594
3373.067622,3034.844362,-10510.924376,842.705048
3373.067949,2442.679609,-11177.109724,3140.991542
3373.068277,2812.782580,-10214.842000,919.314598
3373.068604,2886.803174,-9770.718434,-1072.533697
3373.068932,962.267725,-9770.718434,-536.266849
3373.069259,148.041188,-8142.265362,0.000000
3373.069587,1702.473667,-7994.224174,0.000000
3373.069915,2220.617826,-8956.491898,-383.047749
3373.070242,2368.659014,-11177.109724,842.705048
3373.070570,2442.679609,-11843.295072,1149.143247
3373.070897,3256.906145,-11325.150913,-459.657299
3373.071225,1776.494261,-11103.089130,-1225.752797
3373.071552,592.164754,-9696.697840,-1149.143247
3373.071880,-1184.329507,-9696.697840,229.828649
3373.072208,-592.164754,-6957.935855,612.876398
3373.072535,0.000000,-6735.874072,-995.924147
3373.072863,-1702.473667,-9992.780217,-306.438199
3373.073190,-1702.473667,-11399.171507,1532.190996
3373.073518,370.102971,-8216.285956,-383.047749
3373.073845,296.082377,-8734.430116,-689.485948
3373.074173,-666.185348,-10288.862594,459.657299
3373.074500,1406.391290,-9844.739029,536.266849
3373.074828,888.247130,-9178.553681,306.438199
3373.075156,0.000000,-9918.759623,689.485948
3373.075483,74.020594,-10362.883188,-459.657299
3373.075811,-1850.514855,-8882.471304,-459.657299
3373.076138,-1628.453072,-10881.027347,383.047749
3373.076466,-1184.329507,-10362.883188,-1838.629195
3373.076793,-1184.329507,-10732.986159,-995.924147
3373.077121,-1850.514855,-9474.636058,-459.657299
3373.077449,-962.267725,-10066.800811,-1608.800546
3373.077776,-1702.473667,-9992.780217,-306.438199
3373.078104,-1554.432478,-7846.182985,919.314598
3373.078431,-1184.329507,-8068.244768,153.219100
3373.078759,148.041188,-9770.718434,-919.314598
3373.079086,296.082377,-11103.089130,-459.657299
3373.079414,444.123565,-9548.656652,-612.876398
3373.079742,0.000000,-11103.089130,-689.485948
3373.080069,0.000000,-10955.047942,-1915.238745
3373.080397,296.082377,-10362.883188,-1225.752797
3373.080724,148.041188,-11177.109724,0.000000
3373.081052,1184.329507,-10140.821405,153.219100
3373.081379,1480.411884,-9326.594869,0.000000
3373.081707,814.226536,-8660.409521,842.705048
3373.082035,74.020594,-9770.718434,995.924147
3373.082362,0.000000,-8216.285956,0.000000
3373.082690,814.226536,-8142.265362,-766.095498
3373.083017,518.144159,-8882.471304,-459.657299
3373.083345,592.164754,-10066.800811,842.705048
3373.083672,2072.576638,-8808.450710,-383.047749
3373.084000,1776.494261,-8142.265362,0.000000
3373.084327,444.123565,-10881.027347,842.705048
3373.084655,666.185348,-11769.274478,383.047749
3373.084983,1184.329507,-10881.027347,-995.924147
3373.085310,444.123565,-8660.409521,-1685.410096
3373.085638,888.247130,-8956.491898,-1225.752797
3373.085965,148.041188,-9400.615463,842.705048
3373.086293,1184.329507,-10288.862594,2911.162892
3373.086620,2146.597232,-9252.574275,689.485948
3373.086948,1924.535449,-9770.718434,0.000000
3373.087276,370.102971,-9252.574275,-306.438199
3373.087603,1110.308913,-9104.533087,-689.485948
3373.087931,1110.308913,-9178.553681,-919.314598
3373.088258,962.267725,-9030.512492,0.000000
3373.088586,1332.370696,-11177.109724,766.095498
3373.088913,2590.720797,-10288.862594,-766.095498
3373.089241,2442.679609,-11547.212695,-536.266849
3373.089569,1036.288319,-12213.398043,766.095498
3373.089896,1258.350101,-11473.192101,-612.876398
3373.090224,1184.329507,-9770.718434,-1378.971896
3373.090551,1406.391290,-7624.121203,-1532.190996
3373.090879,-1184.329507,-9104.533087,-612.876398
3373.091206,-3775.050304,-10436.903782,1072.533697
3373.091534,-2220.617826,-9178.553681,0.000000
3373.091862,-666.185348,-7920.203579,-2221.676944
3373.092189,-518.144159,-11251.130318,-612.876398
3373.092517,-1258.350101,-9622.677246,1149.143247
3373.092844,1406.391290,-10066.800811,0.000000
3373.093172,1998.556043,-8660.409521,-1149.143247
3373.093499,1480.411884,-9992.780217,0.000000
3373.093827,-518.144159,-9474.636058,919.314598
3373.094154,-2294.638420,-8586.388927,1378.971896
3373.094482,-962.267725,-9252.574275,612.876398
3373.094810,-222.061783,-10510.924376,-995.924147
3373.095137,-740.205942,-11621.233289,689.485948
3373.095465,-1036.288319,-8364.327145,306.438199
3373.095792,0.000000,-7698.141797,-1225.752797
3373.096120,-1480.411884,-9326.594869,-612.876398
3373.096447,-666.185348,-9548.656652,229.828649
3373.096775,-370.102971,-7105.977043,229.828649
3373.097103,-814.226536,-8068.244768,612.876398
3373.097430,0.000000,-8808.450710,306.438199
3373.097758,1332.370696,-11399.171507,-1225.752797
3373.098085,222.061783,-13249.686362,-842.705048
3373.098413,666.185348,-11325.150913,-1378.971896
3373.098740,1036.288319,-9696.697840,-2221.676944
3373.099068,888.247130,-11399.171507,-1608.800546
3373.099396,1628.453072,-11695.253884,0.000000
3373.099723,666.185348,-9252.574275,536.266849
3373.100051,592.164754,-8586.388927,1532.190996
3373.100378,222.061783,-8438.347739,459.657299
3373.100706,1406.391290,-9104.533087,-1455.581446
3373.101033,-296.082377,-9844.739029,-536.266849
3373.101361,-296.082377,-9326.594869,229.828649
3373.101689,2960.823768,-9474.636058,-995.924147
3373.102016,3404.947333,-9992.780217,-1762.019645
3373.102344,1406.391290,-11399.171507,1915.238745
3373.102671,-592.164754,-10510.924376,1608.800546
3373.102999,-1258.350101,-9770.718434,-459.657299
3373.103326,-1036.288319,-10584.944971,-2757.943793
3373.103654,962.267725,-10881.027347,-2834.553343
3373.103982,296.082377,-9474.636058,-229.828649
3373.104309,0.000000,-9474.636058,2528.115143
3373.104637,2146.597232,-9548.656652,1378.971896
3373.104964,2812.782580,-8438.347739,-919.314598
3373.105292,666.185348,-9622.677246,612.876398
3373.105619,-518.144159,-7179.997637,1302.362347
3373.105947,-592.164754,-6883.915261,612.876398
3373.106274,592.164754,-7920.203579,-612.876398
3373.106602,1036.288319,-10066.800811,689.485948
3373.106930,1998.556043,-10658.965565,995.924147
3373.107257,2664.741391,-10584.944971,459.657299
3373.107585,2886.803174,-11843.295072,-766.095498
3373.107912,2590.720797,-11695.253884,-1378.971896
3373.108240,1110.308913,-11103.089130,153.219100
3373.108567,0.000000,-7254.018232,1378.971896
3373.108895,-518.144159,-6069.688724,459.657299
3373.109223,-2664.741391,-8660.409521,0.000000
3373.109550,-4367.215058,-10807.006753,0.000000
3373.109878,-1998.556043,-9918.759623,-2145.067394
3373.110205,222.061783,-10214.842000,-3447.429741
3373.110533,0.000000,-10732.986159,-1455.581446
3373.110860,518.144159,-10584.944971,306.438199
3373.111188,1258.350101,-10288.862594,842.705048
3373.111516,444.123565,-9844.739029,995.924147
3373.111843,74.020594,-9622.677246,0.000000
3373.112171,-222.061783,-8956.491898,-1225.752797
3373.112498,-962.267725,-10807.006753,153.219100
3373.112826,-370.102971,-10732.986159,536.266849
3373.113153,-296.082377,-10732.986159,-612.876398
3373.113481,222.061783,-10732.986159,-612.876398
3373.113809,518.144159,-9696.697840,-1378.971896
3373.114136,-592.164754,-9400.615463,-1149.143247
3373.114464,-2146.597232,-7550.100608,383.047749
3373.114791,-1554.432478,-7846.182985,995.924147
3373.115119,0.000000,-7402.059420,-153.219100
3373.115446,0.000000,-9030.512492,383.047749
3373.115774,0.000000,-9474.636058,1302.362347
3373.116101,666.185348,-9400.615463,-1149.143247
3373.116429,1184.329507,-11621.233289,-1915.238745
3373.116757,1184.329507,-11473.192101,-1608.800546
3373.117084,592.164754,-9992.780217,-842.705048
3373.117412,222.061783,-8660.409521,689.485948
3373.117739,592.164754,-9030.512492,1762.019645
3373.118067,1406.391290,-9400.615463,689.485948
3373.118394,1184.329507,-10066.800811,1149.143247
3373.118722,518.144159,-8068.244768,229.828649
3373.119050,666.185348,-8216.285956,-1532.190996
3373.119377,962.267725,-9104.533087,-995.924147
3373.119705,592.164754,-10362.883188,-459.657299
3373.120032,2294.638420,-10362.883188,229.828649
3373.120360,2664.741391,-8586.388927,-306.438199
3373.120687,1036.288319,-9178.553681,1302.362347
3373.121015,-1184.329507,-11251.130318,536.266849
3373.121343,-1258.350101,-12879.583391,-995.924147
3373.121670,-1184.329507,-10732.986159,-2604.724693
3373.121998,666.185348,-9622.677246,-3753.867940
3373.122325,1110.308913,-10066.800811,-2221.676944
3373.122653,1184.329507,-11251.130318,2145.067394
3373.122980,1406.391290,-8956.491898,2451.505594
3373.123308,1702.473667,-7846.182985,229.828649
3373.123636,-370.102971,-8956.491898,76.609550
3373.123963,-1554.432478,-8142.265362,0.000000
3373.124291,-962.267725,-8808.450710,0.000000
3373.124618,-296.082377,-7105.977043,-1072.533697
3373.124946,1110.308913,-9770.718434,-383.047749
3373.125273,1776.494261,-11473.192101,-153.219100
3373.125601,3478.967927,-12139.377449,0.000000
3373.125928,2442.679609,-11325.150913,612.876398
3373.126256,1110.308913,-10658.965565,1225.752797
3373.126584,962.267725,-9252.574275,153.219100
3373.126911,814.226536,-7698.141797,0.000000
3373.127239,-1554.432478,-6809.894666,459.657299
3373.127566,-2960.823768,-8438.347739,229.828649
3373.127894,-4219.173869,-9844.739029,306.438199
3373.128221,-888.247130,-9622.677246,-3447.429741
3373.128549,814.226536,-10881.027347,-3830.477490
3373.128877,222.061783,-11177.109724,-383.047749
3373.129204,740.205942,-8956.491898,2145.067394
3373.129532,1850.514855,-8660.409521,1838.629195
3373.129859,1110.308913,-9622.677246,842.705048
3373.130187,-666.185348,-9474.636058,-153.219100
3373.130514,-2072.576638,-8438.347739,-383.047749
3373.130842,-444.123565,-9474.636058,-1225.752797
3373.131170,444.123565,-11399.171507,-1685.410096
3373.131497,814.226536,-12287.418637,-766.095498
3373.131825,-444.123565,-10955.047942,1532.190996
3373.132152,-962.267725,-9474.636058,153.219100
3373.132480,222.061783,-7846.182985,-2068.457845
3373.132807,-1110.308913,-9622.677246,-1455.581446
3373.133135,-1776.494261,-9622.677246,383.047749
3373.133463,0.000000,-7476.080014,229.828649
3373.133790,888.247130,-9474.636058,1149.143247
3373.134118,2886.803174,-11843.295072,-306.438199
3373.134445,2072.576638,-10955.047942,76.609550
3373.134773,296.082377,-10732.986159,-612.876398
3373.135100,0.000000,-9918.759623,-1149.143247
3373.135428,592.164754,-9474.636058,-1762.019645
3373.135755,222.061783,-9770.718434,-383.047749
3373.136083,-444.123565,-9844.739029,1532.190996
3373.136411,370.102971,-8586.388927,1378.971896
3373.136738,1036.288319,-8882.471304,842.705048
3373.137066,1554.432478,-9548.656652,-612.876398
3373.137393,592.164754,-10510.924376,-689.485948
3373.137721,-1258.350101,-8290.306550,229.828649
3373.138048,-222.061783,-7920.203579,919.314598
3373.138376,2738.761985,-9178.553681,-383.047749
3373.138704,1628.453072,-9622.677246,306.438199
3373.139031,-1406.391290,-8734.430116,2528.115143
3373.139359,-1850.514855,-9844.739029,0.000000
3373.139686,-1184.329507,-11991.336260,-2911.162892
3373.140014,0.000000,-11399.171507,-3753.867940
3373.140341,666.185348,-11029.068536,-2451.505594
3373.140669,222.061783,-9104.533087,842.705048
3373.140997,1702.473667,-9770.718434,1455.581446
3373.141324,1998.556043,-9548.656652,1225.752797
3373.141652,1110.308913,-10288.862594,383.047749
3373.141979,-74.020594,-8660.409521,0.000000
3373.142307,0.000000,-7550.100608,-995.924147
3373.142634,74.020594,-9252.574275,-383.047749
3373.142962,1924.535449,-9770.718434,-995.924147
3373.143290,1332.370696,-10807.006753,1072.533697
3373.143617,1406.391290,-10584.944971,1455.581446
3373.143945,3552.988522,-10362.883188,-459.657299
3373.144272,1850.514855,-11029.068536,-612.876398
3373.144600,1036.288319,-11547.212695,689.485948
3373.144927,962.267725,-9474.636058,1302.362347
3373.145255,2294.638420,-7254.018232,153.219100
3373.145582,518.144159,-6587.832884,-383.047749
3373.145910,-1850.514855,-10066.800811,306.438199
3373.146238,-3034.844362,-10807.006753,919.314598
3373.146565,-1776.494261,-8660.409521,-2451.505594
3373.146893,74.020594,-10066.800811,-3524.039291
3373.147220,0.000000,-10362.883188,-1532.190996
3373.147548,1036.288319,-10510.924376,842.705048
3373.147875,1776.494261,-8808.450710,1685.410096
3373.148203,1480.411884,-9030.512492,306.438199
3373.148531,814.226536,-10881.027347,153.219100
3373.148858,962.267725,-9474.636058,-612.876398
3373.149186,0.000000,-9474.636058,0.000000
3373.149513,-296.082377,-9622.677246,536.266849
3373.149841,148.041188,-10955.047942,306.438199
3373.150168,0.000000,-10362.883188,0.000000
3373.150496,-814.226536,-8734.430116,-995.924147
3373.150824,-1702.473667,-10140.821405,-1149.143247
3373.151151,-2368.659014,-9622.677246,-1378.971896
3373.151479,-666.185348,-7994.224174,-2221.676944
3373.151806,1258.350101,-9030.512492,-1608.800546
3373.152134,296.082377,-10510.924376,612.876398
3373.152461,814.226536,-9918.759623,2221.676944
3373.152789,1554.432478,-10732.986159,689.485948
3373.153117,222.061783,-11103.089130,-612.876398
3373.153444,222.061783,-10955.047942,-1608.800546
3373.153772,-370.102971,-8734.430116,-1149.143247
3373.154099,0.000000,-9400.615463,-306.438199
3373.154427,888.247130,-9696.697840,0.000000
3373.154754,1258.350101,-9844.739029,459.657299
3373.155082,518.144159,-9696.697840,919.314598
3373.155409,740.205942,-8290.306550,536.266849
3373.155737,444.123565,-9474.636058,-1149.143247
3373.156065,148.041188,-8956.491898,-536.266849
3373.156392,0.000000,-10066.800811,229.828649
3373.156720,1480.411884,-9696.697840,0.000000
3373.157047,1776.494261,-8216.285956,-306.438199
3373.157375,370.102971,-9326.594869,2068.457845
3373.157702,-592.164754,-10140.821405,153.219100
3373.158030,-1702.473667,-11991.336260,-1302.362347
3373.158358,-1628.453072,-10436.903782,-2451.505594
3373.158685,0.000000,-8512.368333,-3753.867940
3373.159013,-444.123565,-8882.471304,-383.047749
3373.159340,444.123565,-10807.006753,2451.505594
3373.159668,1258.350101,-9696.697840,2298.286494
3373.159995,1554.432478,-9696.697840,459.657299
3373.160323,1036.288319,-9030.512492,-995.924147
3373.160651,888.247130,-9844.739029,-1225.752797
3373.160978,0.000000,-8512.368333,-306.438199
3373.161306,0.000000,-8142.265362,689.485948
3373.161633,-148.041188,-8734.430116,766.095498
3373.161961,1480.411884,-11399.171507,536.266849
3373.162289,2368.659014,-12065.356855,-459.657299
3373.162616,1702.473667,-11769.274478,0.000000
3373.162944,1554.432478,-10955.047942,0.000000
3373.163271,2442.679609,-10140.821405,-612.876398
3373.163599,2664.741391,-9474.636058,383.047749
3373.163927,1036.288319,-6143.709319,1608.800546
3373.164254,-2664.741391,-6587.832884,2451.505594
3373.164582,-5403.503377,-9326.594869,689.485948
3373.164909,-2146.597232,-10955.047942,-2681.334243
3373.165237,962.267725,-11103.089130,-4136.915689
3373.165565,0.000000,-9770.718434,-1608.800546
3373.165892,888.247130,-10140.821405,919.314598
3373.166220,3404.947333,-10955.047942,766.095498
3373.166547,3330.926739,-11177.109724,306.438199
3373.166875,740.205942,-9474.636058,919.314598
3373.167203,-1406.391290,-8660.409521,383.047749
3373.167530,-1702.473667,-8216.285956,76.609550
3373.167858,74.020594,-9474.636058,-536.266849
3373.168185,148.041188,-11029.068536,153.219100
3373.168513,-444.123565,-9696.697840,1532.190996
3373.168841,370.102971,-8586.388927,-1302.362347
3373.169168,1554.432478,-10140.821405,-2451.505594
3373.169496,222.061783,-10584.944971,-1378.971896
3373.169823,-1332.370696,-8216.285956,-306.438199
3373.170151,-888.247130,-6957.935855,0.000000
3373.170479,888.247130,-8438.347739,76.609550
3373.170806,2368.659014,-11251.130318,153.219100
3373.171134,1776.494261,-12287.418637,1149.143247
3373.171461,1702.473667,-11325.150913,0.000000
3373.171789,296.082377,-11029.068536,-2528.115143
3373.172117,-444.123565,-10214.842000,-3217.601092
3373.172444,-1776.494261,-8512.368333,-1149.143247
3373.172772,-518.144159,-6735.874072,1225.752797
3373.173099,0.000000,-8660.409521,2221.676944
3373.173427,1776.494261,-10140.821405,919.314598
3373.173755,1110.308913,-9474.636058,-153.219100
3373.174082,-370.102971,-9770.718434,306.438199
3373.174410,-296.082377,-9178.553681,-459.657299
3373.174737,666.185348,-9178.553681,-1532.190996
3373.175065,1332.370696,-9992.780217,-842.705048
3373.175393,1850.514855,-10510.924376,153.219100
3373.175720,1628.453072,-10362.883188,1302.362347
3373.176048,814.226536,-9474.636058,919.314598
3373.176375,444.123565,-9770.718434,-536.266849
3373.176703,-1850.514855,-11325.150913,-995.924147
3373.177031,-2812.782580,-9918.759623,-1532.190996
3373.177358,-370.102971,-8068.244768,-3064.381992
3373.177686,518.144159,-7772.162391,-1532.190996
3373.178013,666.185348,-9548.656652,1685.410096
3373.178341,222.061783,-10955.047942,2834.553343
3373.178668,-1036.288319,-9474.636058,1532.190996
3373.178996,-592.164754,-8290.306550,-1072.533697
3373.179324,1628.453072,-9252.574275,-3447.429741
3373.179651,888.247130,-10584.944971,-1378.971896
3373.179979,0.000000,-11251.130318,2298.286494
3373.180306,1702.473667,-9474.636058,306.438199
3373.180634,1998.556043,-10214.842000,-1302.362347
3373.180962,1332.370696,-11843.295072,-1072.533697
3373.181289,-296.082377,-11399.171507,459.657299
3373.181617,148.041188,-7994.224174,612.876398
3373.181944,-148.041188,-6883.915261,-459.657299
3373.182272,-1036.288319,-9104.533087,76.609550
3373.182600,-1036.288319,-10807.006753,153.219100
3373.182927,-296.082377,-8734.430116,383.047749
3373.183255,0.000000,-8808.450710,-689.485948
3373.183582,518.144159,-10288.862594,-1225.752797
3373.183910,1702.473667,-9918.759623,-919.314598
3373.184238,2516.700203,-8068.244768,-153.219100
3373.184565,1036.288319,-8290.306550,1762.019645
3373.184893,-740.205942,-11251.130318,1915.238745
3373.185220,0.000000,-11177.109724,612.876398
3373.185548,1480.411884,-11621.233289,-1532.190996
3373.185876,518.144159,-11695.253884,-1225.752797
3373.186203,0.000000,-10658.965565,-766.095498
3373.186531,0.000000,-8882.471304,-536.266849
3373.186858,666.185348,-9104.533087,153.219100
3373.187186,-444.123565,-8438.347739,229.828649
3373.187514,-2960.823768,-6069.688724,1149.143247
3373.187841,-2960.823768,-7105.977043,306.438199
3373.188169,-740.205942,-9030.512492,-1072.533697
3373.188496,444.123565,-11399.171507,-383.047749
3373.188824,370.102971,-10436.903782,842.705048
3373.189152,2442.679609,-11103.089130,-612.876398
3373.189479,3849.070898,-11917.315666,-1378.971896
3373.189807,2664.741391,-12065.356855,-1762.019645
3373.190134,-740.205942,-10362.883188,459.657299
3373.190462,-592.164754,-7550.100608,689.485948
3373.190790,-1184.329507,-8068.244768,306.438199
3373.191117,-2072.576638,-9030.512492,689.485948
3373.191445,-1258.350101,-9326.594869,536.266849
3373.191772,74.020594,-8882.471304,-842.705048
3373.192100,1480.411884,-9770.718434,-1608.800546
3373.192428,1258.350101,-9918.759623,-2221.676944
3373.192755,1332.370696,-10436.903782,-612.876398
3373.193083,1332.370696,-10140.821405,995.924147
3373.193410,1332.370696,-8586.388927,1608.800546
3373.193738,1110.308913,-9326.594869,1072.533697
3373.194066,592.164754,-9696.697840,-306.438199
3373.194393,222.061783,-11177.109724,0.000000
3373.194721,-814.226536,-11399.171507,-689.485948
3373.195048,-592.164754,-10362.883188,-2528.115143
3373.195376,0.000000,-9622.677246,-3524.039291
3373.195704,0.000000,-9326.594869,-1991.848295
3373.196031,-1184.329507,-8586.388927,919.314598
3373.196359,-740.205942,-8660.409521,2834.553343
3373.196686,-592.164754,-9252.574275,1149.143247
3373.197014,296.082377,-9104.533087,-919.314598
3373.197342,518.144159,-10510.924376,-689.485948
3373.197669,814.226536,-9178.553681,-766.095498
3373.197997,1998.556043,-9918.759623,689.485948
3373.198324,2664.741391,-10436.903782,0.000000
3373.198652,3404.947333,-11325.150913,-1225.752797
3373.198980,1702.473667,-10066.800811,-536.266849
3373.199307,222.061783,-9696.697840,229.828649
3373.199635,-296.082377,-9770.718434,0.000000
3373.199962,74.020594,-9252.574275,-842.705048
3373.200290,-1702.473667,-8882.471304,229.828649
3373.200618,-2294.638420,-8290.306550,1072.533697
3373.200945,0.000000,-8142.265362,-536.266849
3373.201273,1554.432478,-9696.697840,-1915.238745
3373.201600,1184.329507,-10658.965565,-612.876398
3373.201928,370.102971,-8290.306550,612.876398
3373.202256,1258.350101,-6661.853478,383.047749
3373.202583,814.226536,-7254.018232,0.000000
3373.202911,0.000000,-10955.047942,153.219100
3373.203238,-370.102971,-13101.645173,1378.971896
3373.203566,518.144159,-11621.233289,-536.266849
3373.203894,2886.803174,-11695.253884,-2757.943793
3373.204221,2072.576638,-12213.398043,-2298.286494
3373.204549,1110.308913,-12435.459826,689.485948
3373.204876,-444.123565,-8142.265362,1838.629195
3373.205204,-1776.494261,-5773.606348,1762.019645
3373.205532,-2590.720797,-6143.709319,0.000000
3373.205859,-2368.659014,-7031.956449,-1532.190996
3373.206187,-3256.906145,-9104.533087,536.266849
3373.206514,-2368.659014,-9548.656652,229.828649
3373.206842,666.185348,-10066.800811,-1685.410096
3373.207170,3256.906145,-13101.645173,-2681.334243
3373.207497,2664.741391,-13027.624579,-383.047749
3373.207825,1702.473667,-10807.006753,459.657299
3373.208152,666.185348,-8882.471304,0.000000
3373.208480,592.164754,-7846.182985,-919.314598
3373.208808,0.000000,-9252.574275,0.000000
3373.209135,-2960.823768,-9770.718434,2374.896044
3373.209463,-1850.514855,-8290.306550,1762.019645
3373.209790,1036.288319,-8734.430116,-1225.752797
3373.210118,1480.411884,-10362.883188,-2528.115143
3373.210446,0.000000,-11029.068536,-1532.190996
3373.210773,-1332.370696,-7550.100608,612.876398
3373.211101,814.226536,-7846.182985,0.000000
3373.211428,1998.556043,-9474.636058,-536.266849
3373.211756,2368.659014,-10584.944971,536.266849
3373.212084,518.144159,-10362.883188,3140.991542
3373.212411,518.144159,-9030.512492,1378.971896
3373.212739,2590.720797,-11325.150913,-2298.286494
3373.213066,370.102971,-11843.295072,-2911.162892
3373.213394,-1406.391290,-10436.903782,-1532.190996
3373.213722,-814.226536,-7550.100608,-995.924147
3373.214049,-222.061783,-7476.080014,153.219100
3373.214377,962.267725,-9770.718434,1149.143247
3373.214704,-222.061783,-10732.986159,1149.143247
3373.215032,-888.247130,-9770.718434,1378.971896
3373.215360,296.082377,-8068.244768,0.000000
3373.215687,2220.617826,-8586.388927,-2298.286494
3373.216015,1998.556043,-11399.171507,-919.314598
3373.216342,1776.494261,-11251.130318,1225.752797
3373.216670,1924.535449,-8216.285956,1378.971896
3373.216997,1184.329507,-8882.471304,306.438199
3373.217325,518.144159,-9622.677246,229.828649
3373.217653,592.164754,-11695.253884,-153.219100
3373.217980,-1258.350101,-10066.800811,842.705048
3373.218308,-888.247130,-7994.224174,-306.438199
3373.218635,-592.164754,-8882.471304,-1455.581446
3373.218963,222.061783,-10584.944971,-229.828649
3373.219291,518.144159,-8364.327145,229.828649
3373.219618,74.020594,-8808.450710,1225.752797
3373.219946,296.082377,-8438.347739,1149.143247
3373.220273,1924.535449,-7328.038826,-995.924147
3373.220601,74.020594,-9474.636058,153.219100
3373.220929,-1184.329507,-9326.594869,1685.410096
3373.221256,148.041188,-9770.718434,229.828649
3373.221584,1554.432478,-10881.027347,-1532.190996
3373.221911,1702.473667,-13101.645173,-2451.505594
3373.222239,592.164754,-12509.480420,-1455.581446
3373.222567,592.164754,-10066.800811,459.657299
3373.222894,518.144159,-8068.244768,536.266849
3373.223222,444.123565,-8068.244768,766.095498
3373.223549,-1702.473667,-9030.512492,1378.971896
3373.223877,-2442.679609,-7698.141797,153.219100
3373.224205,-1850.514855,-7920.203579,-919.314598
3373.224532,222.061783,-9622.677246,-2221.676944
3373.224860,962.267725,-11843.295072,-1455.581446
3373.225187,370.102971,-10955.047942,0.000000
3373.225515,1332.370696,-11177.109724,-612.876398
3373.225843,2368.659014,-11325.150913,-1302.362347
3373.226170,2072.576638,-11177.109724,-842.705048
3373.226498,0.000000,-9770.718434,306.438199
3373.226825,-740.205942,-8956.491898,1532.190996
3373.227153,-370.102971,-9474.636058,153.219100
3373.227481,-148.041188,-9622.677246,-459.657299
3373.227808,74.020594,-10140.821405,-459.657299
3373.228136,740.205942,-9696.697840,0.000000
3373.228463,0.000000,-7920.203579,-306.438199
3373.228791,0.000000,-7846.182985,-1225.752797
3373.229119,148.041188,-8882.471304,-612.876398
3373.229446,0.000000,-9474.636058,536.266849
3373.229774,1110.308913,-8734.430116,842.705048
3373.230101,1406.391290,-9918.759623,0.000000
3373.230429,2220.617826,-10658.965565,76.609550
3373.230757,2146.597232,-11251.130318,-919.314598
3373.231084,222.061783,-10807.006753,-612.876398
3373.231412,-814.226536,-9696.697840,-229.828649
3373.231739,-370.102971,-8438.347739,-1149.143247
3373.232067,-1776.494261,-7772.162391,0.000000
3373.232395,-2664.741391,-8808.450710,689.485948
3373.232722,-1628.453072,-8956.491898,-612.876398
3373.233050,-222.061783,-10214.842000,-1302.362347
3373.233377,1480.411884,-10658.965565,-1532.190996
3373.233705,2590.720797,-10362.883188,-1608.800546
3373.234033,1554.432478,-10510.924376,1302.362347
3373.234360,1702.473667,-11103.089130,1915.238745
3373.234688,2442.679609,-9252.574275,-766.095498
3373.235015,1554.432478,-9474.636058,-919.314598
3373.235343,-296.082377,-11547.212695,0.000000
3373.235671,-222.061783,-9622.677246,0.000000
3373.235998,370.102971,-9104.533087,-842.705048
3373.236326,444.123565,-9474.636058,-1149.143247
3373.236653,74.020594,-10807.006753,229.828649
3373.236981,-666.185348,-10140.821405,842.705048
3373.237309,222.061783,-9474.636058,0.000000
3373.237636,740.205942,-8438.347739,0.000000
3373.237964,1258.350101,-8216.285956,459.657299
3373.238291,74.020594,-7624.121203,1302.362347
3373.238619,0.000000,-7772.162391,1378.971896
3373.238947,0.000000,-10140.821405,306.438199
3373.239274,1332.370696,-11029.068536,-842.705048
3373.239602,2072.576638,-11251.130318,-459.657299
3373.239929,1628.453072,-11177.109724,-995.924147
3373.240257,-296.082377,-11177.109724,153.219100
3373.240585,814.226536,-9622.677246,-459.657299
3373.240912,518.144159,-8956.491898,-995.924147
3373.241240,-1332.370696,-9696.697840,766.095498
3373.241567,-2368.659014,-6809.894666,1149.143247
3373.241895,-1480.411884,-6883.915261,459.657299
3373.242223,0.000000,-8068.244768,-459.657299
3373.242550,1258.350101,-10510.924376,-306.438199
3373.242878,-1998.556043,-11251.130318,1532.190996
3373.243205,-666.185348,-9474.636058,153.219100
3373.243533,814.226536,-7846.182985,-2834.553343
3373.243861,1924.535449,-12953.603985,-2604.724693
3373.244188,0.000000,-13249.686362,-612.876398
3373.244516,666.185348,-10066.800811,1149.143247
3373.244843,1406.391290,-8586.388927,-383.047749
3373.245171,2294.638420,-10362.883188,-1455.581446
3373.245499,0.000000,-12065.356855,1455.581446
3373.245826,-666.185348,-8660.409521,1762.019645
3373.246154,-888.247130,-7105.977043,-229.828649
3373.246481,1184.329507,-8290.306550,-2068.457845
3373.246809,0.000000,-10658.965565,-1378.971896
3373.247137,-1480.411884,-9178.553681,1685.410096
3373.247464,-74.020594,-7550.100608,1149.143247
3373.247792,1702.473667,-9918.759623,-1302.362347
3373.248119,2516.700203,-12361.439231,-1608.800546
3373.248447,2294.638420,-12509.480420,0.000000
3373.248775,1184.329507,-8956.491898,1532.190996
3373.249102,1480.411884,-8660.409521,612.876398
3373.249430,0.000000,-9696.697840,689.485948
3373.249757,-740.205942,-11473.192101,229.828649
3373.250085,-2146.597232,-5403.503377,0.000000
3373.250413,-2812.782580,-6661.853478,0.000000
3373.250740,-2812.782580,-11325.150913,-995.924147
3373.251068,148.041188,-10584.944971,-2911.162892
3373.251395,888.247130,-9252.574275,-1378.971896
3373.251723,666.185348,-7846.182985,383.047749
3373.252051,1554.432478,-10658.965565,2374.896044
3373.252378,3256.906145,-11547.212695,2221.676944
3373.252706,2590.720797,-10732.986159,459.657299
3373.253033,1184.329507,-8808.450710,-766.095498
3373.253361,0.000000,-9178.553681,-842.705048
3373.253689,0.000000,-10066.800811,-1608.800546
3373.254016,814.226536,-8882.471304,-919.314598
3373.254344,592.164754,-10436.903782,76.609550
3373.254671,-1110.308913,-10510.924376,1532.190996
3373.254999,370.102971,-10140.821405,612.876398
3373.255326,740.205942,-9474.636058,-1455.581446
3373.255654,-814.226536,-11325.150913,76.609550
3373.255982,-1480.411884,-8142.265362,0.000000
3373.256309,-222.061783,-7772.162391,-1149.143247
3373.256637,888.247130,-7920.203579,-766.095498
3373.256964,2886.803174,-9326.594869,0.000000
3373.257292,1406.391290,-11843.295072,2451.505594
3373.257620,222.061783,-11917.315666,2298.286494
3373.257947,1184.329507,-9918.759623,-1302.362347
3373.258275,1184.329507,-11473.192101,-3064.381992
3373.258602,0.000000,-11399.171507,-536.266849
3373.258930,-740.205942,-7550.100608,0.000000
3373.259258,1036.288319,-8142.265362,-612.876398
3373.259585,962.267725,-10658.965565,229.828649
3373.259913,592.164754,-10807.006753,1225.752797
3373.260240,-1850.514855,-7179.997637,842.705048
3373.260568,-2368.659014,-6069.688724,459.657299
3373.260896,-888.247130,-8660.409521,-995.924147
3373.261223,-1554.432478,-10140.821405,-536.266849
3373.261551,-1110.308913,-10881.027347,1072.533697
3373.261878,888.247130,-9548.656652,-383.047749
3373.262206,1776.494261,-11547.212695,-2068.457845
3373.262534,1406.391290,-11991.336260,-1302.362347
3373.262862,1998.556043,-10658.965565,-536.266849
3373.263189,-148.041188,-9030.512492,919.314598
3373.263517,-1036.288319,-9400.615463,1838.629195
3373.263845,-370.102971,-8734.430116,1302.362347
3373.264173,148.041188,-9326.594869,536.266849
3373.264500,0.000000,-9326.594869,306.438199
3373.264828,-1110.308913,-8734.430116,0.000000
3373.265156,-1554.432478,-9548.656652,-1225.752797
3373.265484,814.226536,-9474.636058,-3140.991542
3373.265811,740.205942,-9770.718434,-1608.800546
3373.266139,74.020594,-9918.759623,842.705048
3373.266467,2368.659014,-10658.965565,306.438199
3373.266795,3108.864956,-12065.356855,306.438199
3373.267122,2368.659014,-11843.295072,995.924147
3373.267450,740.205942,-9474.636058,919.314598
3373.267778,-666.185348,-8364.327145,1072.533697
3373.268106,814.226536,-8660.409521,-1915.238745
3373.268433,-888.247130,-8438.347739,-1455.581446
3373.268761,-2960.823768,-10436.903782,536.266849
3373.269089,-3034.844362,-9548.656652,-383.047749
3373.269417,-2220.617826,-8290.306550,-1378.971896
3373.269744,-814.226536,-8290.306550,-2298.286494
3373.270072,148.041188,-10140.821405,-766.095498
3373.270400,1628.453072,-11399.171507,1302.362347
3373.270727,2960.823768,-11769.274478,1685.410096
3373.271055,3478.967927,-11177.109724,-1072.533697
3373.271383,2886.803174,-10066.800811,-1532.190996
3373.271711,1332.370696,-10066.800811,-689.485948
3373.272038,74.020594,-9030.512492,536.266849
3373.272366,-296.082377,-7179.997637,1762.019645
3373.272694,-592.164754,-7920.203579,536.266849
3373.273022,74.020594,-9696.697840,459.657299
3373.273349,592.164754,-9844.739029,766.095498
3373.273677,74.020594,-10288.862594,0.000000
3373.274005,0.000000,-9400.615463,-919.314598
3373.274333,518.144159,-7920.203579,-1991.848295
3373.274660,1184.329507,-8734.430116,-3140.991542
3373.274988,444.123565,-7550.100608,1072.533697
3373.275316,370.102971,-8586.388927,2451.505594
3373.275644,666.185348,-10732.986159,2374.896044
3373.275971,1332.370696,-13767.830521,76.609550
3373.276299,1332.370696,-11769.274478,-2221.676944
3373.276627,0.000000,-10362.883188,-1838.629195
3373.276955,1036.288319,-10436.903782,-1762.019645
3373.277282,2516.700203,-10066.800811,-1838.629195
3373.277610,888.247130,-10436.903782,0.000000
3373.277938,-962.267725,-9400.615463,1455.581446
3373.278266,-1554.432478,-8290.306550,995.924147
3373.278593,-1184.329507,-7772.162391,229.828649
3373.278921,-296.082377,-9030.512492,-229.828649
3373.279249,-1998.556043,-9918.759623,1149.143247
3373.279577,-1406.391290,-9992.780217,306.438199
3373.279904,1110.308913,-9104.533087,-3140.991542
3373.280232,2294.638420,-11399.171507,-4060.306139
3373.280560,296.082377,-11843.295072,-1072.533697
3373.280887,-296.082377,-10066.800811,1685.410096
3373.281215,222.061783,-9178.553681,1608.800546
3373.281543,592.164754,-9548.656652,0.000000
3373.281871,-888.247130,-10732.986159,995.924147
3373.282198,-1184.329507,-8882.471304,1532.190996
3373.282526,-888.247130,-6957.935855,536.266849
3373.282854,518.144159,-7402.059420,-1608.800546
3373.283182,0.000000,-9252.574275,-2145.067394
3373.283509,-888.247130,-10066.800811,153.219100
3373.283837,370.102971,-8586.388927,1225.752797
3373.284165,2072.576638,-8438.347739,-383.047749
3373.284493,1702.473667,-10140.821405,536.266849
3373.284820,888.247130,-11917.315666,459.657299
3373.285148,296.082377,-11325.150913,0.000000
3373.285476,1406.391290,-9770.718434,-1685.410096
3373.285804,1776.494261,-9474.636058,-2068.457845
3373.286131,2368.659014,-10658.965565,-842.705048
3373.286459,-296.082377,-8142.265362,2451.505594
3373.286787,-3034.844362,-8216.285956,2451.505594
3373.287115,-3256.906145,-8956.491898,-919.314598
3373.287442,-2368.659014,-9326.594869,-3753.867940
3373.287770,-1406.391290,-9548.656652,-3294.210641
3373.288098,-888.247130,-9326.594869,-459.657299
3373.288426,740.205942,-10214.842000,1762.019645
3373.288753,4515.256246,-11621.233289,0.000000
3373.289081,4515.256246,-12805.562797,-995.924147
3373.289409,2220.617826,-12139.377449,-383.047749
3373.289737,296.082377,-8438.347739,0.000000
3373.290064,666.185348,-7624.121203,0.000000
3373.290392,740.205942,-8882.471304,-383.047749
3373.290720,-814.226536,-9918.759623,1915.238745
3373.291047,-888.247130,-8734.430116,2451.505594
3373.291375,1332.370696,-9326.594869,0.000000
3373.291703,2886.803174,-12065.356855,-2374.896044
3373.292031,1258.350101,-11325.150913,-2068.457845
3373.292358,-1406.391290,-7105.977043,0.000000
3373.292686,-444.123565,-5255.462188,0.000000
3373.293014,-444.123565,-5995.668130,536.266849
3373.293342,74.020594,-9474.636058,1991.848295
3373.293669,666.185348,-11325.150913,2681.334243
3373.293997,1554.432478,-11103.089130,536.266849
3373.294325,2738.761985,-11547.212695,-2451.505594
3373.294653,3256.906145,-11621.233289,-3907.087040
3373.294980,814.226536,-10288.862594,-153.219100
3373.295308,222.061783,-7994.224174,995.924147
3373.295636,592.164754,-7105.977043,459.657299
3373.295964,-296.082377,-9918.759623,689.485948
3373.296291,-1480.411884,-10584.944971,306.438199
3373.296619,-1702.473667,-9252.574275,0.000000
3373.296947,-2220.617826,-7179.997637,536.266849
3373.297275,-296.082377,-9474.636058,-919.314598
3373.297602,592.164754,-11251.130318,-2528.115143
3373.297930,444.123565,-11325.150913,-1302.362347
3373.298258,518.144159,-10658.965565,-1225.752797
3373.298586,1110.308913,-11769.274478,-383.047749
3373.298913,1258.350101,-10658.965565,-229.828649
3373.299241,148.041188,-9770.718434,229.828649
3373.299569,-1258.350101,-10584.944971,689.485948
3373.299897,296.082377,-10807.006753,459.657299
3373.300224,0.000000,-10436.903782,-1225.752797
3373.300552,370.102971,-9252.574275,-1378.971896
3373.300880,-592.164754,-9178.553681,-612.876398
3373.301207,-814.226536,-8142.265362,536.266849
3373.301535,0.000000,-7624.121203,919.314598
3373.301863,0.000000,-9104.533087,919.314598
3373.302191,0.000000,-8512.368333,919.314598
3373.302518,296.082377,-8364.327145,0.000000
3373.302846,222.061783,-10066.800811,0.000000
3373.303174,1110.308913,-11325.150913,-1378.971896
3373.303502,1850.514855,-10214.842000,-1302.362347
3373.303829,1776.494261,-10288.862594,-306.438199
3373.304157,1776.494261,-8364.327145,383.047749
3373.304485,222.061783,-8586.388927,1225.752797
3373.304813,-2442.679609,-10288.862594,2528.115143
3373.305140,-2590.720797,-10881.027347,153.219100
3373.305468,-2072.576638,-8734.430116,-3294.210641
3373.305796,-1924.535449,-7772.162391,-4136.915689
3373.306124,-518.144159,-9992.780217,-1149.143247
3373.306451,1776.494261,-10732.986159,919.314598
3373.306779,3256.906145,-11029.068536,1915.238745
3373.307107,3034.844362,-10436.903782,459.657299
3373.307435,1850.514855,-10881.027347,0.000000
3373.307762,814.226536,-9474.636058,-689.485948
3373.308090,962.267725,-7920.203579,-536.266849
3373.308418,1110.308913,-8512.368333,0.000000
3373.308746,-444.123565,-9474.636058,1072.533697
3373.309073,2146.597232,-10214.842000,383.047749
3373.309401,3552.988522,-10955.047942,-689.485948
3373.309729,2294.638420,-12731.542202,-1149.143247
3373.310057,-592.164754,-10584.944971,306.438199
3373.310384,-1258.350101,-7624.121203,0.000000
3373.310712,-962.267725,-5033.400406,-1455.581446
3373.311040,-370.102971,-7402.059420,-995.924147
3373.311367,-1924.535449,-10140.821405,1225.752797
3373.311695,-740.205942,-10807.006753,1608.800546
3373.312023,1998.556043,-9548.656652,-1608.800546
3373.312351,3627.009116,-11251.130318,-3217.601092
3373.312678,2072.576638,-13471.748144,-842.705048
3373.313006,1332.370696,-10436.903782,1991.848295
3373.313334,740.205942,-7402.059420,1149.143247
3373.313662,1332.370696,-6661.853478,76.609550
3373.313989,74.020594,-9696.697840,536.266849
3373.314317,-3256.906145,-10140.821405,1072.533697
3373.314645,-2442.679609,-7772.162391,-689.485948
3373.314973,-814.226536,-6883.915261,-2528.115143
3373.315300,666.185348,-11695.253884,-1149.143247
3373.315628,0.000000,-12657.521608,1608.800546
3373.315956,-296.082377,-8438.347739,1149.143247
3373.316284,0.000000,-7179.997637,-306.438199
3373.316611,222.061783,-9548.656652,-2604.724693
3373.316939,0.000000,-12287.418637,-1378.971896
3373.317267,-666.185348,-9844.739029,0.000000
3373.317595,-1036.288319,-9548.656652,536.266849
3373.317922,1406.391290,-10140.821405,-995.924147
3373.318250,1702.473667,-12435.459826,-1225.752797
3373.318578,-888.247130,-10881.027347,153.219100
3373.318906,-1184.329507,-7772.162391,153.219100
3373.319233,-666.185348,-8808.450710,-306.438199
3373.319561,296.082377,-9252.574275,-306.438199
3373.319889,74.020594,-10214.842000,766.095498
3373.320217,-814.226536,-9030.512492,2221.676944
3373.320544,296.082377,-7994.224174,536.266849
3373.320872,1036.288319,-10288.862594,-1378.971896
3373.321200,1036.288319,-12139.377449,-2068.457845
3373.321528,0.000000,-10732.986159,-1072.533697
3373.321855,1036.288319,-9104.533087,0.000000
3373.322183,2072.576638,-9030.512492,383.047749
3373.322511,1406.391290,-10584.944971,1378.971896
3373.322838,-592.164754,-11177.109724,1838.629195
3373.323166,-2960.823768,-9178.553681,459.657299
3373.323494,-2220.617826,-7402.059420,-2834.553343
3373.323822,-148.041188,-7328.038826,-4443.353888
3373.324149,222.061783,-10658.965565,-766.095498
3373.324477,-222.061783,-10807.006753,2604.724693
3373.324805,1036.288319,-8290.306550,2681.334243
3373.325133,1110.308913,-8216.285956,0.000000
3373.325460,1332.370696,-8734.430116,-2834.553343
3373.325788,296.082377,-11547.212695,-766.095498
3373.326116,-518.144159,-8882.471304,229.828649
3373.326444,1628.453072,-7550.100608,-1225.752797
3373.326771,2442.679609,-11473.192101,-612.876398
3373.327099,2886.803174,-12583.501014,1072.533697
3373.327427,2738.761985,-11103.089130,2145.067394
3373.327755,2220.617826,-8734.430116,1685.410096
3373.328082,1036.288319,-8586.388927,-612.876398
3373.328410,592.164754,-8808.450710,-2068.457845
3373.328738,0.000000,-7624.121203,0.000000
3373.329066,-888.247130,-6217.729913,1455.581446
3373.329393,-1628.453072,-8956.491898,1225.752797
3373.329721,-962.267725,-11843.295072,-1302.362347
3373.330049,148.041188,-13175.665768,-2681.334243
3373.330377,1036.288319,-11991.336260,-3447.429741
3373.330704,1036.288319,-10807.006753,-919.314598
3373.331032,888.247130,-10140.821405,995.924147
3373.331360,1332.370696,-9696.697840,1302.362347
3373.331688,-444.123565,-9326.594869,2298.286494
3373.332015,-1924.535449,-8068.244768,689.485948
3373.332343,-2812.782580,-8438.347739,-1225.752797
3373.332671,-592.164754,-8956.491898,-2757.943793
3373.332998,-296.082377,-9178.553681,-1532.190996
3373.333326,-518.144159,-11177.109724,1762.019645
3373.333654,74.020594,-11029.068536,2451.505594
3373.333982,1258.350101,-8882.471304,229.828649
3373.334309,444.123565,-9622.677246,-2068.457845
3373.334637,-1776.494261,-9104.533087,-383.047749
3373.334965,-962.267725,-7476.080014,-459.657299
3373.335293,296.082377,-7920.203579,-842.705048
3373.335620,1480.411884,-10584.944971,-689.485948
3373.335948,1110.308913,-12657.521608,1225.752797
3373.336276,148.041188,-9696.697840,2068.457845
3373.336604,-444.123565,-8586.388927,-612.876398
3373.336931,-592.164754,-9696.697840,-2374.896044
3373.337259,-666.185348,-9844.739029,-2221.676944
3373.337587,-666.185348,-8216.285956,-383.047749
3373.337915,740.205942,-7772.162391,1302.362347
3373.338242,2960.823768,-8142.265362,612.876398
3373.338570,2516.700203,-10732.986159,689.485948
3373.338898,296.082377,-11917.315666,995.924147
3373.339226,-222.061783,-9178.553681,-1225.752797
3373.339553,-296.082377,-7846.182985,-2987.772442
3373.339881,666.185348,-10140.821405,-2221.676944
3373.340209,370.102971,-11325.150913,0.000000
3373.340537,2368.659014,-10807.006753,842.705048
3373.340864,2368.659014,-10214.842000,1532.190996
3373.341192,1110.308913,-11917.315666,-383.047749
3373.341520,148.041188,-11251.130318,-2681.334243
3373.341848,-296.082377,-9400.615463,-2834.553343
3373.342175,-296.082377,-7698.141797,-1608.800546
3373.342503,-148.041188,-9252.574275,459.657299
3373.342831,518.144159,-10584.944971,2834.553343
3373.343158,1998.556043,-10066.800811,1915.238745
3373.343486,1036.288319,-8290.306550,-1608.800546
3373.343814,-444.123565,-8438.347739,-1991.848295
3373.344142,-740.205942,-9104.533087,-2068.457845
3373.344469,592.164754,-9400.615463,-2221.676944
3373.344797,666.185348,-9474.636058,0.000000
3373.345125,1480.411884,-10140.821405,1149.143247
3373.345453,814.226536,-10732.986159,3217.601092
3373.345780,3701.029710,-10732.986159,2068.457845
3373.346108,3034.844362,-10955.047942,-689.485948
3373.346436,-370.102971,-9696.697840,383.047749
3373.346764,-1258.350101,-7179.997637,76.609550
3373.347091,-296.082377,-5403.503377,-766.095498
3373.347419,1702.473667,-6587.832884,-153.219100
3373.347747,296.082377,-10288.862594,1455.581446
3373.348075,-2886.803174,-13249.686362,2681.334243
3373.348402,-888.247130,-11103.089130,-842.705048
3373.348730,666.185348,-9844.739029,-4903.011187
3373.349058,222.061783,-11843.295072,-3140.991542
3373.349386,-888.247130,-10436.903782,612.876398
3373.349713,-148.041188,-9400.615463,1915.238745
3373.350041,1110.308913,-8438.347739,0.000000
3373.350369,1702.473667,-9992.780217,-1302.362347
3373.350697,-1924.535449,-9104.533087,689.485948
3373.351024,-3182.885551,-8364.327145,1149.143247
3373.351352,-1554.432478,-8882.471304,-612.876398
3373.351680,-296.082377,-10510.924376,-2221.676944
3373.352008,-1110.308913,-11991.336260,-306.438199
3373.352335,-370.102971,-10066.800811,-383.047749
3373.352663,666.185348,-9770.718434,-766.095498
3373.352991,1406.391290,-9844.739029,-919.314598
3373.353318,1406.391290,-10214.842000,-1149.143247
3373.353646,-962.267725,-9548.656652,229.828649
3373.353974,-222.061783,-8882.471304,229.828649
3373.354302,-592.164754,-9178.553681,0.000000
3373.354629,666.185348,-9474.636058,-229.828649
3373.354957,-592.164754,-10807.006753,-536.266849
3373.355285,-962.267725,-10732.986159,0.000000
3373.355613,296.082377,-9548.656652,-1302.362347
3373.355940,1480.411884,-9104.533087,-2221.676944
3373.356268,2368.659014,-10214.842000,-536.266849
3373.356596,888.247130,-9474.636058,1991.848295
3373.356924,518.144159,-7550.100608,2451.505594
3373.357251,74.020594,-8512.368333,1532.190996
3373.357579,592.164754,-9622.677246,-612.876398
3373.357907,0.000000,-10881.027347,-1225.752797
3373.358235,-296.082377,-9622.677246,-383.047749
3373.358562,1332.370696,-8808.450710,-766.095498
3373.358890,2664.741391,-9474.636058,-1685.410096
3373.359218,2664.741391,-10658.965565,766.095498
3373.359546,-1332.370696,-11177.109724,1762.019645
3373.359873,-814.226536,-10881.027347,-306.438199
3373.360201,296.082377,-8956.491898,-2757.943793
3373.360519,1110.308913,-9844.739029,-1762.019645
3373.360847,148.041188,-10658.965565,536.266849
3373.361174,222.061783,-9622.677246,2298.286494
3373.361502,1702.473667,-9474.636058,1302.362347
3373.361829,3256.906145,-9474.636058,-1072.533697
3373.362157,1628.453072,-11029.068536,-1608.800546
3373.362485,-666.185348,-9474.636058,0.000000
3373.362812,0.000000,-8660.409521,229.828649
3373.363140,1036.288319,-8586.388927,-689.485948
3373.363467,2368.659014,-10732.986159,-766.095498
3373.363795,518.144159,-12731.542202,2068.457845
3373.364123,1184.329507,-10214.842000,2145.067394
3373.364450,2368.659014,-8142.265362,0.000000
3373.364778,1184.329507,-9252.574275,-1225.752797
3373.365105,740.205942,-9030.512492,-689.485948
3373.365433,-1036.288319,-5107.421000,1302.362347
3373.365761,814.226536,-4811.338623,1532.190996
3373.366088,222.061783,-11177.109724,919.314598
3373.366416,0.000000,-13989.892304,459.657299
3373.366743,-666.185348,-11251.130318,-1225.752797
3373.367071,-222.061783,-9622.677246,-2834.553343
3373.367399,1776.494261,-10658.965565,-3447.429741
3373.367726,666.185348,-10732.986159,-1225.752797
3373.368054,592.164754,-10955.047942,2068.457845
3373.368381,592.164754,-7994.224174,2145.067394
3373.368709,0.000000,-8216.285956,536.266849
3373.369037,-888.247130,-8882.471304,0.000000
3373.369364,-2664.741391,-8660.409521,-919.314598
3373.369692,-2442.679609,-9918.759623,-536.266849
3373.370019,-1110.308913,-9622.677246,-842.705048
3373.370347,-888.247130,-11991.336260,-995.924147
3373.370675,1184.329507,-10362.883188,-2374.896044
3373.371002,814.226536,-10658.965565,-459.657299
3373.371330,0.000000,-10881.027347,1302.362347
3373.371657,-888.247130,-8438.347739,1149.143247
3373.371985,-888.247130,-8586.388927,0.000000
3373.372313,-222.061783,-10584.944971,-306.438199
3373.372640,-962.267725,-10288.862594,536.266849
3373.372968,-1998.556043,-9326.594869,919.314598
3373.373295,-1110.308913,-10140.821405,-995.924147
3373.373623,-666.185348,-9474.636058,-1991.848295
3373.373951,370.102971,-9992.780217,-1225.752797
3373.374278,-444.123565,-8586.388927,229.828649
3373.374606,814.226536,-8882.471304,612.876398
3373.374933,1776.494261,-8142.265362,766.095498
3373.375261,888.247130,-10140.821405,1685.410096
3373.375589,-518.144159,-10066.800811,1685.410096
3373.375916,74.020594,-8290.306550,229.828649
3373.376244,1110.308913,-9474.636058,-1072.533697
3373.376571,2442.679609,-10955.047942,-2528.115143
3373.376899,1776.494261,-11251.130318,-919.314598
3373.377227,2442.679609,-9474.636058,919.314598
3373.377554,740.205942,-8734.430116,2911.162892
3373.377882,370.102971,-10066.800811,1455.581446
3373.378209,-518.144159,-10807.006753,-1762.019645
3373.378537,-1480.411884,-9696.697840,-2298.286494
3373.378865,-1332.370696,-7179.997637,-1455.581446
3373.379192,592.164754,-9474.636058,-689.485948
3373.379520,2072.576638,-12139.377449,1225.752797
3373.379847,2294.638420,-10510.924376,1149.143247
3373.380175,518.144159,-7328.038826,0.000000
3373.380503,-370.102971,-8142.265362,-1991.848295
3373.380830,592.164754,-9622.677246,-1532.190996
3373.381158,666.185348,-10584.944971,-1072.533697
3373.381486,-148.041188,-8734.430116,383.047749
3373.381813,1036.288319,-10584.944971,689.485948
3373.382141,3108.864956,-12213.398043,536.266849
3373.382468,4441.235652,-11473.192101,-612.876398
3373.382796,2220.617826,-9918.759623,1072.533697
3373.383124,740.205942,-7994.224174,2068.457845
3373.383451,-296.082377,-7105.977043,612.876398
3373.383779,0.000000,-5699.585753,459.657299
3373.384106,370.102971,-6883.915261,383.047749
3373.384434,0.000000,-11177.109724,1532.190996
3373.384762,-740.205942,-13175.665768,1608.800546
3373.385089,444.123565,-11029.068536,-1991.848295
3373.385417,2072.576638,-10362.883188,-4519.963438
3373.385744,1332.370696,-11547.212695,-2604.724693
3373.386072,-592.164754,-10955.047942,995.924147
3373.386400,-370.102971,-7994.224174,2451.505594
3373.386727,296.082377,-7254.018232,1762.019645
3373.387055,148.041188,-9622.677246,842.705048
3373.387382,-2442.679609,-8660.409521,459.657299
3373.387710,-3256.906145,-8068.244768,612.876398
3373.388038,-222.061783,-8068.244768,-1149.143247
3373.388365,740.205942,-11103.089130,-1762.019645
3373.388693,74.020594,-12139.377449,0.000000
3373.389020,-296.082377,-10436.903782,229.828649
3373.389348,296.082377,-9474.636058,-383.047749
3373.389676,1184.329507,-10732.986159,0.000000
3373.390003,-1554.432478,-10362.883188,-383.047749
3373.390331,-1850.514855,-8956.491898,0.000000
3373.390658,-370.102971,-8808.450710,-919.314598
3373.390986,296.082377,-10510.924376,-612.876398
3373.391314,-666.185348,-11843.295072,229.828649
3373.391641,-592.164754,-10807.006753,-612.876398
3373.391969,-1628.453072,-9030.512492,-383.047749
3373.392296,-1332.370696,-7402.059420,-919.314598
3373.392624,74.020594,-9104.533087,-1302.362347
3373.392952,370.102971,-9696.697840,-229.828649
3373.393279,592.164754,-9326.594869,766.095498
3373.393607,888.247130,-9178.553681,766.095498
3373.393934,2072.576638,-10140.821405,-229.828649
3373.394262,2146.597232,-11029.068536,-383.047749
3373.394590,1036.288319,-9992.780217,0.000000
3373.394917,1850.514855,-9918.759623,-612.876398
3373.395245,1554.432478,-9104.533087,-536.266849
3373.395572,3627.009116,-10362.883188,0.000000
3373.395900,1406.391290,-9844.739029,1455.581446
3373.396228,-1036.288319,-10881.027347,2374.896044
3373.396555,-1998.556043,-9622.677246,229.828649
3373.396883,0.000000,-9252.574275,-4136.915689
3373.397210,0.000000,-8808.450710,-3753.867940
3373.397538,148.041188,-9178.553681,-689.485948
3373.397866,-962.267725,-8882.471304,2987.772442
3373.398193,1258.350101,-8512.368333,1302.362347
3373.398521,1924.535449,-9918.759623,0.000000
3373.398848,296.082377,-10436.903782,0.000000
3373.399176,0.000000,-9474.636058,459.657299
3373.399504,962.267725,-8660.409521,-1685.410096
3373.399831,2072.576638,-10288.862594,-1838.629195
3373.400159,1406.391290,-12509.480420,-612.876398
3373.400486,1258.350101,-11177.109724,1378.971896
3373.400814,1850.514855,-9770.718434,1608.800546
3373.401142,2664.741391,-7772.162391,842.705048
3373.401469,1850.514855,-9178.553681,842.705048
3373.401797,-1628.453072,-9918.759623,1685.410096
3373.402124,-814.226536,-6069.688724,919.314598
3373.402452,296.082377,-6217.729913,-1455.581446
3373.402780,370.102971,-12287.418637,-1302.362347
3373.403107,-444.123565,-13397.727550,-459.657299
3373.403435,814.226536,-11325.150913,-1072.533697
3373.403762,1184.329507,-10658.965565,-2451.505594
3373.404090,1184.329507,-12213.398043,-2451.505594
3373.404418,-296.082377,-12361.439231,766.095498
3373.404745,-1258.350101,-8068.244768,2451.505594
3373.405073,-370.102971,-7105.977043,1378.971896
3373.405400,0.000000,-8512.368333,-1072.533697
3373.405728,0.000000,-9918.759623,-1532.190996
3373.406056,-1480.411884,-9844.739029,229.828649
3373.406383,-518.144159,-8586.388927,459.657299
3373.406711,-518.144159,-8882.471304,-229.828649
3373.407038,-518.144159,-9770.718434,0.000000
3373.407366,-370.102971,-10807.006753,0.000000
3373.407694,74.020594,-10066.800811,-459.657299
3373.408021,592.164754,-8142.265362,459.657299
3373.408349,222.061783,-9548.656652,-306.438199
3373.408676,74.020594,-11029.068536,-689.485948
3373.409004,592.164754,-9622.677246,-1149.143247
3373.409332,-814.226536,-8142.265362,-612.876398
3373.409659,-962.267725,-10436.903782,459.657299
3373.409987,296.082377,-9844.739029,459.657299
3373.410314,296.082377,-10658.965565,383.047749
3373.410642,0.000000,-8068.244768,-536.266849
3373.410970,0.000000,-9770.718434,306.438199
3373.411297,222.061783,-9770.718434,-995.924147
3373.411625,148.041188,-8068.244768,-1302.362347
3373.411952,-740.205942,-8364.327145,-1149.143247
3373.412280,1036.288319,-10955.047942,-919.314598
3373.412608,1628.453072,-12065.356855,0.000000
3373.412935,2072.576638,-10584.944971,842.705048
3373.413263,1406.391290,-10140.821405,536.266849
3373.413590,2368.659014,-8808.450710,-689.485948
3373.413918,1776.494261,-10288.862594,0.000000
3373.414246,0.000000,-11251.130318,459.657299
3373.414573,1036.288319,-9104.533087,-1149.143247
3373.414901,962.267725,-9770.718434,-1608.800546
3373.415228,444.123565,-9992.780217,-842.705048
3373.415556,-1480.411884,-9474.636058,1455.581446
3373.415884,-1850.514855,-8660.409521,1838.629195
3373.416211,-370.102971,-9178.553681,-689.485948
3373.416539,0.000000,-8142.265362,-1455.581446
3373.416866,-148.041188,-7994.224174,0.000000
3373.417194,0.000000,-9252.574275,919.314598
3373.417522,518.144159,-11843.295072,383.047749
3373.417849,2590.720797,-12065.356855,-2298.286494
3373.418177,1554.432478,-10807.006753,-2221.676944
3373.418504,962.267725,-10436.903782,-689.485948
3373.418832,2146.597232,-9918.759623,612.876398
3373.419160,2368.659014,-11251.130318,1608.800546
3373.419487,1850.514855,-10140.821405,2068.457845
3373.419815,740.205942,-8216.285956,229.828649
3373.420142,-592.164754,-6069.688724,-459.657299
3373.420470,148.041188,-7550.100608,-1072.533697
3373.420798,444.123565,-10362.883188,-1149.143247
3373.421125,0.000000,-12213.398043,-536.266849
3373.421453,1110.308913,-10732.986159,-536.266849
3373.421780,1406.391290,-10510.924376,-1225.752797
3373.422108,1332.370696,-12139.377449,-995.924147
3373.422436,-222.061783,-9992.780217,229.828649
3373.422763,-1184.329507,-8734.430116,689.485948
3373.423091,0.000000,-6217.729913,-919.314598
3373.423419,296.082377,-8512.368333,-1532.190996
3373.423746,-1184.329507,-11177.109724,383.047749
3373.424074,-1628.453072,-10362.883188,1225.752797
3373.424401,-814.226536,-8956.491898,-153.219100
3373.424729,1702.473667,-9844.739029,-2068.457845
3373.425057,-518.144159,-10732.986159,0.000000
3373.425384,-148.041188,-9770.718434,1762.019645
3373.425712,444.123565,-8808.450710,1072.533697
3373.426039,1332.370696,-7846.182985,-1762.019645
3373.426367,0.000000,-8734.430116,-459.657299
3373.426695,-1702.473667,-10362.883188,1149.143247
3373.427022,-1332.370696,-9252.574275,459.657299
3373.427350,-962.267725,-9030.512492,76.609550
3373.427677,-370.102971,-11103.089130,-842.705048
3373.428005,-518.144159,-12805.562797,229.828649
3373.428333,0.000000,-9104.533087,459.657299
3373.428660,740.205942,-8882.471304,383.047749
3373.428988,-296.082377,-8882.471304,153.219100
3373.429315,74.020594,-10658.965565,-2221.676944
3373.429643,-1628.453072,-7994.224174,-1532.190996
3373.429971,-2072.576638,-6439.791695,-459.657299
3373.430298,148.041188,-9992.780217,-383.047749
3373.430626,2072.576638,-13841.851115,536.266849
3373.430953,1258.350101,-11991.336260,995.924147
3373.431281,1924.535449,-9400.615463,0.000000
3373.431609,3108.864956,-9400.615463,-689.485948
3373.431936,3849.070898,-9622.677246,-536.266849
3373.432264,2368.659014,-11029.068536,459.657299
3373.432591,74.020594,-9622.677246,536.266849
3373.432919,370.102971,-9104.533087,0.000000
3373.433247,0.000000,-9844.739029,612.876398
3373.433574,518.144159,-10140.821405,612.876398
3373.433902,-666.185348,-9844.739029,689.485948
3373.434229,-1554.432478,-9548.656652,229.828649
3373.434557,-666.185348,-8438.347739,-1838.629195
3373.434885,740.205942,-8586.388927,-2221.676944
3373.435212,2738.761985,-9252.574275,-1532.190996
3373.435540,962.267725,-8734.430116,1838.629195
3373.435867,740.205942,-10436.903782,2681.334243
3373.436195,814.226536,-11177.109724,383.047749
3373.436523,1110.308913,-11251.130318,-2374.896044
3373.436850,222.061783,-9696.697840,-2068.457845
3373.437178,-518.144159,-8660.409521,153.219100
3373.437505,1850.514855,-9400.615463,536.266849
3373.437833,3330.926739,-9104.533087,0.000000
3373.438161,1110.308913,-9326.594869,383.047749
3373.438488,-1332.370696,-8808.450710,1072.533697
3373.438816,222.061783,-9104.533087,0.000000
3373.439143,1628.453072,-10214.842000,-689.485948
3373.439471,888.247130,-11547.212695,-689.485948
3373.439799,-592.164754,-9474.636058,0.000000
3373.440126,0.000000,-9770.718434,-383.047749
3373.440454,888.247130,-11547.212695,-2145.067394
3373.440781,222.061783,-9992.780217,-2221.676944
3373.441109,-2072.576638,-9696.697840,76.609550
3373.441437,-2220.617826,-7698.141797,383.047749
3373.441764,-740.205942,-7179.997637,-612.876398
3373.442092,-222.061783,-8290.306550,0.000000
3373.442419,-370.102971,-10288.862594,1302.362347
3373.442747,-74.020594,-11177.109724,1838.629195
3373.443075,888.247130,-9252.574275,-459.657299
3373.443402,1110.308913,-9326.594869,-1838.629195
3373.443730,592.164754,-10140.821405,-1149.143247
3373.444057,814.226536,-10362.883188,-612.876398
3373.444385,0.000000,-8882.471304,689.485948
3373.444713,1110.308913,-9770.718434,153.219100
3373.445040,666.185348,-10066.800811,-766.095498
3373.445368,0.000000,-10214.842000,-383.047749
3373.445695,-1036.288319,-9104.533087,153.219100
3373.446023,-1184.329507,-10362.883188,-229.828649
3373.446351,740.205942,-10140.821405,-766.095498
3373.446678,1480.411884,-10362.883188,-459.657299
3373.447006,518.144159,-9400.615463,842.705048
3373.447333,666.185348,-9252.574275,1149.143247
3373.447661,296.082377,-8512.368333,766.095498
3373.447989,0.000000,-8216.285956,-383.047749
3373.448316,-1258.350101,-9326.594869,-842.705048
3373.448644,-296.082377,-10436.903782,-995.924147
3373.448971,-296.082377,-9844.739029,-536.266849
3373.449299,666.185348,-11103.089130,-383.047749
3373.449627,2368.659014,-11843.295072,-2145.067394
3373.449954,1406.391290,-9844.739029,-612.876398
3373.450282,962.267725,-8660.409521,919.314598
3373.450609,-148.041188,-9622.677246,1455.581446
3373.450937,148.041188,-9326.594869,766.095498
3373.451265,0.000000,-7328.038826,-306.438199
3373.451592,-1332.370696,-8290.306550,536.266849
3373.451920,-1776.494261,-9548.656652,306.438199
3373.452247,-666.185348,-9770.718434,-1532.190996
3373.452575,-1480.411884,-10436.903782,-1762.019645
3373.452903,-814.226536,-8734.430116,-2451.505594
3373.453230,-444.123565,-8808.450710,-1608.800546
3373.453558,1480.411884,-9622.677246,-766.095498
3373.453885,1776.494261,-10362.883188,1455.581446
3373.454213,1776.494261,-11769.274478,1762.019645
3373.454541,1850.514855,-11843.295072,229.828649
3373.454868,1332.370696,-10288.862594,-1532.190996
3373.455196,1480.411884,-8660.409521,-1915.238745
3373.455523,1184.329507,-10510.924376,-689.485948
3373.455851,888.247130,-10807.006753,1302.362347
3373.456179,740.205942,-9474.636058,1149.143247
3373.456506,-740.205942,-7846.182985,0.000000
3373.456834,740.205942,-9104.533087,-1302.362347
3373.457161,1406.391290,-11547.212695,-766.095498
3373.457489,740.205942,-12805.562797,459.657299
3373.457817,222.061783,-9696.697840,-612.876398
3373.458144,0.000000,-8364.327145,-1838.629195
3373.458472,-888.247130,-9622.677246,-1838.629195
3373.458799,-222.061783,-10955.047942,0.000000
3373.459127,-1776.494261,-9844.739029,1838.629195
3373.459455,-518.144159,-7698.141797,1455.581446
3373.459782,1110.308913,-6883.915261,-766.095498
3373.460110,0.000000,-7920.203579,-842.705048
3373.460437,-1776.494261,-9474.636058,919.314598
3373.460765,-1036.288319,-9474.636058,1455.581446
3373.461093,1776.494261,-8734.430116,0.000000
3373.461420,2146.597232,-10658.965565,-995.924147
3373.461748,1480.411884,-11029.068536,229.828649
3373.462076,1110.308913,-9622.677246,2298.286494
3373.462403,1776.494261,-7994.224174,1915.238745
3373.462731,2220.617826,-8660.409521,229.828649
3373.463059,0.000000,-10584.944971,-995.924147
3373.463386,-2442.679609,-8734.430116,0.000000
3373.463714,-962.267725,-8586.388927,-1685.410096
3373.464042,222.061783,-9770.718434,-2374.896044
3373.464370,444.123565,-13545.768739,-383.047749
3373.464697,0.000000,-11843.295072,1762.019645
3373.465025,0.000000,-9474.636058,2374.896044
3373.465353,1110.308913,-8586.388927,612.876398
3373.465680,1998.556043,-9474.636058,-1991.848295
3373.466008,-888.247130,-9030.512492,-612.876398
3373.466336,-2220.617826,-7920.203579,459.657299
3373.466663,-1554.432478,-9992.780217,-306.438199
3373.466991,518.144159,-11843.295072,-1762.019645
3373.467319,444.123565,-11917.315666,-1225.752797
3373.467647,296.082377,-11843.295072,-612.876398
3373.467974,740.205942,-10732.986159,-383.047749
3373.468302,1776.494261,-9104.533087,-612.876398
3373.468630,1554.432478,-9918.759623,153.219100
3373.468957,0.000000,-9918.759623,1302.362347
3373.469285,-148.041188,-7402.059420,689.485948
3373.469613,222.061783,-6587.832884,689.485948
3373.469941,444.123565,-9548.656652,229.828649
3373.470268,-666.185348,-11621.233289,1149.143247
3373.470596,-2146.597232,-9770.718434,0.000000
3373.470924,-2146.597232,-8882.471304,-1455.581446
3373.471251,-1036.288319,-8586.388927,-2757.943793
3373.471579,444.123565,-8956.491898,-2221.676944
3373.471907,888.247130,-8512.368333,0.000000
3373.472234,1110.308913,-10214.842000,2068.457845
3373.472562,1554.432478,-11843.295072,459.657299
3373.472890,1776.494261,-11251.130318,-842.705048
3373.473218,814.226536,-9178.553681,-1762.019645
3373.473545,0.000000,-7105.977043,-153.219100
3373.473873,0.000000,-9696.697840,1455.581446
3373.474201,888.247130,-9252.574275,1532.190996
3373.474528,666.185348,-9030.512492,-306.438199
3373.474856,74.020594,-9178.553681,-1149.143247
3373.475184,1258.350101,-10214.842000,-1225.752797
3373.475512,1480.411884,-11621.233289,-842.705048
3373.475839,2072.576638,-13101.645173,-383.047749
3373.476167,814.226536,-10584.944971,-1685.410096
3373.476495,148.041188,-8068.244768,-1149.143247
3373.476822,-444.123565,-9326.594869,-306.438199
3373.477150,814.226536,-10362.883188,536.266849
3373.477478,592.164754,-11103.089130,1762.019645
3373.477805,444.123565,-8586.388927,383.047749
3373.478133,-814.226536,-7994.224174,-1532.190996
3373.478461,-592.164754,-8956.491898,-2145.067394
3373.478789,1332.370696,-9622.677246,-1302.362347
3373.479116,1776.494261,-11621.233289,383.047749
3373.479444,1924.535449,-9622.677246,766.095498
3373.479772,1258.350101,-9622.677246,995.924147
3373.480099,1998.556043,-9770.718434,1072.533697
3373.480427,2664.741391,-9992.780217,1072.533697
3373.480755,148.041188,-8364.327145,1455.581446
3373.481083,-592.164754,-8068.244768,536.266849
3373.481410,-962.267725,-8364.327145,-1225.752797
3373.481738,-148.041188,-10214.842000,-2604.724693
3373.482066,-1332.370696,-9400.615463,-766.095498
3373.482393,-962.267725,-9844.739029,1072.533697
3373.482721,-370.102971,-10584.944971,1149.143247
3373.483049,370.102971,-10362.883188,919.314598
3373.483376,592.164754,-9992.780217,1455.581446
3373.483704,888.247130,-8364.327145,1455.581446
3373.484032,1110.308913,-8290.306550,-383.047749
3373.484360,-296.082377,-8290.306550,0.000000
3373.484687,-666.185348,-9252.574275,-689.485948
3373.485015,-1258.350101,-8660.409521,-995.924147
3373.485343,-1554.432478,-9326.594869,-612.876398
3373.485670,-1332.370696,-11547.212695,-459.657299
3373.485998,1036.288319,-12361.439231,153.219100
3373.486326,1998.556043,-12435.459826,0.000000
3373.486654,888.247130,-9696.697840,0.000000
3373.486981,0.000000,-10955.047942,0.000000
3373.487309,740.205942,-9474.636058,-1378.971896
3373.487637,740.205942,-8142.265362,-1532.190996
3373.487964,-296.082377,-9030.512492,153.219100
3373.488292,-1850.514855,-9770.718434,1608.800546
3373.488620,-2220.617826,-10214.842000,1225.752797
3373.488947,-1998.556043,-9622.677246,0.000000
3373.489275,-1924.535449,-9918.759623,-1532.190996
3373.489603,-2738.761985,-9104.533087,-1762.019645
3373.489931,-1258.350101,-9474.636058,-2451.505594
3373.490258,740.205942,-9474.636058,-2451.505594
3373.490586,2220.617826,-10955.047942,-1378.971896
3373.490914,740.205942,-11843.295072,1762.019645
3373.491241,0.000000,-9696.697840,2068.457845
3373.491569,518.144159,-6735.874072,766.095498
3373.491897,962.267725,-8364.327145,919.314598
3373.492225,518.144159,-10288.862594,1685.410096
3373.492552,222.061783,-8882.471304,1762.019645
3373.492880,222.061783,-7550.100608,-229.828649
3373.493208,2072.576638,-9104.533087,-3294.210641
3373.493535,1850.514855,-12065.356855,-1991.848295
3373.493863,1924.535449,-12731.542202,-536.266849
3373.494191,814.226536,-9178.553681,-383.047749
3373.494518,518.144159,-7698.141797,-689.485948
3373.494846,1036.288319,-10807.006753,459.657299
3373.495174,1480.411884,-11917.315666,1532.190996
3373.495502,1036.288319,-9030.512492,2221.676944
3373.495829,518.144159,-7476.080014,0.000000
3373.496157,1850.514855,-8142.265362,-2757.943793
3373.496485,1554.432478,-10140.821405,-3217.601092
3373.496812,592.164754,-9622.677246,-842.705048
3373.497140,-222.061783,-8586.388927,766.095498
3373.497468,1776.494261,-9696.697840,919.314598
3373.497796,4441.235652,-12509.480420,1072.533697
3373.498123,2738.761985,-11843.295072,1072.533697
3373.498451,1776.494261,-8882.471304,1302.362347
3373.498779,2220.617826,-7994.224174,0.000000
3373.499106,2368.659014,-9844.739029,-1532.190996
3373.499434,1036.288319,-9474.636058,-1225.752797
3373.499762,-592.164754,-8660.409521,-306.438199
3373.500089,-1850.514855,-8956.491898,-459.657299
3373.500417,888.247130,-10584.944971,-1149.143247
3373.500745,296.082377,-11991.336260,76.609550
3373.501073,-888.247130,-11399.171507,1608.800546
3373.501400,-1850.514855,-8956.491898,1685.410096
3373.501728,0.000000,-8364.327145,-459.657299
3373.502056,2146.597232,-9252.574275,-2374.896044
3373.502383,296.082377,-8660.409521,-689.485948
3373.502711,-1480.411884,-5995.668130,1302.362347
3373.503039,-2516.700203,-8290.306550,919.314598
3373.503366,-814.226536,-11103.089130,306.438199
3373.503694,0.000000,-12139.377449,0.000000
3373.504022,-814.226536,-10362.883188,-306.438199
3373.504350,-740.205942,-9030.512492,-229.828649
3373.504677,888.247130,-11325.150913,-1915.238745
3373.505005,888.247130,-10732.986159,-2298.286494
3373.505333,-518.144159,-9918.759623,-459.657299
3373.505660,-666.185348,-8438.347739,229.828649
3373.505988,-518.144159,-8290.306550,383.047749
3373.506316,888.247130,-9252.574275,1302.362347
3373.506644,-1332.370696,-10510.924376,2911.162892
3373.506971,-3182.885551,-10732.986159,2374.896044
3373.507299,-2812.782580,-8956.491898,-919.314598
3373.507627,-1702.473667,-8364.327145,-4290.134789
3373.507954,-1258.350101,-8808.450710,-4366.744339
3373.508282,-1998.556043,-9548.656652,-2221.676944
3373.508610,-1480.411884,-11251.130318,0.000000
3373.508937,0.000000,-11547.212695,-229.828649
3373.509265,1480.411884,-11473.192101,-306.438199
3373.509593,1036.288319,-10288.862594,-306.438199
3373.509921,222.061783,-9474.636058,1072.533697
3373.510248,222.061783,-9844.739029,1915.238745
3373.510576,2294.638420,-9252.574275,153.219100
3373.510904,1998.556043,-9326.594869,-1608.800546
3373.511231,370.102971,-7994.224174,-842.705048
3373.511559,370.102971,-8734.430116,0.000000
3373.511887,444.123565,-9474.636058,-612.876398
3373.512215,2220.617826,-11325.150913,-766.095498
3373.512542,1258.350101,-11251.130318,-306.438199
3373.512870,888.247130,-9770.718434,766.095498
3373.513198,1998.556043,-10140.821405,995.924147
3373.513525,4441.235652,-9474.636058,-383.047749
3373.513853,2590.720797,-7550.100608,-1225.752797
3373.514181,-222.061783,-7846.182985,-229.828649
3373.514508,-1258.350101,-8068.244768,-306.438199
3373.514836,370.102971,-8660.409521,-689.485948
3373.515164,1702.473667,-10510.924376,306.438199
3373.515492,2590.720797,-11621.233289,1302.362347
3373.515819,2664.741391,-10140.821405,1072.533697
3373.516147,1924.535449,-10214.842000,153.219100
3373.516475,2368.659014,-9474.636058,-919.314598
3373.516802,2294.638420,-7476.080014,-2451.505594
3373.517130,2368.659014,-8438.347739,-459.657299
3373.517458,888.247130,-10066.800811,2221.676944
3373.517786,296.082377,-10658.965565,1378.971896
3373.518113,0.000000,-10807.006753,383.047749
3373.518441,-296.082377,-10658.965565,-1149.143247
3373.518769,518.144159,-10288.862594,-2451.505594
3373.519096,-962.267725,-10436.903782,-1225.752797
3373.519424,-518.144159,-9696.697840,-842.705048
3373.519752,1036.288319,-9992.780217,-689.485948
3373.520079,1406.391290,-9474.636058,-459.657299
3373.520407,-296.082377,-8586.388927,1762.019645
3373.520735,-1110.308913,-8882.471304,1991.848295
3373.521063,-666.185348,-8734.430116,689.485948
3373.521390,-1332.370696,-9400.615463,-612.876398
3373.521718,-962.267725,-10140.821405,-1149.143247
3373.522046,-888.247130,-10362.883188,-536.266849
3373.522373,1036.288319,-10584.944971,-689.485948
3373.522701,1184.329507,-11103.089130,-1072.533697
3373.523029,-444.123565,-9770.718434,-995.924147
3373.523357,-1850.514855,-9326.594869,76.609550
3373.523684,-1184.329507,-8068.244768,-306.438199
3373.524012,-1110.308913,-8808.450710,1225.752797
3373.524340,-1776.494261,-10732.986159,2374.896044
3373.524667,-444.123565,-10066.800811,766.095498
3373.524995,74.020594,-8882.471304,229.828649
3373.525323,0.000000,-7698.141797,-1302.362347
3373.525650,-2220.617826,-8956.491898,-1378.971896
3373.525978,-2960.823768,-7624.121203,-766.095498
3373.526306,-2738.761985,-7772.162391,-1991.848295
3373.526634,-3552.988522,-9770.718434,-1532.190996
3373.526961,-3182.885551,-11251.130318,-766.095498
3373.527289,-296.082377,-11917.315666,-1455.581446
3373.527617,2442.679609,-11251.130318,-842.705048
3373.527944,2812.782580,-11399.171507,-383.047749
3373.528272,3182.885551,-10658.965565,995.924147
3373.528600,2368.659014,-9548.656652,1378.971896
3373.528928,2368.659014,-7994.224174,536.266849
3373.529255,444.123565,-8438.347739,229.828649
3373.529583,-814.226536,-8734.430116,383.047749
3373.529911,-370.102971,-8734.430116,459.657299
3373.530238,-222.061783,-9178.553681,-1991.848295
3373.530566,592.164754,-11621.233289,-1838.629195
3373.530894,2738.761985,-12731.542202,-2068.457845
3373.531221,4737.318029,-11843.295072,-2451.505594
3373.531549,4071.132681,-9918.759623,-919.314598
3373.531877,2294.638420,-8290.306550,0.000000
3373.532205,-666.185348,-8660.409521,1685.410096
3373.532532,-296.082377,-7254.018232,919.314598
3373.532860,1110.308913,-9622.677246,-383.047749
3373.533188,148.041188,-9770.718434,-383.047749
3373.533515,370.102971,-10140.821405,459.657299
3373.533843,1184.329507,-8882.471304,-1225.752797
3373.534171,3478.967927,-9548.656652,-2528.115143
3373.534499,1628.453072,-10807.006753,-536.266849
3373.534826,2368.659014,-9178.553681,1302.362347
3373.535154,1110.308913,-8216.285956,1378.971896
3373.535482,1332.370696,-8068.244768,766.095498
3373.535809,1628.453072,-9992.780217,995.924147
3373.536137,1184.329507,-11029.068536,995.924147
3373.536465,666.185348,-10955.047942,1378.971896
3373.536792,962.267725,-8290.306550,-1302.362347
3373.537120,74.020594,-8660.409521,-2834.553343
3373.537448,0.000000,-11621.233289,-995.924147
3373.537776,-888.247130,-8660.409521,0.000000
3373.538103,-2072.576638,-8364.327145,459.657299
3373.538431,-1702.473667,-10584.944971,1225.752797
3373.538759,444.123565,-12287.418637,0.000000
3373.539086,-222.061783,-8364.327145,-995.924147
3373.539414,-1924.535449,-7846.182985,229.828649
3373.539742,0.000000,-9400.615463,-766.095498
3373.540070,1332.370696,-9844.739029,-1685.410096
3373.540397,518.144159,-10881.027347,-689.485948
3373.540725,-592.164754,-10214.842000,229.828649
3373.541053,-1110.308913,-9326.594869,229.828649
3373.541380,148.041188,-9992.780217,995.924147
3373.541708,0.000000,-10436.903782,306.438199
3373.542036,-2220.617826,-8956.491898,-229.828649
3373.542363,-2516.700203,-10214.842000,612.876398
3373.542691,444.123565,-9474.636058,-1838.629195
3373.543019,1850.514855,-10214.842000,-2374.896044
3373.543347,518.144159,-9474.636058,536.266849
3373.543674,-1480.411884,-7254.018232,2145.067394
3373.544002,-1850.514855,-7994.224174,2604.724693
3373.544330,-222.061783,-8512.368333,995.924147
3373.544657,-2516.700203,-9770.718434,306.438199
3373.544985,-4145.153275,-10584.944971,0.000000
3373.545313,-2368.659014,-9918.759623,-2221.676944
3373.545641,-740.205942,-8586.388927,-4749.792088
3373.545968,222.061783,-10658.965565,-3140.991542
3373.546296,0.000000,-11103.089130,536.266849
3373.546624,1702.473667,-9770.718434,1762.019645
3373.546951,2220.617826,-8882.471304,2374.896044
3373.547279,2590.720797,-9992.780217,2604.724693
3373.547607,740.205942,-9326.594869,2451.505594
3373.547934,-740.205942,-5921.647536,919.314598
3373.548262,-296.082377,-8068.244768,-995.924147
3373.548590,888.247130,-9770.718434,-3140.991542
3373.548918,1998.556043,-11917.315666,-2298.286494
3373.549245,2442.679609,-11103.089130,-1072.533697
3373.549573,2960.823768,-11843.295072,-383.047749
3373.549901,2812.782580,-13619.789333,995.924147
3373.550228,3478.967927,-9844.739029,1455.581446
3373.550556,1702.473667,-8068.244768,-306.438199
3373.550884,-1406.391290,-7402.059420,0.000000
3373.551212,0.000000,-9992.780217,-995.924147
3373.551539,2294.638420,-10066.800811,-2451.505594
3373.551867,1628.453072,-10214.842000,-995.924147
3373.552195,518.144159,-10066.800811,76.609550
3373.552522,0.000000,-8142.265362,919.314598
3373.552850,1110.308913,-9252.574275,306.438199
3373.553178,1924.535449,-10955.047942,0.000000
3373.553505,1998.556043,-10658.965565,-536.266849
3373.553833,666.185348,-8956.491898,536.266849
3373.554161,1998.556043,-8586.388927,0.000000
3373.554489,2886.803174,-9844.739029,-1149.143247
3373.554816,592.164754,-11029.068536,1149.143247
3373.555144,-370.102971,-8734.430116,1302.362347
3373.555472,-962.267725,-8660.409521,459.657299
3373.555799,-444.123565,-9474.636058,-689.485948
3373.556127,-444.123565,-10288.862594,76.609550
3373.556455,-1850.514855,-7994.224174,229.828649
3373.556783,-1924.535449,-9474.636058,306.438199
3373.557110,-444.123565,-10955.047942,-1302.362347
3373.557438,74.020594,-7698.141797,-1915.238745
3373.557766,0.000000,-9104.533087,229.828649
3373.558093,666.185348,-9548.656652,153.219100
3373.558421,444.123565,-9770.718434,766.095498
3373.558749,444.123565,-8660.409521,1455.581446
3373.559076,666.185348,-8956.491898,1302.362347
3373.559404,-666.185348,-9178.553681,0.000000
3373.559732,-592.164754,-11473.192101,-459.657299
3373.560060,-2072.576638,-10658.965565,-1225.752797
3373.560387,-888.247130,-10140.821405,-3064.381992
3373.560715,-666.185348,-9992.780217,-2604.724693
3373.561043,-962.267725,-11029.068536,-612.876398
3373.561370,-2072.576638,-10881.027347,536.266849
3373.561698,-444.123565,-9770.718434,1378.971896
3373.562026,1480.411884,-7550.100608,76.609550
3373.562354,1628.453072,-9474.636058,919.314598
3373.562681,-518.144159,-11251.130318,2221.676944
3373.563009,-1628.453072,-9252.574275,766.095498
3373.563337,-962.267725,-8512.368333,-2757.943793
3373.563664,-814.226536,-10510.924376,-3677.258390
3373.563992,-1776.494261,-11769.274478,-1302.362347
3373.564320,-1850.514855,-10066.800811,995.924147
3373.564647,148.041188,-9178.553681,383.047749
3373.564975,666.185348,-9770.718434,-459.657299
3373.565303,222.061783,-9844.739029,76.609550
3373.565630,74.020594,-7846.182985,766.095498
3373.565958,1110.308913,-7402.059420,689.485948
3373.566286,2294.638420,-9104.533087,536.266849
3373.566613,1628.453072,-10436.903782,76.609550
3373.566941,2590.720797,-9400.615463,153.219100
3373.567269,2886.803174,-9104.533087,0.000000
3373.567597,3256.906145,-10140.821405,76.609550
3373.567924,2220.617826,-10362.883188,766.095498
3373.568252,1036.288319,-8882.471304,919.314598
3373.568580,0.000000,-7476.080014,0.000000
3373.568907,148.041188,-9326.594869,-1225.752797
3373.569235,1776.494261,-11991.336260,-995.924147
3373.569563,3256.906145,-11843.295072,0.000000
3373.569890,666.185348,-9622.677246,-153.219100
3373.570218,-1110.308913,-9844.739029,0.000000
3373.570546,0.000000,-9104.533087,-1991.848295
3373.570873,1184.329507,-9030.512492,-1378.971896
3373.571201,-962.267725,-9400.615463,689.485948
3373.571529,-1628.453072,-8734.430116,2298.286494
3373.571856,222.061783,-7994.224174,-842.705048
3373.572184,3182.885551,-10140.821405,-2757.943793
3373.572512,2368.659014,-12805.562797,-1072.533697
3373.572839,1702.473667,-11029.068536,1072.533697
3373.573167,518.144159,-8512.368333,1608.800546
3373.573495,1702.473667,-9252.574275,-229.828649
3373.573822,444.123565,-10955.047942,-229.828649
3373.574150,-1110.308913,-10288.862594,1149.143247
3373.574478,-2368.659014,-7476.080014,995.924147
3373.574806,-1184.329507,-8882.471304,-1302.362347
3373.575133,-1184.329507,-11251.130318,-1915.238745
3373.575461,-592.164754,-10658.965565,-1225.752797
3373.575789,-2072.576638,-8068.244768,-229.828649
3373.576116,-962.267725,-8586.388927,-153.219100
3373.576444,592.164754,-9992.780217,0.000000
3373.576772,888.247130,-10362.883188,1225.752797
3373.577099,222.061783,-8956.491898,1378.971896
3373.577427,740.205942,-8882.471304,1149.143247
3373.577755,1036.288319,-8734.430116,919.314598
3373.578082,1258.350101,-9030.512492,-306.438199
3373.578410,-1110.308913,-9844.739029,383.047749
3373.578738,-1924.535449,-9104.533087,-306.438199
3373.579065,-1406.391290,-9252.574275,-1608.800546
3373.579393,0.000000,-11621.233289,-1378.971896
3373.579721,296.082377,-11251.130318,306.438199
3373.580048,1776.494261,-8882.471304,459.657299
3373.580376,1998.556043,-9104.533087,1378.971896
3373.580704,2812.782580,-10584.944971,0.000000
3373.581032,592.164754,-10288.862594,-689.485948
3373.581359,-1332.370696,-8364.327145,-766.095498
3373.581687,-2368.659014,-7624.121203,-1455.581446
3373.582015,-1332.370696,-9622.677246,-1532.190996
3373.582342,-444.123565,-11843.295072,0.000000
3373.582670,-740.205942,-11769.274478,383.047749
3373.582998,-1406.391290,-9400.615463,0.000000
3373.583325,0.000000,-10584.944971,-2298.286494
3373.583653,666.185348,-10362.883188,-2221.676944
3373.583981,1628.453072,-9474.636058,-842.705048
3373.584308,1184.329507,-7698.141797,1149.143247
3373.584636,444.123565,-7402.059420,1455.581446
3373.584964,1480.411884,-9770.718434,1915.238745
3373.585291,3775.050304,-10807.006753,153.219100
3373.585619,3108.864956,-10732.986159,459.657299
3373.585947,2294.638420,-10066.800811,459.657299
3373.586274,518.144159,-8660.409521,-306.438199
3373.586602,1184.329507,-8290.306550,-1225.752797
3373.586930,1332.370696,-8660.409521,-1378.971896
3373.587257,0.000000,-10881.027347,0.000000
3373.587585,0.000000,-12435.459826,919.314598
3373.587913,1554.432478,-10510.924376,-459.657299
3373.588241,962.267725,-9474.636058,-1302.362347
3373.588568,-888.247130,-9622.677246,-612.876398
3373.588896,-888.247130,-9252.574275,383.047749
3373.589224,-666.185348,-8290.306550,0.000000
3373.589551,592.164754,-7476.080014,-1149.143247
3373.589879,74.020594,-8956.491898,-1225.752797
3373.590207,-518.144159,-9030.512492,0.000000
3373.590534,0.000000,-10436.903782,153.219100
3373.590862,1924.535449,-12435.459826,536.266849
3373.591190,2960.823768,-11547.212695,-153.219100
3373.591517,1776.494261,-10584.944971,1225.752797
3373.591845,1036.288319,-10436.903782,842.705048
3373.592173,444.123565,-9992.780217,0.000000
3373.592500,-814.226536,-9252.574275,689.485948
3373.592828,-1628.453072,-8438.347739,-459.657299
3373.593156,-2516.700203,-7772.162391,-1685.410096
3373.593483,-2886.803174,-8808.450710,-536.266849
3373.593811,-1776.494261,-8882.471304,-459.657299
3373.594139,-222.061783,-11177.109724,0.000000
3373.594467,-148.041188,-10436.903782,-306.438199
3373.594794,0.000000,-8660.409521,-1072.533697
3373.595122,296.082377,-9844.739029,0.000000
3373.595450,2368.659014,-10066.800811,612.876398
3373.595777,2590.720797,-9844.739029,689.485948
3373.596105,0.000000,-8290.306550,2068.457845
3373.596433,-814.226536,-9178.553681,1608.800546
3373.596760,-518.144159,-10140.821405,0.000000
3373.597088,0.000000,-10584.944971,-612.876398
3373.597416,-1258.350101,-10140.821405,-689.485948
3373.597743,-1480.411884,-10066.800811,-842.705048
3373.598071,0.000000,-9622.677246,-1225.752797
3373.598399,2220.617826,-10066.800811,-153.219100
3373.598726,2886.803174,-10732.986159,0.000000
3373.599054,2072.576638,-9474.636058,995.924147
3373.599382,296.082377,-8438.347739,1685.410096
3373.599709,-1184.329507,-8808.450710,459.657299
3373.600037,-2146.597232,-10066.800811,-383.047749
3373.600365,-1184.329507,-9918.759623,-1685.410096
3373.600692,-1480.411884,-10510.924376,-2604.724693
3373.601020,-1554.432478,-10658.965565,-2145.067394
3373.601348,592.164754,-11695.253884,-536.266849
3373.601676,1924.535449,-11177.109724,-1378.971896
3373.602003,2072.576638,-10436.903782,-383.047749
3373.602331,1036.288319,-10214.842000,1302.362347
3373.602659,1628.453072,-7920.203579,1838.629195
3373.602986,2442.679609,-6883.915261,2221.676944
3373.603314,2886.803174,-7846.182985,1838.629195
3373.603642,1332.370696,-9992.780217,153.219100
3373.603969,2294.638420,-9252.574275,0.000000
3373.604297,2886.803174,-9474.636058,-536.266849
3373.604625,1406.391290,-8882.471304,-1302.362347
3373.604952,0.000000,-10066.800811,0.000000
3373.605280,74.020594,-11843.295072,919.314598
3373.605608,888.247130,-11769.274478,0.000000
3373.605935,1406.391290,-10807.006753,-306.438199
3373.606263,-888.247130,-8364.327145,-612.876398
3373.606591,-2812.782580,-8290.306550,-612.876398
3373.606918,-1480.411884,-8882.471304,-1915.238745
3373.607246,222.061783,-9104.533087,-2221.676944
3373.607574,-1258.350101,-9178.553681,-536.266849
3373.607902,-2368.659014,-8068.244768,1302.362347
3373.608229,-740.205942,-8586.388927,1302.362347
3373.608557,1776.494261,-9252.574275,-306.438199
3373.608885,1628.453072,-11325.150913,-995.924147
3373.609212,814.226536,-11769.274478,-383.047749
3373.609540,814.226536,-10214.842000,-919.314598
3373.609868,2812.782580,-10510.924376,-1532.190996
3373.610195,3034.844362,-11621.233289,0.000000
3373.610523,296.082377,-10510.924376,1455.581446
3373.610851,-1332.370696,-8438.347739,2298.286494
3373.611178,-1850.514855,-8808.450710,459.657299
3373.611506,-1036.288319,-8808.450710,-1455.581446
3373.611834,-1332.370696,-9178.553681,-1225.752797
3373.612161,-2220.617826,-9104.533087,-306.438199
3373.612489,-2368.659014,-9548.656652,-689.485948
3373.612817,518.144159,-10807.006753,-1991.848295
3373.613144,1332.370696,-10658.965565,-2604.724693
3373.613472,-370.102971,-9696.697840,-612.876398
3373.613800,0.000000,-10807.006753,1455.581446
3373.614128,1406.391290,-9400.615463,1455.581446
3373.614455,1776.494261,-7846.182985,1915.238745
3373.614783,1110.308913,-10288.862594,2681.334243
3373.615111,-222.061783,-9474.636058,1685.410096
3373.615438,-740.205942,-9474.636058,0.000000
3373.615766,518.144159,-9178.553681,-2451.505594
3373.616094,-592.164754,-9326.594869,-2604.724693
3373.616421,-1332.370696,-9770.718434,-1149.143247
3373.616749,-222.061783,-10288.862594,1685.410096
3373.617077,1850.514855,-11251.130318,1149.143247
3373.617404,4145.153275,-9696.697840,536.266849
3373.617732,3256.906145,-8956.491898,1225.752797
3373.618060,-370.102971,-8438.347739,1838.629195
3373.618387,-1998.556043,-8438.347739,229.828649
3373.618715,-962.267725,-8882.471304,-2145.067394
3373.619043,-666.185348,-9770.718434,-3677.258390
3373.619370,-1184.329507,-10214.842000,-4136.915689
3373.619698,-2072.576638,-10584.944971,0.000000
3373.620026,-370.102971,-10140.821405,842.705048
3373.620353,2590.720797,-11325.150913,536.266849
3373.620681,2590.720797,-11029.068536,383.047749
3373.621009,1406.391290,-8882.471304,1072.533697
3373.621337,1998.556043,-8068.244768,766.095498
3373.621664,3627.009116,-8882.471304,-536.266849
3373.621992,1998.556043,-8586.388927,-383.047749
3373.622320,518.144159,-8882.471304,229.828649
3373.622647,592.164754,-9770.718434,1455.581446
3373.622975,2146.597232,-10732.986159,306.438199
3373.623303,2146.597232,-11769.274478,-536.266849
3373.623630,666.185348,-11251.130318,0.000000
3373.623958,740.205942,-10881.027347,0.000000
3373.624286,2220.617826,-9252.574275,-766.095498
3373.624613,1554.432478,-8956.491898,-1072.533697
3373.624941,-3034.844362,-8882.471304,0.000000
3373.625269,-2812.782580,-9252.574275,-689.485948
3373.625596,-1998.556043,-8808.450710,-1302.362347
3373.625924,222.061783,-10510.924376,-306.438199
3373.626252,518.144159,-9178.553681,1532.190996
3373.626579,222.061783,-9918.759623,2221.676944
3373.626907,0.000000,-9696.697840,153.219100
3373.627235,1184.329507,-9844.739029,-1838.629195
3373.627563,1776.494261,-10288.862594,-2068.457845
3373.627890,0.000000,-9178.553681,-536.266849
3373.628218,-592.164754,-9326.594869,919.314598
3373.628546,-444.123565,-10807.006753,995.924147
3373.628873,1110.308913,-11251.130318,766.095498
3373.629201,444.123565,-8956.491898,2221.676944
3373.629529,-1110.308913,-8068.244768,1455.581446
3373.629856,-2146.597232,-9918.759623,689.485948
3373.630184,-1332.370696,-8660.409521,-2451.505594
3373.630512,-592.164754,-6661.853478,-4213.525239
3373.630839,-2368.659014,-9474.636058,-2145.067394
3373.631167,-2146.597232,-10436.903782,0.000000
3373.631495,-592.164754,-10658.965565,-229.828649
3373.631822,1184.329507,-11473.192101,153.219100
3373.632150,2220.617826,-11695.253884,-153.219100
3373.632478,2072.576638,-10066.800811,383.047749
3373.632805,962.267725,-7920.203579,1378.971896
3373.633133,666.185348,-7624.121203,612.876398
3373.633461,0.000000,-10214.842000,0.000000
3373.633788,-370.102971,-10066.800811,-1378.971896
3373.634116,-1184.329507,-8734.430116,-1378.971896
3373.634444,-1258.350101,-9992.780217,-689.485948
3373.634772,666.185348,-11769.274478,0.000000
3373.635099,1998.556043,-11399.171507,153.219100
3373.635427,2072.576638,-10140.821405,0.000000
3373.635755,1924.535449,-10214.842000,0.000000
3373.636082,2072.576638,-7698.141797,-1302.362347
3373.636410,1406.391290,-7846.182985,229.828649
3373.636738,-1184.329507,-9400.615463,1149.143247
3373.637065,-2294.638420,-9400.615463,0.000000
3373.637393,-2886.803174,-9252.574275,-1225.752797
3373.637721,-1480.411884,-9918.759623,-1838.629195
3373.638048,-296.082377,-11325.150913,-1072.533697
3373.638376,518.144159,-9770.718434,-229.828649
3373.638704,1258.350101,-9252.574275,0.000000
3373.639031,2294.638420,-9622.677246,-842.705048
3373.639359,2886.803174,-10066.800811,-383.047749
3373.639687,1998.556043,-9030.512492,536.266849
3373.640014,1406.391290,-7846.182985,766.095498
3373.640342,1036.288319,-8216.285956,689.485948
3373.640670,2590.720797,-9548.656652,842.705048
3373.640998,2590.720797,-10807.006753,1455.581446
3373.641325,2072.576638,-10066.800811,995.924147
3373.641653,740.205942,-10066.800811,0.000000
3373.641981,1554.432478,-9918.759623,-1685.410096
3373.642308,1332.370696,-11399.171507,-1991.848295
3373.642636,2220.617826,-9548.656652,-2068.457845
3373.642964,-962.267725,-7772.162391,-459.657299
3373.643291,-3849.070898,-10510.924376,766.095498
3373.643619,-2072.576638,-10214.842000,-459.657299
3373.643947,-592.164754,-9622.677246,-919.314598
3373.644274,0.000000,-9030.512492,0.000000
3373.644602,0.000000,-8956.491898,1149.143247
3373.644930,2072.576638,-8660.409521,0.000000
3373.645257,1406.391290,-9104.533087,-919.314598
3373.645585,74.020594,-11843.295072,-229.828649
3373.645913,-444.123565,-10362.883188,0.000000
3373.646240,-296.082377,-8512.368333,-995.924147
3373.646568,296.082377,-9474.636058,229.828649
3373.646896,1406.391290,-12805.562797,842.705048
3373.647224,962.267725,-11917.315666,2451.505594
3373.647551,1184.329507,-9030.512492,2145.067394
3373.647879,1258.350101,-6661.853478,-689.485948
3373.648207,-592.164754,-8882.471304,-1608.800546
3373.648534,-3775.050304,-8364.327145,-689.485948
3373.648862,-3552.988522,-8364.327145,-1225.752797
3373.649190,-2072.576638,-8216.285956,-1915.238745
3373.649517,-296.082377,-11251.130318,0.000000
3373.649845,592.164754,-12953.603985,2374.896044
3373.650173,1776.494261,-10955.047942,1378.971896
3373.650500,1924.535449,-10436.903782,-229.828649
3373.650828,1332.370696,-8734.430116,-1225.752797
3373.651156,-444.123565,-8956.491898,0.000000
3373.651483,-2072.576638,-7550.100608,1302.362347
3373.651811,-1554.432478,-6661.853478,1915.238745
3373.652139,370.102971,-9548.656652,-229.828649
3373.652466,1184.329507,-12731.542202,76.609550
3373.652794,1036.288319,-11917.315666,612.876398
3373.653122,1110.308913,-8660.409521,-536.266849
3373.653449,962.267725,-9474.636058,-995.924147
3373.653777,2146.597232,-9992.780217,-2221.676944
3373.654105,1406.391290,-8586.388927,-1532.190996
3373.654433,74.020594,-8438.347739,1072.533697
3373.654760,666.185348,-11103.089130,1072.533697
3373.655088,1110.308913,-11177.109724,153.219100
3373.655416,0.000000,-11251.130318,766.095498
3373.655743,-1184.329507,-10140.821405,229.828649
3373.656071,-1702.473667,-8512.368333,-919.314598
3373.656399,-1554.432478,-8808.450710,-2068.457845
3373.656726,2516.700203,-8956.491898,-2987.772442
3373.657054,1776.494261,-9252.574275,-1149.143247
3373.657382,-518.144159,-10732.986159,3217.601092
3373.657709,-444.123565,-10658.965565,1762.019645
3373.658037,1776.494261,-8734.430116,-2451.505594
3373.658365,1554.432478,-9622.677246,-2068.457845
3373.658692,666.185348,-10658.965565,689.485948
3373.659020,1998.556043,-10066.800811,2451.505594
3373.659348,3997.112087,-8660.409521,536.266849
3373.659675,3552.988522,-8438.347739,-2068.457845
3373.660003,-370.102971,-10658.965565,-842.705048
3373.660331,-1776.494261,-11547.212695,842.705048
3373.660659,0.000000,-9844.739029,-1302.362347
3373.660986,518.144159,-8956.491898,-3064.381992
3373.661314,-1998.556043,-10807.006753,459.657299
3373.661642,-666.185348,-10955.047942,689.485948
3373.661969,1258.350101,-8068.244768,76.609550
3373.662297,1702.473667,-8068.244768,0.000000
3373.662625,518.144159,-9030.512492,-1302.362347
3373.662952,-1036.288319,-8142.265362,-153.219100
3373.663280,296.082377,-6883.915261,0.000000
3373.663608,1110.308913,-9548.656652,0.000000
3373.663936,-666.185348,-12287.418637,1838.629195
3373.664263,-740.205942,-12731.542202,1532.190996
3373.664591,1480.411884,-9474.636058,-2757.943793
3373.664919,1184.329507,-9622.677246,-3064.381992
3373.665246,1332.370696,-11621.233289,-306.438199
3373.665574,370.102971,-10140.821405,1072.533697
3373.665902,-370.102971,-8216.285956,1455.581446
3373.666230,-2220.617826,-7550.100608,76.609550
3373.666557,-1776.494261,-9992.780217,-153.219100
3373.666885,-888.247130,-9400.615463,0.000000
3373.667213,-888.247130,-8660.409521,-383.047749
3373.667540,-370.102971,-10362.883188,-1302.362347
3373.667868,444.123565,-12287.418637,-612.876398
3373.668196,2220.617826,-9252.574275,-536.266849
3373.668524,1850.514855,-8512.368333,-1608.800546
3373.668851,-296.082377,-10362.883188,306.438199
3373.669179,-666.185348,-9770.718434,995.924147
3373.669507,-296.082377,-8808.450710,-306.438199
3373.669835,-1184.329507,-8734.430116,153.219100
3373.670162,-222.061783,-10362.883188,689.485948
3373.670490,370.102971,-9770.718434,612.876398
3373.670818,1036.288319,-9918.759623,-383.047749
3373.671145,1406.391290,-9400.615463,-1838.629195
3373.671473,1258.350101,-8808.450710,-2145.067394
3373.671801,-296.082377,-8882.471304,0.000000
3373.672129,-444.123565,-9400.615463,1225.752797
3373.672456,592.164754,-9030.512492,153.219100
3373.672784,1924.535449,-9474.636058,0.000000
3373.673112,962.267725,-9844.739029,2221.676944
3373.673439,222.061783,-10140.821405,612.876398
3373.673767,1184.329507,-10140.821405,0.000000
3373.674095,222.061783,-8956.491898,-1302.362347
3373.674423,0.000000,-8956.491898,-2451.505594
3373.674750,-1184.329507,-8512.368333,-1915.238745
3373.675078,-1036.288319,-7772.162391,995.924147
3373.675406,-1110.308913,-8808.450710,995.924147
3373.675733,0.000000,-11473.192101,536.266849
3373.676061,2294.638420,-11473.192101,-1378.971896
3373.676389,2516.700203,-9770.718434,-2145.067394
3373.676717,1776.494261,-9992.780217,-919.314598
3373.677044,2442.679609,-9696.697840,536.266849
3373.677372,2960.823768,-9622.677246,689.485948
3373.677700,2516.700203,-9696.697840,995.924147
3373.678027,0.000000,-10584.944971,1455.581446
3373.678355,-1332.370696,-8956.491898,459.657299
3373.678683,1036.288319,-9474.636058,-689.485948
3373.679011,1406.391290,-12805.562797,-689.485948
3373.679338,-740.205942,-10955.047942,-459.657299
3373.679666,-1924.535449,-9030.512492,153.219100
3373.679994,-296.082377,-7624.121203,-766.095498
3373.680322,148.041188,-8956.491898,-2987.772442
3373.680649,148.041188,-10214.842000,-536.266849
3373.680977,-1184.329507,-8956.491898,1838.629195
3373.681305,-296.082377,-7031.956449,2451.505594
3373.681632,1406.391290,-8142.265362,612.876398
3373.681960,0.000000,-11029.068536,0.000000
3373.682288,0.000000,-10362.883188,306.438199
3373.682616,888.247130,-8882.471304,-995.924147
3373.682943,1924.535449,-10362.883188,-2068.457845
3373.683271,222.061783,-11547.212695,-1532.190996
3373.683599,0.000000,-9844.739029,995.924147
3373.683926,-1406.391290,-8660.409521,1915.238745
3373.684254,-1258.350101,-9178.553681,2145.067394
3373.684582,518.144159,-10140.821405,-306.438199
3373.684910,0.000000,-10214.842000,-919.314598
3373.685237,-1184.329507,-9104.533087,-919.314598
3373.685565,0.000000,-8956.491898,-1149.143247
3373.685893,888.247130,-8956.491898,-1302.362347
3373.686220,1406.391290,-11399.171507,-612.876398
3373.686548,888.247130,-10362.883188,153.219100
3373.686876,0.000000,-10362.883188,0.000000
3373.687204,518.144159,-10066.800811,-612.876398
3373.687531,1776.494261,-10066.800811,-689.485948
3373.687859,0.000000,-9326.594869,383.047749
3373.688187,-592.164754,-9474.636058,1532.190996
3373.688514,296.082377,-10066.800811,-383.047749
3373.688842,2146.597232,-9548.656652,-1915.238745
3373.689170,1184.329507,-11029.068536,-612.876398
3373.689498,1110.308913,-9696.697840,689.485948
3373.689825,74.020594,-9252.574275,1455.581446
3373.690153,1036.288319,-9770.718434,919.314598
3373.690481,2294.638420,-10436.903782,-459.657299
3373.690808,888.247130,-10214.842000,-229.828649
3373.691136,296.082377,-8142.265362,-842.705048
3373.691464,148.041188,-10066.800811,-689.485948
3373.691792,888.247130,-9844.739029,-689.485948
3373.692119,222.061783,-10584.944971,153.219100
3373.692447,-444.123565,-9474.636058,153.219100
3373.692775,-2220.617826,-7920.203579,0.000000
3373.693103,-888.247130,-8438.347739,306.438199
3373.693430,0.000000,-8808.450710,1455.581446
3373.693758,-518.144159,-9548.656652,153.219100
3373.694086,-444.123565,-10066.800811,-612.876398
3373.694413,592.164754,-9474.636058,-2221.676944
3373.694741,1554.432478,-9696.697840,-2298.286494
3373.695069,2516.700203,-12879.583391,-995.924147
