#time,accel_x,accel_y,accel_z
2982.004725,222.061783,-9474.636058,306.438199
2982.005053,0.000000,-9326.594869,0.000000
2982.005381,0.000000,-9326.594869,-229.828649
2982.005709,-444.123565,-9474.636058,0.000000
2982.006036,0.000000,-10066.800811,-153.219100
2982.006364,74.020594,-9918.759623,76.609550
2982.006692,222.061783,-10066.800811,0.000000
2982.007020,740.205942,-10066.800811,-153.219100
2982.007347,518.144159,-10140.821405,0.000000
2982.007675,444.123565,-9770.718434,76.609550
2982.008003,666.185348,-9474.636058,229.828649
2982.008330,222.061783,-9178.553681,0.000000
2982.008658,444.123565,-9178.553681,536.266849
2982.008986,0.000000,-9178.553681,76.609550
2982.009314,0.000000,-9326.594869,0.000000
2982.009641,0.000000,-9474.636058,-306.438199
2982.009969,0.000000,-9844.739029,-383.047749
2982.010297,370.102971,-10140.821405,-383.047749
2982.010625,592.164754,-10584.944971,-153.219100
2982.010952,814.226536,-9844.739029,0.000000
2982.011280,666.185348,-9918.759623,-153.219100
2982.011608,592.164754,-9622.677246,0.000000
2982.011936,444.123565,-9548.656652,0.000000
2982.012263,74.020594,-9400.615463,-306.438199
2982.012591,0.000000,-8956.491898,-383.047749
2982.012919,0.000000,-9474.636058,-383.047749
2982.013246,0.000000,-9326.594869,-612.876398
2982.013574,74.020594,-9918.759623,-612.876398
2982.013902,148.041188,-10510.924376,-842.705048
2982.014230,296.082377,-10510.924376,-689.485948
2982.014557,814.226536,-10584.944971,-536.266849
2982.014885,888.247130,-10214.842000,0.000000
2982.015213,518.144159,-9770.718434,0.000000
2982.015541,444.123565,-9548.656652,-306.438199
2982.015868,222.061783,-9400.615463,153.219100
2982.016196,0.000000,-9400.615463,76.609550
2982.016524,0.000000,-9400.615463,0.000000
2982.016851,-296.082377,-9474.636058,-306.438199
2982.017179,296.082377,-9770.718434,-1149.143247
2982.017507,518.144159,-9326.594869,-612.876398
2982.017835,1036.288319,-9474.636058,459.657299
2982.018162,2072.576638,-9696.697840,0.000000
2982.018490,3034.844362,-9548.656652,229.828649
2982.018818,3552.988522,-8956.491898,229.828649
2982.019146,4219.173869,-8808.450710,0.000000
2982.019473,4885.359217,-9030.512492,383.047749
2982.019801,5255.462188,-8660.409521,383.047749
2982.020129,5847.626942,-8512.368333,229.828649
2982.020456,6883.915261,-9770.718434,153.219100
2982.020784,7402.059420,-9548.656652,0.000000
2982.021112,7624.121203,-10288.862594,0.000000
2982.021440,7920.203579,-10436.903782,459.657299
2982.021767,9030.512492,-9622.677246,459.657299
2982.022095,9178.553681,-9252.574275,229.828649
2982.022423,10214.842000,-9104.533087,1149.143247
2982.022751,11029.068536,-8586.388927,536.266849
2982.023078,11769.274478,-8882.471304,306.438199
2982.023406,11843.295072,-9474.636058,689.485948
2982.023734,11399.171507,-9770.718434,459.657299
2982.024062,10955.047942,-9474.636058,-536.266849
2982.024389,11473.192101,-9548.656652,-306.438199
2982.024717,12361.439231,-9474.636058,-1225.752797
2982.025045,13397.727550,-11029.068536,-383.047749
2982.025372,14730.098246,-10955.047942,689.485948
2982.025700,15618.345376,-10140.821405,766.095498
2982.026028,15248.242405,-8734.430116,842.705048
2982.026356,14730.098246,-9252.574275,766.095498
2982.026683,14063.912898,-9474.636058,1455.581446
2982.027011,13619.789333,-8956.491898,1225.752797
2982.027339,13101.645173,-9474.636058,383.047749
2982.027667,12879.583391,-10140.821405,0.000000
2982.027994,12657.521608,-9770.718434,0.000000
2982.028322,11695.253884,-9770.718434,536.266849
2982.028650,11103.089130,-9770.718434,1302.362347
2982.028977,11473.192101,-9770.718434,153.219100
2982.029305,10732.986159,-9400.615463,-229.828649
2982.029633,9696.697840,-10658.965565,229.828649
2982.029961,8808.450710,-9474.636058,689.485948
2982.030288,7698.141797,-7179.997637,766.095498
2982.030616,8438.347739,-7179.997637,76.609550
2982.030944,8882.471304,-8660.409521,-229.828649
2982.031272,9326.594869,-11621.233289,229.828649
2982.031599,8586.388927,-11029.068536,1149.143247
2982.031927,7254.018232,-10436.903782,0.000000
2982.032255,6143.709319,-9844.739029,-306.438199
2982.032582,5181.441594,-9474.636058,-536.266849
2982.032910,4737.318029,-9474.636058,459.657299
2982.033238,4589.276840,-10066.800811,153.219100
2982.033566,3627.009116,-11325.150913,689.485948
2982.033893,3478.967927,-9104.533087,76.609550
2982.034221,2368.659014,-7328.038826,-153.219100
2982.034549,148.041188,-9030.512492,0.000000
2982.034877,-518.144159,-10214.842000,0.000000
2982.035204,296.082377,-9844.739029,-1915.238745
2982.035532,1924.535449,-8364.327145,-2221.676944
2982.035860,3330.926739,-7476.080014,-1302.362347
2982.036188,3478.967927,-9252.574275,229.828649
2982.036515,1998.556043,-10955.047942,2451.505594
2982.036843,2590.720797,-10807.006753,1072.533697
2982.037171,4885.359217,-10362.883188,-1762.019645
2982.037498,5329.482782,-10658.965565,-2451.505594
2982.037826,3108.864956,-10732.986159,-536.266849
2982.038154,814.226536,-9474.636058,1838.629195
2982.038482,296.082377,-8586.388927,766.095498
2982.038809,74.020594,-8808.450710,-1532.190996
2982.039137,-1628.453072,-9252.574275,-1685.410096
2982.039465,-2886.803174,-7846.182985,-842.705048
2982.039793,-888.247130,-7476.080014,-689.485948
2982.040120,1924.535449,-9770.718434,-536.266849
2982.040448,2072.576638,-11917.315666,229.828649
2982.040776,1184.329507,-9030.512492,689.485948
2982.041103,1702.473667,-7550.100608,459.657299
2982.041431,2886.803174,-9474.636058,-459.657299
2982.041759,2664.741391,-11917.315666,-306.438199
2982.042087,1406.391290,-10436.903782,-459.657299
2982.042414,814.226536,-7772.162391,-612.876398
2982.042742,1110.308913,-10066.800811,-1149.143247
2982.043070,1184.329507,-12435.459826,-612.876398
2982.043398,1036.288319,-10510.924376,0.000000
2982.043725,1702.473667,-8068.244768,-842.705048
2982.044053,2220.617826,-9178.553681,-1608.800546
2982.044381,1850.514855,-9992.780217,-459.657299
2982.044709,2220.617826,-8290.306550,1225.752797
2982.045036,3256.906145,-6291.750507,1762.019645
2982.045364,4589.276840,-7772.162391,459.657299
2982.045692,3923.091493,-11103.089130,153.219100
2982.046019,2146.597232,-11325.150913,1378.971896
2982.046347,3330.926739,-9992.780217,-306.438199
2982.046675,3552.988522,-10658.965565,-2221.676944
2982.047003,962.267725,-13101.645173,-919.314598
2982.047330,-1036.288319,-12139.377449,459.657299
2982.047658,-518.144159,-10955.047942,-306.438199
2982.047986,0.000000,-10732.986159,-2604.724693
2982.048314,-1036.288319,-10510.924376,-2451.505594
2982.048641,-2516.700203,-9474.636058,76.609550
2982.048969,-1776.494261,-7698.141797,1838.629195
2982.049297,-370.102971,-6957.935855,459.657299
2982.049624,-1998.556043,-7772.162391,0.000000
2982.049952,-1850.514855,-8882.471304,-612.876398
2982.050280,518.144159,-8512.368333,-383.047749
2982.050608,1776.494261,-8438.347739,-995.924147
2982.050935,-222.061783,-10436.903782,153.219100
2982.051263,-1258.350101,-12435.459826,1149.143247
2982.051591,592.164754,-11917.315666,383.047749
2982.051919,1332.370696,-12065.356855,0.000000
2982.052246,-888.247130,-11991.336260,229.828649
2982.052574,-2960.823768,-9696.697840,1149.143247
2982.052902,-2368.659014,-8364.327145,459.657299
2982.053229,-2738.761985,-7105.977043,-383.047749
2982.053557,-4663.297435,-6661.853478,229.828649
2982.053885,-4071.132681,-6439.791695,1225.752797
2982.054213,-1332.370696,-6661.853478,689.485948
2982.054540,-888.247130,-7624.121203,-689.485948
2982.054868,-2220.617826,-8956.491898,-229.828649
2982.055196,-740.205942,-10436.903782,0.000000
2982.055524,2146.597232,-11029.068536,-1149.143247
2982.055851,1406.391290,-11473.192101,-1378.971896
2982.056179,370.102971,-11695.253884,612.876398
2982.056507,1628.453072,-12361.439231,-306.438199
2982.056835,2294.638420,-11621.233289,-1149.143247
2982.057162,148.041188,-10955.047942,-1225.752797
2982.057490,-1258.350101,-10510.924376,-536.266849
2982.057818,0.000000,-9844.739029,-306.438199
2982.058145,1036.288319,-8364.327145,-1532.190996
2982.058473,222.061783,-7698.141797,-1838.629195
2982.058801,-814.226536,-7920.203579,-459.657299
2982.059129,962.267725,-8882.471304,1072.533697
2982.059456,1998.556043,-8956.491898,0.000000
2982.059784,148.041188,-10584.944971,-1072.533697
2982.060112,0.000000,-11103.089130,-229.828649
2982.060440,2442.679609,-10955.047942,-1532.190996
2982.060767,2886.803174,-11103.089130,-1608.800546
2982.061095,962.267725,-10955.047942,-306.438199
2982.061423,1184.329507,-9918.759623,0.000000
2982.061750,3330.926739,-10807.006753,-766.095498
2982.062078,2812.782580,-11473.192101,-1149.143247
2982.062406,1332.370696,-9918.759623,306.438199
2982.062734,1924.535449,-8364.327145,1072.533697
2982.063061,3404.947333,-8216.285956,689.485948
2982.063389,3330.926739,-8586.388927,1302.362347
2982.063717,1406.391290,-6735.874072,1991.848295
2982.064045,74.020594,-7105.977043,2221.676944
2982.064372,1184.329507,-9252.574275,1149.143247
2982.064700,370.102971,-10140.821405,-766.095498
2982.065028,-2368.659014,-9326.594869,229.828649
2982.065355,-1850.514855,-9770.718434,1149.143247
2982.065683,0.000000,-10881.027347,-2451.505594
2982.066011,-1110.308913,-11029.068536,-2145.067394
2982.066339,-1110.308913,-10288.862594,-1149.143247
2982.066666,666.185348,-9992.780217,-383.047749
2982.066992,2146.597232,-10140.821405,-1302.362347
2982.067320,1036.288319,-9400.615463,-689.485948
2982.067647,-518.144159,-8808.450710,842.705048
2982.067975,814.226536,-8438.347739,995.924147
2982.068303,2738.761985,-8586.388927,153.219100
2982.068630,1332.370696,-9400.615463,-306.438199
2982.068958,-962.267725,-9992.780217,1225.752797
2982.069286,-592.164754,-11177.109724,995.924147
2982.069613,-888.247130,-11547.212695,-1302.362347
2982.069941,-3404.947333,-11029.068536,-2374.896044
2982.070268,-5033.400406,-9326.594869,-1991.848295
2982.070596,-2812.782580,-9844.739029,-2451.505594
2982.070924,-1184.329507,-10658.965565,-2145.067394
2982.071251,-1480.411884,-10658.965565,-612.876398
2982.071579,-888.247130,-8660.409521,536.266849
2982.071907,2072.576638,-8142.265362,-612.876398
2982.072234,1924.535449,-9326.594869,-1378.971896
2982.072562,-740.205942,-9252.574275,-153.219100
2982.072889,-814.226536,-9474.636058,229.828649
2982.073217,1776.494261,-10288.862594,-995.924147
2982.073545,1924.535449,-9770.718434,-1072.533697
2982.073872,296.082377,-8882.471304,229.828649
2982.074200,-296.082377,-10140.821405,2145.067394
2982.074527,666.185348,-11325.150913,2068.457845
2982.074855,-296.082377,-9474.636058,-689.485948
2982.075183,-2368.659014,-7179.997637,-536.266849
2982.075510,-1258.350101,-7105.977043,-383.047749
2982.075838,1110.308913,-8660.409521,-229.828649
2982.076166,740.205942,-9548.656652,76.609550
2982.076493,814.226536,-9252.574275,842.705048
2982.076821,3627.009116,-9178.553681,-306.438199
2982.077148,4071.132681,-11029.068536,-1225.752797
2982.077476,1258.350101,-12065.356855,-995.924147
2982.077804,-296.082377,-10510.924376,76.609550
2982.078131,1406.391290,-10510.924376,-536.266849
2982.078459,2294.638420,-10881.027347,-995.924147
2982.078786,1258.350101,-9622.677246,76.609550
2982.079114,74.020594,-8586.388927,2298.286494
2982.079442,666.185348,-8808.450710,2451.505594
2982.079769,296.082377,-8882.471304,0.000000
2982.080097,-2146.597232,-8290.306550,-612.876398
2982.080425,-1850.514855,-6957.935855,-383.047749
2982.080752,1628.453072,-8216.285956,-1532.190996
2982.081080,3182.885551,-11177.109724,-1378.971896
2982.081407,2812.782580,-12065.356855,0.000000
2982.081735,3182.885551,-11177.109724,1685.410096
2982.082063,3849.070898,-11547.212695,536.266849
2982.082390,592.164754,-12731.542202,-1225.752797
2982.082718,-2368.659014,-11843.295072,-2068.457845
2982.083045,-2368.659014,-10066.800811,-2068.457845
2982.083373,-444.123565,-9474.636058,-1838.629195
2982.083701,-1036.288319,-8364.327145,0.000000
2982.084028,-1702.473667,-7846.182985,1991.848295
2982.084356,-1924.535449,-8068.244768,2757.943793
2982.084684,0.000000,-8660.409521,842.705048
2982.085011,-666.185348,-8438.347739,-1072.533697
2982.085339,-2738.761985,-6883.915261,0.000000
2982.085666,-740.205942,-6513.812290,689.485948
2982.085994,2738.761985,-9252.574275,0.000000
2982.086322,2220.617826,-11843.295072,1302.362347
2982.086649,2294.638420,-11917.315666,1915.238745
2982.086977,3256.906145,-11547.212695,459.657299
2982.087304,1036.288319,-11843.295072,-995.924147
2982.087632,-3404.947333,-10807.006753,-1608.800546
2982.087960,-5403.503377,-8660.409521,-1838.629195
2982.088287,-4145.153275,-8216.285956,-1532.190996
2982.088615,-1184.329507,-8290.306550,-1991.848295
2982.088943,-962.267725,-6735.874072,842.705048
2982.089270,-518.144159,-7031.956449,3064.381992
2982.089598,2146.597232,-9770.718434,2681.334243
2982.089925,1776.494261,-9992.780217,536.266849
2982.090253,-1406.391290,-8586.388927,76.609550
2982.090581,-888.247130,-7920.203579,-536.266849
2982.090908,1850.514855,-10362.883188,-1838.629195
2982.091236,1554.432478,-12509.480420,-1608.800546
2982.091563,-296.082377,-12435.459826,-306.438199
2982.091891,-592.164754,-10807.006753,-383.047749
2982.092219,222.061783,-12139.377449,-1762.019645
2982.092546,-1258.350101,-12065.356855,-2298.286494
2982.092874,-2960.823768,-9770.718434,-2068.457845
2982.093202,-814.226536,-7476.080014,-995.924147
2982.093529,2368.659014,-7846.182985,-612.876398
2982.093857,2368.659014,-8216.285956,153.219100
2982.094184,1036.288319,-7698.141797,2528.115143
2982.094512,1702.473667,-8882.471304,2987.772442
2982.094840,3552.988522,-10436.903782,459.657299
2982.095167,1776.494261,-10658.965565,-1762.019645
2982.095495,-518.144159,-9844.739029,-1455.581446
2982.095822,1554.432478,-10214.842000,-2145.067394
2982.096150,3182.885551,-12065.356855,-1072.533697
2982.096478,1628.453072,-12509.480420,0.000000
2982.096805,0.000000,-9918.759623,1378.971896
2982.097133,1258.350101,-8586.388927,76.609550
2982.097461,740.205942,-9474.636058,-1149.143247
2982.097788,-2516.700203,-9622.677246,-536.266849
2982.098116,-1850.514855,-8364.327145,76.609550
2982.098443,1998.556043,-7846.182985,-383.047749
2982.098771,2960.823768,-7698.141797,-766.095498
2982.099099,1702.473667,-8364.327145,612.876398
2982.099426,1406.391290,-9622.677246,2221.676944
2982.099754,3108.864956,-11251.130318,1225.752797
2982.100081,3182.885551,-10807.006753,-1838.629195
2982.100409,222.061783,-9770.718434,-1225.752797
2982.100737,-296.082377,-10436.903782,1685.410096
2982.101064,1702.473667,-11399.171507,1149.143247
2982.101392,592.164754,-11177.109724,-229.828649
2982.101720,-1998.556043,-10288.862594,153.219100
2982.102047,-1110.308913,-8364.327145,76.609550
2982.102375,-592.164754,-7994.224174,-1149.143247
2982.102702,-2146.597232,-9696.697840,-1608.800546
2982.103030,-3256.906145,-8142.265362,-612.876398
2982.103358,-1036.288319,-8068.244768,-612.876398
2982.103685,1776.494261,-9696.697840,-1378.971896
2982.104013,2368.659014,-10140.821405,-995.924147
2982.104340,444.123565,-9844.739029,612.876398
2982.104668,666.185348,-12213.398043,2451.505594
2982.104996,1184.329507,-12213.398043,0.000000
2982.105323,-222.061783,-9400.615463,-1532.190996
2982.105651,-2812.782580,-7698.141797,0.000000
2982.105979,-1332.370696,-9696.697840,1149.143247
2982.106306,370.102971,-10658.965565,306.438199
2982.106634,-222.061783,-9474.636058,459.657299
2982.106961,-1480.411884,-7402.059420,306.438199
2982.107289,148.041188,-7772.162391,-153.219100
2982.107617,0.000000,-10510.924376,536.266849
2982.107944,-1406.391290,-10658.965565,-153.219100
2982.108272,0.000000,-10066.800811,-1378.971896
2982.108599,2072.576638,-10362.883188,-2681.334243
2982.108927,2368.659014,-9622.677246,-2221.676944
2982.109255,888.247130,-9918.759623,536.266849
2982.109582,-1036.288319,-10066.800811,1838.629195
2982.109910,148.041188,-11029.068536,766.095498
2982.110238,-518.144159,-8660.409521,-1532.190996
2982.110565,-2664.741391,-7328.038826,-1838.629195
2982.110893,-2368.659014,-7994.224174,0.000000
2982.111220,1110.308913,-8660.409521,689.485948
2982.111548,1776.494261,-10214.842000,919.314598
2982.111876,1924.535449,-9696.697840,1838.629195
2982.112203,3478.967927,-8882.471304,842.705048
2982.112531,4071.132681,-9844.739029,-689.485948
2982.112858,2294.638420,-12509.480420,-306.438199
2982.113186,740.205942,-11621.233289,-1532.190996
2982.113514,1406.391290,-9770.718434,-1915.238745
2982.113841,1480.411884,-10658.965565,-1915.238745
2982.114169,-518.144159,-9696.697840,-1991.848295
2982.114497,-1554.432478,-8660.409521,-459.657299
2982.114824,-962.267725,-9918.759623,-229.828649
2982.115152,444.123565,-10066.800811,-919.314598
2982.115479,-1184.329507,-7550.100608,0.000000
2982.115807,-1702.473667,-6809.894666,2681.334243
2982.116135,1702.473667,-7550.100608,2221.676944
2982.116462,2812.782580,-9030.512492,536.266849
2982.116790,1998.556043,-9992.780217,536.266849
2982.117118,1924.535449,-9474.636058,766.095498
2982.117445,3478.967927,-9474.636058,-612.876398
2982.117773,1776.494261,-12731.542202,-995.924147
2982.118100,-444.123565,-13693.809927,0.000000
2982.118428,-148.041188,-10881.027347,-1149.143247
2982.118756,1036.288319,-10066.800811,-1762.019645
2982.119083,592.164754,-9548.656652,-2068.457845
2982.119411,-1776.494261,-7994.224174,153.219100
2982.119738,-2368.659014,-7920.203579,1838.629195
2982.120066,-1184.329507,-7994.224174,1532.190996
2982.120394,-518.144159,-6069.688724,0.000000
2982.120721,-1110.308913,-6069.688724,1302.362347
2982.121049,444.123565,-8216.285956,3217.601092
2982.121377,2738.761985,-9770.718434,1149.143247
2982.121704,2294.638420,-12435.459826,-1302.362347
2982.122032,740.205942,-12879.583391,-1072.533697
2982.122359,1110.308913,-11547.212695,-1455.581446
2982.122687,1480.411884,-11917.315666,-1762.019645
2982.123015,-666.185348,-13249.686362,-459.657299
2982.123342,-2738.761985,-10732.986159,-1302.362347
2982.123670,-1184.329507,-9548.656652,-919.314598
2982.123997,148.041188,-8586.388927,-995.924147
2982.124325,-518.144159,-7105.977043,0.000000
2982.124653,-2146.597232,-6291.750507,2145.067394
2982.124980,-1184.329507,-6883.915261,1532.190996
2982.125308,0.000000,-8068.244768,-612.876398
2982.125636,-1332.370696,-8734.430116,-1532.190996
2982.125963,-1110.308913,-9326.594869,383.047749
2982.126291,2664.741391,-10732.986159,-306.438199
2982.126618,4663.297435,-12953.603985,-689.485948
2982.126946,2812.782580,-14211.954086,383.047749
2982.127274,1924.535449,-11917.315666,1225.752797
2982.127601,2590.720797,-10214.842000,-536.266849
2982.127929,1110.308913,-11695.253884,-995.924147
2982.128256,-2664.741391,-9770.718434,-612.876398
2982.128584,-3775.050304,-7105.977043,0.000000
2982.128912,-1480.411884,-6809.894666,-766.095498
2982.129239,-666.185348,-8512.368333,-306.438199
2982.129567,-888.247130,-8586.388927,306.438199
2982.129895,74.020594,-7624.121203,1685.410096
2982.130222,2442.679609,-9104.533087,-612.876398
2982.130550,2442.679609,-9474.636058,-1762.019645
2982.130877,666.185348,-9696.697840,-536.266849
2982.131205,2220.617826,-10288.862594,536.266849
2982.131533,5181.441594,-11695.253884,383.047749
2982.131860,4367.215058,-12953.603985,229.828649
2982.132188,1702.473667,-12287.418637,1378.971896
2982.132515,1702.473667,-11547.212695,229.828649
2982.132843,222.061783,-11769.274478,-2068.457845
2982.133171,-2960.823768,-10955.047942,-2068.457845
2982.133498,-4737.318029,-8364.327145,-1685.410096
2982.133826,-2664.741391,-7105.977043,-1302.362347
2982.134154,-296.082377,-7920.203579,-1072.533697
2982.134481,-592.164754,-7179.997637,459.657299
2982.134809,-962.267725,-6587.832884,1838.629195
2982.135136,2146.597232,-9474.636058,306.438199
2982.135464,3552.988522,-11029.068536,-995.924147
2982.135792,1850.514855,-9770.718434,-766.095498
2982.136119,-296.082377,-9696.697840,766.095498
2982.136447,1480.411884,-11843.295072,-383.047749
2982.136774,2368.659014,-11325.150913,-1302.362347
2982.137102,592.164754,-10732.986159,-995.924147
2982.137430,0.000000,-10732.986159,689.485948
2982.137757,962.267725,-10955.047942,536.266849
2982.138085,-444.123565,-10807.006753,-229.828649
2982.138413,-3034.844362,-8438.347739,0.000000
2982.138740,-2590.720797,-6809.894666,-306.438199
2982.139068,-518.144159,-6587.832884,-842.705048
2982.139395,444.123565,-8290.306550,-612.876398
2982.139723,222.061783,-8512.368333,459.657299
2982.140051,1184.329507,-9400.615463,689.485948
2982.140378,3034.844362,-11843.295072,-689.485948
2982.140706,1998.556043,-11991.336260,-1225.752797
2982.141033,-1406.391290,-10288.862594,0.000000
2982.141361,-1480.411884,-9844.739029,306.438199
2982.141689,1036.288319,-10658.965565,-1225.752797
2982.142016,296.082377,-9178.553681,-689.485948
2982.142344,-666.185348,-9030.512492,1608.800546
2982.142672,444.123565,-8586.388927,2451.505594
2982.142999,1036.288319,-10140.821405,1072.533697
2982.143327,-1776.494261,-10436.903782,-153.219100
2982.143654,-2516.700203,-8216.285956,-1225.752797
2982.143982,-666.185348,-7698.141797,-2374.896044
2982.144310,296.082377,-9400.615463,-2221.676944
2982.144637,1258.350101,-10288.862594,-1302.362347
2982.144965,1480.411884,-10066.800811,612.876398
2982.145292,1776.494261,-11843.295072,1302.362347
2982.145620,888.247130,-11843.295072,76.609550
2982.145948,-1998.556043,-9400.615463,-1302.362347
2982.146275,-3108.864956,-8068.244768,-1455.581446
2982.146603,-666.185348,-8882.471304,-919.314598
2982.146931,666.185348,-9474.636058,0.000000
2982.147258,-222.061783,-8438.347739,2451.505594
2982.147586,814.226536,-7846.182985,2911.162892
2982.147913,2516.700203,-9474.636058,0.000000
2982.148241,888.247130,-11695.253884,-1225.752797
2982.148569,-1554.432478,-9474.636058,-689.485948
2982.148896,0.000000,-8438.347739,-2221.676944
2982.149224,1776.494261,-10510.924376,-1915.238745
2982.149551,2590.720797,-11473.192101,0.000000
2982.149879,2220.617826,-10214.842000,1072.533697
2982.150207,1998.556043,-11103.089130,2374.896044
2982.150534,1258.350101,-10807.006753,1302.362347
2982.150862,-888.247130,-7772.162391,-1378.971896
2982.151190,-3552.988522,-5995.668130,-995.924147
2982.151517,-2146.597232,-7624.121203,0.000000
2982.151845,888.247130,-8734.430116,0.000000
2982.152172,1480.411884,-8290.306550,1302.362347
2982.152500,2294.638420,-7920.203579,3140.991542
2982.152828,3256.906145,-9918.759623,1762.019645
2982.153155,3701.029710,-14137.933492,-306.438199
2982.153483,1184.329507,-14285.974681,-1072.533697
2982.153810,222.061783,-10510.924376,-2145.067394
2982.154138,1406.391290,-9992.780217,-2451.505594
2982.154466,814.226536,-11695.253884,-766.095498
2982.154793,-1332.370696,-10066.800811,229.828649
2982.155121,-2368.659014,-7994.224174,383.047749
2982.155449,-1184.329507,-9474.636058,-306.438199
2982.155776,-1184.329507,-9030.512492,-2298.286494
2982.156104,-3404.947333,-6957.935855,-612.876398
2982.156431,-2664.741391,-5255.462188,1608.800546
2982.156759,1554.432478,-6735.874072,766.095498
2982.157087,2516.700203,-10510.924376,306.438199
2982.157414,1628.453072,-12139.377449,306.438199
2982.157742,2738.761985,-10066.800811,1685.410096
2982.158069,3997.112087,-11251.130318,-383.047749
2982.158397,2294.638420,-15544.324782,-1532.190996
2982.158725,-888.247130,-14211.954086,-1455.581446
2982.159052,-1776.494261,-9326.594869,-2298.286494
2982.159380,-296.082377,-9400.615463,-3064.381992
2982.159708,-962.267725,-10066.800811,-1302.362347
2982.160035,-2812.782580,-7105.977043,1072.533697
2982.160363,-2368.659014,-5699.585753,2757.943793
2982.160690,-1554.432478,-7105.977043,1225.752797
2982.161018,-1702.473667,-7624.121203,229.828649
2982.161346,-1554.432478,-7105.977043,612.876398
2982.161673,518.144159,-7624.121203,612.876398
2982.162001,3627.009116,-9696.697840,-612.876398
2982.162329,2072.576638,-11695.253884,-995.924147
2982.162656,1628.453072,-11843.295072,612.876398
2982.162984,2368.659014,-11695.253884,-842.705048
2982.163311,3330.926739,-13471.748144,-2528.115143
2982.163639,888.247130,-13619.789333,-1532.190996
2982.163967,0.000000,-11695.253884,-536.266849
2982.164294,1406.391290,-11251.130318,-306.438199
2982.164622,1258.350101,-9918.759623,-383.047749
2982.164949,-1184.329507,-5551.544565,229.828649
2982.165277,-3182.885551,-3923.091493,1762.019645
2982.165605,-2442.679609,-6661.853478,1302.362347
2982.165932,-1184.329507,-8290.306550,0.000000
2982.166260,-1554.432478,-7254.018232,-995.924147
2982.166588,-370.102971,-8290.306550,229.828649
2982.166915,2368.659014,-11177.109724,689.485948
2982.167243,3701.029710,-12287.418637,0.000000
2982.167570,2146.597232,-12657.521608,-306.438199
2982.167898,2220.617826,-12879.583391,-383.047749
2982.168226,3256.906145,-12583.501014,-2068.457845
2982.168553,1406.391290,-12361.439231,-1302.362347
2982.168881,-1258.350101,-9030.512492,1149.143247
2982.169208,-444.123565,-7031.956449,1072.533697
2982.169536,0.000000,-9400.615463,536.266849
2982.169864,-1480.411884,-7328.038826,612.876398
2982.170191,-1924.535449,-3849.070898,0.000000
2982.170519,-1332.370696,-6143.709319,0.000000
2982.170846,740.205942,-9918.759623,0.000000
2982.171174,518.144159,-9400.615463,0.000000
2982.171501,148.041188,-8586.388927,1225.752797
2982.171829,1776.494261,-11251.130318,306.438199
2982.172157,4589.276840,-13545.768739,-1762.019645
2982.172484,2886.803174,-12805.562797,-1838.629195
2982.172812,74.020594,-11843.295072,153.219100
2982.173139,222.061783,-11177.109724,-612.876398
2982.173467,-1184.329507,-10807.006753,-1378.971896
2982.173795,-3330.926739,-9400.615463,-1838.629195
2982.174122,-3404.947333,-7328.038826,-1149.143247
2982.174450,-592.164754,-8290.306550,-842.705048
2982.174777,1110.308913,-10066.800811,0.000000
2982.175105,0.000000,-7994.224174,1072.533697
2982.175432,370.102971,-6217.729913,919.314598
2982.175760,1998.556043,-9326.594869,1072.533697
2982.176088,1702.473667,-10658.965565,76.609550
2982.176415,888.247130,-10288.862594,153.219100
2982.176743,74.020594,-10658.965565,689.485948
2982.177070,1110.308913,-11917.315666,-1149.143247
2982.177398,1258.350101,-12879.583391,-2451.505594
2982.177726,-1554.432478,-11251.130318,-1455.581446
2982.178053,-1702.473667,-10214.842000,0.000000
2982.178381,-1702.473667,-10436.903782,-459.657299
2982.178708,-1036.288319,-9474.636058,-612.876398
2982.179036,-1924.535449,-7402.059420,0.000000
2982.179363,0.000000,-7031.956449,689.485948
2982.179691,1184.329507,-8660.409521,1685.410096
2982.180019,814.226536,-7994.224174,2145.067394
2982.180346,444.123565,-6365.771101,1838.629195
2982.180674,222.061783,-8068.244768,842.705048
2982.181001,2294.638420,-10732.986159,-306.438199
2982.181329,962.267725,-11325.150913,-995.924147
2982.181657,-222.061783,-11325.150913,-306.438199
2982.181984,814.226536,-11029.068536,-459.657299
2982.182312,1850.514855,-11103.089130,-1685.410096
2982.182639,-814.226536,-9770.718434,0.000000
2982.182967,-1258.350101,-8956.491898,1302.362347
2982.183294,814.226536,-8438.347739,76.609550
2982.183622,0.000000,-8660.409521,-383.047749
2982.183950,-1406.391290,-8512.368333,0.000000
2982.184277,-296.082377,-7698.141797,306.438199
2982.184605,1480.411884,-9548.656652,-153.219100
2982.184932,2146.597232,-11473.192101,-1532.190996
2982.185260,2368.659014,-10214.842000,-1149.143247
2982.185588,1850.514855,-9548.656652,-306.438199
2982.185915,2664.741391,-11991.336260,-689.485948
2982.186243,1554.432478,-12435.459826,-612.876398
2982.186570,-962.267725,-10510.924376,-306.438199
2982.186898,-666.185348,-9622.677246,689.485948
2982.187225,888.247130,-8882.471304,-1072.533697
2982.187553,-518.144159,-8364.327145,0.000000
2982.187881,-2886.803174,-6957.935855,1455.581446
2982.188208,-444.123565,-6883.915261,229.828649
2982.188536,1110.308913,-9326.594869,-1915.238745
2982.188863,-592.164754,-10881.027347,-1072.533697
2982.189191,-1258.350101,-9770.718434,0.000000
2982.189519,2220.617826,-10807.006753,0.000000
2982.189846,4441.235652,-13323.706956,-995.924147
2982.190174,2368.659014,-13175.665768,-536.266849
2982.190501,1332.370696,-10807.006753,612.876398
2982.190829,1554.432478,-9474.636058,383.047749
2982.191156,888.247130,-10288.862594,0.000000
2982.191484,-2516.700203,-7994.224174,766.095498
2982.191812,-5107.421000,-4885.359217,1838.629195
2982.192139,-2812.782580,-5773.606348,383.047749
2982.192467,-518.144159,-7476.080014,-383.047749
2982.192794,-1184.329507,-9252.574275,0.000000
2982.193122,-296.082377,-9918.759623,1455.581446
2982.193450,2220.617826,-9844.739029,0.000000
2982.193777,1924.535449,-11251.130318,-1685.410096
2982.194105,814.226536,-12731.542202,-766.095498
2982.194432,444.123565,-10658.965565,-1225.752797
2982.194760,1776.494261,-11029.068536,-766.095498
2982.195087,1110.308913,-10955.047942,-1149.143247
2982.195415,-444.123565,-9622.677246,-229.828649
2982.195743,-444.123565,-9030.512492,536.266849
2982.196070,740.205942,-10362.883188,153.219100
2982.196398,0.000000,-10436.903782,-383.047749
2982.196725,-1184.329507,-8068.244768,-995.924147
2982.197053,296.082377,-7179.997637,459.657299
2982.197381,1036.288319,-9474.636058,76.609550
2982.197708,666.185348,-9844.739029,0.000000
2982.198036,-370.102971,-9326.594869,1149.143247
2982.198363,74.020594,-10214.842000,459.657299
2982.198691,1480.411884,-11917.315666,-2068.457845
2982.199018,370.102971,-12213.398043,-2451.505594
2982.199346,-2590.720797,-10362.883188,-1685.410096
2982.199674,-1554.432478,-11177.109724,-2451.505594
2982.200001,444.123565,-11695.253884,-2681.334243
2982.200329,518.144159,-8882.471304,-1378.971896
2982.200656,370.102971,-7105.977043,1685.410096
2982.200984,1554.432478,-9252.574275,3753.867940
2982.201312,2146.597232,-9696.697840,2374.896044
2982.201639,888.247130,-7402.059420,1302.362347
2982.201967,-888.247130,-5699.585753,1762.019645
2982.202294,370.102971,-6661.853478,1762.019645
2982.202622,2368.659014,-10214.842000,842.705048
2982.202950,1628.453072,-10881.027347,612.876398
2982.203277,962.267725,-9622.677246,612.876398
2982.203605,3108.864956,-12213.398043,-1225.752797
2982.203932,2516.700203,-12657.521608,-2604.724693
2982.204260,-1924.535449,-11695.253884,-383.047749
2982.204587,-2072.576638,-10214.842000,-995.924147
2982.204915,0.000000,-10510.924376,-1838.629195
2982.205243,0.000000,-9104.533087,-1225.752797
2982.205570,0.000000,-5699.585753,76.609550
2982.205898,-814.226536,-5403.503377,3294.210641
2982.206225,148.041188,-9030.512492,2834.553343
2982.206553,296.082377,-9178.553681,612.876398
2982.206881,-1480.411884,-6957.935855,-1072.533697
2982.207208,0.000000,-7624.121203,-1762.019645
2982.207536,2590.720797,-12287.418637,-2374.896044
2982.207863,1702.473667,-14434.015869,-383.047749
2982.208191,0.000000,-12435.459826,536.266849
2982.208518,1332.370696,-11991.336260,-1302.362347
2982.208846,1924.535449,-14137.933492,-3677.258390
2982.209174,-740.205942,-12509.480420,-2451.505594
2982.209501,-3034.844362,-9104.533087,-459.657299
2982.209829,-1702.473667,-9474.636058,459.657299
2982.210156,0.000000,-8216.285956,-612.876398
2982.210484,-518.144159,-5181.441594,0.000000
2982.210812,-2738.761985,-5033.400406,1378.971896
2982.211139,-1480.411884,-8364.327145,2068.457845
2982.211467,-296.082377,-9548.656652,0.000000
2982.211794,-1628.453072,-8882.471304,-1225.752797
2982.212122,-666.185348,-8734.430116,-536.266849
2982.212449,3256.906145,-10732.986159,383.047749
2982.212777,4811.338623,-14285.974681,383.047749
2982.213105,3108.864956,-13841.851115,1225.752797
2982.213432,2072.576638,-9844.739029,919.314598
2982.213760,2368.659014,-10066.800811,-383.047749
2982.214087,-666.185348,-9918.759623,-229.828649
2982.214415,-3404.947333,-7254.018232,536.266849
2982.214743,-2368.659014,-6661.853478,229.828649
2982.215070,-222.061783,-7179.997637,612.876398
2982.215398,666.185348,-7402.059420,-306.438199
2982.215725,-370.102971,-6883.915261,536.266849
2982.216053,0.000000,-7846.182985,1455.581446
2982.216380,1258.350101,-10732.986159,306.438199
2982.216708,1110.308913,-11103.089130,-1532.190996
2982.217036,1332.370696,-9770.718434,-1072.533697
2982.217363,3923.091493,-10140.821405,0.000000
2982.217691,5403.503377,-13027.624579,1149.143247
2982.218018,2368.659014,-13471.748144,1838.629195
2982.218346,518.144159,-10584.944971,1378.971896
2982.218674,592.164754,-9622.677246,-1149.143247
2982.219001,-1184.329507,-10510.924376,-2374.896044
2982.219329,-3404.947333,-9104.533087,-2145.067394
2982.219656,-4515.256246,-7105.977043,-1302.362347
2982.219984,-2146.597232,-8882.471304,-1762.019645
2982.220311,1554.432478,-9178.553681,-1762.019645
2982.220639,2442.679609,-7550.100608,-459.657299
2982.220967,1702.473667,-8438.347739,2987.772442
2982.221294,2664.741391,-11177.109724,2681.334243
2982.221622,3034.844362,-13027.624579,-1302.362347
2982.221949,222.061783,-10584.944971,-2834.553343
2982.222277,-1480.411884,-8808.450710,-2145.067394
2982.222605,1036.288319,-11029.068536,-1072.533697
2982.222932,814.226536,-12731.542202,459.657299
2982.223260,-814.226536,-11621.233289,1072.533697
2982.223587,-518.144159,-9104.533087,0.000000
2982.223915,-370.102971,-9030.512492,-1378.971896
2982.224242,-2072.576638,-8956.491898,-306.438199
2982.224570,-2960.823768,-6883.915261,536.266849
2982.224898,-2220.617826,-6439.791695,842.705048
2982.225225,740.205942,-7476.080014,-383.047749
2982.225553,2516.700203,-8364.327145,-919.314598
2982.225880,962.267725,-8512.368333,1149.143247
2982.226208,296.082377,-9844.739029,2145.067394
2982.226536,1776.494261,-12657.521608,-842.705048
2982.226863,0.000000,-11991.336260,-2987.772442
2982.227191,-1776.494261,-8734.430116,-2374.896044
2982.227518,148.041188,-8808.450710,-229.828649
2982.227846,1998.556043,-10807.006753,1762.019645
2982.228173,2368.659014,-11547.212695,2451.505594
2982.228501,1480.411884,-9326.594869,2528.115143
2982.228829,1110.308913,-8586.388927,1225.752797
2982.229156,0.000000,-8882.471304,-536.266849
2982.229484,-2368.659014,-8956.491898,-1149.143247
2982.229811,-4071.132681,-8068.244768,-1072.533697
2982.230139,-1258.350101,-9252.574275,-1762.019645
2982.230467,1110.308913,-10140.821405,-2221.676944
2982.230794,148.041188,-9474.636058,-1149.143247
2982.231122,-888.247130,-9844.739029,0.000000
2982.231449,1628.453072,-12583.501014,-459.657299
2982.231777,1480.411884,-11621.233289,-1225.752797
2982.232104,-518.144159,-8438.347739,-919.314598
2982.232432,222.061783,-7328.038826,153.219100
2982.232760,2294.638420,-9622.677246,1072.533697
2982.233087,1776.494261,-11547.212695,2298.286494
2982.233415,148.041188,-8882.471304,1608.800546
2982.233742,518.144159,-7624.121203,536.266849
2982.234070,814.226536,-9844.739029,-1149.143247
2982.234398,-148.041188,-12213.398043,-1455.581446
2982.234725,-1850.514855,-9844.739029,-612.876398
2982.235053,222.061783,-9030.512492,-1838.629195
2982.235380,2812.782580,-11917.315666,-2145.067394
2982.235708,2072.576638,-10732.986159,-1762.019645
2982.236035,-1036.288319,-7550.100608,1455.581446
2982.236363,-592.164754,-9474.636058,1532.190996
2982.236691,1036.288319,-11251.130318,-383.047749
2982.237018,-888.247130,-8068.244768,-1149.143247
2982.237346,-1850.514855,-6143.709319,306.438199
2982.237673,-666.185348,-7179.997637,1302.362347
2982.238001,1628.453072,-10732.986159,306.438199
2982.238329,1036.288319,-11547.212695,306.438199
2982.238656,-444.123565,-8660.409521,0.000000
2982.238984,2664.741391,-9548.656652,-1072.533697
2982.239311,2886.803174,-12805.562797,-612.876398
2982.239639,-592.164754,-12879.583391,766.095498
2982.239966,-1998.556043,-10510.924376,-383.047749
2982.240294,370.102971,-9844.739029,-2221.676944
2982.240622,666.185348,-10066.800811,-2145.067394
2982.240949,-1036.288319,-8586.388927,-612.876398
2982.241277,-1850.514855,-8512.368333,1532.190996
2982.241604,0.000000,-10362.883188,1685.410096
2982.241932,666.185348,-9104.533087,-383.047749
2982.242260,-1332.370696,-6809.894666,-612.876398
2982.242587,-1480.411884,-7105.977043,1149.143247
2982.242915,592.164754,-8438.347739,1455.581446
2982.243242,740.205942,-10584.944971,-306.438199
2982.243570,0.000000,-10362.883188,0.000000
2982.243898,1702.473667,-9474.636058,0.000000
2982.244225,3034.844362,-11473.192101,-306.438199
2982.244553,1184.329507,-13249.686362,459.657299
2982.244880,-962.267725,-11547.212695,-919.314598
2982.245208,0.000000,-10214.842000,-2298.286494
2982.245535,740.205942,-9844.739029,-2298.286494
2982.245863,0.000000,-7920.203579,-612.876398
2982.246191,-1628.453072,-6143.709319,2221.676944
2982.246518,-962.267725,-8142.265362,2757.943793
2982.246846,1110.308913,-9400.615463,1149.143247
2982.247173,-296.082377,-6957.935855,-383.047749
2982.247501,-1480.411884,-6661.853478,0.000000
2982.247829,888.247130,-8882.471304,229.828649
2982.248156,2368.659014,-11843.295072,-919.314598
2982.248484,1406.391290,-12879.583391,-1149.143247
2982.248811,1628.453072,-11103.089130,-842.705048
2982.249139,3923.091493,-11473.192101,-1149.143247
2982.249466,3256.906145,-14211.954086,-2145.067394
2982.249794,296.082377,-13693.809927,383.047749
2982.250122,0.000000,-9474.636058,-229.828649
2982.250449,1110.308913,-9400.615463,-306.438199
2982.250777,0.000000,-8068.244768,229.828649
2982.251104,-2072.576638,-5773.606348,1225.752797
2982.251432,-2738.761985,-5329.482782,1762.019645
2982.251760,-1628.453072,-6883.915261,-306.438199
2982.252087,-1258.350101,-9104.533087,-1915.238745
2982.252415,-1258.350101,-8438.347739,-1149.143247
2982.252742,1258.350101,-9474.636058,536.266849
2982.253070,4737.318029,-13323.706956,76.609550
2982.253397,5329.482782,-15470.304188,-383.047749
2982.253725,2960.823768,-13397.727550,153.219100
2982.254053,3627.009116,-11177.109724,-229.828649
2982.254380,2516.700203,-11547.212695,229.828649
2982.254708,-1258.350101,-11399.171507,1072.533697
2982.255035,-3775.050304,-7846.182985,0.000000
2982.255363,-2738.761985,-5995.668130,-919.314598
2982.255691,-1702.473667,-6513.812290,-995.924147
2982.256018,-2368.659014,-6735.874072,536.266849
2982.256346,-3552.988522,-5477.523971,1225.752797
2982.256673,-592.164754,-7772.162391,995.924147
2982.257001,2516.700203,-10584.944971,-1991.848295
2982.257328,814.226536,-9696.697840,-1685.410096
2982.257656,814.226536,-9104.533087,459.657299
2982.257984,3182.885551,-12065.356855,919.314598
2982.258311,3923.091493,-14878.139434,0.000000
2982.258639,2072.576638,-14656.077652,-689.485948
2982.258966,370.102971,-10732.986159,-1149.143247
2982.259294,74.020594,-10584.944971,-995.924147
2982.259622,-1036.288319,-11917.315666,-1762.019645
2982.259949,-3701.029710,-9622.677246,-1378.971896
2982.260277,-3923.091493,-7105.977043,-1225.752797
2982.260604,-296.082377,-8216.285956,-1455.581446
2982.260932,518.144159,-7698.141797,0.000000
2982.261259,0.000000,-6883.915261,1225.752797
2982.261587,1110.308913,-7846.182985,1838.629195
2982.261915,2368.659014,-11325.150913,612.876398
2982.262242,962.267725,-10436.903782,-1072.533697
2982.262570,-962.267725,-8882.471304,-1149.143247
2982.262897,-666.185348,-10658.965565,-229.828649
2982.263225,1776.494261,-12805.562797,-1455.581446
2982.263553,1258.350101,-13471.748144,-1991.848295
2982.263880,-666.185348,-10288.862594,-229.828649
2982.264208,1036.288319,-9992.780217,536.266849
2982.264535,2072.576638,-11843.295072,766.095498
2982.264863,-740.205942,-9622.677246,1302.362347
2982.265190,-1776.494261,-6661.853478,766.095498
2982.265518,814.226536,-5847.626942,-612.876398
2982.265846,1776.494261,-7698.141797,0.000000
2982.266173,962.267725,-7994.224174,1762.019645
2982.266501,444.123565,-6513.812290,2681.334243
2982.266828,1776.494261,-9178.553681,1072.533697
2982.267156,2146.597232,-13027.624579,-1762.019645
2982.267483,0.000000,-10510.924376,-2298.286494
2982.267811,-1554.432478,-8512.368333,-766.095498
2982.268139,296.082377,-11029.068536,-306.438199
2982.268466,2368.659014,-12509.480420,-1072.533697
2982.268794,518.144159,-10066.800811,229.828649
2982.269121,222.061783,-8068.244768,1991.848295
2982.269449,1850.514855,-9474.636058,1072.533697
2982.269776,1776.494261,-10881.027347,-229.828649
2982.270104,-1110.308913,-9326.594869,-306.438199
2982.270431,-1110.308913,-6957.935855,0.000000
2982.270759,1036.288319,-8512.368333,-2145.067394
2982.271087,1554.432478,-10362.883188,-1838.629195
2982.271414,-444.123565,-9696.697840,0.000000
2982.271742,0.000000,-10584.944971,76.609550
2982.272069,1406.391290,-12657.521608,-2298.286494
2982.272397,74.020594,-11103.089130,-2757.943793
2982.272724,-2220.617826,-8660.409521,-1302.362347
2982.273052,-444.123565,-9178.553681,766.095498
2982.273379,1480.411884,-10955.047942,766.095498
2982.273707,1258.350101,-9770.718434,383.047749
2982.274034,0.000000,-8290.306550,536.266849
2982.274362,592.164754,-9030.512492,842.705048
2982.274690,814.226536,-10510.924376,-612.876398
2982.275017,-1480.411884,-10436.903782,-1685.410096
2982.275345,-2294.638420,-9030.512492,-1072.533697
2982.275672,444.123565,-9918.759623,-1149.143247
2982.276000,3034.844362,-11473.192101,-459.657299
2982.276327,1702.473667,-10436.903782,842.705048
2982.276655,444.123565,-9474.636058,2068.457845
2982.276982,814.226536,-10140.821405,1532.190996
2982.277310,74.020594,-9252.574275,-612.876398
2982.277638,-2516.700203,-5477.523971,229.828649
2982.277965,-2442.679609,-4959.379811,1149.143247
2982.278293,-222.061783,-8956.491898,1455.581446
2982.278620,1924.535449,-10288.862594,459.657299
2982.278948,1702.473667,-8216.285956,-306.438199
2982.279275,1036.288319,-8660.409521,612.876398
2982.279603,1628.453072,-11399.171507,459.657299
2982.279930,592.164754,-12953.603985,-842.705048
2982.280258,-1036.288319,-11177.109724,-1608.800546
2982.280585,740.205942,-9474.636058,-1685.410096
2982.280913,2886.803174,-11399.171507,-689.485948
2982.281241,2294.638420,-11843.295072,1149.143247
2982.281568,0.000000,-8438.347739,2221.676944
2982.281896,0.000000,-7920.203579,459.657299
2982.282223,-814.226536,-9104.533087,-689.485948
2982.282551,-2294.638420,-7920.203579,-1991.848295
2982.282878,-3627.009116,-5625.565159,-1608.800546
2982.283206,-1554.432478,-7105.977043,-536.266849
2982.283533,1258.350101,-10732.986159,-919.314598
2982.283861,2368.659014,-13101.645173,-1149.143247
2982.284189,2368.659014,-10807.006753,459.657299
2982.284516,2960.823768,-10214.842000,-306.438199
2982.284844,4441.235652,-14211.954086,-1685.410096
2982.285171,1110.308913,-14878.139434,-1608.800546
2982.285499,-814.226536,-11695.253884,-766.095498
2982.285826,518.144159,-9474.636058,-1225.752797
2982.286154,1036.288319,-10362.883188,-689.485948
2982.286481,-1850.514855,-8586.388927,0.000000
2982.286809,-2812.782580,-6069.688724,1302.362347
2982.287136,-1628.453072,-7698.141797,459.657299
2982.287464,-1110.308913,-8882.471304,-689.485948
2982.287792,-1998.556043,-6735.874072,-459.657299
2982.288119,-1258.350101,-5551.544565,689.485948
2982.288447,2442.679609,-9326.594869,1072.533697
2982.288774,3997.112087,-11917.315666,-612.876398
2982.289102,2738.761985,-10362.883188,76.609550
2982.289429,2812.782580,-10288.862594,0.000000
2982.289757,2886.803174,-12879.583391,-766.095498
2982.290084,444.123565,-13989.892304,-1149.143247
2982.290412,-2664.741391,-11177.109724,-995.924147
2982.290740,-1702.473667,-8808.450710,-842.705048
2982.291067,444.123565,-9252.574275,-842.705048
2982.291395,-222.061783,-8216.285956,842.705048
2982.291722,-1480.411884,-5773.606348,2911.162892
2982.292050,-370.102971,-6809.894666,2987.772442
2982.292377,444.123565,-9178.553681,1149.143247
2982.292705,-518.144159,-7328.038826,-306.438199
2982.293032,-1776.494261,-5699.585753,0.000000
2982.293360,74.020594,-9474.636058,383.047749
2982.293687,2812.782580,-13989.892304,-1225.752797
2982.294015,2294.638420,-13249.686362,-2068.457845
2982.294343,296.082377,-11695.253884,-1302.362347
2982.294670,1258.350101,-12509.480420,-1685.410096
2982.294998,666.185348,-13841.851115,-1915.238745
2982.295325,-1924.535449,-11251.130318,-536.266849
2982.295653,-2294.638420,-7846.182985,-766.095498
2982.295980,518.144159,-8808.450710,306.438199
2982.296308,444.123565,-9104.533087,1149.143247
2982.296635,-740.205942,-6809.894666,1915.238745
2982.296963,-1628.453072,-5699.585753,2451.505594
2982.297291,0.000000,-7994.224174,229.828649
2982.297618,518.144159,-9844.739029,-1378.971896
2982.297946,-444.123565,-9252.574275,-1225.752797
2982.298273,148.041188,-8882.471304,0.000000
2982.298601,3775.050304,-11399.171507,-842.705048
2982.298928,3552.988522,-13915.871710,-995.924147
2982.299256,888.247130,-12953.603985,306.438199
2982.299583,444.123565,-9992.780217,459.657299
2982.299911,888.247130,-10881.027347,-842.705048
2982.300238,-444.123565,-10362.883188,-1608.800546
2982.300566,-3108.864956,-7846.182985,-153.219100
2982.300894,-1702.473667,-7031.956449,229.828649
2982.301221,296.082377,-7698.141797,612.876398
2982.301549,888.247130,-7994.224174,536.266849
2982.301876,-370.102971,-6809.894666,995.924147
2982.302204,666.185348,-8216.285956,689.485948
2982.302531,1702.473667,-11103.089130,-766.095498
2982.302859,1332.370696,-11177.109724,-1072.533697
2982.303186,-888.247130,-8586.388927,229.828649
2982.303514,1332.370696,-11399.171507,0.000000
2982.303842,2960.823768,-13397.727550,-1302.362347
2982.304169,1702.473667,-11103.089130,-1302.362347
2982.304497,0.000000,-9992.780217,0.000000
2982.304824,518.144159,-11547.212695,383.047749
2982.305152,888.247130,-11991.336260,-383.047749
2982.305479,-1258.350101,-9030.512492,-612.876398
2982.305807,-2368.659014,-7179.997637,76.609550
2982.306134,74.020594,-8438.347739,0.000000
2982.306462,1406.391290,-8882.471304,-306.438199
2982.306789,-666.185348,-7031.956449,0.000000
2982.307117,-592.164754,-7402.059420,1608.800546
2982.307445,1702.473667,-10510.924376,229.828649
2982.307772,1702.473667,-11695.253884,-1608.800546
2982.308100,-592.164754,-10658.965565,-842.705048
2982.308427,-296.082377,-9696.697840,0.000000
2982.308755,2368.659014,-11547.212695,-1072.533697
2982.309082,1850.514855,-11917.315666,-689.485948
2982.309410,-296.082377,-9548.656652,-229.828649
2982.309737,444.123565,-8586.388927,1302.362347
2982.310065,1258.350101,-10214.842000,306.438199
2982.310393,-74.020594,-10214.842000,-689.485948
2982.310720,-1850.514855,-7328.038826,-612.876398
2982.311048,-518.144159,-7772.162391,153.219100
2982.311375,888.247130,-9918.759623,0.000000
2982.311703,1110.308913,-9622.677246,-995.924147
2982.312030,-962.267725,-7105.977043,-153.219100
2982.312358,0.000000,-9400.615463,229.828649
2982.312685,1332.370696,-13027.624579,-766.095498
2982.313013,0.000000,-11843.295072,-1225.752797
2982.313341,-1702.473667,-7994.224174,0.000000
2982.313668,888.247130,-9622.677246,0.000000
2982.313996,2368.659014,-11695.253884,612.876398
2982.314323,962.267725,-10140.821405,1302.362347
2982.314651,-370.102971,-6809.894666,1225.752797
2982.314978,1406.391290,-7994.224174,0.000000
2982.315306,740.205942,-11177.109724,-842.705048
2982.315633,-2294.638420,-10436.903782,-229.828649
2982.315961,-2368.659014,-8808.450710,153.219100
2982.316288,740.205942,-10214.842000,-919.314598
2982.316616,1184.329507,-11621.233289,-842.705048
2982.316944,148.041188,-9548.656652,-612.876398
2982.317271,444.123565,-9326.594869,612.876398
2982.317599,2072.576638,-11251.130318,1072.533697
2982.317926,592.164754,-11399.171507,0.000000
2982.318254,-2220.617826,-8290.306550,229.828649
2982.318581,-2368.659014,-6883.915261,689.485948
2982.318909,-148.041188,-8808.450710,383.047749
2982.319236,592.164754,-10066.800811,-612.876398
2982.319564,0.000000,-9030.512492,-229.828649
2982.319892,1924.535449,-8956.491898,-153.219100
2982.320219,3478.967927,-10732.986159,-1149.143247
2982.320547,1628.453072,-11917.315666,-766.095498
2982.320874,-296.082377,-10066.800811,-383.047749
2982.321202,1110.308913,-9326.594869,-1532.190996
2982.321529,2886.803174,-11843.295072,-1532.190996
2982.321857,962.267725,-11325.150913,-229.828649
2982.322184,-814.226536,-8290.306550,1302.362347
2982.322512,148.041188,-9548.656652,1072.533697
2982.322839,0.000000,-11103.089130,-306.438199
2982.323167,-2368.659014,-8216.285956,-1532.190996
2982.323495,-3404.947333,-5773.606348,-459.657299
2982.323822,-1036.288319,-7328.038826,-766.095498
2982.324150,1998.556043,-10066.800811,-919.314598
2982.324477,1924.535449,-10510.924376,153.219100
2982.324805,2368.659014,-10362.883188,1532.190996
2982.325132,4959.379811,-11695.253884,153.219100
2982.325460,4145.153275,-12805.562797,-1149.143247
2982.325787,-1110.308913,-11103.089130,-1378.971896
2982.326115,-1776.494261,-9844.739029,-1608.800546
2982.326443,592.164754,-9844.739029,-1991.848295
2982.326770,518.144159,-9992.780217,-459.657299
2982.327098,-1036.288319,-7476.080014,1149.143247
2982.327425,-1332.370696,-7105.977043,1685.410096
2982.327753,222.061783,-10288.862594,1608.800546
2982.328080,0.000000,-9474.636058,-383.047749
2982.328408,-1924.535449,-6513.812290,153.219100
2982.328735,-1406.391290,-6661.853478,766.095498
2982.329063,1702.473667,-9252.574275,76.609550
2982.329390,2664.741391,-11547.212695,153.219100
2982.329718,2146.597232,-10807.006753,1072.533697
2982.330046,3108.864956,-10510.924376,-689.485948
2982.330373,2886.803174,-11769.274478,-1915.238745
2982.330701,-962.267725,-11991.336260,-1838.629195
2982.331028,-3775.050304,-9770.718434,-1378.971896
2982.331356,-2072.576638,-8956.491898,-1302.362347
2982.331683,222.061783,-9622.677246,-842.705048
2982.332011,-370.102971,-7550.100608,766.095498
2982.332338,-1924.535449,-6587.832884,2374.896044
2982.332666,-666.185348,-9252.574275,2451.505594
2982.332994,0.000000,-9548.656652,536.266849
2982.333321,-1110.308913,-7772.162391,-995.924147
2982.333649,-1776.494261,-7031.956449,-306.438199
2982.333976,1406.391290,-9326.594869,-766.095498
2982.334304,3478.967927,-13101.645173,-1072.533697
2982.334631,1406.391290,-13693.809927,-306.438199
2982.334959,222.061783,-11177.109724,-306.438199
2982.335286,1776.494261,-12879.583391,-2681.334243
2982.335614,0.000000,-13175.665768,-3447.429741
2982.335941,-2812.782580,-10140.821405,-2451.505594
2982.336269,-1998.556043,-8586.388927,-919.314598
2982.336597,814.226536,-9474.636058,612.876398
2982.336924,1776.494261,-8586.388927,1149.143247
2982.337252,296.082377,-6291.750507,1838.629195
2982.337579,-1480.411884,-6661.853478,2374.896044
2982.337907,-814.226536,-9474.636058,842.705048
2982.338234,-740.205942,-8882.471304,-1685.410096
2982.338562,-1776.494261,-7772.162391,-2068.457845
2982.338889,370.102971,-9400.615463,-459.657299
2982.339217,3701.029710,-12509.480420,229.828649
2982.339545,3775.050304,-14137.933492,0.000000
2982.339872,2812.782580,-11991.336260,306.438199
2982.340200,2516.700203,-10807.006753,153.219100
2982.340527,1628.453072,-10732.986159,-842.705048
2982.340855,-1110.308913,-8882.471304,-229.828649
2982.341182,-2368.659014,-6217.729913,383.047749
2982.341510,-592.164754,-6809.894666,612.876398
2982.341837,1110.308913,-7772.162391,995.924147
2982.342165,888.247130,-6883.915261,1455.581446
2982.342492,-518.144159,-6513.812290,1072.533697
2982.342820,518.144159,-10066.800811,536.266849
2982.343148,1036.288319,-11621.233289,-842.705048
2982.343475,0.000000,-9548.656652,-1838.629195
2982.343803,814.226536,-9696.697840,-995.924147
2982.344130,3256.906145,-11917.315666,-306.438199
2982.344458,3775.050304,-13101.645173,612.876398
2982.344785,1406.391290,-11917.315666,919.314598
2982.345113,666.185348,-9844.739029,306.438199
2982.345440,1258.350101,-10584.944971,-1072.533697
2982.345768,-296.082377,-11325.150913,-1072.533697
2982.346096,-2368.659014,-8660.409521,-612.876398
2982.346423,-1850.514855,-6513.812290,-766.095498
2982.346751,518.144159,-8438.347739,-76.609550
2982.347078,0.000000,-9400.615463,306.438199
2982.347406,-1332.370696,-8512.368333,689.485948
2982.347733,-444.123565,-9696.697840,76.609550
2982.348061,1110.308913,-11917.315666,-1838.629195
2982.348388,222.061783,-11621.233289,-2987.772442
2982.348716,-518.144159,-8956.491898,-919.314598
2982.349043,0.000000,-9400.615463,612.876398
2982.349371,1924.535449,-12731.542202,919.314598
2982.349699,148.041188,-11991.336260,383.047749
2982.350026,-1480.411884,-8808.450710,-536.266849
2982.350354,-814.226536,-8808.450710,-842.705048
2982.350681,-666.185348,-10881.027347,-1302.362347
2982.351009,-2146.597232,-10066.800811,76.609550
2982.351336,-1406.391290,-7476.080014,-229.828649
2982.351664,740.205942,-8216.285956,-459.657299
2982.351991,2368.659014,-9474.636058,-689.485948
2982.352319,2072.576638,-8512.368333,0.000000
2982.352647,-222.061783,-7550.100608,612.876398
2982.352974,-370.102971,-9844.739029,0.000000
2982.353302,814.226536,-11843.295072,-1378.971896
2982.353629,-740.205942,-9622.677246,-1225.752797
2982.353957,-1184.329507,-8660.409521,76.609550
2982.354284,1258.350101,-11251.130318,0.000000
2982.354612,1628.453072,-12509.480420,383.047749
2982.354939,370.102971,-10066.800811,459.657299
2982.355267,444.123565,-7772.162391,153.219100
2982.355594,888.247130,-8216.285956,-306.438199
2982.355922,-296.082377,-10214.842000,536.266849
2982.356250,-666.185348,-9400.615463,153.219100
2982.356577,888.247130,-8512.368333,-383.047749
2982.356905,2812.782580,-9992.780217,-766.095498
2982.357232,2590.720797,-9400.615463,-536.266849
2982.357560,222.061783,-9474.636058,-536.266849
2982.357887,0.000000,-11473.192101,-383.047749
2982.358215,666.185348,-12065.356855,-1378.971896
2982.358542,0.000000,-9622.677246,-2145.067394
2982.358870,-1332.370696,-7105.977043,0.000000
2982.359198,0.000000,-9104.533087,1685.410096
2982.359525,2220.617826,-11695.253884,1991.848295
2982.359853,740.205942,-10510.924376,1149.143247
2982.360180,814.226536,-8956.491898,-153.219100
2982.360508,1702.473667,-9770.718434,-1532.190996
2982.360835,1184.329507,-11029.068536,-995.924147
2982.361163,-148.041188,-11029.068536,-229.828649
2982.361490,-296.082377,-10955.047942,-306.438199
2982.361818,2368.659014,-9178.553681,-1149.143247
2982.362146,2664.741391,-9844.739029,-1302.362347
2982.362473,666.185348,-9474.636058,153.219100
2982.362801,-1998.556043,-7550.100608,1762.019645
2982.363128,-222.061783,-9326.594869,612.876398
2982.363456,-888.247130,-9474.636058,0.000000
2982.363783,-2590.720797,-6883.915261,0.000000
2982.364111,-2294.638420,-5181.441594,766.095498
2982.364438,-518.144159,-9400.615463,1915.238745
2982.364766,740.205942,-12361.439231,-612.876398
2982.365093,1332.370696,-10288.862594,-1685.410096
2982.365421,1258.350101,-9104.533087,-1302.362347
2982.365749,2442.679609,-12139.377449,-919.314598
2982.366076,2072.576638,-13989.892304,-153.219100
2982.366404,666.185348,-10510.924376,-842.705048
2982.366731,296.082377,-8512.368333,0.000000
2982.367059,666.185348,-9770.718434,-1149.143247
2982.367386,-1702.473667,-8808.450710,0.000000
2982.367714,-2738.761985,-6883.915261,0.000000
2982.368041,-2146.597232,-7920.203579,-459.657299
2982.368369,-1332.370696,-10658.965565,0.000000
2982.368697,-740.205942,-8512.368333,536.266849
2982.369024,-666.185348,-7254.018232,153.219100
2982.369352,-296.082377,-9030.512492,1072.533697
2982.369679,1702.473667,-12139.377449,842.705048
2982.370007,1998.556043,-12509.480420,-306.438199
2982.370334,1110.308913,-10214.842000,-612.876398
2982.370662,2072.576638,-10214.842000,-1378.971896
2982.370990,1850.514855,-12361.439231,-919.314598
2982.371317,0.000000,-12657.521608,-919.314598
2982.371645,0.000000,-9992.780217,-1149.143247
2982.371972,296.082377,-8290.306550,-1072.533697
2982.372300,0.000000,-8586.388927,-383.047749
2982.372627,-1184.329507,-7254.018232,229.828649
2982.372955,-1184.329507,-6291.750507,1225.752797
2982.373283,74.020594,-7772.162391,1225.752797
2982.373610,1036.288319,-8586.388927,1378.971896
2982.373938,148.041188,-6217.729913,1532.190996
2982.374265,0.000000,-7105.977043,1532.190996
2982.374593,2442.679609,-12213.398043,153.219100
2982.374920,3182.885551,-14434.015869,-1532.190996
2982.375248,1924.535449,-11991.336260,-1915.238745
2982.375576,1258.350101,-9770.718434,-1685.410096
2982.375903,2368.659014,-11917.315666,-612.876398
2982.376231,1110.308913,-13841.851115,-766.095498
2982.376558,-1110.308913,-10362.883188,-612.876398
2982.376886,-814.226536,-7698.141797,-306.438199
2982.377213,1036.288319,-7994.224174,-229.828649
2982.377541,444.123565,-7179.997637,1072.533697
2982.377869,-1258.350101,-5847.626942,2528.115143
2982.378196,-148.041188,-7402.059420,2221.676944
2982.378524,1332.370696,-9030.512492,-306.438199
2982.378851,518.144159,-8290.306550,-995.924147
2982.379179,-740.205942,-9178.553681,-689.485948
2982.379506,666.185348,-11769.274478,-536.266849
2982.379834,2516.700203,-14582.057057,-1608.800546
2982.380162,2368.659014,-14582.057057,-842.705048
2982.380489,1184.329507,-11695.253884,-536.266849
2982.380817,1036.288319,-10066.800811,-919.314598
2982.381144,0.000000,-11769.274478,0.000000
2982.381472,-3182.885551,-9252.574275,-229.828649
2982.381799,-3552.988522,-5847.626942,-612.876398
2982.382127,-1776.494261,-5995.668130,-536.266849
2982.382455,-814.226536,-7624.121203,919.314598
2982.382782,-1332.370696,-7031.956449,2451.505594
2982.383110,-592.164754,-7254.018232,1378.971896
2982.383437,1406.391290,-10214.842000,-229.828649
2982.383765,1850.514855,-11621.233289,-2298.286494
2982.384092,370.102971,-9474.636058,-1762.019645
2982.384420,592.164754,-9622.677246,-459.657299
2982.384748,2590.720797,-11547.212695,-383.047749
2982.385075,3256.906145,-13397.727550,-612.876398
2982.385403,518.144159,-11325.150913,919.314598
2982.385730,-222.061783,-9548.656652,919.314598
2982.386058,-370.102971,-11103.089130,-306.438199
2982.386385,-1850.514855,-11769.274478,-1378.971896
2982.386713,-4293.194464,-7994.224174,-1532.190996
2982.387041,-2368.659014,-5625.565159,-1378.971896
2982.387368,-222.061783,-7179.997637,153.219100
2982.387696,666.185348,-8660.409521,995.924147
2982.388023,0.000000,-6661.853478,1991.848295
2982.388351,1110.308913,-7698.141797,229.828649
2982.388678,2516.700203,-11473.192101,-689.485948
2982.389006,1924.535449,-10955.047942,-995.924147
2982.389334,518.144159,-9400.615463,842.705048
2982.389661,1998.556043,-11177.109724,536.266849
2982.389989,3108.864956,-12879.583391,-919.314598
2982.390316,1776.494261,-12065.356855,-1225.752797
2982.390644,-148.041188,-8586.388927,0.000000
2982.390971,370.102971,-9622.677246,-306.438199
2982.391299,74.020594,-12213.398043,-153.219100
2982.391627,-2072.576638,-10066.800811,459.657299
2982.391954,-1998.556043,-6513.812290,306.438199
2982.392282,518.144159,-7624.121203,-612.876398
2982.392609,1554.432478,-9178.553681,306.438199
2982.392937,962.267725,-8956.491898,459.657299
2982.393264,1480.411884,-8882.471304,536.266849
2982.393592,2738.761985,-10288.862594,-536.266849
2982.393920,2146.597232,-10955.047942,-1532.190996
2982.394247,-592.164754,-9770.718434,229.828649
2982.394575,-1480.411884,-8808.450710,0.000000
2982.394902,148.041188,-10807.006753,-919.314598
2982.395230,444.123565,-11177.109724,-612.876398
2982.395557,-444.123565,-9400.615463,229.828649
2982.395885,296.082377,-8364.327145,995.924147
2982.396213,666.185348,-10436.903782,919.314598
2982.396540,-740.205942,-10584.944971,612.876398
2982.396868,-1480.411884,-7550.100608,229.828649
2982.397195,0.000000,-6661.853478,-766.095498
2982.397523,1628.453072,-10362.883188,-1762.019645
2982.397850,1702.473667,-10955.047942,-1225.752797
2982.398178,1036.288319,-9178.553681,0.000000
2982.398506,666.185348,-10658.965565,0.000000
2982.398833,740.205942,-11843.295072,0.000000
2982.399161,-2590.720797,-7994.224174,-842.705048
2982.399488,-4071.132681,-7105.977043,-459.657299
2982.399816,-1332.370696,-9252.574275,-1302.362347
2982.400143,1480.411884,-10584.944971,-1455.581446
2982.400471,444.123565,-9770.718434,1225.752797
2982.400799,518.144159,-8882.471304,2757.943793
2982.401126,1850.514855,-9622.677246,1762.019645
2982.401454,1702.473667,-12509.480420,-919.314598
2982.401781,-1184.329507,-10658.965565,-1378.971896
2982.402109,-814.226536,-8882.471304,-2298.286494
2982.402436,1554.432478,-9770.718434,-2145.067394
2982.402764,2072.576638,-11399.171507,-766.095498
2982.403092,518.144159,-9992.780217,1072.533697
2982.403419,444.123565,-9696.697840,689.485948
2982.403747,962.267725,-9844.739029,919.314598
2982.404074,-296.082377,-8364.327145,0.000000
2982.404402,-2886.803174,-5699.585753,-153.219100
2982.404729,-2220.617826,-5699.585753,383.047749
2982.405057,296.082377,-8660.409521,689.485948
2982.405385,1406.391290,-10214.842000,1455.581446
2982.405712,740.205942,-9252.574275,1608.800546
2982.406040,1702.473667,-9548.656652,766.095498
2982.406367,2738.761985,-14211.954086,-1915.238745
2982.406695,1258.350101,-14137.933492,-2145.067394
2982.407022,0.000000,-10436.903782,-1455.581446
2982.407350,1406.391290,-9474.636058,-1378.971896
2982.407677,2220.617826,-10881.027347,-842.705048
2982.408005,962.267725,-9474.636058,229.828649
2982.408333,-518.144159,-7846.182985,1225.752797
2982.408660,-222.061783,-8438.347739,383.047749
2982.408988,-666.185348,-8586.388927,153.219100
2982.409315,-1850.514855,-7031.956449,-306.438199
2982.409643,-2590.720797,-6069.688724,1225.752797
2982.409970,148.041188,-8882.471304,1532.190996
2982.410298,3552.988522,-11029.068536,0.000000
2982.410626,2368.659014,-10955.047942,-536.266849
2982.410953,1332.370696,-11843.295072,0.000000
2982.411281,3034.844362,-13323.706956,-1072.533697
2982.411608,3330.926739,-14582.057057,-1532.190996
2982.411936,444.123565,-12953.603985,-612.876398
2982.412263,-592.164754,-9770.718434,76.609550
2982.412591,-370.102971,-9474.636058,-1072.533697
2982.412919,-888.247130,-8068.244768,-766.095498
2982.413246,-3034.844362,-6069.688724,-1302.362347
2982.413574,-4737.318029,-5699.585753,76.609550
2982.413901,-3034.844362,-7105.977043,383.047749
2982.414229,-740.205942,-7328.038826,459.657299
2982.414556,-962.267725,-7476.080014,536.266849
2982.414884,814.226536,-9474.636058,2221.676944
2982.415212,4811.338623,-12361.439231,0.000000
2982.415539,4737.318029,-11991.336260,-1608.800546
2982.415867,2590.720797,-11695.253884,-1072.533697
2982.416194,2368.659014,-12731.542202,-1072.533697
2982.416522,1628.453072,-13397.727550,-1915.238745
2982.416849,-296.082377,-11843.295072,-1532.190996
2982.417177,-1776.494261,-8956.491898,-1225.752797
2982.417505,-1998.556043,-8956.491898,-459.657299
2982.417832,-888.247130,-9844.739029,0.000000
2982.418160,-1850.514855,-6883.915261,0.000000
2982.418487,-2368.659014,-4737.318029,76.609550
2982.418815,-1480.411884,-6957.935855,1149.143247
2982.419142,-592.164754,-9030.512492,1685.410096
2982.419470,-296.082377,-7846.182985,689.485948
2982.419798,444.123565,-7846.182985,612.876398
2982.420125,2368.659014,-10807.006753,-383.047749
2982.420453,3849.070898,-13767.830521,-995.924147
2982.420780,1998.556043,-12213.398043,-1225.752797
2982.421108,962.267725,-11103.089130,-1225.752797
2982.421435,1702.473667,-13249.686362,-1838.629195
2982.421763,148.041188,-13545.768739,-1608.800546
2982.422091,-962.267725,-9326.594869,-536.266849
2982.422418,-666.185348,-6513.812290,383.047749
2982.422746,1036.288319,-9770.718434,1149.143247
2982.423073,296.082377,-9696.697840,1455.581446
2982.423401,-1332.370696,-5255.462188,1072.533697
2982.423728,-888.247130,-5699.585753,383.047749
2982.424056,222.061783,-9474.636058,0.000000
2982.424384,592.164754,-10510.924376,-995.924147
2982.424711,1036.288319,-10066.800811,-306.438199
2982.425039,2886.803174,-10955.047942,153.219100
2982.425366,4515.256246,-13027.624579,-766.095498
2982.425694,2960.823768,-13767.830521,-612.876398
2982.426021,814.226536,-10955.047942,229.828649
2982.426349,-148.041188,-9178.553681,-612.876398
2982.426677,148.041188,-11399.171507,-995.924147
2982.427004,-1924.535449,-9474.636058,-306.438199
2982.427332,-2738.761985,-6069.688724,459.657299
2982.427659,-740.205942,-6957.935855,536.266849
2982.427987,-296.082377,-9992.780217,1149.143247
2982.428314,-74.020594,-8438.347739,919.314598
2982.428642,296.082377,-7105.977043,-229.828649
2982.428970,370.102971,-9474.636058,-153.219100
2982.429297,1184.329507,-10881.027347,-689.485948
2982.429625,1702.473667,-10436.903782,-995.924147
2982.429952,888.247130,-9474.636058,306.438199
2982.430280,1702.473667,-11177.109724,0.000000
2982.430607,888.247130,-13027.624579,-919.314598
2982.430935,-1702.473667,-10658.965565,0.000000
2982.431263,-1406.391290,-8512.368333,-1378.971896
2982.431590,148.041188,-10807.006753,-2911.162892
2982.431918,-1776.494261,-10732.986159,-612.876398
2982.432245,-1702.473667,-7994.224174,689.485948
2982.432573,148.041188,-7846.182985,766.095498
2982.432900,888.247130,-10510.924376,612.876398
2982.433228,1406.391290,-10881.027347,0.000000
2982.433556,444.123565,-6661.853478,0.000000
2982.433883,222.061783,-6957.935855,-459.657299
2982.434211,1480.411884,-11917.315666,0.000000
2982.434538,1258.350101,-11843.295072,383.047749
2982.434866,0.000000,-9178.553681,76.609550
2982.435193,518.144159,-9474.636058,-536.266849
2982.435521,1184.329507,-11325.150913,-612.876398
2982.435849,-518.144159,-9844.739029,0.000000
2982.436176,-1850.514855,-7624.121203,383.047749
2982.436504,-222.061783,-9252.574275,-229.828649
2982.436831,962.267725,-10955.047942,153.219100
2982.437159,148.041188,-9030.512492,995.924147
2982.437486,-518.144159,-7105.977043,1455.581446
2982.437814,666.185348,-8956.491898,995.924147
2982.438142,2146.597232,-10658.965565,-459.657299
2982.438469,740.205942,-8956.491898,-1608.800546
2982.438797,0.000000,-8364.327145,-1532.190996
2982.439124,1184.329507,-10955.047942,-689.485948
2982.439452,1406.391290,-12435.459826,0.000000
2982.439779,-296.082377,-9770.718434,153.219100
2982.440107,-518.144159,-8068.244768,-153.219100
2982.440435,740.205942,-9992.780217,0.000000
2982.440762,962.267725,-10881.027347,0.000000
2982.441090,-888.247130,-8586.388927,919.314598
2982.441417,370.102971,-7624.121203,689.485948
2982.441745,1998.556043,-10288.862594,153.219100
2982.442072,1406.391290,-10807.006753,0.000000
2982.442400,0.000000,-9030.512492,306.438199
2982.442728,-444.123565,-9770.718434,0.000000
2982.443055,1258.350101,-11399.171507,-1838.629195
2982.443383,1332.370696,-12287.418637,-2757.943793
2982.443710,592.164754,-10732.986159,-1149.143247
2982.444038,-148.041188,-9474.636058,459.657299
2982.444365,0.000000,-11769.274478,689.485948
2982.444693,-1554.432478,-8808.450710,689.485948
2982.445021,-3404.947333,-5181.441594,153.219100
2982.445348,-2146.597232,-5847.626942,0.000000
2982.445676,-814.226536,-9104.533087,383.047749
2982.446003,0.000000,-10214.842000,612.876398
2982.446331,962.267725,-9992.780217,689.485948
2982.446658,2368.659014,-11251.130318,229.828649
2982.446986,3182.885551,-13323.706956,-383.047749
2982.447314,1850.514855,-11843.295072,-2145.067394
2982.447641,814.226536,-9474.636058,-1915.238745
2982.447969,1924.535449,-10807.006753,-1838.629195
2982.448296,2442.679609,-11547.212695,-459.657299
2982.448624,666.185348,-8438.347739,459.657299
2982.448951,-518.144159,-7105.977043,1685.410096
2982.449279,-1184.329507,-8808.450710,1685.410096
2982.449607,-1924.535449,-8956.491898,306.438199
2982.449934,-2886.803174,-6587.832884,-1378.971896
2982.450262,-2738.761985,-6513.812290,-612.876398
2982.450589,0.000000,-9030.512492,536.266849
2982.450917,1702.473667,-10881.027347,306.438199
2982.451244,1702.473667,-10732.986159,383.047749
2982.451572,1850.514855,-10732.986159,0.000000
2982.451900,3034.844362,-12213.398043,-766.095498
2982.452227,2220.617826,-12139.377449,-1378.971896
2982.452555,74.020594,-10584.944971,-842.705048
2982.452882,814.226536,-9474.636058,-995.924147
2982.453210,1406.391290,-11325.150913,-842.705048
2982.453537,444.123565,-9474.636058,-459.657299
2982.453865,-1554.432478,-6069.688724,76.609550
2982.454193,-1184.329507,-7920.203579,0.000000
2982.454520,-888.247130,-10140.821405,0.000000
2982.454848,-1702.473667,-9326.594869,-229.828649
2982.455175,-1184.329507,-6735.874072,229.828649
2982.455503,740.205942,-8142.265362,842.705048
2982.455830,2516.700203,-12287.418637,689.485948
2982.456158,3108.864956,-13471.748144,0.000000
2982.456486,3182.885551,-11621.233289,-536.266849
2982.456813,4071.132681,-11473.192101,-1608.800546
2982.457141,2072.576638,-13027.624579,-1608.800546
2982.457468,-1332.370696,-11251.130318,-229.828649
2982.457796,-2220.617826,-8290.306550,-383.047749
2982.458123,-888.247130,-8808.450710,-1072.533697
2982.458451,-1036.288319,-9326.594869,-383.047749
2982.458779,-1924.535449,-6439.791695,76.609550
2982.459106,-1702.473667,-5625.565159,1915.238745
2982.459434,-888.247130,-8734.430116,1838.629195
2982.459761,-148.041188,-9030.512492,1072.533697
2982.460089,-444.123565,-7328.038826,766.095498
2982.460416,666.185348,-7772.162391,919.314598
2982.460744,3108.864956,-10807.006753,0.000000
2982.461072,3478.967927,-14211.954086,-536.266849
2982.461399,1628.453072,-12731.542202,0.000000
2982.461727,2294.638420,-11547.212695,-1532.190996
2982.462054,1110.308913,-11843.295072,-1608.800546
2982.462382,-2738.761985,-10510.924376,-536.266849
2982.462709,-4737.318029,-7994.224174,-766.095498
2982.463037,-2812.782580,-8068.244768,-1532.190996
2982.463365,370.102971,-9030.512492,-1532.190996
2982.463692,370.102971,-7328.038826,306.438199
2982.464020,-666.185348,-5329.482782,2757.943793
2982.464347,370.102971,-8068.244768,2528.115143
2982.464675,1702.473667,-11103.089130,306.438199
2982.465002,518.144159,-9844.739029,-1915.238745
2982.465330,0.000000,-9252.574275,-2221.676944
2982.465658,3256.906145,-11843.295072,-2221.676944
2982.465985,3552.988522,-13471.748144,-1608.800546
2982.466313,1628.453072,-14359.995275,-306.438199
2982.466640,1036.288319,-11991.336260,0.000000
2982.466968,1406.391290,-11177.109724,-1762.019645
2982.467295,-296.082377,-10510.924376,-1762.019645
2982.467623,-3330.926739,-7402.059420,0.000000
2982.467951,-3108.864956,-5847.626942,383.047749
2982.468278,296.082377,-7328.038826,0.000000
2982.468606,666.185348,-7772.162391,689.485948
2982.468933,-962.267725,-6439.791695,1838.629195
2982.469261,296.082377,-7328.038826,1915.238745
2982.469588,1406.391290,-11177.109724,612.876398
2982.469916,888.247130,-11769.274478,-1455.581446
2982.470244,814.226536,-10732.986159,-1149.143247
2982.470571,1850.514855,-10658.965565,-153.219100
2982.470899,3330.926739,-12731.542202,229.828649
2982.471226,2294.638420,-12879.583391,842.705048
2982.471554,0.000000,-9252.574275,995.924147
2982.471882,-370.102971,-7846.182985,-76.609550
2982.472209,-222.061783,-10140.821405,-536.266849
2982.472537,-2442.679609,-8216.285956,0.000000
2982.472865,-1924.535449,-5403.503377,995.924147
2982.473192,888.247130,-7179.997637,995.924147
2982.473520,2738.761985,-9622.677246,153.219100
2982.473847,2886.803174,-8290.306550,229.828649
2982.474175,1776.494261,-6587.832884,919.314598
2982.474503,148.041188,-10510.924376,1149.143247
2982.474830,1554.432478,-14211.954086,-689.485948
2982.475158,1554.432478,-12213.398043,-1378.971896
2982.475486,148.041188,-8734.430116,-842.705048
2982.475813,1258.350101,-11399.171507,0.000000
2982.476141,1406.391290,-14137.933492,-689.485948
2982.476468,-1406.391290,-10732.986159,-842.705048
2982.476796,-2738.761985,-6735.874072,-1378.971896
2982.477124,-1776.494261,-8216.285956,-1608.800546
2982.477451,-2146.597232,-9844.739029,-536.266849
2982.477779,-3034.844362,-8586.388927,919.314598
2982.478106,-222.061783,-7994.224174,919.314598
2982.478434,2516.700203,-10436.903782,76.609550
2982.478762,3849.070898,-11547.212695,-306.438199
2982.479089,1332.370696,-9474.636058,-536.266849
2982.479417,370.102971,-9400.615463,-1838.629195
2982.479745,444.123565,-11325.150913,-1838.629195
2982.480072,-370.102971,-10955.047942,-2528.115143
2982.480400,-2516.700203,-8290.306550,-995.924147
2982.480727,-1480.411884,-9400.615463,919.314598
2982.481055,0.000000,-12065.356855,1072.533697
2982.481383,-296.082377,-11325.150913,383.047749
2982.481710,-1332.370696,-8290.306550,-689.485948
2982.482038,-370.102971,-7772.162391,-536.266849
2982.482365,-296.082377,-9474.636058,919.314598
2982.482693,-814.226536,-8290.306550,766.095498
2982.483021,-518.144159,-6809.894666,766.095498
2982.483348,2072.576638,-9030.512492,0.000000
2982.483676,2442.679609,-10807.006753,-306.438199
2982.484004,1406.391290,-10362.883188,153.219100
2982.484331,0.000000,-8586.388927,229.828649
2982.484659,592.164754,-11695.253884,-766.095498
2982.484986,0.000000,-11769.274478,-1225.752797
2982.485314,-518.144159,-7994.224174,-1149.143247
2982.485642,-740.205942,-6735.874072,995.924147
2982.485969,1110.308913,-9918.759623,1608.800546
2982.486297,1258.350101,-11251.130318,1532.190996
2982.486624,148.041188,-8882.471304,612.876398
2982.486952,-370.102971,-6957.935855,0.000000
2982.487280,592.164754,-10584.944971,-536.266849
2982.487607,518.144159,-12583.501014,-689.485948
2982.487935,0.000000,-10881.027347,-1378.971896
2982.488263,1258.350101,-9770.718434,-1991.848295
2982.488590,3775.050304,-11843.295072,-1915.238745
2982.488918,2072.576638,-11399.171507,0.000000
2982.489245,-222.061783,-8364.327145,689.485948
2982.489573,-222.061783,-8290.306550,0.000000
2982.489901,74.020594,-10140.821405,-536.266849
2982.490228,-888.247130,-8364.327145,-536.266849
2982.490556,-2220.617826,-5699.585753,1072.533697
2982.490883,-592.164754,-7105.977043,1838.629195
2982.491211,1036.288319,-10881.027347,689.485948
2982.491539,666.185348,-11325.150913,-229.828649
2982.491866,592.164754,-9696.697840,-459.657299
2982.492194,2146.597232,-10955.047942,-612.876398
2982.492522,2738.761985,-13471.748144,-689.485948
2982.492849,1110.308913,-13693.809927,-229.828649
2982.493177,-222.061783,-9400.615463,-306.438199
2982.493504,1332.370696,-8956.491898,-1149.143247
2982.493832,814.226536,-9474.636058,-536.266849
2982.494160,-1776.494261,-8290.306550,995.924147
2982.494487,-1924.535449,-6809.894666,1072.533697
2982.494815,-814.226536,-8142.265362,153.219100
2982.495143,-888.247130,-8586.388927,76.609550
2982.495470,-2368.659014,-5625.565159,612.876398
2982.495798,-2368.659014,-5551.544565,995.924147
2982.496125,962.267725,-10584.944971,1072.533697
2982.496453,2072.576638,-12657.521608,0.000000
2982.496781,1036.288319,-11325.150913,-229.828649
2982.497108,1554.432478,-10658.965565,-306.438199
2982.497436,2368.659014,-13397.727550,-842.705048
2982.497763,518.144159,-14211.954086,-229.828649
2982.498091,-1258.350101,-10510.924376,-1225.752797
2982.498419,0.000000,-9622.677246,-2374.896044
2982.498746,888.247130,-10362.883188,-1532.190996
2982.499074,0.000000,-7772.162391,-383.047749
2982.499402,-1850.514855,-5403.503377,842.705048
2982.499729,-1850.514855,-7179.997637,1838.629195
2982.500057,0.000000,-9400.615463,995.924147
2982.500384,-592.164754,-6291.750507,0.000000
2982.500712,-814.226536,-5921.647536,459.657299
2982.501040,1258.350101,-8956.491898,1149.143247
2982.501367,3923.091493,-13619.789333,76.609550
2982.501695,3627.009116,-14804.118840,-689.485948
2982.502022,3108.864956,-12435.459826,-1149.143247
2982.502350,2368.659014,-12213.398043,-2145.067394
2982.502678,666.185348,-14359.995275,-2451.505594
2982.503005,-2368.659014,-11177.109724,-1608.800546
2982.503333,-2294.638420,-7846.182985,-2221.676944
2982.503661,-592.164754,-8142.265362,-995.924147
2982.503988,-518.144159,-8956.491898,1302.362347
2982.504316,-1332.370696,-6069.688724,2528.115143
2982.504643,-1406.391290,-4589.276840,1838.629195
2982.504971,518.144159,-8808.450710,536.266849
2982.505299,1184.329507,-10436.903782,-306.438199
2982.505626,1480.411884,-8586.388927,-229.828649
2982.505954,2146.597232,-7994.224174,1072.533697
2982.506281,3552.988522,-12139.377449,536.266849
2982.506609,3478.967927,-15322.262999,-306.438199
2982.506937,1924.535449,-12879.583391,-153.219100
2982.507264,1110.308913,-10732.986159,-842.705048
2982.507592,1258.350101,-11695.253884,-1378.971896
2982.507920,-666.185348,-11177.109724,-1072.533697
2982.508247,-2146.597232,-7105.977043,229.828649
2982.508575,-1406.391290,-5033.400406,383.047749
2982.508902,-444.123565,-8216.285956,766.095498
2982.509230,-1036.288319,-9104.533087,1915.238745
2982.509558,-666.185348,-5551.544565,1685.410096
2982.509885,1036.288319,-7402.059420,-229.828649
2982.510213,3330.926739,-11769.274478,-459.657299
2982.510540,2294.638420,-10362.883188,-306.438199
2982.510868,1406.391290,-9252.574275,1072.533697
2982.511196,3034.844362,-11029.068536,-766.095498
2982.511523,3256.906145,-13693.809927,-612.876398
2982.511851,814.226536,-13323.706956,-919.314598
2982.512179,-1110.308913,-9474.636058,-383.047749
2982.512506,-962.267725,-10288.862594,-766.095498
2982.512834,-2220.617826,-11621.233289,-612.876398
2982.513161,-4367.215058,-9696.697840,0.000000
2982.513489,-3330.926739,-7179.997637,0.000000
2982.513817,-1554.432478,-7031.956449,-1685.410096
2982.514144,-518.144159,-9400.615463,-1378.971896
2982.514472,-1850.514855,-7105.977043,0.000000
2982.514800,-592.164754,-6883.915261,229.828649
2982.515127,1776.494261,-10732.986159,76.609550
2982.515455,2664.741391,-12731.542202,0.000000
2982.515782,666.185348,-9844.739029,76.609550
2982.516110,1406.391290,-10288.862594,76.609550
2982.516438,2368.659014,-12509.480420,-1455.581446
2982.516765,814.226536,-12139.377449,-1455.581446
2982.517093,-2072.576638,-9770.718434,-229.828649
2982.517420,-1776.494261,-9252.574275,0.000000
2982.517748,-1406.391290,-9844.739029,-536.266849
2982.518076,-1554.432478,-9104.533087,-306.438199
2982.518403,-2738.761985,-6809.894666,536.266849
2982.518731,-962.267725,-7254.018232,1378.971896
2982.519059,1406.391290,-8956.491898,1149.143247
2982.519386,1628.453072,-9400.615463,229.828649
2982.519714,1332.370696,-8068.244768,306.438199
2982.520041,2886.803174,-8660.409521,0.000000
2982.520369,3404.947333,-12139.377449,76.609550
2982.520697,370.102971,-11029.068536,612.876398
2982.521024,-444.123565,-8660.409521,229.828649
2982.521352,518.144159,-9400.615463,-306.438199
2982.521679,518.144159,-11251.130318,-842.705048
2982.522007,-444.123565,-10066.800811,-689.485948
2982.522335,-962.267725,-8290.306550,612.876398
2982.522662,0.000000,-9474.636058,842.705048
2982.522990,370.102971,-10881.027347,766.095498
2982.523318,-370.102971,-9474.636058,689.485948
2982.523645,74.020594,-7402.059420,0.000000
2982.523973,2072.576638,-9474.636058,-306.438199
2982.524300,2220.617826,-10140.821405,-766.095498
2982.524628,592.164754,-9474.636058,-766.095498
2982.524956,518.144159,-10436.903782,0.000000
2982.525283,1332.370696,-10658.965565,-1915.238745
2982.525611,148.041188,-11177.109724,-1225.752797
2982.525938,-1184.329507,-9474.636058,-459.657299
2982.526266,-592.164754,-8882.471304,0.000000
2982.526594,1628.453072,-10362.883188,-306.438199
2982.526921,1184.329507,-9770.718434,76.609550
2982.527249,222.061783,-7846.182985,766.095498
2982.527577,1628.453072,-9252.574275,1685.410096
2982.527904,1702.473667,-10436.903782,842.705048
2982.528232,-1258.350101,-10732.986159,153.219100
2982.528559,-2516.700203,-10362.883188,-1378.971896
2982.528887,0.000000,-10732.986159,-2604.724693
2982.529215,2072.576638,-12213.398043,-2987.772442
2982.529542,1480.411884,-11251.130318,-995.924147
2982.529870,444.123565,-9918.759623,536.266849
2982.530198,1184.329507,-10214.842000,1149.143247
2982.530525,518.144159,-8882.471304,689.485948
2982.530853,-1776.494261,-6513.812290,459.657299
2982.531180,-2886.803174,-5107.421000,1455.581446
2982.531508,-370.102971,-7254.018232,919.314598
2982.531836,1110.308913,-8660.409521,229.828649
2982.532163,666.185348,-8216.285956,612.876398
2982.532491,962.267725,-8660.409521,1225.752797
2982.532818,2146.597232,-12213.398043,612.876398
2982.533146,1406.391290,-13471.748144,-1378.971896
2982.533474,-888.247130,-11547.212695,-2145.067394
2982.533801,74.020594,-10214.842000,-1532.190996
2982.534129,2812.782580,-11547.212695,-1532.190996
2982.534457,1850.514855,-10288.862594,766.095498
2982.534784,-814.226536,-7105.977043,2374.896044
2982.535112,-1406.391290,-7105.977043,1225.752797
2982.535439,-1184.329507,-8660.409521,229.828649
2982.535767,-2664.741391,-7328.038826,-995.924147
2982.536095,-3775.050304,-5551.544565,-766.095498
2982.536422,-814.226536,-6735.874072,-383.047749
2982.536750,3034.844362,-11621.233289,-229.828649
2982.537077,3034.844362,-12287.418637,0.000000
2982.537405,2960.823768,-10362.883188,536.266849
2982.537733,3330.926739,-11843.295072,153.219100
2982.538060,2886.803174,-14804.118840,-1072.533697
2982.538388,0.000000,-12953.603985,-1225.752797
2982.538716,-1628.453072,-8660.409521,-766.095498
2982.539043,-370.102971,-8290.306550,-766.095498
2982.539371,74.020594,-11103.089130,-612.876398
2982.539698,-2368.659014,-9622.677246,0.000000
2982.540026,-3256.906145,-6513.812290,-383.047749
2982.540354,-1924.535449,-7624.121203,-1225.752797
2982.540681,-370.102971,-9474.636058,-995.924147
2982.541009,-1036.288319,-7994.224174,76.609550
2982.541336,444.123565,-6883.915261,1991.848295
2982.541664,3775.050304,-8882.471304,1532.190996
2982.541992,5699.585753,-12509.480420,76.609550
2982.542319,3701.029710,-12361.439231,612.876398
2982.542647,1924.535449,-10807.006753,536.266849
2982.542975,1924.535449,-11103.089130,-1225.752797
2982.543302,0.000000,-12879.583391,-1838.629195
2982.543630,-2960.823768,-10807.006753,-1225.752797
2982.543957,-1924.535449,-8882.471304,0.000000
2982.544285,148.041188,-9326.594869,-689.485948
2982.544613,0.000000,-9622.677246,-306.438199
2982.544940,-1850.514855,-7105.977043,536.266849
2982.545268,-2294.638420,-5625.565159,1455.581446
2982.545595,-740.205942,-7254.018232,842.705048
2982.545923,74.020594,-7772.162391,76.609550
2982.546251,-518.144159,-7031.956449,1149.143247
2982.546578,1776.494261,-9178.553681,995.924147
2982.546906,4219.173869,-13619.789333,-766.095498
2982.547234,3775.050304,-14508.036463,-1455.581446
2982.547561,1554.432478,-11843.295072,-1608.800546
2982.547889,740.205942,-11621.233289,-1915.238745
2982.548216,-444.123565,-13101.645173,-1072.533697
2982.548544,-1850.514855,-10436.903782,-1149.143247
2982.548872,-3034.844362,-7402.059420,-995.924147
2982.549199,-592.164754,-8734.430116,536.266849
2982.549527,444.123565,-9770.718434,1532.190996
2982.549855,-444.123565,-7105.977043,1762.019645
2982.550182,-1702.473667,-5551.544565,995.924147
2982.550510,0.000000,-7994.224174,76.609550
2982.550837,1258.350101,-9918.759623,-919.314598
2982.551165,222.061783,-8882.471304,-1532.190996
2982.551493,1036.288319,-9104.533087,-459.657299
2982.551820,3849.070898,-12213.398043,-383.047749
2982.552148,3182.885551,-13619.789333,-536.266849
2982.552475,592.164754,-11991.336260,0.000000
2982.552803,0.000000,-9548.656652,0.000000
2982.553131,148.041188,-10288.862594,-995.924147
2982.553458,-1110.308913,-10658.965565,-229.828649
2982.553786,-1998.556043,-7550.100608,612.876398
2982.554114,-1702.473667,-6661.853478,1455.581446
2982.554441,0.000000,-8364.327145,1455.581446
2982.554769,-370.102971,-9474.636058,229.828649
2982.555096,-296.082377,-6957.935855,-306.438199
2982.555424,0.000000,-7402.059420,-766.095498
2982.555752,0.000000,-9844.739029,-1225.752797
2982.556079,888.247130,-11843.295072,-1072.533697
2982.556407,1554.432478,-10214.842000,-306.438199
2982.556734,2220.617826,-10140.821405,76.609550
2982.557062,2590.720797,-11991.336260,153.219100
2982.557390,1776.494261,-11991.336260,-306.438199
2982.557717,-370.102971,-8956.491898,689.485948
2982.558045,-444.123565,-9770.718434,-383.047749
2982.558373,-518.144159,-10955.047942,-1149.143247
2982.558700,-1406.391290,-9104.533087,-919.314598
2982.559028,-1628.453072,-7550.100608,0.000000
2982.559355,-666.185348,-8808.450710,689.485948
2982.559683,0.000000,-9622.677246,842.705048
2982.560011,-888.247130,-7994.224174,-612.876398
2982.560338,-666.185348,-7772.162391,-1149.143247
2982.560666,1480.411884,-10510.924376,-1302.362347
2982.560993,2368.659014,-11991.336260,-919.314598
2982.561321,1184.329507,-10584.944971,536.266849
2982.561649,1184.329507,-9400.615463,1149.143247
2982.561976,2442.679609,-10881.027347,-383.047749
2982.562304,1406.391290,-11917.315666,0.000000
2982.562632,-1036.288319,-9104.533087,459.657299
2982.562959,-740.205942,-6957.935855,-1302.362347
2982.563287,0.000000,-9548.656652,-689.485948
2982.563614,-370.102971,-10140.821405,0.000000
2982.563942,-888.247130,-8216.285956,1149.143247
2982.564270,962.267725,-7994.224174,842.705048
2982.564597,2368.659014,-10584.944971,-689.485948
2982.564925,1184.329507,-10288.862594,-612.876398
2982.565252,-370.102971,-6883.915261,-383.047749
2982.565580,0.000000,-8660.409521,-1225.752797
2982.565908,1036.288319,-12435.459826,-919.314598
2982.566235,0.000000,-10288.862594,-306.438199
2982.566563,-1184.329507,-7550.100608,306.438199
2982.566891,222.061783,-9474.636058,459.657299
2982.567218,1184.329507,-12509.480420,-919.314598
2982.567546,0.000000,-10140.821405,-842.705048
2982.567873,-888.247130,-7105.977043,-842.705048
2982.568201,1184.329507,-9400.615463,-995.924147
2982.568529,2442.679609,-11991.336260,0.000000
2982.568856,740.205942,-9474.636058,689.485948
2982.569184,0.000000,-7994.224174,1225.752797
2982.569512,1702.473667,-10881.027347,229.828649
2982.569839,2368.659014,-12731.542202,-842.705048
2982.570167,-222.061783,-9622.677246,-383.047749
2982.570494,-1036.288319,-7698.141797,-766.095498
2982.570822,-666.185348,-10436.903782,-1225.752797
2982.571150,-1776.494261,-12139.377449,-689.485948
2982.571477,-3256.906145,-8956.491898,459.657299
2982.571805,-962.267725,-7402.059420,0.000000
2982.572132,1480.411884,-9178.553681,229.828649
2982.572460,1332.370696,-10881.027347,1302.362347
2982.572787,222.061783,-9104.533087,1225.752797
2982.573115,1110.308913,-7772.162391,76.609550
2982.573442,1998.556043,-10288.862594,-1225.752797
2982.573770,1628.453072,-11621.233289,-1838.629195
2982.574097,-1480.411884,-9400.615463,-459.657299
2982.574425,0.000000,-9548.656652,0.000000
2982.574752,2886.803174,-12065.356855,-1608.800546
2982.575080,1258.350101,-11621.233289,-612.876398
2982.575407,-518.144159,-8734.430116,995.924147
2982.575735,-444.123565,-8216.285956,536.266849
2982.576062,-666.185348,-9178.553681,536.266849
2982.576390,-2368.659014,-7772.162391,0.000000
2982.576717,-3849.070898,-5773.606348,0.000000
2982.577045,-1554.432478,-7105.977043,383.047749
2982.577372,740.205942,-10362.883188,459.657299
2982.577700,740.205942,-11769.274478,-306.438199
2982.578027,1258.350101,-10807.006753,-995.924147
2982.578355,2812.782580,-12213.398043,-2221.676944
2982.578682,3627.009116,-13841.851115,-2681.334243
2982.579010,1258.350101,-11843.295072,-1991.848295
2982.579338,1036.288319,-10288.862594,-766.095498
2982.579665,2220.617826,-10362.883188,-306.438199
2982.579993,1332.370696,-10955.047942,0.000000
2982.580320,-1554.432478,-7772.162391,1378.971896
2982.580648,-2442.679609,-6069.688724,919.314598
2982.580975,-962.267725,-8216.285956,76.609550
2982.581303,-1184.329507,-9326.594869,-612.876398
2982.581630,-3404.947333,-7772.162391,-536.266849
2982.581958,-1554.432478,-7328.038826,-153.219100
2982.582285,2442.679609,-10658.965565,-766.095498
2982.582613,3997.112087,-13101.645173,-1149.143247
2982.582940,2664.741391,-11991.336260,0.000000
2982.583268,3330.926739,-10807.006753,459.657299
2982.583595,3849.070898,-12139.377449,-1455.581446
2982.583923,1184.329507,-12213.398043,-919.314598
2982.584250,-1702.473667,-8660.409521,229.828649
2982.584578,-814.226536,-7328.038826,153.219100
2982.584905,-518.144159,-8068.244768,536.266849
2982.585233,-1258.350101,-7328.038826,612.876398
2982.585560,-2072.576638,-5773.606348,1149.143247
2982.585888,-1776.494261,-7179.997637,1991.848295
2982.586215,-666.185348,-9400.615463,689.485948
2982.586543,-1036.288319,-8438.347739,-306.438199
2982.586870,-592.164754,-7550.100608,0.000000
2982.587198,2146.597232,-9178.553681,-383.047749
2982.587525,3775.050304,-12361.439231,-766.095498
2982.587853,2220.617826,-13027.624579,229.828649
2982.588180,2294.638420,-11843.295072,-306.438199
2982.588508,2886.803174,-12213.398043,-1838.629195
2982.588835,0.000000,-12139.377449,-2145.067394
2982.589163,-3849.070898,-9474.636058,-1225.752797
2982.589491,-2590.720797,-7624.121203,-1225.752797
2982.589818,0.000000,-8734.430116,-459.657299
2982.590146,592.164754,-8882.471304,1225.752797
2982.590473,-518.144159,-6735.874072,2068.457845
2982.590801,-1554.432478,-6883.915261,2451.505594
2982.591128,0.000000,-9400.615463,612.876398
2982.591456,-1036.288319,-10584.944971,-1455.581446
2982.591783,-2664.741391,-8660.409521,-2068.457845
2982.592111,0.000000,-9400.615463,-2451.505594
2982.592438,4293.194464,-13693.809927,-2528.115143
2982.592766,3923.091493,-15692.365970,-306.438199
2982.593093,2368.659014,-13249.686362,1149.143247
2982.593421,2220.617826,-10807.006753,0.000000
2982.593748,1406.391290,-11473.192101,-1455.581446
2982.594076,-1480.411884,-10510.924376,-689.485948
2982.594403,-4293.194464,-5625.565159,459.657299
2982.594731,-1924.535449,-4663.297435,536.266849
2982.595058,296.082377,-6957.935855,766.095498
2982.595386,-222.061783,-7031.956449,2374.896044
2982.595713,-888.247130,-6661.853478,3140.991542
2982.596041,814.226536,-8956.491898,1685.410096
2982.596368,1924.535449,-10436.903782,-1378.971896
2982.596696,888.247130,-9918.759623,-2451.505594
2982.597023,1332.370696,-9918.759623,-995.924147
2982.597351,2960.823768,-10584.944971,459.657299
2982.597678,3627.009116,-12435.459826,995.924147
2982.598006,1554.432478,-11325.150913,1762.019645
2982.598333,444.123565,-9770.718434,612.876398
2982.598661,518.144159,-10140.821405,-1302.362347
2982.598988,-1776.494261,-9474.636058,-1762.019645
2982.599316,-3849.070898,-7105.977043,-536.266849
2982.599644,-1924.535449,-7179.997637,-689.485948
2982.599971,592.164754,-8586.388927,-383.047749
2982.600299,1702.473667,-9178.553681,536.266849
2982.600626,1924.535449,-8364.327145,689.485948
2982.600954,2368.659014,-9474.636058,842.705048
2982.601281,3034.844362,-12435.459826,-612.876398
2982.601609,2220.617826,-11547.212695,-1302.362347
2982.601936,592.164754,-9030.512492,-766.095498
2982.602264,518.144159,-9474.636058,689.485948
2982.602591,888.247130,-12731.542202,612.876398
2982.602919,-1702.473667,-12213.398043,-306.438199
2982.603246,-2960.823768,-8734.430116,-1838.629195
2982.603574,-1776.494261,-9104.533087,-2834.553343
2982.603901,-962.267725,-10881.027347,-2451.505594
2982.604229,-1406.391290,-10584.944971,-612.876398
2982.604556,-518.144159,-8216.285956,536.266849
2982.604884,1776.494261,-7994.224174,612.876398
2982.605211,3256.906145,-10510.924376,459.657299
2982.605539,2368.659014,-8882.471304,1532.190996
2982.605866,222.061783,-6661.853478,1991.848295
2982.606194,0.000000,-8808.450710,306.438199
2982.606521,740.205942,-11843.295072,-1072.533697
2982.606849,-666.185348,-10066.800811,-766.095498
2982.607176,-2146.597232,-7846.182985,842.705048
2982.607504,-592.164754,-10066.800811,1072.533697
2982.607831,296.082377,-11769.274478,0.000000
2982.608159,-740.205942,-9770.718434,-612.876398
2982.608486,-1036.288319,-7772.162391,-229.828649
2982.608814,0.000000,-8586.388927,306.438199
2982.609142,518.144159,-11399.171507,1072.533697
2982.609469,0.000000,-9030.512492,919.314598
2982.609797,148.041188,-7402.059420,0.000000
2982.610124,2368.659014,-9696.697840,-689.485948
2982.610452,2220.617826,-11029.068536,-1762.019645
2982.610779,74.020594,-8956.491898,-306.438199
2982.611107,0.000000,-9252.574275,-919.314598
2982.611434,1332.370696,-11473.192101,-1608.800546
2982.611762,-370.102971,-11251.130318,-919.314598
2982.612089,-1850.514855,-8512.368333,153.219100
2982.612417,-1036.288319,-8734.430116,306.438199
2982.612744,148.041188,-10807.006753,1072.533697
2982.613072,296.082377,-10584.944971,536.266849
2982.613399,222.061783,-8956.491898,766.095498
2982.613727,962.267725,-9696.697840,-383.047749
2982.614054,1702.473667,-11103.089130,-1685.410096
2982.614382,-222.061783,-11029.068536,-1608.800546
2982.614709,0.000000,-9252.574275,-1225.752797
2982.615037,2072.576638,-9326.594869,-1685.410096
2982.615364,2960.823768,-11621.233289,-1378.971896
2982.615692,888.247130,-9622.677246,153.219100
2982.616019,-370.102971,-8068.244768,383.047749
2982.616347,0.000000,-8956.491898,766.095498
2982.616674,-666.185348,-8660.409521,919.314598
2982.617002,-1776.494261,-6069.688724,1225.752797
2982.617329,-1554.432478,-5625.565159,1455.581446
2982.617657,148.041188,-8808.450710,919.314598
2982.617984,1554.432478,-11843.295072,995.924147
2982.618312,1332.370696,-10658.965565,0.000000
2982.618639,592.164754,-9474.636058,-612.876398
2982.618967,1110.308913,-12139.377449,-1838.629195
2982.619295,1258.350101,-13397.727550,-2374.896044
2982.619622,148.041188,-11325.150913,-1915.238745
2982.619950,1184.329507,-8142.265362,-1455.581446
2982.620277,1480.411884,-9918.759623,-383.047749
2982.620605,740.205942,-9474.636058,1302.362347
2982.620932,-1406.391290,-5921.647536,1838.629195
2982.621260,-1924.535449,-6143.709319,1072.533697
2982.621587,-1332.370696,-7994.224174,-612.876398
2982.621915,-1258.350101,-8438.347739,-612.876398
2982.622242,-2886.803174,-6809.894666,842.705048
2982.622570,-2368.659014,-8438.347739,995.924147
2982.622897,0.000000,-13027.624579,-689.485948
2982.623225,1702.473667,-14137.933492,-2528.115143
2982.623552,2220.617826,-11843.295072,-2987.772442
2982.623880,3478.967927,-12509.480420,-1685.410096
2982.624207,4441.235652,-13619.789333,-689.485948
2982.624535,1036.288319,-12509.480420,612.876398
2982.624862,222.061783,-9844.739029,76.609550
2982.625190,814.226536,-8660.409521,-995.924147
2982.625517,-296.082377,-8660.409521,-1302.362347
2982.625845,-2738.761985,-6587.832884,76.609550
2982.626172,-2812.782580,-4737.318029,306.438199
2982.626500,-1110.308913,-7402.059420,76.609550
2982.626827,592.164754,-9770.718434,919.314598
2982.627155,-592.164754,-7846.182985,2221.676944
2982.627482,444.123565,-7772.162391,1685.410096
2982.627810,3627.009116,-11547.212695,459.657299
2982.628137,4367.215058,-13027.624579,-842.705048
2982.628465,2146.597232,-11177.109724,-459.657299
2982.628792,1998.556043,-10362.883188,0.000000
2982.629120,2442.679609,-11769.274478,0.000000
2982.629448,518.144159,-12657.521608,-153.219100
2982.629775,-2072.576638,-9844.739029,-766.095498
2982.630103,-2220.617826,-7920.203579,-1455.581446
2982.630430,-1332.370696,-8438.347739,-1149.143247
2982.630758,-2516.700203,-7105.977043,-306.438199
2982.631085,-2294.638420,-5033.400406,459.657299
2982.631413,-1036.288319,-6069.688724,2068.457845
2982.631740,1702.473667,-8364.327145,1762.019645
2982.632068,1924.535449,-9770.718434,689.485948
2982.632395,1776.494261,-9548.656652,689.485948
2982.632723,3034.844362,-10732.986159,229.828649
2982.633050,3997.112087,-13249.686362,-536.266849
2982.633378,2738.761985,-13397.727550,383.047749
2982.633705,518.144159,-10584.944971,-306.438199
2982.634033,0.000000,-10807.006753,-1532.190996
2982.634360,-1406.391290,-13397.727550,-2374.896044
2982.634688,-3775.050304,-11325.150913,-2374.896044
2982.635015,-3478.967927,-7698.141797,-1455.581446
2982.635343,-888.247130,-7772.162391,0.000000
2982.635670,370.102971,-8882.471304,1762.019645
2982.635998,296.082377,-7846.182985,1685.410096
2982.636325,592.164754,-5995.668130,766.095498
2982.636653,1702.473667,-8364.327145,0.000000
2982.636980,1776.494261,-10362.883188,-612.876398
2982.637308,148.041188,-8956.491898,153.219100
2982.637635,-148.041188,-8660.409521,459.657299
2982.637963,2368.659014,-12213.398043,-842.705048
2982.638290,2738.761985,-14285.974681,-1225.752797
2982.638618,666.185348,-12065.356855,0.000000
2982.638946,444.123565,-10584.944971,153.219100
2982.639273,0.000000,-11399.171507,0.000000
2982.639601,-2294.638420,-10140.821405,0.000000
2982.639928,-3923.091493,-6809.894666,306.438199
2982.640256,-2442.679609,-5181.441594,153.219100
2982.640583,518.144159,-7031.956449,536.266849
2982.640911,-592.164754,-8734.430116,1378.971896
2982.641238,-740.205942,-8068.244768,1072.533697
2982.641566,888.247130,-7994.224174,-1378.971896
2982.641893,1850.514855,-10436.903782,-2451.505594
2982.642221,1332.370696,-10584.944971,-1378.971896
2982.642548,1036.288319,-8734.430116,-459.657299
2982.642876,2368.659014,-10658.965565,689.485948
2982.643203,2368.659014,-13175.665768,536.266849
2982.643531,1110.308913,-12065.356855,0.000000
2982.643858,0.000000,-9474.636058,0.000000
2982.644186,-518.144159,-9622.677246,-306.438199
2982.644513,-1110.308913,-11547.212695,-306.438199
2982.644841,-2738.761985,-9400.615463,-459.657299
2982.645168,-2294.638420,-6735.874072,-1072.533697
2982.645496,222.061783,-8808.450710,-1685.410096
2982.645823,1924.535449,-10214.842000,-306.438199
2982.646151,1554.432478,-8364.327145,76.609550
2982.646478,1776.494261,-9104.533087,383.047749
2982.646806,2368.659014,-11103.089130,-1225.752797
2982.647133,1776.494261,-11325.150913,-919.314598
2982.647461,296.082377,-8956.491898,306.438199
2982.647788,-148.041188,-7550.100608,536.266849
2982.648116,518.144159,-10510.924376,306.438199
2982.648443,592.164754,-11473.192101,842.705048
2982.648771,-518.144159,-10066.800811,536.266849
2982.649099,592.164754,-9400.615463,306.438199
2982.649426,222.061783,-10436.903782,76.609550
2982.649754,-1184.329507,-10288.862594,229.828649
2982.650081,-222.061783,-8290.306550,-306.438199
2982.650409,1036.288319,-7402.059420,-383.047749
2982.650736,2072.576638,-10140.821405,0.000000
2982.651064,2220.617826,-11029.068536,306.438199
2982.651391,1184.329507,-8438.347739,229.828649
2982.651719,1036.288319,-8660.409521,-919.314598
2982.652046,0.000000,-10436.903782,-919.314598
2982.652374,-2294.638420,-8734.430116,-766.095498
2982.652701,-2738.761985,-7254.018232,-306.438199
2982.653029,-814.226536,-9030.512492,0.000000
2982.653356,1184.329507,-11251.130318,76.609550
2982.653684,74.020594,-10584.944971,1838.629195
2982.654011,-518.144159,-8734.430116,1915.238745
2982.654339,-888.247130,-9918.759623,76.609550
2982.654666,-370.102971,-12065.356855,-1915.238745
2982.654994,-888.247130,-9918.759623,-2987.772442
2982.655321,0.000000,-8734.430116,-2528.115143
2982.655649,2072.576638,-11991.336260,-842.705048
2982.655976,3034.844362,-13915.871710,0.000000
2982.656304,1480.411884,-11177.109724,919.314598
2982.656631,0.000000,-8882.471304,-536.266849
2982.656959,-370.102971,-9474.636058,-1608.800546
2982.657286,-2072.576638,-8586.388927,-766.095498
2982.657614,-3256.906145,-5255.462188,0.000000
2982.657941,-1776.494261,-5625.565159,689.485948
2982.658269,1036.288319,-9178.553681,1685.410096
2982.658596,2812.782580,-10658.965565,2681.334243
2982.658924,2368.659014,-9770.718434,2298.286494
2982.659252,2664.741391,-9770.718434,383.047749
2982.659579,2516.700203,-12213.398043,-2374.896044
2982.659907,814.226536,-12361.439231,-3064.381992
2982.660234,740.205942,-9992.780217,-2068.457845
2982.660562,1924.535449,-9622.677246,-766.095498
2982.660889,2368.659014,-11177.109724,229.828649
2982.661217,222.061783,-10955.047942,1532.190996
2982.661544,-888.247130,-7772.162391,459.657299
2982.661872,-518.144159,-6883.915261,-995.924147
2982.662199,-2368.659014,-7476.080014,-536.266849
2982.662527,-3552.988522,-6069.688724,306.438199
2982.662854,-1332.370696,-5255.462188,919.314598
2982.663182,1406.391290,-8142.265362,1072.533697
2982.663509,3034.844362,-11251.130318,1608.800546
2982.663837,3627.009116,-12139.377449,153.219100
2982.664164,3775.050304,-12065.356855,-459.657299
2982.664492,4515.256246,-13767.830521,-1762.019645
2982.664819,3108.864956,-14508.036463,-1838.629195
2982.665147,444.123565,-11029.068536,-229.828649
2982.665474,-666.185348,-8660.409521,-689.485948
2982.665802,222.061783,-10658.965565,-1149.143247
2982.666129,-2368.659014,-9844.739029,-536.266849
2982.666457,-4293.194464,-6439.791695,-306.438199
2982.666784,-3182.885551,-6217.729913,-919.314598
2982.667112,-1702.473667,-8956.491898,-995.924147
2982.667439,-1924.535449,-8586.388927,229.828649
2982.667767,-1554.432478,-7179.997637,842.705048
2982.668094,2368.659014,-8068.244768,0.000000
2982.668422,4145.153275,-11695.253884,0.000000
2982.668750,3034.844362,-12583.501014,995.924147
2982.669077,2220.617826,-11695.253884,536.266849
2982.669405,2812.782580,-11769.274478,-612.876398
2982.669732,2146.597232,-13249.686362,-689.485948
2982.670060,-518.144159,-11843.295072,-995.924147
2982.670387,-2146.597232,-8290.306550,0.000000
2982.670715,-1480.411884,-8512.368333,-1302.362347
2982.671042,-2146.597232,-9474.636058,-1532.190996
2982.671370,-3552.988522,-6883.915261,-459.657299
2982.671698,-3108.864956,-5477.523971,536.266849
2982.672025,-1850.514855,-7698.141797,1532.190996
2982.672353,-518.144159,-9770.718434,1455.581446
2982.672680,-222.061783,-8512.368333,689.485948
2982.673008,2294.638420,-7994.224174,-306.438199
2982.673335,4293.194464,-10807.006753,-766.095498
2982.673663,4441.235652,-13471.748144,-229.828649
2982.673991,2294.638420,-11991.336260,766.095498
2982.674318,888.247130,-10288.862594,-919.314598
2982.674646,444.123565,-11251.130318,-3064.381992
2982.674973,-1628.453072,-11621.233289,-2451.505594
2982.675301,-2516.700203,-9252.574275,-459.657299
2982.675629,-1332.370696,-9030.512492,612.876398
2982.675956,1110.308913,-9992.780217,842.705048
2982.676284,518.144159,-8808.450710,536.266849
2982.676611,-1036.288319,-6587.832884,1149.143247
2982.676939,-370.102971,-6661.853478,383.047749
2982.677266,1480.411884,-9770.718434,-459.657299
2982.677594,1110.308913,-9326.594869,-229.828649
2982.677922,0.000000,-8512.368333,459.657299
2982.678249,2368.659014,-11695.253884,-459.657299
2982.678577,4145.153275,-13767.830521,-919.314598
2982.678904,2368.659014,-12213.398043,-612.876398
2982.679232,0.000000,-9548.656652,-383.047749
2982.679560,444.123565,-9844.739029,-919.314598
2982.679887,74.020594,-10584.944971,-1762.019645
2982.680215,-1628.453072,-8438.347739,229.828649
2982.680542,-1480.411884,-6883.915261,1532.190996
2982.680870,814.226536,-8290.306550,1532.190996
2982.681197,1258.350101,-9918.759623,1302.362347
2982.681525,-444.123565,-8142.265362,919.314598
2982.681853,-1184.329507,-6661.853478,-306.438199
2982.682180,296.082377,-9252.574275,-1685.410096
2982.682508,518.144159,-11029.068536,-2528.115143
2982.682835,592.164754,-10807.006753,-766.095498
2982.683163,1702.473667,-10066.800811,459.657299
2982.683490,3108.864956,-11325.150913,612.876398
2982.683818,1924.535449,-12287.418637,76.609550
2982.684146,0.000000,-10066.800811,0.000000
2982.684473,-518.144159,-7179.997637,459.657299
2982.684801,-666.185348,-9474.636058,76.609550
2982.685128,-2664.741391,-10066.800811,383.047749
2982.685456,-4293.194464,-8364.327145,0.000000
2982.685784,-2368.659014,-8068.244768,-995.924147
2982.686111,518.144159,-9844.739029,-2221.676944
2982.686439,370.102971,-10732.986159,-306.438199
2982.686766,296.082377,-9400.615463,459.657299
2982.687094,1702.473667,-10140.821405,-383.047749
2982.687421,2886.803174,-12731.542202,-842.705048
2982.687749,1258.350101,-11769.274478,-306.438199
2982.688077,-518.144159,-8586.388927,229.828649
2982.688404,370.102971,-8438.347739,306.438199
2982.688732,592.164754,-10584.944971,-383.047749
2982.689059,-1258.350101,-9770.718434,-842.705048
2982.689387,-1702.473667,-8364.327145,1378.971896
2982.689714,296.082377,-8882.471304,306.438199
2982.690042,1480.411884,-10732.986159,-612.876398
2982.690370,0.000000,-9696.697840,0.000000
2982.690697,-444.123565,-7328.038826,-229.828649
2982.691025,1554.432478,-8364.327145,-306.438199
2982.691352,2664.741391,-10140.821405,-612.876398
2982.691680,1258.350101,-8512.368333,306.438199
2982.692008,1110.308913,-8808.450710,1225.752797
2982.692335,1924.535449,-11399.171507,76.609550
2982.692663,518.144159,-11769.274478,-842.705048
2982.692990,-1924.535449,-8660.409521,-1225.752797
2982.693318,-1776.494261,-7254.018232,-1532.190996
2982.693645,-222.061783,-8586.388927,-1072.533697
2982.693973,74.020594,-9992.780217,0.000000
2982.694301,74.020594,-9252.574275,1149.143247
2982.694628,1850.514855,-9474.636058,995.924147
2982.694956,3552.988522,-11399.171507,76.609550
2982.695283,1702.473667,-11103.089130,459.657299
2982.695611,1110.308913,-8882.471304,-689.485948
2982.695938,1850.514855,-7846.182985,-919.314598
2982.696266,2442.679609,-11029.068536,-1378.971896
2982.696594,2072.576638,-12509.480420,-842.705048
2982.696921,0.000000,-10362.883188,-459.657299
2982.697249,-296.082377,-10436.903782,-1072.533697
2982.697576,-518.144159,-11843.295072,-1685.410096
2982.697904,-2220.617826,-10066.800811,-766.095498
2982.698232,-2812.782580,-6883.915261,842.705048
2982.698559,-296.082377,-7698.141797,842.705048
2982.698887,666.185348,-9770.718434,1149.143247
2982.699214,74.020594,-8734.430116,1149.143247
2982.699542,74.020594,-7920.203579,536.266849
2982.699869,1258.350101,-9548.656652,153.219100
2982.700197,1258.350101,-11177.109724,-995.924147
2982.700525,0.000000,-11695.253884,0.000000
2982.700852,148.041188,-10807.006753,-383.047749
2982.701180,2146.597232,-11769.274478,-2068.457845
2982.701507,2220.617826,-12731.542202,-1302.362347
2982.701835,-666.185348,-9696.697840,-459.657299
2982.702163,-1036.288319,-7698.141797,0.000000
2982.702490,-518.144159,-7994.224174,229.828649
2982.702818,-1998.556043,-7031.956449,612.876398
2982.703145,-3701.029710,-5995.668130,1991.848295
2982.703473,-1850.514855,-6661.853478,2451.505594
2982.703800,592.164754,-9252.574275,1378.971896
2982.704128,444.123565,-11547.212695,-306.438199
2982.704456,370.102971,-11177.109724,-1762.019645
2982.704783,1258.350101,-11177.109724,-2451.505594
2982.705111,2738.761985,-12361.439231,-2528.115143
2982.705438,1480.411884,-13249.686362,-1608.800546
2982.705766,-666.185348,-10584.944971,-383.047749
2982.706093,888.247130,-9770.718434,-766.095498
2982.706421,1406.391290,-10881.027347,-919.314598
2982.706749,-296.082377,-9178.553681,229.828649
2982.707076,-2294.638420,-6069.688724,1225.752797
2982.707404,-666.185348,-7179.997637,76.609550
2982.707731,-666.185348,-8956.491898,0.000000
2982.708059,-2072.576638,-8290.306550,0.000000
2982.708387,-666.185348,-7402.059420,229.828649
2982.708714,1850.514855,-9622.677246,76.609550
2982.709042,2886.803174,-12583.501014,0.000000
2982.709369,2294.638420,-12805.562797,-842.705048
2982.709697,3034.844362,-11325.150913,-842.705048
2982.710024,3404.947333,-11251.130318,-1608.800546
2982.710352,1924.535449,-11769.274478,-1072.533697
2982.710680,-1480.411884,-9770.718434,229.828649
2982.711007,-1110.308913,-8290.306550,76.609550
2982.711335,814.226536,-9474.636058,-1072.533697
2982.711662,-518.144159,-9474.636058,-153.219100
2982.711990,-2664.741391,-6587.832884,1302.362347
2982.712317,-1184.329507,-6291.750507,1072.533697
2982.712645,-592.164754,-8512.368333,536.266849
2982.712973,-518.144159,-8586.388927,536.266849
2982.713300,-1110.308913,-7105.977043,1072.533697
2982.713628,3404.947333,-8882.471304,536.266849
2982.713955,5107.421000,-12213.398043,1149.143247
2982.714283,3849.070898,-13323.706956,1149.143247
2982.714611,2664.741391,-11325.150913,0.000000
2982.714938,2368.659014,-11473.192101,-1225.752797
2982.715266,222.061783,-11621.233289,-2374.896044
2982.715593,-2664.741391,-10214.842000,-1685.410096
2982.715921,-3478.967927,-6661.853478,-919.314598
2982.716248,-1258.350101,-7846.182985,-919.314598
2982.716576,-370.102971,-10066.800811,536.266849
2982.716904,-2516.700203,-8438.347739,1608.800546
2982.717231,-2442.679609,-5995.668130,995.924147
2982.717559,444.123565,-7179.997637,-1149.143247
2982.717886,1406.391290,-9696.697840,-1378.971896
2982.718214,370.102971,-10436.903782,1149.143247
2982.718541,2516.700203,-9622.677246,2374.896044
2982.718869,4737.318029,-11695.253884,689.485948
2982.719197,4071.132681,-15470.304188,-612.876398
2982.719524,888.247130,-14211.954086,-1608.800546
2982.719852,-1406.391290,-9104.533087,-2528.115143
2982.720179,-1554.432478,-9474.636058,-3600.648841
2982.720507,-3034.844362,-10881.027347,-2221.676944
2982.720835,-3923.091493,-8512.368333,0.000000
2982.721162,-1850.514855,-6661.853478,1608.800546
2982.721490,1036.288319,-8364.327145,1532.190996
2982.721817,1554.432478,-8808.450710,1225.752797
2982.722145,-296.082377,-6365.771101,1225.752797
2982.722472,-444.123565,-5921.647536,612.876398
2982.722800,1406.391290,-8882.471304,-536.266849
2982.723128,1554.432478,-11547.212695,-919.314598
2982.723455,888.247130,-10066.800811,612.876398
2982.723783,2294.638420,-11251.130318,995.924147
2982.724110,3182.885551,-14582.057057,0.000000
2982.724438,1184.329507,-13471.748144,-1608.800546
2982.724766,-740.205942,-9474.636058,-1225.752797
2982.725093,-1036.288319,-7624.121203,-1149.143247
2982.725421,-1702.473667,-9030.512492,-306.438199
2982.725748,-2960.823768,-7550.100608,842.705048
2982.726076,-2886.803174,-4885.359217,1762.019645
2982.726403,592.164754,-7624.121203,842.705048
2982.726731,3404.947333,-10807.006753,306.438199
2982.727059,2146.597232,-8290.306550,766.095498
2982.727386,1184.329507,-6883.915261,536.266849
2982.727714,2664.741391,-10362.883188,-1378.971896
2982.728041,2368.659014,-12139.377449,-1838.629195
2982.728369,-1480.411884,-11621.233289,-153.219100
2982.728696,-962.267725,-10658.965565,766.095498
2982.729024,2738.761985,-11843.295072,-1149.143247
2982.729352,2960.823768,-13619.789333,-995.924147
2982.729679,222.061783,-11177.109724,536.266849
2982.730007,-1406.391290,-8290.306550,383.047749
2982.730334,-888.247130,-8364.327145,-1378.971896
2982.730662,-2516.700203,-8512.368333,-1608.800546
2982.730990,-4663.297435,-7179.997637,-995.924147
2982.731317,-1998.556043,-6809.894666,153.219100
2982.731645,1776.494261,-10140.821405,-229.828649
2982.731972,3256.906145,-11769.274478,0.000000
2982.732300,2368.659014,-8956.491898,459.657299
2982.732627,2812.782580,-9548.656652,306.438199
2982.732955,2738.761985,-12879.583391,-536.266849
2982.733283,666.185348,-11769.274478,-1149.143247
2982.733610,-1406.391290,-7698.141797,-306.438199
2982.733938,-740.205942,-7550.100608,0.000000
2982.734265,370.102971,-10658.965565,229.828649
2982.734593,-222.061783,-11399.171507,766.095498
2982.734920,-2368.659014,-8142.265362,1378.971896
2982.735248,-666.185348,-8586.388927,0.000000
2982.735576,444.123565,-11547.212695,-1685.410096
2982.735903,-1998.556043,-9548.656652,-459.657299
2982.736231,-666.185348,-6883.915261,383.047749
2982.736558,2442.679609,-8142.265362,459.657299
2982.736886,2812.782580,-10732.986159,842.705048
2982.737214,1184.329507,-10288.862594,536.266849
2982.737541,-666.185348,-8660.409521,0.000000
2982.737869,222.061783,-9548.656652,-1455.581446
2982.738196,0.000000,-10658.965565,-2451.505594
2982.738524,-1480.411884,-9400.615463,-153.219100
2982.738851,-2368.659014,-6957.935855,1302.362347
2982.739179,1332.370696,-8512.368333,1225.752797
2982.739507,1776.494261,-11695.253884,689.485948
2982.739834,962.267725,-10658.965565,1149.143247
2982.740162,1554.432478,-9104.533087,383.047749
2982.740489,1850.514855,-11103.089130,306.438199
2982.740817,518.144159,-12065.356855,0.000000
2982.741144,-148.041188,-10510.924376,0.000000
2982.741472,592.164754,-9178.553681,-1685.410096
2982.741800,1036.288319,-10658.965565,-2604.724693
2982.742127,222.061783,-10955.047942,-2604.724693
2982.742455,-1998.556043,-9178.553681,-995.924147
2982.742782,-1258.350101,-8808.450710,-995.924147
2982.743110,-222.061783,-10140.821405,-995.924147
2982.743438,-1036.288319,-8216.285956,0.000000
2982.743765,-1406.391290,-6217.729913,2298.286494
2982.744093,1924.535449,-7846.182985,2681.334243
2982.744420,2738.761985,-10584.944971,1762.019645
2982.744748,1998.556043,-11251.130318,919.314598
2982.745075,1184.329507,-10214.842000,842.705048
2982.745403,2146.597232,-10362.883188,-612.876398
2982.745731,1924.535449,-12435.459826,-2221.676944
2982.746058,-296.082377,-12731.542202,-995.924147
2982.746386,-1406.391290,-9622.677246,-1378.971896
2982.746713,370.102971,-9844.739029,-2068.457845
2982.747041,1184.329507,-11103.089130,-1991.848295
2982.747369,-1184.329507,-8660.409521,76.609550
2982.747696,-1480.411884,-5995.668130,1685.410096
2982.748024,-444.123565,-5995.668130,1149.143247
2982.748351,-518.144159,-6809.894666,1149.143247
2982.748679,-2368.659014,-6809.894666,2528.115143
2982.749006,-1406.391290,-7031.956449,1455.581446
2982.749334,370.102971,-9548.656652,383.047749
2982.749662,1554.432478,-12435.459826,-1608.800546
2982.749989,1850.514855,-13175.665768,-2068.457845
2982.750317,1924.535449,-13397.727550,-1225.752797
2982.750644,3627.009116,-14137.933492,-1915.238745
2982.750972,2812.782580,-14211.954086,-1455.581446
2982.751299,-1110.308913,-10732.986159,-1302.362347
2982.751627,-1036.288319,-9178.553681,-1302.362347
2982.751955,-296.082377,-8586.388927,-995.924147
2982.752282,-1850.514855,-6217.729913,0.000000
2982.752610,-3330.926739,-5255.462188,1685.410096
2982.752937,-666.185348,-7254.018232,1455.581446
2982.753265,1554.432478,-8882.471304,459.657299
2982.753593,-148.041188,-8068.244768,842.705048
2982.753920,592.164754,-7772.162391,1302.362347
2982.754248,2738.761985,-9178.553681,383.047749
2982.754575,3923.091493,-12435.459826,-459.657299
2982.754903,3478.967927,-13471.748144,-306.438199
2982.755230,2072.576638,-11177.109724,0.000000
2982.755558,2516.700203,-11547.212695,-612.876398
2982.755886,1110.308913,-13545.768739,-1225.752797
2982.756213,-2738.761985,-10436.903782,-919.314598
2982.756541,-3034.844362,-7994.224174,-1149.143247
2982.756868,-1258.350101,-8142.265362,-1915.238745
2982.757196,-962.267725,-7772.162391,-1455.581446
2982.757523,-2146.597232,-6143.709319,766.095498
2982.757851,-370.102971,-5921.647536,1455.581446
2982.758179,1036.288319,-7846.182985,1685.410096
2982.758506,1998.556043,-9178.553681,766.095498
2982.758834,2072.576638,-8808.450710,1225.752797
2982.759161,2738.761985,-8512.368333,1302.362347
2982.759489,4737.318029,-11769.274478,1072.533697
2982.759817,3330.926739,-13693.809927,306.438199
2982.760144,518.144159,-11843.295072,-689.485948
2982.760472,-1184.329507,-11473.192101,-2528.115143
2982.760799,-1924.535449,-13175.665768,-3140.991542
2982.761127,-3108.864956,-11843.295072,-2604.724693
2982.761454,-2590.720797,-10066.800811,-919.314598
2982.761782,222.061783,-9474.636058,612.876398
2982.762110,592.164754,-9400.615463,536.266849
2982.762437,518.144159,-7105.977043,1685.410096
2982.762765,-296.082377,-4737.318029,766.095498
2982.763092,-296.082377,-5551.544565,689.485948
2982.763420,-370.102971,-8216.285956,536.266849
2982.763747,-740.205942,-8956.491898,0.000000
2982.764075,592.164754,-9622.677246,-689.485948
2982.764403,3330.926739,-11991.336260,-1225.752797
2982.764730,3330.926739,-15988.448347,-1532.190996
2982.765058,1332.370696,-14434.015869,0.000000
2982.765385,666.185348,-10955.047942,-1762.019645
2982.765713,444.123565,-11177.109724,-2911.162892
2982.766041,-1332.370696,-11029.068536,-1378.971896
2982.766368,-3182.885551,-7402.059420,1149.143247
2982.766696,-3034.844362,-5847.626942,2221.676944
2982.767023,-666.185348,-7476.080014,1072.533697
2982.767351,0.000000,-7698.141797,0.000000
2982.767678,-1184.329507,-6661.853478,459.657299
2982.768006,-370.102971,-7402.059420,-919.314598
2982.768334,2220.617826,-9992.780217,-2068.457845
2982.768661,1554.432478,-9844.739029,-1915.238745
2982.768989,592.164754,-9178.553681,-229.828649
2982.769316,1258.350101,-10140.821405,153.219100
2982.769644,2368.659014,-11991.336260,229.828649
2982.769972,1184.329507,-12509.480420,919.314598
2982.770299,0.000000,-10066.800811,306.438199
2982.770627,518.144159,-9918.759623,-1302.362347
2982.770954,74.020594,-11325.150913,-1762.019645
2982.771282,-2368.659014,-9770.718434,0.000000
2982.771609,-2886.803174,-7402.059420,0.000000
2982.771937,666.185348,-8586.388927,-689.485948
2982.772265,2664.741391,-10362.883188,-306.438199
2982.772592,1258.350101,-9474.636058,689.485948
2982.772920,1110.308913,-8216.285956,1302.362347
2982.773247,3256.906145,-9770.718434,-383.047749
2982.773575,3330.926739,-12065.356855,-1762.019645
2982.773903,-592.164754,-8882.471304,612.876398
2982.774230,-1184.329507,-7105.977043,995.924147
2982.774558,666.185348,-9474.636058,306.438199
2982.774885,962.267725,-12583.501014,-306.438199
2982.775213,-444.123565,-10955.047942,0.000000
2982.775541,-1258.350101,-8142.265362,536.266849
2982.775868,814.226536,-9104.533087,-995.924147
2982.776196,222.061783,-12065.356855,-1378.971896
2982.776523,-1628.453072,-9474.636058,0.000000
2982.776851,296.082377,-6883.915261,0.000000
2982.777179,3256.906145,-9918.759623,-612.876398
2982.777506,2960.823768,-12065.356855,383.047749
2982.777834,1110.308913,-8438.347739,1149.143247
2982.778162,1776.494261,-8438.347739,306.438199
2982.778489,222.061783,-9770.718434,0.000000
2982.778817,-1702.473667,-9918.759623,-995.924147
2982.779144,-3330.926739,-7105.977043,-306.438199
2982.779472,-1702.473667,-7772.162391,-536.266849
2982.779800,666.185348,-11473.192101,-229.828649
2982.780127,1998.556043,-12065.356855,0.000000
2982.780455,296.082377,-8364.327145,1378.971896
2982.780782,666.185348,-8734.430116,1072.533697
2982.781110,370.102971,-11695.253884,-229.828649
2982.781438,-2146.597232,-10955.047942,-1149.143247
2982.781765,-1924.535449,-8586.388927,-919.314598
2982.782093,1036.288319,-9844.739029,-1685.410096
2982.782420,1776.494261,-12731.542202,-1302.362347
2982.782748,962.267725,-12805.562797,0.000000
2982.783076,296.082377,-8586.388927,-919.314598
2982.783403,370.102971,-9696.697840,-1455.581446
2982.783731,-1332.370696,-10362.883188,-1225.752797
2982.784058,-2738.761985,-7920.203579,153.219100
2982.784386,-2516.700203,-4885.359217,919.314598
2982.784714,1110.308913,-7254.018232,995.924147
2982.785041,1776.494261,-10807.006753,2451.505594
2982.785369,1480.411884,-10436.903782,2604.724693
2982.785696,2072.576638,-10066.800811,1302.362347
2982.786024,2738.761985,-11621.233289,-1378.971896
2982.786352,222.061783,-11843.295072,-2834.553343
2982.786679,-2072.576638,-10288.862594,-2145.067394
2982.787007,-888.247130,-9030.512492,-919.314598
2982.787334,1702.473667,-11843.295072,-1149.143247
2982.787662,222.061783,-11029.068536,-306.438199
2982.787990,-1924.535449,-7994.224174,1225.752797
2982.788317,-666.185348,-6957.935855,153.219100
2982.788645,0.000000,-7994.224174,-459.657299
2982.788972,-1850.514855,-7328.038826,919.314598
2982.789300,-2146.597232,-5699.585753,1378.971896
2982.789628,1776.494261,-7105.977043,1608.800546
2982.789955,4145.153275,-11029.068536,842.705048
2982.790283,3034.844362,-11399.171507,1378.971896
2982.790610,2590.720797,-11029.068536,153.219100
2982.790938,2590.720797,-11991.336260,-1532.190996
2982.791266,2590.720797,-14211.954086,-3217.601092
2982.791593,0.000000,-11917.315666,-1838.629195
2982.791921,-296.082377,-9844.739029,0.000000
2982.792248,1036.288319,-9548.656652,-459.657299
2982.792576,-518.144159,-9400.615463,306.438199
2982.792904,-3034.844362,-7402.059420,995.924147
2982.793231,-3256.906145,-6587.832884,306.438199
2982.793559,-814.226536,-7846.182985,-1072.533697
2982.793886,-222.061783,-8586.388927,-1378.971896
2982.794214,74.020594,-8068.244768,459.657299
2982.794542,1406.391290,-7624.121203,995.924147
2982.794869,4959.379811,-10140.821405,-306.438199
2982.795197,4663.297435,-13323.706956,0.000000
2982.795524,1776.494261,-12139.377449,76.609550
2982.795852,888.247130,-10288.862594,-766.095498
2982.796180,1184.329507,-11843.295072,-2068.457845
2982.796507,-740.205942,-11917.315666,-1455.581446
2982.796835,-2664.741391,-9474.636058,0.000000
2982.797162,-1406.391290,-8956.491898,383.047749
2982.797490,0.000000,-10214.842000,-1072.533697
2982.797818,-1628.453072,-8882.471304,-612.876398
2982.798145,-3330.926739,-5699.585753,76.609550
2982.798473,-2146.597232,-5847.626942,612.876398
2982.798800,0.000000,-8438.347739,536.266849
2982.799128,-444.123565,-9104.533087,536.266849
2982.799456,0.000000,-8364.327145,1455.581446
2982.799783,2960.823768,-9918.759623,919.314598
2982.800111,4737.318029,-12583.501014,-1225.752797
2982.800438,2442.679609,-12583.501014,-1225.752797
2982.800766,0.000000,-10066.800811,-459.657299
2982.801094,0.000000,-10288.862594,-766.095498
2982.801421,-1332.370696,-11991.336260,-1915.238745
2982.801749,-2664.741391,-10436.903782,-919.314598
2982.802076,-2960.823768,-7772.162391,153.219100
2982.802404,-444.123565,-8660.409521,919.314598
2982.802732,962.267725,-10362.883188,612.876398
2982.803059,-296.082377,-8142.265362,1072.533697
2982.803387,-444.123565,-5477.523971,536.266849
2982.803714,1554.432478,-7328.038826,0.000000
2982.804042,1258.350101,-9844.739029,-766.095498
2982.804370,0.000000,-9622.677246,612.876398
2982.804697,1628.453072,-9178.553681,0.000000
2982.805025,3997.112087,-11769.274478,-1455.581446
2982.805352,3182.885551,-14656.077652,-1608.800546
2982.805680,444.123565,-12139.377449,-766.095498
2982.806008,592.164754,-10362.883188,-1378.971896
2982.806335,74.020594,-10955.047942,-2145.067394
2982.806663,-1776.494261,-10214.842000,-995.924147
2982.806990,-2812.782580,-8290.306550,1072.533697
2982.807318,-1036.288319,-6883.915261,1762.019645
2982.807646,1184.329507,-9770.718434,536.266849
