#time,accel_x,accel_y,accel_z
2408.059765,740.205942,-10362.883188,-153.219100
2408.060093,592.164754,-9992.780217,-229.828649
2408.060420,740.205942,-9992.780217,-383.047749
2408.060748,296.082377,-9696.697840,-229.828649
2408.061075,0.000000,-9474.636058,0.000000
2408.061403,-222.061783,-9400.615463,-383.047749
2408.061731,-296.082377,-10066.800811,-995.924147
2408.062058,0.000000,-9992.780217,-689.485948
2408.062386,74.020594,-10214.842000,-919.314598
2408.062713,148.041188,-10288.862594,-383.047749
2408.063041,296.082377,-10066.800811,-306.438199
2408.063368,518.144159,-10288.862594,0.000000
2408.063696,962.267725,-9918.759623,306.438199
2408.064024,296.082377,-9252.574275,0.000000
2408.064351,74.020594,-8882.471304,229.828649
2408.064679,0.000000,-8882.471304,0.000000
2408.065006,-148.041188,-8808.450710,153.219100
2408.065334,0.000000,-9104.533087,-383.047749
2408.065661,148.041188,-9474.636058,-689.485948
2408.065989,222.061783,-9252.574275,-459.657299
2408.066317,222.061783,-9696.697840,76.609550
2408.066644,370.102971,-9992.780217,153.219100
2408.066972,592.164754,-9918.759623,0.000000
2408.067299,518.144159,-9696.697840,306.438199
2408.067627,888.247130,-9622.677246,229.828649
2408.067954,296.082377,-9548.656652,0.000000
2408.068282,148.041188,-9104.533087,0.000000
2408.068610,444.123565,-9622.677246,-306.438199
2408.068937,148.041188,-9548.656652,-689.485948
2408.069265,148.041188,-9696.697840,-612.876398
2408.069592,222.061783,-9844.739029,-766.095498
2408.069920,370.102971,-10362.883188,-689.485948
2408.070247,1036.288319,-10288.862594,-612.876398
2408.070575,962.267725,-10362.883188,-306.438199
2408.070903,814.226536,-10658.965565,-383.047749
2408.071230,1036.288319,-10288.862594,0.000000
2408.071558,888.247130,-9844.739029,0.000000
2408.071885,370.102971,-9548.656652,0.000000
2408.072213,74.020594,-9474.636058,-383.047749
2408.072540,74.020594,-9252.574275,-766.095498
2408.072868,296.082377,-9474.636058,-306.438199
2408.073196,1406.391290,-9992.780217,-689.485948
2408.073523,1924.535449,-9400.615463,-383.047749
2408.073851,2886.803174,-9252.574275,0.000000
2408.074178,4515.256246,-9400.615463,-76.609550
2408.074506,4885.359217,-10066.800811,0.000000
2408.074833,5551.544565,-9770.718434,153.219100
2408.075161,6217.729913,-9252.574275,0.000000
2408.075489,6661.853478,-9548.656652,0.000000
2408.075816,5995.668130,-9548.656652,153.219100
2408.076144,6513.812290,-9696.697840,306.438199
2408.076471,6587.832884,-9622.677246,0.000000
2408.076799,7402.059420,-9326.594869,76.609550
2408.077126,8660.409521,-9548.656652,-383.047749
2408.077454,8734.430116,-9178.553681,306.438199
2408.077782,9400.615463,-8956.491898,766.095498
2408.078109,10584.944971,-8734.430116,76.609550
2408.078437,10584.944971,-9992.780217,383.047749
2408.078764,9474.636058,-9918.759623,995.924147
2408.079092,8734.430116,-9178.553681,536.266849
2408.079419,7994.224174,-9400.615463,0.000000
2408.079747,7698.141797,-10955.047942,0.000000
2408.080075,7772.162391,-11251.130318,-689.485948
2408.080402,7328.038826,-10214.842000,-1149.143247
2408.080730,7105.977043,-10066.800811,-612.876398
2408.081057,7254.018232,-9474.636058,-689.485948
2408.081385,7179.997637,-8586.388927,-459.657299
2408.081712,7550.100608,-8068.244768,459.657299
2408.082040,8956.491898,-8438.347739,306.438199
2408.082368,9696.697840,-9474.636058,306.438199
2408.082695,9030.512492,-10732.986159,1225.752797
2408.083023,8142.265362,-11029.068536,612.876398
2408.083350,5773.606348,-11547.212695,153.219100
2408.083678,3552.988522,-11843.295072,-229.828649
2408.084005,2294.638420,-11251.130318,-1072.533697
2408.084333,1332.370696,-10288.862594,-1149.143247
2408.084661,1184.329507,-10362.883188,-536.266849
2408.084988,518.144159,-9844.739029,459.657299
2408.085316,-444.123565,-8438.347739,612.876398
2408.085643,-296.082377,-7476.080014,383.047749
2408.085971,-592.164754,-6661.853478,0.000000
2408.086298,0.000000,-7846.182985,0.000000
2408.086626,148.041188,-9548.656652,612.876398
2408.086954,0.000000,-11325.150913,995.924147
2408.087281,-814.226536,-10436.903782,383.047749
2408.087609,-1776.494261,-11103.089130,-153.219100
2408.087936,-3034.844362,-11399.171507,-689.485948
2408.088264,-3330.926739,-11029.068536,-995.924147
2408.088591,-3108.864956,-10510.924376,-995.924147
2408.088919,-3404.947333,-10214.842000,-919.314598
2408.089247,-4145.153275,-8808.450710,-229.828649
2408.089574,-4071.132681,-7476.080014,612.876398
2408.089902,-4367.215058,-7105.977043,766.095498
2408.090229,-4145.153275,-7402.059420,-229.828649
2408.090557,-2664.741391,-8512.368333,-919.314598
2408.090884,-962.267725,-9474.636058,-1685.410096
2408.091212,1036.288319,-10362.883188,-1532.190996
2408.091540,296.082377,-10584.944971,-306.438199
2408.091867,-296.082377,-11843.295072,0.000000
2408.092195,-1258.350101,-13323.706956,-459.657299
2408.092522,-2146.597232,-12361.439231,-2068.457845
2408.092850,-2960.823768,-11473.192101,-2528.115143
2408.093177,-3627.009116,-10214.842000,-1072.533697
2408.093505,-3923.091493,-8660.409521,-612.876398
2408.093833,-2812.782580,-7402.059420,0.000000
2408.094160,-2368.659014,-6291.750507,383.047749
2408.094488,-296.082377,-6735.874072,0.000000
2408.094815,1258.350101,-6513.812290,-229.828649
2408.095143,2812.782580,-7105.977043,153.219100
2408.095470,4515.256246,-8586.388927,76.609550
2408.095798,5477.523971,-11251.130318,153.219100
2408.096126,5033.400406,-12435.459826,766.095498
2408.096453,5181.441594,-12731.542202,383.047749
2408.096781,5255.462188,-13101.645173,-766.095498
2408.097108,4885.359217,-13915.871710,-1225.752797
2408.097436,4219.173869,-12953.603985,-536.266849
2408.097763,3330.926739,-9770.718434,-383.047749
2408.098091,2294.638420,-7402.059420,229.828649
2408.098419,1628.453072,-5921.647536,536.266849
2408.098746,1628.453072,-5773.606348,612.876398
2408.099074,1628.453072,-5847.626942,1378.971896
2408.099401,2368.659014,-6809.894666,1838.629195
2408.099729,3775.050304,-8438.347739,995.924147
2408.100056,5033.400406,-10510.924376,1302.362347
2408.100384,5255.462188,-11325.150913,76.609550
2408.100712,5181.441594,-12361.439231,306.438199
2408.101039,3923.091493,-14211.954086,-995.924147
2408.101367,1776.494261,-14582.057057,-1225.752797
2408.101694,0.000000,-12065.356855,-1302.362347
2408.102022,-2294.638420,-9622.677246,-1302.362347
2408.102349,-2886.803174,-9252.574275,229.828649
2408.102677,-3478.967927,-7624.121203,0.000000
2408.103005,-1998.556043,-7920.203579,689.485948
2408.103332,-888.247130,-7772.162391,919.314598
2408.103660,666.185348,-7179.997637,689.485948
2408.103987,1258.350101,-7402.059420,919.314598
2408.104315,740.205942,-8660.409521,2068.457845
2408.104642,296.082377,-9400.615463,1532.190996
2408.104970,-740.205942,-11547.212695,-766.095498
2408.105298,-2368.659014,-12805.562797,-383.047749
2408.105625,-3256.906145,-12509.480420,-1532.190996
2408.105953,-4071.132681,-11917.315666,-2145.067394
2408.106280,-4663.297435,-11843.295072,-1762.019645
2408.106608,-3997.112087,-10658.965565,-2298.286494
2408.106935,-4145.153275,-8882.471304,-2221.676944
2408.107263,-4071.132681,-7254.018232,-459.657299
2408.107591,-2294.638420,-6661.853478,76.609550
2408.107918,-1924.535449,-5625.565159,1072.533697
2408.108246,-1332.370696,-6587.832884,2145.067394
2408.108573,0.000000,-7846.182985,1685.410096
2408.108901,962.267725,-8586.388927,612.876398
2408.109228,1554.432478,-10732.986159,536.266849
2408.109556,1850.514855,-12509.480420,-919.314598
2408.109884,1332.370696,-13175.665768,-2374.896044
2408.110211,-740.205942,-13101.645173,-2911.162892
2408.110539,-1628.453072,-12065.356855,-2834.553343
2408.110866,-1554.432478,-10881.027347,-2681.334243
2408.111194,-2442.679609,-9178.553681,-1532.190996
2408.111521,-2812.782580,-8142.265362,153.219100
2408.111849,-2072.576638,-7179.997637,0.000000
2408.112177,74.020594,-7105.977043,306.438199
2408.112504,1554.432478,-7179.997637,229.828649
2408.112832,3034.844362,-7624.121203,536.266849
2408.113159,3923.091493,-8734.430116,842.705048
2408.113487,4441.235652,-9992.780217,689.485948
2408.113814,4589.276840,-10658.965565,153.219100
2408.114142,3775.050304,-11547.212695,-689.485948
2408.114470,1702.473667,-12953.603985,-383.047749
2408.114797,1924.535449,-12879.583391,-1532.190996
2408.115125,1406.391290,-11991.336260,-2374.896044
2408.115452,1554.432478,-12879.583391,-1532.190996
2408.115780,2072.576638,-10881.027347,-383.047749
2408.116107,2294.638420,-7846.182985,0.000000
2408.116435,1628.453072,-6661.853478,766.095498
2408.116763,1998.556043,-6291.750507,1378.971896
2408.117090,2368.659014,-7031.956449,1225.752797
2408.117418,1480.411884,-7550.100608,2068.457845
2408.117745,1332.370696,-8586.388927,1072.533697
2408.118073,2738.761985,-9770.718434,0.000000
2408.118400,3034.844362,-11473.192101,-766.095498
2408.118728,2368.659014,-12139.377449,-459.657299
2408.119056,2812.782580,-11843.295072,-153.219100
2408.119383,2146.597232,-11547.212695,-306.438199
2408.119711,0.000000,-10732.986159,-306.438199
2408.120038,-962.267725,-9104.533087,-689.485948
2408.120366,-1184.329507,-8068.244768,-459.657299
2408.120693,-1998.556043,-7624.121203,306.438199
2408.121021,-888.247130,-7328.038826,1072.533697
2408.121348,370.102971,-8586.388927,459.657299
2408.121676,666.185348,-8438.347739,766.095498
2408.122004,1036.288319,-8882.471304,842.705048
2408.122331,444.123565,-10362.883188,689.485948
2408.122659,-370.102971,-10732.986159,0.000000
2408.122987,-1036.288319,-10214.842000,-1302.362347
2408.123314,-2442.679609,-10807.006753,-1915.238745
2408.123642,-3627.009116,-11621.233289,-1378.971896
2408.123969,-3701.029710,-11325.150913,-1455.581446
2408.124297,-3404.947333,-10436.903782,-2145.067394
2408.124625,-2960.823768,-9992.780217,-1915.238745
2408.124952,-1628.453072,-8512.368333,-1532.190996
2408.125280,-888.247130,-8364.327145,0.000000
2408.125608,-888.247130,-8364.327145,0.000000
2408.125935,444.123565,-7846.182985,842.705048
2408.126263,0.000000,-8142.265362,842.705048
2408.126590,-888.247130,-9030.512492,1608.800546
2408.126918,-888.247130,-9622.677246,919.314598
2408.127246,0.000000,-10658.965565,-536.266849
2408.127573,148.041188,-11547.212695,-1302.362347
2408.127901,0.000000,-11251.130318,-842.705048
2408.128229,-592.164754,-10584.944971,-1302.362347
2408.128556,-1628.453072,-10955.047942,-1378.971896
2408.128884,-1332.370696,-9918.759623,-1378.971896
2408.129211,-1110.308913,-8660.409521,-1302.362347
2408.129539,-814.226536,-8808.450710,-689.485948
2408.129867,592.164754,-8586.388927,689.485948
2408.130194,1776.494261,-7994.224174,995.924147
2408.130522,2220.617826,-8364.327145,1685.410096
2408.130850,2960.823768,-9326.594869,1225.752797
2408.131177,3330.926739,-9252.574275,306.438199
2408.131505,2812.782580,-9548.656652,0.000000
2408.131832,1480.411884,-9918.759623,-612.876398
2408.132160,2220.617826,-10732.986159,-689.485948
2408.132488,1702.473667,-11621.233289,-1149.143247
2408.132815,222.061783,-10732.986159,-766.095498
2408.133143,814.226536,-11621.233289,-1762.019645
2408.133471,1998.556043,-11843.295072,-1302.362347
2408.133798,2738.761985,-10288.862594,-383.047749
2408.134126,3404.947333,-9104.533087,459.657299
2408.134453,2960.823768,-8290.306550,1455.581446
2408.134781,1850.514855,-7698.141797,1762.019645
2408.135109,1480.411884,-7772.162391,1072.533697
2408.135436,666.185348,-8956.491898,612.876398
2408.135764,148.041188,-10214.842000,76.609550
2408.136092,74.020594,-10362.883188,-1532.190996
2408.136419,-148.041188,-11029.068536,-1608.800546
2408.136747,518.144159,-11695.253884,-1378.971896
2408.137075,1332.370696,-10436.903782,-306.438199
2408.137402,962.267725,-10732.986159,0.000000
2408.137730,222.061783,-10436.903782,229.828649
2408.138057,1036.288319,-9696.697840,459.657299
2408.138385,-148.041188,-8290.306550,1072.533697
2408.138713,-1702.473667,-7698.141797,1302.362347
2408.139040,-1776.494261,-8364.327145,766.095498
2408.139368,-1480.411884,-8882.471304,0.000000
2408.139696,-1036.288319,-9992.780217,0.000000
2408.140023,-962.267725,-9252.574275,-1302.362347
2408.140351,-962.267725,-9548.656652,-1225.752797
2408.140678,-2368.659014,-9844.739029,0.000000
2408.141006,-2368.659014,-9622.677246,-766.095498
2408.141334,-2294.638420,-9474.636058,-1149.143247
2408.141661,-2368.659014,-10214.842000,0.000000
2408.141989,-1998.556043,-9474.636058,-689.485948
2408.142317,-1480.411884,-9770.718434,-306.438199
2408.142644,-1184.329507,-10066.800811,0.000000
2408.142972,-592.164754,-8882.471304,-306.438199
2408.143299,-740.205942,-9178.553681,-459.657299
2408.143627,-666.185348,-9474.636058,-306.438199
2408.143955,-444.123565,-8734.430116,-766.095498
2408.144282,0.000000,-8956.491898,-689.485948
2408.144610,-444.123565,-10288.862594,-689.485948
2408.144938,0.000000,-10140.821405,-229.828649
2408.145265,666.185348,-10436.903782,-1149.143247
2408.145593,962.267725,-11695.253884,-689.485948
2408.145920,2368.659014,-10658.965565,-1072.533697
2408.146248,2294.638420,-10140.821405,-1149.143247
2408.146576,962.267725,-9252.574275,306.438199
2408.146903,1184.329507,-9474.636058,76.609550
2408.147231,1036.288319,-8586.388927,-306.438199
2408.147559,222.061783,-9252.574275,-306.438199
2408.147886,148.041188,-10066.800811,-689.485948
2408.148214,888.247130,-9548.656652,-1455.581446
2408.148541,1036.288319,-9474.636058,0.000000
2408.148869,2442.679609,-9770.718434,229.828649
2408.149197,3330.926739,-9770.718434,0.000000
2408.149524,2516.700203,-9474.636058,459.657299
2408.149852,2590.720797,-9696.697840,766.095498
2408.150180,2368.659014,-9030.512492,689.485948
2408.150507,962.267725,-8364.327145,1455.581446
2408.150835,148.041188,-9104.533087,536.266849
2408.151162,518.144159,-9770.718434,0.000000
2408.151490,740.205942,-10288.862594,-766.095498
2408.151818,1258.350101,-10807.006753,-536.266849
2408.152145,2294.638420,-9918.759623,0.000000
2408.152473,1628.453072,-9030.512492,0.000000
2408.152801,1036.288319,-9400.615463,1149.143247
2408.153128,666.185348,-8956.491898,459.657299
2408.153456,370.102971,-8956.491898,-383.047749
2408.153783,74.020594,-9918.759623,-306.438199
2408.154111,148.041188,-10288.862594,-383.047749
2408.154439,0.000000,-10214.842000,-459.657299
2408.154766,74.020594,-10658.965565,-229.828649
2408.155094,740.205942,-11177.109724,-306.438199
2408.155422,518.144159,-10510.924376,-383.047749
2408.155749,296.082377,-10807.006753,-1378.971896
2408.156077,0.000000,-9844.739029,-536.266849
2408.156404,-370.102971,-9252.574275,-383.047749
2408.156732,-1258.350101,-9474.636058,0.000000
2408.157060,-1628.453072,-9400.615463,0.000000
2408.157387,-1258.350101,-9400.615463,-306.438199
2408.157715,0.000000,-9622.677246,-1378.971896
2408.158043,296.082377,-9918.759623,-766.095498
2408.158370,518.144159,-9474.636058,-919.314598
2408.158698,-444.123565,-9918.759623,0.000000
2408.159025,-592.164754,-10214.842000,76.609550
2408.159353,0.000000,-9992.780217,-229.828649
2408.159681,-592.164754,-9548.656652,-306.438199
2408.160008,-1036.288319,-10214.842000,306.438199
2408.160336,-1258.350101,-9474.636058,306.438199
2408.160664,-1332.370696,-9326.594869,-536.266849
2408.160991,-962.267725,-9474.636058,0.000000
2408.161319,0.000000,-8438.347739,-306.438199
2408.161646,0.000000,-8364.327145,0.000000
2408.161974,-148.041188,-8438.347739,383.047749
2408.162302,-518.144159,-8438.347739,459.657299
2408.162629,-296.082377,-8956.491898,153.219100
2408.162957,-592.164754,-9992.780217,1149.143247
2408.163285,222.061783,-10288.862594,-306.438199
2408.163612,962.267725,-10436.903782,-842.705048
2408.163940,1850.514855,-11621.233289,0.000000
2408.164267,1998.556043,-10955.047942,0.000000
2408.164595,1776.494261,-9844.739029,0.000000
2408.164923,370.102971,-9252.574275,-459.657299
2408.165250,370.102971,-9400.615463,-766.095498
2408.165578,592.164754,-9326.594869,-766.095498
2408.165906,148.041188,-9992.780217,-229.828649
2408.166233,296.082377,-9918.759623,0.000000
2408.166561,814.226536,-10288.862594,229.828649
2408.166889,740.205942,-10436.903782,689.485948
2408.167216,1480.411884,-10214.842000,0.000000
2408.167544,1924.535449,-9770.718434,-229.828649
2408.167871,1258.350101,-9770.718434,76.609550
2408.168199,1406.391290,-9696.697840,0.000000
2408.168527,1258.350101,-9400.615463,-153.219100
2408.168854,222.061783,-9844.739029,-306.438199
2408.169182,0.000000,-10436.903782,-153.219100
2408.169510,222.061783,-9548.656652,-1149.143247
2408.169837,1258.350101,-10436.903782,-459.657299
2408.170165,2368.659014,-9992.780217,-229.828649
2408.170492,2738.761985,-8882.471304,306.438199
2408.170820,1850.514855,-9474.636058,1455.581446
2408.171148,1258.350101,-8956.491898,1915.238745
2408.171475,1702.473667,-8586.388927,612.876398
2408.171803,222.061783,-8290.306550,612.876398
2408.172131,-740.205942,-9474.636058,306.438199
2408.172458,-1184.329507,-9400.615463,-153.219100
2408.172786,-814.226536,-9770.718434,-766.095498
2408.173113,-888.247130,-9992.780217,-459.657299
2408.173441,-444.123565,-9474.636058,-995.924147
2408.173769,0.000000,-9548.656652,-1072.533697
2408.174096,-370.102971,-9844.739029,-229.828649
2408.174424,370.102971,-9178.553681,-919.314598
2408.174752,-296.082377,-8734.430116,0.000000
2408.175079,-1110.308913,-9474.636058,383.047749
2408.175407,-666.185348,-9622.677246,76.609550
2408.175734,-444.123565,-9770.718434,-689.485948
2408.176062,-222.061783,-10955.047942,-612.876398
2408.176390,148.041188,-10066.800811,-1072.533697
2408.176717,74.020594,-10066.800811,-1608.800546
2408.177045,-666.185348,-10362.883188,-459.657299
2408.177373,-518.144159,-10288.862594,-766.095498
2408.177700,-222.061783,-10362.883188,-1302.362347
2408.178028,-962.267725,-10584.944971,-383.047749
2408.178355,-962.267725,-10362.883188,-383.047749
2408.178683,0.000000,-9844.739029,229.828649
2408.179011,-222.061783,-10066.800811,1455.581446
2408.179338,0.000000,-9770.718434,229.828649
2408.179666,222.061783,-9104.533087,0.000000
2408.179994,-222.061783,-9178.553681,0.000000
2408.180321,0.000000,-9104.533087,-306.438199
2408.180649,74.020594,-8512.368333,-766.095498
2408.180976,-518.144159,-9696.697840,0.000000
2408.181304,-222.061783,-9770.718434,-612.876398
2408.181632,888.247130,-9696.697840,-766.095498
2408.181959,1776.494261,-10436.903782,0.000000
2408.182287,2886.803174,-10510.924376,612.876398
2408.182615,3256.906145,-9844.739029,1225.752797
2408.182942,2294.638420,-9474.636058,1838.629195
2408.183270,1554.432478,-9252.574275,1455.581446
2408.183597,1702.473667,-8660.409521,76.609550
2408.183925,-222.061783,-8364.327145,0.000000
2408.184253,-1110.308913,-9400.615463,-459.657299
2408.184580,-592.164754,-9770.718434,-1378.971896
2408.184908,0.000000,-10214.842000,-1302.362347
2408.185236,1110.308913,-10436.903782,-842.705048
2408.185563,2072.576638,-9918.759623,-536.266849
2408.185891,1998.556043,-9548.656652,76.609550
2408.186218,1776.494261,-9548.656652,842.705048
2408.186546,1628.453072,-8956.491898,153.219100
2408.186874,1184.329507,-8956.491898,0.000000
2408.187201,0.000000,-9326.594869,0.000000
2408.187529,-370.102971,-9844.739029,383.047749
2408.187857,-444.123565,-9992.780217,-766.095498
2408.188184,296.082377,-10807.006753,-1225.752797
2408.188512,592.164754,-10732.986159,-1762.019645
2408.188839,666.185348,-10140.821405,-1762.019645
2408.189167,592.164754,-10288.862594,-1149.143247
2408.189495,1184.329507,-10288.862594,-536.266849
2408.189822,1184.329507,-9844.739029,229.828649
2408.190150,74.020594,-9770.718434,995.924147
2408.190478,0.000000,-9770.718434,1149.143247
2408.190805,-666.185348,-9400.615463,383.047749
2408.191133,-888.247130,-9844.739029,0.000000
2408.191460,-740.205942,-9548.656652,-383.047749
2408.191788,-962.267725,-9178.553681,-766.095498
2408.192116,-1110.308913,-9030.512492,-612.876398
2408.192443,-370.102971,-9030.512492,-459.657299
2408.192771,-148.041188,-8808.450710,-536.266849
2408.193099,-518.144159,-9548.656652,-383.047749
2408.193426,0.000000,-9548.656652,76.609550
2408.193754,518.144159,-9252.574275,0.000000
2408.194081,1110.308913,-9474.636058,229.828649
2408.194409,1776.494261,-9844.739029,1225.752797
2408.194737,1702.473667,-8956.491898,1225.752797
2408.195064,444.123565,-9326.594869,995.924147
2408.195392,0.000000,-9770.718434,229.828649
2408.195720,-370.102971,-9474.636058,-459.657299
2408.196047,-1258.350101,-9474.636058,-919.314598
2408.196375,-1998.556043,-10362.883188,-536.266849
2408.196703,-1628.453072,-10066.800811,-995.924147
2408.197030,-592.164754,-9696.697840,-1225.752797
2408.197358,74.020594,-9548.656652,-536.266849
2408.197685,962.267725,-9178.553681,-383.047749
2408.198013,1110.308913,-9104.533087,459.657299
2408.198341,518.144159,-9474.636058,612.876398
2408.198668,296.082377,-8956.491898,229.828649
2408.198996,0.000000,-9252.574275,-306.438199
2408.199324,-444.123565,-9844.739029,0.000000
2408.199651,-370.102971,-10510.924376,-612.876398
2408.199979,296.082377,-11621.233289,-1225.752797
2408.200306,888.247130,-11843.295072,-1149.143247
2408.200634,1406.391290,-11103.089130,-995.924147
2408.200962,962.267725,-9844.739029,-612.876398
2408.201289,370.102971,-9474.636058,459.657299
2408.201617,962.267725,-9844.739029,383.047749
2408.201945,444.123565,-9178.553681,76.609550
2408.202272,-518.144159,-9178.553681,919.314598
2408.202600,-592.164754,-9400.615463,76.609550
2408.202927,-222.061783,-9400.615463,-459.657299
2408.203255,-222.061783,-10140.821405,-612.876398
2408.203583,666.185348,-10214.842000,-459.657299
2408.203910,1480.411884,-9918.759623,-383.047749
2408.204238,962.267725,-9548.656652,-306.438199
2408.204566,1258.350101,-9770.718434,-459.657299
2408.204893,1480.411884,-9474.636058,-612.876398
2408.205221,1036.288319,-9622.677246,76.609550
2408.205548,1406.391290,-9474.636058,383.047749
2408.205876,2146.597232,-8882.471304,459.657299
2408.206204,2146.597232,-9474.636058,229.828649
2408.206531,2590.720797,-9844.739029,689.485948
2408.206859,2294.638420,-8882.471304,459.657299
2408.207187,1332.370696,-9252.574275,689.485948
2408.207514,888.247130,-10066.800811,459.657299
2408.207842,814.226536,-9696.697840,0.000000
2408.208169,-148.041188,-9474.636058,-383.047749
2408.208497,-1924.535449,-10140.821405,-459.657299
2408.208825,-1554.432478,-10658.965565,-689.485948
2408.209152,-1480.411884,-9992.780217,-689.485948
2408.209480,-962.267725,-9622.677246,-995.924147
2408.209808,-370.102971,-9104.533087,-995.924147
2408.210135,0.000000,-9252.574275,-383.047749
2408.210463,222.061783,-9400.615463,0.000000
2408.210790,296.082377,-8660.409521,0.000000
2408.211118,296.082377,-8956.491898,459.657299
2408.211446,-814.226536,-9696.697840,459.657299
2408.211773,-518.144159,-10214.842000,0.000000
2408.212101,0.000000,-10362.883188,-766.095498
2408.212429,518.144159,-11029.068536,-459.657299
2408.212756,1036.288319,-10436.903782,-229.828649
2408.213084,592.164754,-10214.842000,-459.657299
2408.213411,-444.123565,-9326.594869,-153.219100
2408.213739,-296.082377,-9622.677246,-536.266849
2408.214067,-740.205942,-9918.759623,-1149.143247
2408.214394,-1850.514855,-9992.780217,-612.876398
2408.214722,-1776.494261,-9400.615463,0.000000
2408.215050,-1184.329507,-9030.512492,0.000000
2408.215377,-592.164754,-9622.677246,459.657299
2408.215705,0.000000,-9844.739029,229.828649
2408.216032,0.000000,-9030.512492,0.000000
2408.216360,0.000000,-8956.491898,-229.828649
2408.216688,-370.102971,-8734.430116,-383.047749
2408.217015,0.000000,-8882.471304,-1149.143247
2408.217343,0.000000,-9474.636058,-842.705048
2408.217671,444.123565,-10214.842000,-229.828649
2408.217998,1850.514855,-9918.759623,-536.266849
2408.218326,2368.659014,-10881.027347,-612.876398
2408.218653,3108.864956,-11399.171507,76.609550
2408.218981,3330.926739,-10362.883188,612.876398
2408.219309,2368.659014,-10214.842000,842.705048
2408.219636,2220.617826,-9696.697840,919.314598
2408.219964,1480.411884,-9104.533087,-612.876398
2408.220292,518.144159,-8290.306550,153.219100
2408.220619,-962.267725,-9474.636058,0.000000
2408.220947,-1110.308913,-9622.677246,-536.266849
2408.221274,-962.267725,-9474.636058,-1302.362347
2408.221602,74.020594,-9844.739029,-1378.971896
2408.221930,1258.350101,-9474.636058,-1072.533697
2408.222257,1702.473667,-9770.718434,-153.219100
2408.222585,1998.556043,-9992.780217,995.924147
2408.222913,1850.514855,-9474.636058,0.000000
2408.223240,1776.494261,-9474.636058,153.219100
2408.223568,518.144159,-9844.739029,842.705048
2408.223895,222.061783,-9918.759623,536.266849
2408.224223,518.144159,-9696.697840,-459.657299
2408.224551,518.144159,-10807.006753,-536.266849
2408.224878,1258.350101,-9844.739029,-919.314598
2408.225206,296.082377,-9104.533087,-536.266849
2408.225533,148.041188,-9696.697840,0.000000
2408.225861,148.041188,-9918.759623,-383.047749
2408.226188,0.000000,-10066.800811,-842.705048
2408.226516,-1184.329507,-9918.759623,0.000000
2408.226844,-814.226536,-9918.759623,459.657299
2408.227171,-518.144159,-9548.656652,153.219100
2408.227499,-1184.329507,-9770.718434,306.438199
2408.227826,-666.185348,-10214.842000,-229.828649
2408.228154,-592.164754,-9696.697840,-766.095498
2408.228481,-1036.288319,-9178.553681,-919.314598
2408.228809,-666.185348,-9474.636058,-383.047749
2408.229137,-592.164754,-8882.471304,-995.924147
2408.229464,-518.144159,-10066.800811,-612.876398
2408.229792,-148.041188,-10436.903782,-842.705048
2408.230119,444.123565,-10362.883188,-229.828649
2408.230447,1332.370696,-10584.944971,229.828649
2408.230775,1998.556043,-11029.068536,1149.143247
2408.231102,2368.659014,-10658.965565,1455.581446
2408.231430,888.247130,-9622.677246,1685.410096
2408.231757,0.000000,-9104.533087,1378.971896
2408.232085,-740.205942,-8586.388927,229.828649
2408.232412,-1924.535449,-8364.327145,-919.314598
2408.232740,-3108.864956,-9030.512492,-689.485948
2408.233068,-2886.803174,-9696.697840,-1302.362347
2408.233395,-1924.535449,-9548.656652,-1302.362347
2408.233723,-592.164754,-9400.615463,-1302.362347
2408.234050,518.144159,-8882.471304,-536.266849
2408.234378,1776.494261,-9474.636058,0.000000
2408.234705,2220.617826,-9770.718434,1149.143247
2408.235033,2590.720797,-8882.471304,919.314598
2408.235361,1702.473667,-8660.409521,383.047749
2408.235688,666.185348,-9252.574275,153.219100
2408.236016,0.000000,-9696.697840,-536.266849
2408.236343,0.000000,-10288.862594,-766.095498
2408.236671,592.164754,-11251.130318,-1072.533697
2408.236999,1480.411884,-10510.924376,-1915.238745
2408.237326,1850.514855,-10140.821405,-1762.019645
2408.237654,1258.350101,-10658.965565,-612.876398
2408.237981,1406.391290,-9400.615463,-306.438199
2408.238309,1702.473667,-8956.491898,-536.266849
2408.238636,518.144159,-9252.574275,229.828649
2408.238964,148.041188,-9696.697840,536.266849
2408.239292,518.144159,-9326.594869,76.609550
2408.239619,444.123565,-9844.739029,306.438199
2408.239947,740.205942,-11029.068536,-459.657299
2408.240274,888.247130,-10584.944971,-1455.581446
2408.240602,518.144159,-10288.862594,-1302.362347
2408.240929,888.247130,-10732.986159,-1378.971896
2408.241257,888.247130,-9992.780217,-1685.410096
2408.241585,740.205942,-9992.780217,-612.876398
2408.241912,592.164754,-9918.759623,383.047749
2408.242240,1332.370696,-9474.636058,842.705048
2408.242567,1406.391290,-9326.594869,1608.800546
2408.242895,1258.350101,-9178.553681,1072.533697
2408.243223,1406.391290,-9252.574275,536.266849
2408.243550,0.000000,-8512.368333,459.657299
2408.243878,-888.247130,-8734.430116,612.876398
2408.244205,-962.267725,-9030.512492,-306.438199
2408.244533,-1110.308913,-9622.677246,-612.876398
2408.244860,-1998.556043,-10288.862594,0.000000
2408.245188,-1702.473667,-10140.821405,-1149.143247
2408.245516,-1036.288319,-10362.883188,-1302.362347
2408.245843,-518.144159,-9252.574275,0.000000
2408.246171,740.205942,-8216.285956,76.609550
2408.246498,814.226536,-8290.306550,842.705048
2408.246826,888.247130,-8586.388927,1378.971896
2408.247153,1184.329507,-7994.224174,612.876398
2408.247481,74.020594,-8808.450710,0.000000
2408.247809,-888.247130,-9992.780217,0.000000
2408.248136,-592.164754,-10510.924376,-1455.581446
2408.248464,-444.123565,-11473.192101,-1608.800546
2408.248791,148.041188,-12065.356855,-1455.581446
2408.249119,1332.370696,-11251.130318,-1532.190996
2408.249446,1258.350101,-10140.821405,-919.314598
2408.249774,814.226536,-10807.006753,-383.047749
2408.250102,222.061783,-9474.636058,0.000000
2408.250429,-296.082377,-8956.491898,-842.705048
2408.250757,-1184.329507,-9252.574275,-306.438199
2408.251084,-1332.370696,-9548.656652,-459.657299
2408.251412,-1036.288319,-9326.594869,-536.266849
2408.251740,0.000000,-9770.718434,-689.485948
2408.252067,666.185348,-10288.862594,-689.485948
2408.252395,1332.370696,-10362.883188,-153.219100
2408.252722,1258.350101,-10362.883188,-612.876398
2408.253050,1554.432478,-10214.842000,-306.438199
2408.253377,1406.391290,-9548.656652,-536.266849
2408.253705,740.205942,-9622.677246,153.219100
2408.254033,814.226536,-9474.636058,689.485948
2408.254360,962.267725,-9252.574275,306.438199
2408.254688,1184.329507,-9770.718434,383.047749
2408.255015,1628.453072,-10066.800811,919.314598
2408.255343,2146.597232,-9400.615463,689.485948
2408.255670,1110.308913,-9178.553681,919.314598
2408.255998,296.082377,-8956.491898,536.266849
2408.256326,222.061783,-8586.388927,0.000000
2408.256653,0.000000,-8808.450710,0.000000
2408.256981,-518.144159,-9622.677246,153.219100
2408.257308,-888.247130,-9252.574275,0.000000
2408.257636,0.000000,-9918.759623,-383.047749
2408.257964,740.205942,-9844.739029,-229.828649
2408.258291,1480.411884,-9252.574275,-229.828649
2408.258619,1924.535449,-9622.677246,306.438199
2408.258946,1110.308913,-9770.718434,306.438199
2408.259274,888.247130,-9252.574275,76.609550
2408.259601,296.082377,-9474.636058,-229.828649
2408.259929,-148.041188,-9992.780217,0.000000
2408.260257,-296.082377,-10214.842000,0.000000
2408.260584,0.000000,-10510.924376,-689.485948
2408.260912,444.123565,-11177.109724,0.000000
2408.261239,888.247130,-10362.883188,-842.705048
2408.261567,814.226536,-9178.553681,-766.095498
2408.261894,0.000000,-9548.656652,-1072.533697
2408.262222,-888.247130,-9844.739029,-306.438199
2408.262550,-814.226536,-9696.697840,-689.485948
2408.262877,-1406.391290,-9696.697840,-919.314598
2408.263205,-1332.370696,-9992.780217,-919.314598
2408.263532,-1036.288319,-10066.800811,-766.095498
2408.263860,-518.144159,-10510.924376,-995.924147
2408.264188,0.000000,-10288.862594,-766.095498
2408.264515,222.061783,-9474.636058,-536.266849
2408.264843,0.000000,-8882.471304,0.000000
2408.265170,296.082377,-8660.409521,-229.828649
2408.265498,444.123565,-8512.368333,-229.828649
2408.265825,0.000000,-8882.471304,-306.438199
2408.266153,-148.041188,-9474.636058,919.314598
2408.266481,592.164754,-9474.636058,0.000000
2408.266808,1184.329507,-9992.780217,0.000000
2408.267136,1776.494261,-10881.027347,459.657299
2408.267463,2072.576638,-10584.944971,612.876398
2408.267791,1184.329507,-9548.656652,459.657299
2408.268118,888.247130,-9178.553681,919.314598
2408.268446,592.164754,-8586.388927,306.438199
2408.268774,-296.082377,-8956.491898,76.609550
2408.269101,-1110.308913,-9326.594869,76.609550
2408.269429,-1258.350101,-9326.594869,-383.047749
2408.269756,-592.164754,-9326.594869,-1225.752797
2408.270084,148.041188,-9770.718434,-689.485948
2408.270412,1628.453072,-9918.759623,-459.657299
2408.270739,2516.700203,-9622.677246,306.438199
2408.271067,2368.659014,-10584.944971,689.485948
2408.271394,2220.617826,-10436.903782,536.266849
2408.271722,1258.350101,-9770.718434,536.266849
2408.272049,222.061783,-10066.800811,459.657299
2408.272377,-296.082377,-10140.821405,-459.657299
2408.272705,74.020594,-10510.924376,-766.095498
2408.273032,148.041188,-10807.006753,-919.314598
2408.273360,666.185348,-9622.677246,-1072.533697
2408.273687,1110.308913,-9030.512492,-689.485948
2408.274015,148.041188,-9178.553681,-229.828649
2408.274342,148.041188,-9696.697840,-383.047749
2408.274670,74.020594,-9474.636058,-383.047749
2408.274998,0.000000,-9770.718434,-766.095498
2408.275325,-444.123565,-9918.759623,153.219100
2408.275653,-222.061783,-9992.780217,229.828649
2408.275980,222.061783,-10214.842000,0.000000
2408.276308,222.061783,-10584.944971,0.000000
2408.276635,0.000000,-9696.697840,-229.828649
2408.276963,-222.061783,-8882.471304,-842.705048
2408.277291,-296.082377,-9104.533087,-1302.362347
2408.277618,74.020594,-9326.594869,-536.266849
2408.277946,74.020594,-9622.677246,-842.705048
2408.278273,0.000000,-10214.842000,306.438199
2408.278601,370.102971,-9400.615463,153.219100
2408.278929,1554.432478,-9770.718434,76.609550
2408.279256,2072.576638,-10807.006753,459.657299
2408.279584,1776.494261,-9992.780217,459.657299
2408.279911,1110.308913,-9252.574275,766.095498
2408.280239,296.082377,-9326.594869,536.266849
2408.280566,-222.061783,-9474.636058,-153.219100
2408.280894,-888.247130,-9474.636058,-689.485948
2408.281222,-1554.432478,-9992.780217,-842.705048
2408.281549,-1258.350101,-10362.883188,-1072.533697
2408.281877,-370.102971,-10140.821405,-1225.752797
2408.282204,444.123565,-9548.656652,-842.705048
2408.282532,1184.329507,-9104.533087,536.266849
2408.282859,1554.432478,-8882.471304,1302.362347
2408.283187,1480.411884,-9030.512492,1991.848295
2408.283515,1332.370696,-8808.450710,1608.800546
2408.283842,370.102971,-8586.388927,612.876398
2408.284170,-1184.329507,-9474.636058,459.657299
2408.284497,-1554.432478,-10214.842000,0.000000
2408.284825,-888.247130,-10955.047942,-1225.752797
2408.285153,-888.247130,-11251.130318,-1685.410096
2408.285480,74.020594,-10955.047942,-1838.629195
2408.285808,592.164754,-9622.677246,-1225.752797
2408.286135,518.144159,-9474.636058,0.000000
2408.286463,296.082377,-8956.491898,306.438199
2408.286790,370.102971,-8364.327145,383.047749
2408.287118,74.020594,-8290.306550,1072.533697
2408.287446,0.000000,-9326.594869,612.876398
2408.287773,0.000000,-9104.533087,0.000000
2408.288101,0.000000,-9696.697840,-612.876398
2408.288428,148.041188,-10584.944971,-766.095498
2408.288756,518.144159,-10214.842000,-919.314598
2408.289083,666.185348,-10288.862594,-1532.190996
2408.289411,1258.350101,-10584.944971,-536.266849
2408.289739,1184.329507,-10584.944971,-842.705048
2408.290066,962.267725,-10436.903782,-536.266849
2408.290394,370.102971,-9844.739029,459.657299
2408.290721,740.205942,-8882.471304,919.314598
2408.291049,1480.411884,-8956.491898,459.657299
2408.291377,1628.453072,-9622.677246,689.485948
2408.291704,1332.370696,-9548.656652,612.876398
2408.292032,0.000000,-9104.533087,76.609550
2408.292359,-962.267725,-9178.553681,0.000000
2408.292687,-740.205942,-9326.594869,-995.924147
2408.293014,-370.102971,-10436.903782,-1225.752797
2408.293342,0.000000,-11103.089130,-1072.533697
2408.293670,222.061783,-10732.986159,-459.657299
2408.293997,592.164754,-10732.986159,-153.219100
2408.294325,1258.350101,-9918.759623,306.438199
2408.294652,1998.556043,-9252.574275,536.266849
2408.294980,1184.329507,-8586.388927,919.314598
2408.295307,1110.308913,-8734.430116,1149.143247
2408.295635,1554.432478,-8216.285956,919.314598
2408.295963,444.123565,-8290.306550,995.924147
2408.296290,-1258.350101,-8956.491898,0.000000
2408.296618,-1184.329507,-10140.821405,-766.095498
2408.296945,-740.205942,-10362.883188,-1455.581446
2408.297273,0.000000,-10732.986159,-1685.410096
2408.297600,1184.329507,-10881.027347,-995.924147
2408.297928,1036.288319,-9622.677246,0.000000
2408.298256,518.144159,-8660.409521,383.047749
2408.298583,518.144159,-9548.656652,306.438199
2408.298911,0.000000,-9770.718434,-459.657299
2408.299238,-518.144159,-9770.718434,-766.095498
2408.299566,-962.267725,-9622.677246,-612.876398
2408.299894,-888.247130,-9696.697840,-612.876398
2408.300221,-444.123565,-9474.636058,-842.705048
2408.300549,444.123565,-10066.800811,-153.219100
2408.300876,814.226536,-10066.800811,-612.876398
2408.301204,814.226536,-10066.800811,-766.095498
2408.301531,1110.308913,-10140.821405,-306.438199
2408.301859,814.226536,-9622.677246,-536.266849
2408.302187,370.102971,-9770.718434,0.000000
2408.302514,-74.020594,-9696.697840,766.095498
2408.302842,0.000000,-9030.512492,-229.828649
2408.303169,370.102971,-9844.739029,0.000000
2408.303497,888.247130,-10955.047942,-459.657299
2408.303824,1036.288319,-10362.883188,-383.047749
2408.304152,444.123565,-9770.718434,0.000000
2408.304480,0.000000,-9474.636058,306.438199
2408.304807,0.000000,-8660.409521,689.485948
2408.305135,74.020594,-9030.512492,0.000000
2408.305462,-888.247130,-9622.677246,306.438199
2408.305790,-740.205942,-9474.636058,229.828649
2408.306118,-222.061783,-9548.656652,76.609550
2408.306445,296.082377,-9770.718434,229.828649
2408.306773,1110.308913,-9474.636058,153.219100
2408.307100,1184.329507,-9474.636058,536.266849
2408.307428,814.226536,-9474.636058,306.438199
2408.307755,592.164754,-8882.471304,229.828649
2408.308083,0.000000,-8364.327145,0.000000
2408.308411,-1036.288319,-8882.471304,229.828649
2408.308738,-1110.308913,-9622.677246,153.219100
2408.309066,-592.164754,-9770.718434,-612.876398
2408.309393,0.000000,-9696.697840,-612.876398
2408.309721,1184.329507,-9474.636058,-612.876398
2408.310048,1184.329507,-8586.388927,-459.657299
2408.310376,740.205942,-9400.615463,0.000000
2408.310704,1110.308913,-10066.800811,-536.266849
2408.311031,1332.370696,-10584.944971,-1225.752797
2408.311359,814.226536,-10732.986159,-689.485948
2408.311686,222.061783,-10955.047942,0.000000
2408.312014,296.082377,-11029.068536,-612.876398
2408.312342,0.000000,-10436.903782,-306.438199
2408.312669,296.082377,-10510.924376,-842.705048
2408.312997,888.247130,-9844.739029,-842.705048
2408.313324,740.205942,-9400.615463,-689.485948
2408.313652,444.123565,-9178.553681,0.000000
2408.313979,0.000000,-8586.388927,-306.438199
2408.314307,-740.205942,-8808.450710,612.876398
2408.314635,-370.102971,-10140.821405,-306.438199
2408.314962,148.041188,-9474.636058,-919.314598
2408.315290,1480.411884,-10436.903782,-383.047749
2408.315617,2590.720797,-11473.192101,689.485948
2408.315945,2664.741391,-10881.027347,689.485948
2408.316272,2220.617826,-10362.883188,459.657299
2408.316600,814.226536,-9918.759623,459.657299
2408.316928,370.102971,-9030.512492,-842.705048
2408.317255,-148.041188,-9030.512492,-383.047749
2408.317583,-1258.350101,-9178.553681,306.438199
2408.317910,-1184.329507,-9104.533087,842.705048
2408.318238,-888.247130,-8438.347739,459.657299
2408.318566,-962.267725,-8586.388927,306.438199
2408.318893,-222.061783,-9400.615463,229.828649
2408.319221,0.000000,-8734.430116,153.219100
2408.319548,0.000000,-8882.471304,766.095498
2408.319876,444.123565,-9178.553681,536.266849
2408.320203,222.061783,-9030.512492,536.266849
2408.320531,-592.164754,-9770.718434,1149.143247
2408.320859,-814.226536,-10140.821405,306.438199
2408.321186,-296.082377,-10658.965565,-1149.143247
2408.321514,296.082377,-10807.006753,-1762.019645
2408.321841,888.247130,-10214.842000,-1302.362347
2408.322169,1036.288319,-9474.636058,-612.876398
2408.322496,1036.288319,-9548.656652,76.609550
2408.322824,888.247130,-10140.821405,383.047749
2408.323152,666.185348,-9770.718434,0.000000
2408.323479,296.082377,-9400.615463,-153.219100
2408.323807,-444.123565,-10214.842000,0.000000
2408.324134,-296.082377,-10214.842000,-766.095498
2408.324462,0.000000,-10288.862594,-612.876398
2408.324789,0.000000,-10658.965565,-1149.143247
2408.325117,296.082377,-10362.883188,-1302.362347
2408.325444,518.144159,-10436.903782,-1225.752797
2408.325772,370.102971,-9770.718434,-612.876398
2408.326099,370.102971,-9622.677246,-1532.190996
2408.326427,0.000000,-9400.615463,-1378.971896
2408.326754,-296.082377,-9992.780217,76.609550
2408.327082,148.041188,-9104.533087,153.219100
2408.327409,1258.350101,-9474.636058,0.000000
2408.327737,2146.597232,-9548.656652,229.828649
2408.328064,2368.659014,-9474.636058,229.828649
2408.328392,1628.453072,-8512.368333,153.219100
2408.328719,592.164754,-8586.388927,842.705048
2408.329047,222.061783,-9104.533087,153.219100
2408.329374,-296.082377,-9326.594869,-383.047749
2408.329702,-1036.288319,-9770.718434,-612.876398
2408.330029,-814.226536,-10140.821405,-536.266849
2408.330357,-296.082377,-9918.759623,-536.266849
2408.330684,444.123565,-9770.718434,-306.438199
2408.331012,888.247130,-10066.800811,459.657299
2408.331339,962.267725,-9030.512492,1072.533697
2408.331667,814.226536,-8364.327145,1072.533697
2408.331994,518.144159,-8290.306550,766.095498
2408.332322,-370.102971,-7994.224174,153.219100
2408.332649,-1258.350101,-8216.285956,0.000000
2408.332977,-1554.432478,-9548.656652,459.657299
2408.333304,-592.164754,-10732.986159,-919.314598
2408.333631,666.185348,-11325.150913,-1608.800546
2408.333959,1628.453072,-11695.253884,-1685.410096
2408.334286,1924.535449,-11251.130318,-766.095498
2408.334614,1628.453072,-10510.924376,-229.828649
2408.334941,1406.391290,-10288.862594,229.828649
2408.335269,740.205942,-9474.636058,0.000000
2408.335596,296.082377,-9474.636058,-229.828649
2408.335924,-1036.288319,-9622.677246,153.219100
2408.336251,-1110.308913,-9474.636058,0.000000
2408.336579,-888.247130,-9622.677246,-919.314598
2408.336906,-444.123565,-9770.718434,-1225.752797
2408.337234,0.000000,-9622.677246,-1302.362347
2408.337561,370.102971,-9696.697840,-766.095498
2408.337889,814.226536,-9844.739029,-766.095498
2408.338216,444.123565,-9548.656652,-459.657299
2408.338544,370.102971,-9696.697840,0.000000
2408.338871,-222.061783,-9548.656652,459.657299
2408.339199,518.144159,-9474.636058,766.095498
2408.339526,814.226536,-9326.594869,459.657299
2408.339854,1258.350101,-10584.944971,153.219100
2408.340181,1480.411884,-9696.697840,0.000000
2408.340509,1258.350101,-8808.450710,229.828649
2408.340836,740.205942,-8956.491898,153.219100
2408.341164,592.164754,-9252.574275,0.000000
2408.341491,0.000000,-9474.636058,76.609550
2408.341819,74.020594,-9844.739029,0.000000
2408.342146,-296.082377,-10288.862594,-153.219100
2408.342474,0.000000,-9548.656652,0.000000
2408.342801,518.144159,-9770.718434,-229.828649
2408.343128,666.185348,-9474.636058,0.000000
2408.343456,666.185348,-9030.512492,153.219100
2408.343783,592.164754,-9178.553681,229.828649
2408.344111,592.164754,-8882.471304,536.266849
2408.344438,296.082377,-8808.450710,306.438199
2408.344766,-740.205942,-9400.615463,-229.828649
2408.345093,-666.185348,-10436.903782,-459.657299
2408.345421,0.000000,-10955.047942,-1149.143247
2408.345748,1258.350101,-11251.130318,-1072.533697
2408.346076,2368.659014,-11029.068536,229.828649
2408.346403,2220.617826,-10214.842000,766.095498
2408.346731,1406.391290,-9400.615463,1149.143247
2408.347058,592.164754,-9474.636058,612.876398
2408.347386,0.000000,-9474.636058,0.000000
2408.347713,-1110.308913,-9474.636058,-766.095498
2408.348041,-1924.535449,-9622.677246,-612.876398
2408.348368,-1850.514855,-9918.759623,-842.705048
2408.348696,-888.247130,-11177.109724,-919.314598
2408.349023,-370.102971,-9918.759623,-383.047749
2408.349351,74.020594,-9474.636058,0.000000
2408.349678,444.123565,-9178.553681,0.000000
2408.350006,222.061783,-8808.450710,0.000000
2408.350333,0.000000,-8586.388927,0.000000
2408.350661,0.000000,-9030.512492,0.000000
2408.350988,-888.247130,-8956.491898,689.485948
2408.351316,-222.061783,-9178.553681,-612.876398
2408.351643,740.205942,-10584.944971,-536.266849
2408.351970,666.185348,-11399.171507,-689.485948
2408.352298,1258.350101,-10658.965565,-383.047749
2408.352625,814.226536,-9844.739029,-612.876398
2408.352953,222.061783,-9696.697840,0.000000
2408.353280,444.123565,-9548.656652,229.828649
2408.353608,666.185348,-8956.491898,306.438199
2408.353935,-666.185348,-9400.615463,689.485948
2408.354263,-814.226536,-9622.677246,612.876398
2408.354590,-370.102971,-9326.594869,0.000000
2408.354918,0.000000,-9252.574275,-459.657299
2408.355245,444.123565,-9474.636058,-383.047749
2408.355573,370.102971,-9326.594869,0.000000
2408.355900,740.205942,-9474.636058,0.000000
2408.356228,1258.350101,-9696.697840,0.000000
2408.356555,1184.329507,-9548.656652,0.000000
2408.356883,592.164754,-9548.656652,0.000000
2408.357210,444.123565,-10140.821405,383.047749
2408.357538,814.226536,-10140.821405,-229.828649
2408.357865,2146.597232,-10140.821405,-383.047749
2408.358193,2294.638420,-9696.697840,-229.828649
2408.358520,2072.576638,-9030.512492,612.876398
2408.358848,962.267725,-8956.491898,919.314598
2408.359175,370.102971,-9104.533087,229.828649
2408.359503,74.020594,-9622.677246,-459.657299
2408.359830,-444.123565,-9992.780217,-612.876398
2408.360158,-370.102971,-10436.903782,-995.924147
2408.360485,-592.164754,-9770.718434,0.000000
2408.360812,-222.061783,-9770.718434,76.609550
2408.361140,148.041188,-10214.842000,-689.485948
2408.361467,0.000000,-9474.636058,-536.266849
2408.361795,74.020594,-9030.512492,-766.095498
2408.362122,222.061783,-8808.450710,-306.438199
2408.362450,592.164754,-8586.388927,-229.828649
2408.362777,444.123565,-8808.450710,76.609550
2408.363105,-370.102971,-9696.697840,0.000000
2408.363432,296.082377,-10436.903782,-612.876398
2408.363760,740.205942,-10807.006753,-1149.143247
2408.364087,1776.494261,-11473.192101,-766.095498
2408.364415,1998.556043,-11029.068536,-306.438199
2408.364742,1702.473667,-10140.821405,383.047749
2408.365070,1628.453072,-10436.903782,842.705048
2408.365397,814.226536,-10066.800811,995.924147
2408.365725,-222.061783,-9474.636058,0.000000
2408.366052,-1480.411884,-9030.512492,-153.219100
2408.366380,-2220.617826,-9474.636058,-612.876398
2408.366707,-2442.679609,-9030.512492,-766.095498
2408.367035,-1258.350101,-8956.491898,-612.876398
2408.367362,-518.144159,-8660.409521,153.219100
2408.367690,0.000000,-8956.491898,0.000000
2408.368017,-296.082377,-9252.574275,536.266849
2408.368345,74.020594,-8956.491898,76.609550
2408.368672,0.000000,-8660.409521,0.000000
2408.369000,-592.164754,-9326.594869,0.000000
2408.369327,-444.123565,-9918.759623,0.000000
2408.369654,1110.308913,-10807.006753,-1991.848295
2408.369982,1258.350101,-10658.965565,-459.657299
2408.370309,2294.638420,-10732.986159,-1149.143247
2408.370637,1850.514855,-10214.842000,-536.266849
2408.370964,1184.329507,-10066.800811,0.000000
2408.371292,888.247130,-9326.594869,229.828649
2408.371619,666.185348,-9030.512492,0.000000
2408.371947,74.020594,-9326.594869,-1072.533697
2408.372274,-666.185348,-8734.430116,306.438199
2408.372602,-814.226536,-8586.388927,0.000000
2408.372929,-370.102971,-9252.574275,-995.924147
2408.373257,148.041188,-10214.842000,-995.924147
2408.373584,518.144159,-10214.842000,-919.314598
2408.373912,740.205942,-9548.656652,-995.924147
2408.374239,1036.288319,-10066.800811,-919.314598
2408.374567,1406.391290,-9770.718434,-842.705048
2408.374894,1406.391290,-10807.006753,-919.314598
2408.375222,740.205942,-10732.986159,-229.828649
2408.375549,814.226536,-10288.862594,76.609550
2408.375877,1850.514855,-9918.759623,229.828649
2408.376204,2516.700203,-10214.842000,459.657299
2408.376532,2664.741391,-10066.800811,919.314598
2408.376859,1702.473667,-8512.368333,689.485948
2408.377187,666.185348,-8882.471304,459.657299
2408.377514,0.000000,-8660.409521,153.219100
2408.377842,-592.164754,-8956.491898,-612.876398
2408.378169,-1184.329507,-9992.780217,0.000000
2408.378496,-1036.288319,-10288.862594,0.000000
2408.378824,-148.041188,-10140.821405,-612.876398
2408.379151,74.020594,-9918.759623,-229.828649
2408.379479,74.020594,-9474.636058,383.047749
2408.379806,222.061783,-8956.491898,536.266849
2408.380134,0.000000,-8364.327145,612.876398
2408.380461,0.000000,-8216.285956,153.219100
2408.380789,0.000000,-8438.347739,0.000000
2408.381116,-962.267725,-8882.471304,919.314598
2408.381444,-1554.432478,-9696.697840,536.266849
2408.381771,-222.061783,-10436.903782,-383.047749
2408.382099,444.123565,-11325.150913,-1378.971896
2408.382426,1332.370696,-10955.047942,-995.924147
2408.382754,1332.370696,-10288.862594,0.000000
2408.383081,1258.350101,-10881.027347,76.609550
2408.383409,222.061783,-10066.800811,459.657299
2408.383736,-666.185348,-9178.553681,229.828649
2408.384064,-2072.576638,-8956.491898,-536.266849
2408.384391,-2516.700203,-9326.594869,-919.314598
2408.384719,-2368.659014,-9252.574275,-1532.190996
2408.385046,-1554.432478,-10066.800811,-1762.019645
2408.385374,-222.061783,-10066.800811,-1378.971896
2408.385701,666.185348,-9992.780217,-1149.143247
2408.386029,1332.370696,-10288.862594,-536.266849
2408.386356,1998.556043,-10066.800811,-306.438199
2408.386684,2072.576638,-9844.739029,-153.219100
2408.387011,2072.576638,-10436.903782,-306.438199
2408.387338,1184.329507,-10584.944971,459.657299
2408.387666,1110.308913,-9844.739029,612.876398
2408.387993,1776.494261,-9918.759623,76.609550
2408.388321,2072.576638,-10732.986159,-229.828649
2408.388648,1776.494261,-10066.800811,-76.609550
2408.388976,1110.308913,-9104.533087,-383.047749
2408.389303,444.123565,-9030.512492,153.219100
2408.389631,370.102971,-9030.512492,76.609550
2408.389958,0.000000,-8734.430116,842.705048
2408.390286,-444.123565,-8956.491898,766.095498
2408.390613,-814.226536,-8882.471304,689.485948
2408.390941,148.041188,-8956.491898,229.828649
2408.391268,1036.288319,-9400.615463,0.000000
2408.391596,1332.370696,-9844.739029,306.438199
2408.391923,1628.453072,-9548.656652,229.828649
2408.392251,1184.329507,-9474.636058,76.609550
2408.392578,1184.329507,-9400.615463,0.000000
2408.392906,1110.308913,-9474.636058,-1149.143247
2408.393233,0.000000,-9696.697840,76.609550
2408.393561,0.000000,-10510.924376,0.000000
2408.393888,148.041188,-10510.924376,-306.438199
2408.394216,148.041188,-10288.862594,-459.657299
2408.394543,888.247130,-10288.862594,-383.047749
2408.394871,74.020594,-9400.615463,-76.609550
2408.395198,-444.123565,-8956.491898,-612.876398
2408.395526,-962.267725,-8956.491898,-536.266849
2408.395853,-1258.350101,-9252.574275,-536.266849
2408.396181,-1776.494261,-9474.636058,-842.705048
2408.396508,-2220.617826,-10436.903782,-995.924147
2408.396835,-1776.494261,-10807.006753,-1225.752797
2408.397163,-518.144159,-10807.006753,-1149.143247
2408.397490,370.102971,-10658.965565,-1455.581446
2408.397818,1110.308913,-10140.821405,-612.876398
2408.398145,1110.308913,-9844.739029,306.438199
2408.398473,814.226536,-9178.553681,612.876398
2408.398800,222.061783,-8882.471304,459.657299
2408.399128,0.000000,-8290.306550,-153.219100
2408.399455,-222.061783,-9030.512492,76.609550
2408.399783,-814.226536,-9474.636058,-306.438199
2408.400110,814.226536,-9992.780217,-689.485948
2408.400438,1184.329507,-10807.006753,-689.485948
2408.400765,1554.432478,-10732.986159,-536.266849
2408.401093,1036.288319,-10066.800811,0.000000
2408.401420,518.144159,-9696.697840,153.219100
2408.401748,296.082377,-9622.677246,153.219100
2408.402075,-296.082377,-8956.491898,-459.657299
2408.402403,-814.226536,-8660.409521,229.828649
2408.402730,-1110.308913,-9178.553681,459.657299
2408.403058,-1036.288319,-8438.347739,306.438199
2408.403385,-296.082377,-9252.574275,-383.047749
2408.403713,592.164754,-9400.615463,-383.047749
2408.404040,1406.391290,-8882.471304,-1455.581446
2408.404368,1036.288319,-8142.265362,306.438199
2408.404695,1406.391290,-9326.594869,536.266849
2408.405023,1702.473667,-9622.677246,153.219100
2408.405350,1110.308913,-10436.903782,459.657299
2408.405677,666.185348,-10732.986159,383.047749
2408.406005,740.205942,-10807.006753,-229.828649
2408.406332,1036.288319,-11251.130318,-919.314598
2408.406660,592.164754,-10436.903782,-536.266849
2408.406987,814.226536,-9622.677246,-995.924147
2408.407315,148.041188,-9252.574275,-383.047749
2408.407642,0.000000,-9400.615463,-229.828649
2408.407970,0.000000,-9474.636058,-766.095498
2408.408297,-148.041188,-9474.636058,-1072.533697
2408.408625,0.000000,-10362.883188,306.438199
2408.408952,0.000000,-9992.780217,-306.438199
2408.409280,888.247130,-10214.842000,-536.266849
2408.409607,1110.308913,-10066.800811,-229.828649
2408.409935,1480.411884,-10288.862594,229.828649
2408.410262,1110.308913,-9770.718434,0.000000
2408.410590,888.247130,-9326.594869,459.657299
2408.410917,370.102971,-9474.636058,-536.266849
2408.411245,0.000000,-9696.697840,-459.657299
2408.411572,-222.061783,-10214.842000,-995.924147
2408.411900,-592.164754,-9770.718434,-536.266849
2408.412227,370.102971,-9992.780217,-995.924147
2408.412555,1036.288319,-10214.842000,-536.266849
2408.412882,1406.391290,-9326.594869,536.266849
2408.413210,1776.494261,-8364.327145,459.657299
2408.413537,148.041188,-8586.388927,1532.190996
2408.413865,0.000000,-8956.491898,995.924147
2408.414192,-814.226536,-8734.430116,383.047749
2408.414519,-1628.453072,-9178.553681,0.000000
2408.414847,-1924.535449,-9844.739029,-459.657299
2408.415174,-1554.432478,-9400.615463,-1072.533697
2408.415502,-518.144159,-10436.903782,-1302.362347
2408.415829,0.000000,-10066.800811,-536.266849
2408.416157,740.205942,-9622.677246,-459.657299
2408.416484,814.226536,-9104.533087,-229.828649
2408.416812,1036.288319,-9030.512492,153.219100
2408.417139,1036.288319,-8734.430116,306.438199
2408.417467,296.082377,-9178.553681,1225.752797
2408.417794,666.185348,-10066.800811,612.876398
2408.418122,444.123565,-10288.862594,-919.314598
2408.418449,518.144159,-10732.986159,-842.705048
2408.418777,518.144159,-11177.109724,-919.314598
2408.419104,1036.288319,-10881.027347,-1225.752797
2408.419432,666.185348,-10362.883188,-766.095498
2408.419759,370.102971,-9770.718434,-229.828649
2408.420087,1036.288319,-9474.636058,229.828649
2408.420414,148.041188,-9252.574275,-153.219100
2408.420742,-370.102971,-9696.697840,229.828649
2408.421069,-888.247130,-9030.512492,0.000000
2408.421397,-148.041188,-9252.574275,-383.047749
2408.421724,296.082377,-9622.677246,-536.266849
2408.422052,888.247130,-9548.656652,459.657299
2408.422379,1036.288319,-9400.615463,383.047749
2408.422707,740.205942,-9548.656652,76.609550
2408.423034,0.000000,-9770.718434,-383.047749
2408.423361,74.020594,-10214.842000,-1072.533697
2408.423689,0.000000,-10362.883188,-306.438199
2408.424016,0.000000,-10066.800811,0.000000
2408.424343,814.226536,-9696.697840,306.438199
2408.424671,1702.473667,-9918.759623,0.000000
2408.424998,1628.453072,-9252.574275,306.438199
2408.425325,740.205942,-7476.080014,1378.971896
2408.425653,222.061783,-8364.327145,0.000000
2408.425980,0.000000,-9252.574275,-229.828649
2408.426307,-444.123565,-9474.636058,-306.438199
2408.426635,-962.267725,-9992.780217,0.000000
2408.426962,-814.226536,-10658.965565,0.000000
2408.427289,0.000000,-10288.862594,-459.657299
2408.427617,74.020594,-10955.047942,-459.657299
2408.427944,148.041188,-10140.821405,-842.705048
2408.428271,1110.308913,-9548.656652,-1378.971896
2408.428599,814.226536,-9252.574275,-689.485948
2408.428926,296.082377,-8882.471304,306.438199
2408.429253,444.123565,-8586.388927,536.266849
2408.429581,-296.082377,-9178.553681,383.047749
2408.429908,296.082377,-10362.883188,76.609550
2408.430235,296.082377,-10214.842000,-536.266849
2408.430562,888.247130,-10881.027347,-919.314598
2408.430890,1332.370696,-11103.089130,-689.485948
2408.431217,1184.329507,-9918.759623,-383.047749
2408.431544,222.061783,-9696.697840,306.438199
2408.431872,0.000000,-9548.656652,536.266849
2408.432199,148.041188,-8882.471304,0.000000
2408.432526,-592.164754,-9030.512492,-612.876398
2408.432854,-1258.350101,-9400.615463,-306.438199
2408.433181,-888.247130,-9326.594869,0.000000
2408.433508,-148.041188,-9252.574275,-612.876398
2408.433836,370.102971,-9548.656652,-459.657299
2408.434163,1036.288319,-9622.677246,383.047749
2408.434490,1184.329507,-9252.574275,459.657299
2408.434818,1110.308913,-9622.677246,459.657299
2408.435145,666.185348,-9918.759623,76.609550
2408.435472,370.102971,-9622.677246,76.609550
2408.435800,-518.144159,-10066.800811,76.609550
2408.436127,-666.185348,-9844.739029,0.000000
2408.436454,444.123565,-9622.677246,-1455.581446
2408.436782,814.226536,-10288.862594,-1225.752797
2408.437109,888.247130,-9622.677246,0.000000
2408.437436,888.247130,-9178.553681,0.000000
2408.437764,444.123565,-9030.512492,306.438199
2408.438091,518.144159,-9622.677246,229.828649
2408.438418,740.205942,-9474.636058,-536.266849
2408.438746,0.000000,-9992.780217,383.047749
2408.439073,-666.185348,-9992.780217,383.047749
2408.439400,-296.082377,-9770.718434,-689.485948
2408.439728,148.041188,-10066.800811,-383.047749
2408.440055,370.102971,-9992.780217,0.000000
2408.440382,814.226536,-9474.636058,-766.095498
2408.440710,1110.308913,-9252.574275,-306.438199
2408.441037,666.185348,-9622.677246,-306.438199
2408.441364,444.123565,-8512.368333,76.609550
2408.441692,148.041188,-9474.636058,306.438199
2408.442019,-518.144159,-9696.697840,612.876398
2408.442346,0.000000,-9770.718434,689.485948
2408.442673,592.164754,-10362.883188,536.266849
2408.443001,592.164754,-9992.780217,76.609550
2408.443328,148.041188,-9252.574275,229.828649
2408.443655,-222.061783,-8660.409521,-689.485948
2408.443983,-1110.308913,-8956.491898,-766.095498
2408.444310,-814.226536,-9326.594869,-1532.190996
2408.444637,-814.226536,-9548.656652,-1532.190996
2408.444965,-666.185348,-10584.944971,-689.485948
2408.445292,296.082377,-10658.965565,-383.047749
2408.445619,740.205942,-9992.780217,-612.876398
2408.445947,1554.432478,-10807.006753,229.828649
2408.446274,1628.453072,-9918.759623,306.438199
2408.446601,1924.535449,-9548.656652,306.438199
2408.446929,1480.411884,-9326.594869,459.657299
2408.447256,814.226536,-8882.471304,306.438199
2408.447583,-148.041188,-8956.491898,0.000000
2408.447911,-666.185348,-9696.697840,-1378.971896
2408.448238,-962.267725,-9770.718434,-1378.971896
2408.448565,74.020594,-9992.780217,-1608.800546
2408.448893,1480.411884,-10955.047942,-1532.190996
2408.449220,2146.597232,-10955.047942,-383.047749
2408.449547,1776.494261,-10066.800811,0.000000
2408.449875,888.247130,-9548.656652,536.266849
2408.450202,1184.329507,-9918.759623,842.705048
2408.450529,518.144159,-9622.677246,459.657299
2408.450857,-888.247130,-9474.636058,229.828649
2408.451184,-1480.411884,-9474.636058,306.438199
2408.451511,-1406.391290,-9178.553681,0.000000
2408.451839,-888.247130,-9770.718434,-383.047749
2408.452166,-444.123565,-9474.636058,-229.828649
2408.452493,-666.185348,-8660.409521,-383.047749
2408.452821,592.164754,-9770.718434,-459.657299
2408.453148,370.102971,-9474.636058,229.828649
2408.453475,444.123565,-8956.491898,459.657299
2408.453803,-222.061783,-8956.491898,1302.362347
2408.454130,-1036.288319,-9474.636058,1455.581446
2408.454457,-592.164754,-9918.759623,76.609550
2408.454785,222.061783,-10140.821405,-842.705048
2408.455112,518.144159,-10732.986159,-306.438199
2408.455439,222.061783,-9474.636058,-153.219100
2408.455766,222.061783,-8808.450710,-306.438199
2408.456094,148.041188,-9178.553681,-306.438199
2408.456421,814.226536,-9548.656652,-766.095498
2408.456748,1036.288319,-9474.636058,-919.314598
2408.457076,1036.288319,-10288.862594,-536.266849
2408.457403,814.226536,-10214.842000,0.000000
2408.457730,1258.350101,-10214.842000,0.000000
2408.458058,2368.659014,-10214.842000,229.828649
2408.458385,2368.659014,-9992.780217,306.438199
2408.458712,1998.556043,-10436.903782,0.000000
2408.459040,1110.308913,-9844.739029,-229.828649
2408.459367,370.102971,-9252.574275,-612.876398
2408.459694,-592.164754,-9030.512492,-1378.971896
2408.460022,-1480.411884,-9622.677246,-1302.362347
2408.460349,-1258.350101,-10066.800811,-1149.143247
2408.460676,-148.041188,-9918.759623,-1225.752797
2408.461004,1554.432478,-10732.986159,-919.314598
2408.461331,2590.720797,-10362.883188,0.000000
2408.461658,2368.659014,-9400.615463,229.828649
2408.461986,2220.617826,-9474.636058,2068.457845
2408.462313,888.247130,-9326.594869,612.876398
2408.462640,444.123565,-9252.574275,0.000000
2408.462968,-888.247130,-9770.718434,-306.438199
2408.463295,-1554.432478,-9622.677246,-153.219100
2408.463622,-1406.391290,-9474.636058,-842.705048
2408.463950,-592.164754,-10955.047942,-229.828649
2408.464277,222.061783,-10436.903782,-306.438199
2408.464604,592.164754,-9030.512492,-536.266849
2408.464932,296.082377,-8364.327145,153.219100
2408.465259,74.020594,-8364.327145,689.485948
2408.465586,74.020594,-8438.347739,842.705048
2408.465914,-444.123565,-8438.347739,689.485948
2408.466241,-888.247130,-9178.553681,229.828649
2408.466568,0.000000,-9992.780217,0.000000
2408.466896,518.144159,-11251.130318,-536.266849
2408.467223,518.144159,-11843.295072,-842.705048
2408.467550,518.144159,-11029.068536,-1072.533697
2408.467878,0.000000,-10362.883188,-1302.362347
2408.468205,0.000000,-10658.965565,-1072.533697
2408.468532,-222.061783,-9696.697840,-689.485948
2408.468859,0.000000,-9696.697840,0.000000
2408.469187,-518.144159,-9770.718434,689.485948
2408.469514,-1332.370696,-9400.615463,306.438199
2408.469841,-1850.514855,-8882.471304,0.000000
2408.470169,-1406.391290,-9252.574275,-612.876398
2408.470496,-518.144159,-9252.574275,-1149.143247
2408.470823,-888.247130,-9474.636058,-689.485948
2408.471151,-592.164754,-10288.862594,-689.485948
2408.471478,-592.164754,-9844.739029,-919.314598
2408.471805,-592.164754,-9844.739029,-919.314598
2408.472133,-962.267725,-10510.924376,-766.095498
2408.472460,-518.144159,-10214.842000,-153.219100
2408.472787,1332.370696,-9622.677246,-995.924147
2408.473115,2368.659014,-10214.842000,-153.219100
2408.473442,1924.535449,-9030.512492,1072.533697
2408.473769,1850.514855,-8512.368333,1302.362347
2408.474097,1036.288319,-8734.430116,1685.410096
2408.474424,-222.061783,-8438.347739,919.314598
2408.474751,148.041188,-9030.512492,-383.047749
2408.475079,-222.061783,-10066.800811,-383.047749
2408.475406,-444.123565,-9770.718434,766.095498
2408.475733,74.020594,-9844.739029,0.000000
2408.476061,962.267725,-10362.883188,-383.047749
2408.476388,1036.288319,-9992.780217,-459.657299
2408.476715,1406.391290,-9104.533087,-229.828649
2408.477043,1406.391290,-9252.574275,-383.047749
2408.477370,1480.411884,-9178.553681,229.828649
2408.477697,1776.494261,-7994.224174,459.657299
2408.478025,444.123565,-8808.450710,689.485948
2408.478352,-296.082377,-10140.821405,612.876398
2408.478679,888.247130,-10955.047942,-306.438199
2408.479007,1702.473667,-11251.130318,-1685.410096
2408.479334,2146.597232,-11399.171507,-1072.533697
2408.479661,2368.659014,-10436.903782,-689.485948
2408.479989,1850.514855,-9252.574275,229.828649
2408.480316,1036.288319,-9696.697840,459.657299
2408.480643,1110.308913,-9844.739029,229.828649
2408.480971,592.164754,-9548.656652,-536.266849
2408.481298,-296.082377,-10066.800811,-229.828649
2408.481625,-666.185348,-9918.759623,-229.828649
2408.481952,-222.061783,-10066.800811,-383.047749
2408.482280,-518.144159,-10288.862594,0.000000
2408.482607,222.061783,-10807.006753,-459.657299
2408.482934,0.000000,-9474.636058,229.828649
2408.483262,222.061783,-9252.574275,0.000000
2408.483589,0.000000,-9104.533087,0.000000
2408.483916,-962.267725,-8734.430116,0.000000
2408.484244,-1850.514855,-8808.450710,919.314598
2408.484571,-1110.308913,-8734.430116,0.000000
2408.484898,74.020594,-8882.471304,-689.485948
2408.485226,1110.308913,-10362.883188,-766.095498
2408.485553,1776.494261,-10140.821405,0.000000
2408.485880,1332.370696,-9844.739029,76.609550
2408.486208,518.144159,-9992.780217,459.657299
2408.486535,0.000000,-10140.821405,1225.752797
2408.486862,0.000000,-9400.615463,-306.438199
2408.487190,-1184.329507,-9474.636058,-612.876398
2408.487517,-1628.453072,-9844.739029,-383.047749
2408.487844,-1406.391290,-9474.636058,-842.705048
2408.488172,-814.226536,-9474.636058,-536.266849
2408.488499,-222.061783,-9178.553681,-919.314598
2408.488826,444.123565,-9252.574275,-612.876398
2408.489154,0.000000,-8734.430116,-383.047749
2408.489481,370.102971,-8882.471304,-306.438199
2408.489808,296.082377,-9178.553681,-689.485948
2408.490136,0.000000,-10140.821405,76.609550
2408.490463,0.000000,-11325.150913,153.219100
2408.490790,296.082377,-11547.212695,-306.438199
2408.491118,1184.329507,-10955.047942,-766.095498
2408.491445,1406.391290,-11029.068536,-1838.629195
2408.491772,888.247130,-9474.636058,-536.266849
2408.492100,444.123565,-9252.574275,-919.314598
2408.492427,222.061783,-9326.594869,0.000000
2408.492754,444.123565,-9326.594869,-306.438199
2408.493082,148.041188,-9622.677246,-306.438199
2408.493409,-296.082377,-9918.759623,-153.219100
2408.493736,222.061783,-9770.718434,0.000000
2408.494064,518.144159,-9844.739029,306.438199
2408.494391,962.267725,-10066.800811,383.047749
2408.494718,1480.411884,-10214.842000,689.485948
2408.495045,1110.308913,-9474.636058,612.876398
2408.495373,518.144159,-8734.430116,153.219100
2408.495700,148.041188,-9030.512492,0.000000
2408.496027,-592.164754,-8586.388927,0.000000
2408.496355,-518.144159,-9474.636058,-459.657299
2408.496682,74.020594,-9326.594869,-536.266849
2408.497009,1554.432478,-9474.636058,-842.705048
2408.497337,2516.700203,-10436.903782,0.000000
2408.497664,2590.720797,-10066.800811,842.705048
2408.497991,2368.659014,-9548.656652,1072.533697
2408.498319,1850.514855,-9844.739029,766.095498
2408.498646,1036.288319,-9696.697840,1225.752797
2408.498973,444.123565,-9474.636058,306.438199
2408.499301,-1036.288319,-9474.636058,229.828649
2408.499628,-2368.659014,-10362.883188,-383.047749
2408.499955,-2220.617826,-10362.883188,-1532.190996
2408.500283,-1184.329507,-10066.800811,-2068.457845
2408.500610,0.000000,-8882.471304,-1532.190996
2408.500937,740.205942,-8808.450710,-1685.410096
2408.501265,888.247130,-9474.636058,0.000000
2408.501592,1110.308913,-9326.594869,1072.533697
2408.501919,592.164754,-8956.491898,842.705048
2408.502247,-592.164754,-9474.636058,842.705048
2408.502574,-962.267725,-10140.821405,0.000000
2408.502901,-740.205942,-11251.130318,-612.876398
2408.503229,0.000000,-11547.212695,-1455.581446
2408.503556,296.082377,-11251.130318,-1685.410096
2408.503883,-148.041188,-10436.903782,-1225.752797
2408.504211,-148.041188,-9696.697840,-842.705048
2408.504538,-296.082377,-9770.718434,-459.657299
2408.504865,0.000000,-9326.594869,-766.095498
2408.505193,0.000000,-9178.553681,0.000000
2408.505520,-222.061783,-8660.409521,1378.971896
2408.505847,0.000000,-8438.347739,1149.143247
2408.506175,0.000000,-8734.430116,1225.752797
2408.506502,444.123565,-9696.697840,842.705048
2408.506829,666.185348,-9770.718434,229.828649
2408.507157,-296.082377,-9104.533087,-459.657299
2408.507484,0.000000,-8660.409521,-612.876398
2408.507811,148.041188,-8660.409521,-612.876398
2408.508138,-666.185348,-8956.491898,-919.314598
2408.508466,-592.164754,-9992.780217,-536.266849
2408.508793,592.164754,-10436.903782,-689.485948
2408.509120,2072.576638,-9844.739029,-459.657299
2408.509448,3330.926739,-10510.924376,0.000000
2408.509775,3552.988522,-10066.800811,689.485948
2408.510102,2960.823768,-9622.677246,1838.629195
2408.510430,2146.597232,-10214.842000,919.314598
2408.510757,666.185348,-9918.759623,842.705048
2408.511084,0.000000,-9474.636058,-689.485948
2408.511412,-962.267725,-10214.842000,-1302.362347
2408.511739,-1924.535449,-10955.047942,-1532.190996
2408.512066,-1184.329507,-10807.006753,-1685.410096
2408.512394,0.000000,-10955.047942,-1608.800546
2408.512721,740.205942,-10066.800811,-842.705048
2408.513048,1184.329507,-9326.594869,0.000000
2408.513376,1702.473667,-8512.368333,0.000000
2408.513703,1258.350101,-8808.450710,612.876398
2408.514030,1184.329507,-8956.491898,995.924147
2408.514358,666.185348,-9326.594869,1532.190996
2408.514685,74.020594,-9474.636058,1149.143247
2408.515012,-370.102971,-10732.986159,-306.438199
2408.515340,592.164754,-11621.233289,-1685.410096
2408.515667,740.205942,-11325.150913,-1532.190996
2408.515994,888.247130,-10140.821405,-842.705048
2408.516322,1036.288319,-9474.636058,0.000000
2408.516649,962.267725,-9622.677246,612.876398
2408.516976,740.205942,-9400.615463,612.876398
2408.517304,814.226536,-8808.450710,76.609550
2408.517631,-370.102971,-8438.347739,842.705048
2408.517958,-962.267725,-8216.285956,536.266849
2408.518286,-962.267725,-8512.368333,0.000000
2408.518613,-740.205942,-9104.533087,0.000000
2408.518940,-222.061783,-9178.553681,0.000000
2408.519268,0.000000,-9326.594869,-612.876398
2408.519595,-814.226536,-9770.718434,-1149.143247
2408.519922,-740.205942,-9696.697840,-1225.752797
2408.520250,-888.247130,-9770.718434,-1302.362347
2408.520577,-962.267725,-10214.842000,-919.314598
2408.520904,74.020594,-10362.883188,-995.924147
2408.521231,1628.453072,-9326.594869,-229.828649
2408.521559,2516.700203,-10214.842000,76.609550
2408.521886,2368.659014,-10066.800811,1149.143247
2408.522213,2072.576638,-10140.821405,612.876398
2408.522541,1184.329507,-10436.903782,153.219100
2408.522868,0.000000,-9992.780217,0.000000
2408.523195,-370.102971,-9696.697840,-919.314598
2408.523523,-1406.391290,-9992.780217,-1149.143247
2408.523850,-1406.391290,-10510.924376,-842.705048
2408.524177,-1184.329507,-9918.759623,-1072.533697
2408.524505,-148.041188,-10140.821405,-1302.362347
2408.524829,518.144159,-9030.512492,-766.095498
2408.525156,888.247130,-8216.285956,-229.828649
2408.525484,888.247130,-8512.368333,459.657299
2408.525811,814.226536,-8364.327145,919.314598
2408.526138,888.247130,-8438.347739,306.438199
2408.526465,296.082377,-8586.388927,995.924147
2408.526793,222.061783,-10955.047942,383.047749
2408.527120,888.247130,-11325.150913,0.000000
2408.527447,1258.350101,-11251.130318,-919.314598
2408.527775,1554.432478,-10732.986159,-229.828649
2408.528102,1776.494261,-9400.615463,-306.438199
2408.528429,1480.411884,-8512.368333,229.828649
2408.528757,740.205942,-8142.265362,459.657299
2408.529084,222.061783,-8364.327145,459.657299
2408.529411,0.000000,-8586.388927,306.438199
2408.529739,-444.123565,-9252.574275,766.095498
2408.530066,-666.185348,-9104.533087,0.000000
2408.530393,-370.102971,-8808.450710,-612.876398
2408.530720,74.020594,-10288.862594,-766.095498
2408.531048,592.164754,-10732.986159,-842.705048
2408.531375,888.247130,-9918.759623,-612.876398
2408.531702,888.247130,-9918.759623,-383.047749
2408.532030,592.164754,-9770.718434,-306.438199
2408.532357,222.061783,-9918.759623,-383.047749
2408.532684,148.041188,-9696.697840,-1455.581446
2408.533012,666.185348,-9474.636058,-995.924147
2408.533339,1258.350101,-9770.718434,-1072.533697
2408.533666,1924.535449,-10436.903782,-306.438199
2408.533994,2072.576638,-10288.862594,383.047749
2408.534321,1258.350101,-10436.903782,459.657299
2408.534648,-296.082377,-10732.986159,153.219100
2408.534975,-962.267725,-9622.677246,0.000000
2408.535303,-666.185348,-9030.512492,-536.266849
2408.535630,-1850.514855,-9474.636058,-689.485948
2408.535957,-2368.659014,-9918.759623,-306.438199
2408.536285,-2072.576638,-9474.636058,-383.047749
2408.536612,-962.267725,-9326.594869,-1149.143247
2408.536939,-518.144159,-8660.409521,-1532.190996
2408.537267,0.000000,-8586.388927,-995.924147
2408.537594,222.061783,-8142.265362,0.000000
2408.537921,814.226536,-8808.450710,842.705048
2408.538249,1184.329507,-9252.574275,1072.533697
2408.538576,666.185348,-9770.718434,1302.362347
2408.538903,518.144159,-10658.965565,1072.533697
2408.539230,518.144159,-10658.965565,76.609550
2408.539558,592.164754,-10436.903782,-383.047749
2408.539885,888.247130,-10214.842000,-306.438199
2408.540212,518.144159,-9104.533087,-383.047749
2408.540540,-444.123565,-8216.285956,0.000000
2408.540867,-592.164754,-8512.368333,0.000000
2408.541194,-296.082377,-9178.553681,-306.438199
2408.541522,-666.185348,-9548.656652,-153.219100
2408.541849,-1110.308913,-9770.718434,-383.047749
2408.542176,-444.123565,-9474.636058,-766.095498
2408.542504,814.226536,-10362.883188,-612.876398
2408.542831,1036.288319,-10955.047942,-229.828649
2408.543158,1554.432478,-10807.006753,306.438199
2408.543485,1406.391290,-10140.821405,0.000000
2408.543813,1110.308913,-9770.718434,0.000000
2408.544140,888.247130,-9400.615463,-383.047749
2408.544467,74.020594,-9030.512492,-689.485948
2408.544795,0.000000,-10362.883188,-689.485948
2408.545122,222.061783,-10584.944971,-842.705048
2408.545449,1258.350101,-10362.883188,-536.266849
2408.545777,1702.473667,-10436.903782,0.000000
2408.546104,1776.494261,-9844.739029,919.314598
2408.546431,888.247130,-8882.471304,1608.800546
2408.546758,74.020594,-9474.636058,1302.362347
2408.547086,-888.247130,-9104.533087,842.705048
2408.547413,-962.267725,-8512.368333,-306.438199
2408.547740,-1850.514855,-8808.450710,-536.266849
2408.548068,-2146.597232,-9844.739029,-536.266849
2408.548395,-1332.370696,-10140.821405,-766.095498
2408.548722,0.000000,-9622.677246,-842.705048
2408.549050,962.267725,-9104.533087,-536.266849
2408.549377,1184.329507,-8808.450710,-153.219100
2408.549704,1702.473667,-9030.512492,689.485948
2408.550032,1850.514855,-8956.491898,1685.410096
2408.550359,1702.473667,-8956.491898,1532.190996
2408.550686,1110.308913,-9104.533087,1149.143247
2408.551013,592.164754,-9622.677246,1455.581446
2408.551341,148.041188,-9622.677246,842.705048
2408.551668,518.144159,-10807.006753,-459.657299
2408.551995,592.164754,-11029.068536,-1762.019645
2408.552323,518.144159,-10362.883188,-1991.848295
2408.552650,74.020594,-9844.739029,-1378.971896
2408.552977,0.000000,-9696.697840,-995.924147
2408.553305,296.082377,-9622.677246,153.219100
2408.553632,0.000000,-9622.677246,0.000000
2408.553959,-962.267725,-9622.677246,-919.314598
2408.554287,-518.144159,-9770.718434,-153.219100
2408.554614,74.020594,-9696.697840,0.000000
2408.554941,444.123565,-10214.842000,76.609550
2408.555268,592.164754,-10066.800811,0.000000
2408.555596,518.144159,-9178.553681,-536.266849
2408.555923,370.102971,-8882.471304,0.000000
2408.556250,370.102971,-8956.491898,-1532.190996
2408.556578,0.000000,-9622.677246,-1149.143247
2408.556905,0.000000,-10436.903782,-459.657299
2408.557232,0.000000,-10214.842000,0.000000
2408.557560,962.267725,-9918.759623,76.609550
2408.557887,1850.514855,-10584.944971,612.876398
2408.558214,1776.494261,-9622.677246,1378.971896
2408.558542,888.247130,-9030.512492,1072.533697
2408.558869,0.000000,-8512.368333,1378.971896
2408.559196,-518.144159,-8586.388927,766.095498
2408.559523,-1184.329507,-8586.388927,-306.438199
2408.559851,-1998.556043,-9104.533087,-689.485948
2408.560178,-2220.617826,-9770.718434,-919.314598
2408.560505,-1110.308913,-9696.697840,-766.095498
2408.560833,-518.144159,-9400.615463,-1149.143247
2408.561160,1036.288319,-9548.656652,-383.047749
2408.561487,1998.556043,-9400.615463,229.828649
2408.561815,1628.453072,-9474.636058,1378.971896
2408.562142,1776.494261,-9474.636058,1685.410096
2408.562469,1036.288319,-9178.553681,229.828649
2408.562796,0.000000,-8882.471304,536.266849
2408.563124,-1036.288319,-9548.656652,0.000000
2408.563451,-740.205942,-10807.006753,-1072.533697
2408.563778,0.000000,-11473.192101,-1991.848295
2408.564106,1036.288319,-11399.171507,-1838.629195
2408.564433,1110.308913,-10436.903782,-1225.752797
2408.564760,1110.308913,-10140.821405,-612.876398
2408.565088,888.247130,-9992.780217,459.657299
2408.565415,1406.391290,-9696.697840,-842.705048
2408.565742,74.020594,-9030.512492,-229.828649
2408.566070,-518.144159,-9326.594869,76.609550
2408.566397,-740.205942,-9400.615463,612.876398
2408.566724,-370.102971,-9622.677246,0.000000
2408.567051,0.000000,-9992.780217,-459.657299
2408.567379,0.000000,-9696.697840,-689.485948
2408.567706,518.144159,-9252.574275,-536.266849
2408.568033,962.267725,-9474.636058,-766.095498
2408.568361,888.247130,-9326.594869,-612.876398
2408.568688,814.226536,-9326.594869,0.000000
2408.569015,592.164754,-9770.718434,689.485948
2408.569343,1406.391290,-9696.697840,1149.143247
2408.569670,1924.535449,-9178.553681,919.314598
2408.569997,1628.453072,-9474.636058,229.828649
2408.570325,1554.432478,-9696.697840,919.314598
2408.570652,888.247130,-9104.533087,459.657299
2408.570979,0.000000,-9104.533087,306.438199
2408.571306,-740.205942,-9400.615463,0.000000
2408.571634,-518.144159,-9474.636058,0.000000
2408.571961,-888.247130,-9622.677246,-612.876398
2408.572288,-1036.288319,-9770.718434,-1378.971896
2408.572616,-1036.288319,-9844.739029,-842.705048
2408.572943,148.041188,-9622.677246,-536.266849
2408.573270,814.226536,-9178.553681,0.000000
2408.573598,1036.288319,-8882.471304,383.047749
2408.573925,962.267725,-9400.615463,689.485948
2408.574252,814.226536,-9844.739029,689.485948
2408.574580,-222.061783,-9474.636058,459.657299
2408.574907,-518.144159,-9992.780217,-459.657299
2408.575234,-1332.370696,-11103.089130,-766.095498
2408.575561,-1110.308913,-11769.274478,-1072.533697
2408.575889,0.000000,-11251.130318,-1455.581446
2408.576216,666.185348,-10732.986159,-1225.752797
2408.576543,1258.350101,-9622.677246,0.000000
2408.576871,0.000000,-9104.533087,229.828649
2408.577198,-222.061783,-8956.491898,536.266849
2408.577525,-1036.288319,-8956.491898,0.000000
2408.577853,-1184.329507,-9252.574275,-612.876398
2408.578180,-1850.514855,-9622.677246,-689.485948
2408.578507,-1776.494261,-9548.656652,-306.438199
2408.578835,-814.226536,-9696.697840,-383.047749
2408.579162,296.082377,-10658.965565,0.000000
2408.579489,888.247130,-10436.903782,-306.438199
2408.579816,1406.391290,-9844.739029,-383.047749
2408.580144,1406.391290,-8956.491898,-153.219100
2408.580471,1554.432478,-8882.471304,76.609550
2408.580798,1036.288319,-8290.306550,229.828649
2408.581126,222.061783,-8586.388927,1378.971896
2408.581453,1110.308913,-8734.430116,919.314598
2408.581780,1628.453072,-9252.574275,0.000000
2408.582108,1998.556043,-10140.821405,0.000000
2408.582435,2072.576638,-10140.821405,153.219100
2408.582762,1702.473667,-10066.800811,0.000000
2408.583089,1628.453072,-9770.718434,-459.657299
2408.583417,1110.308913,-10214.842000,76.609550
2408.583744,814.226536,-8956.491898,0.000000
2408.584071,74.020594,-9400.615463,229.828649
2408.584399,-518.144159,-10066.800811,-536.266849
2408.584726,-370.102971,-10066.800811,-919.314598
2408.585053,370.102971,-9252.574275,-1149.143247
2408.585381,1628.453072,-9030.512492,-1225.752797
2408.585708,962.267725,-9474.636058,-76.609550
2408.586035,1184.329507,-9474.636058,229.828649
2408.586363,962.267725,-9770.718434,0.000000
2408.586690,518.144159,-10066.800811,0.000000
2408.587017,0.000000,-10140.821405,229.828649
2408.587344,-370.102971,-10881.027347,459.657299
2408.587672,-444.123565,-11103.089130,0.000000
2408.587999,0.000000,-10881.027347,-766.095498
2408.588326,444.123565,-10658.965565,-536.266849
2408.588654,518.144159,-9474.636058,-383.047749
2408.588981,-222.061783,-8438.347739,-229.828649
2408.589308,-518.144159,-8586.388927,-229.828649
2408.589636,-666.185348,-9104.533087,-383.047749
2408.589963,0.000000,-10066.800811,-612.876398
2408.590290,-666.185348,-9474.636058,0.000000
2408.590618,-666.185348,-9474.636058,612.876398
2408.590945,-518.144159,-9548.656652,-383.047749
2408.591272,0.000000,-10362.883188,-229.828649
2408.591599,296.082377,-10066.800811,0.000000
2408.591927,296.082377,-8956.491898,0.000000
2408.592254,962.267725,-8808.450710,459.657299
2408.592581,222.061783,-9030.512492,229.828649
2408.592909,-592.164754,-9030.512492,-536.266849
2408.593236,-740.205942,-9474.636058,-383.047749
2408.593563,-962.267725,-9918.759623,-612.876398
2408.593891,222.061783,-9992.780217,-766.095498
2408.594218,1184.329507,-10436.903782,-306.438199
2408.594545,1110.308913,-10066.800811,689.485948
2408.594873,1036.288319,-9770.718434,919.314598
2408.595200,74.020594,-9770.718434,229.828649
2408.595527,-592.164754,-8734.430116,229.828649
2408.595854,-888.247130,-8882.471304,-612.876398
2408.596182,-1332.370696,-9474.636058,-1149.143247
2408.596509,-1850.514855,-10066.800811,-1149.143247
2408.596836,-666.185348,-10436.903782,-1149.143247
2408.597164,814.226536,-9844.739029,-2604.724693
2408.597491,1184.329507,-9474.636058,-306.438199
2408.597818,1332.370696,-9844.739029,0.000000
2408.598146,1850.514855,-9918.759623,306.438199
2408.598473,2072.576638,-9770.718434,766.095498
2408.598800,1702.473667,-9400.615463,1072.533697
2408.599128,518.144159,-9252.574275,1532.190996
2408.599455,0.000000,-9696.697840,1149.143247
2408.599782,-370.102971,-10140.821405,0.000000
2408.600109,592.164754,-10436.903782,-1532.190996
2408.600437,888.247130,-10658.965565,-1608.800546
2408.600764,1184.329507,-9622.677246,-1149.143247
2408.601091,1258.350101,-8734.430116,-766.095498
2408.601419,1554.432478,-9474.636058,-536.266849
2408.601746,1036.288319,-9622.677246,0.000000
2408.602073,1480.411884,-9844.739029,-306.438199
2408.602401,814.226536,-9548.656652,229.828649
2408.602728,370.102971,-9622.677246,306.438199
2408.603055,444.123565,-10066.800811,0.000000
2408.603382,370.102971,-10436.903782,-153.219100
2408.603710,296.082377,-9474.636058,0.000000
2408.604037,814.226536,-8808.450710,0.000000
2408.604364,592.164754,-9474.636058,-612.876398
2408.604692,444.123565,-9030.512492,0.000000
2408.605019,222.061783,-9548.656652,-306.438199
2408.605346,148.041188,-10362.883188,0.000000
2408.605674,296.082377,-10140.821405,0.000000
2408.606001,740.205942,-9844.739029,0.000000
2408.606328,1406.391290,-9918.759623,229.828649
2408.606656,1850.514855,-10362.883188,1072.533697
2408.606983,1258.350101,-10066.800811,766.095498
2408.607310,-444.123565,-9474.636058,383.047749
2408.607637,-1480.411884,-9400.615463,0.000000
2408.607965,-1406.391290,-9400.615463,-842.705048
2408.608292,-1702.473667,-9474.636058,-1149.143247
2408.608619,-2294.638420,-9548.656652,-1225.752797
2408.608947,-1480.411884,-10140.821405,-1608.800546
2408.609274,-592.164754,-10066.800811,-459.657299
2408.609601,592.164754,-9770.718434,0.000000
2408.609929,444.123565,-9474.636058,842.705048
2408.610256,0.000000,-8882.471304,995.924147
2408.610583,222.061783,-8660.409521,995.924147
2408.610911,-592.164754,-8438.347739,1072.533697
2408.611238,-1258.350101,-8734.430116,842.705048
2408.611565,-1850.514855,-9622.677246,153.219100
2408.611892,-1258.350101,-10288.862594,-766.095498
2408.612220,-296.082377,-10881.027347,-1915.238745
2408.612547,296.082377,-11029.068536,-1991.848295
2408.612874,666.185348,-9844.739029,-1225.752797
2408.613202,962.267725,-8586.388927,-229.828649
2408.613529,1554.432478,-10066.800811,-229.828649
2408.613856,1036.288319,-9474.636058,536.266849
2408.614184,1184.329507,-9622.677246,76.609550
2408.614511,444.123565,-9844.739029,76.609550
2408.614838,0.000000,-9770.718434,-229.828649
2408.615166,-740.205942,-9770.718434,-1072.533697
2408.615493,370.102971,-10510.924376,-1225.752797
2408.615820,1036.288319,-9770.718434,-1072.533697
2408.616147,1406.391290,-9844.739029,-1455.581446
2408.616475,1554.432478,-9918.759623,-995.924147
2408.616802,1480.411884,-10066.800811,-612.876398
2408.617129,1406.391290,-9770.718434,-383.047749
2408.617457,666.185348,-9252.574275,76.609550
2408.617784,592.164754,-9622.677246,-153.219100
2408.618111,1036.288319,-9696.697840,0.000000
2408.618439,2072.576638,-10214.842000,229.828649
2408.618766,2590.720797,-10140.821405,459.657299
2408.619093,1998.556043,-9992.780217,919.314598
2408.619420,888.247130,-9770.718434,459.657299
2408.619748,148.041188,-9474.636058,0.000000
2408.620075,-296.082377,-9474.636058,-536.266849
2408.620402,-1110.308913,-9622.677246,-612.876398
2408.620730,-1184.329507,-9770.718434,-766.095498
2408.621057,-888.247130,-9400.615463,306.438199
2408.621384,0.000000,-8882.471304,153.219100
2408.621712,222.061783,-8586.388927,536.266849
2408.622039,0.000000,-8438.347739,1302.362347
2408.622366,148.041188,-8216.285956,1302.362347
2408.622694,148.041188,-8142.265362,229.828649
2408.623021,-740.205942,-8586.388927,536.266849
2408.623348,-1110.308913,-9622.677246,229.828649
2408.623675,-1332.370696,-10510.924376,153.219100
2408.624003,-666.185348,-10658.965565,-842.705048
2408.624330,74.020594,-11251.130318,-1225.752797
2408.624657,888.247130,-11103.089130,-1378.971896
2408.624985,1702.473667,-9918.759623,-612.876398
2408.625312,1258.350101,-8734.430116,0.000000
2408.625639,148.041188,-9030.512492,229.828649
2408.625967,74.020594,-9474.636058,153.219100
2408.626294,0.000000,-9474.636058,-383.047749
2408.626621,-1110.308913,-9770.718434,-612.876398
2408.626949,-1258.350101,-10584.944971,-842.705048
2408.627276,-666.185348,-10066.800811,-1378.971896
2408.627604,74.020594,-10955.047942,-1762.019645
2408.627931,296.082377,-10955.047942,-842.705048
2408.628259,666.185348,-10510.924376,-842.705048
2408.628586,518.144159,-9992.780217,-689.485948
2408.628913,222.061783,-9252.574275,-842.705048
2408.629241,74.020594,-8660.409521,-1225.752797
2408.629568,-1258.350101,-8290.306550,0.000000
2408.629896,0.000000,-9326.594869,153.219100
2408.630223,666.185348,-9770.718434,0.000000
2408.630550,1110.308913,-9844.739029,-306.438199
2408.630878,1406.391290,-10362.883188,-459.657299
2408.631205,1258.350101,-10066.800811,76.609550
2408.631533,962.267725,-9992.780217,229.828649
2408.631860,1110.308913,-9030.512492,0.000000
2408.632188,740.205942,-9548.656652,459.657299
2408.632515,0.000000,-9400.615463,536.266849
2408.632842,-962.267725,-9252.574275,842.705048
2408.633170,-1184.329507,-9104.533087,0.000000
2408.633497,-518.144159,-8956.491898,-689.485948
2408.633825,518.144159,-8734.430116,-153.219100
2408.634152,888.247130,-8808.450710,153.219100
2408.634480,1702.473667,-8586.388927,766.095498
2408.634807,1406.391290,-8956.491898,536.266849
2408.635134,666.185348,-9474.636058,766.095498
2408.635462,74.020594,-9474.636058,306.438199
2408.635789,0.000000,-10510.924376,-306.438199
2408.636117,518.144159,-11177.109724,-612.876398
2408.636444,1480.411884,-11029.068536,-2221.676944
2408.636771,1776.494261,-10288.862594,-766.095498
2408.637099,1998.556043,-10066.800811,-306.438199
2408.637426,1554.432478,-9696.697840,-229.828649
2408.637754,888.247130,-9844.739029,-536.266849
2408.638081,148.041188,-9918.759623,-536.266849
2408.638409,370.102971,-9474.636058,-919.314598
2408.638736,0.000000,-9622.677246,-1608.800546
2408.639063,0.000000,-10436.903782,-689.485948
2408.639391,-148.041188,-10214.842000,76.609550
2408.639718,444.123565,-10584.944971,0.000000
2408.640046,666.185348,-10732.986159,0.000000
2408.640373,592.164754,-9918.759623,-919.314598
2408.640701,444.123565,-9400.615463,-1378.971896
2408.641028,0.000000,-8734.430116,-1532.190996
2408.641355,-888.247130,-8364.327145,0.000000
2408.641683,-1332.370696,-9252.574275,-229.828649
2408.642010,-962.267725,-9474.636058,-306.438199
2408.642338,0.000000,-9474.636058,-536.266849
2408.642665,888.247130,-9696.697840,-766.095498
2408.642992,1258.350101,-9918.759623,229.828649
2408.643320,1406.391290,-9622.677246,383.047749
2408.643647,1332.370696,-8882.471304,766.095498
2408.643975,1036.288319,-8734.430116,306.438199
2408.644302,74.020594,-8956.491898,689.485948
2408.644630,-444.123565,-8956.491898,536.266849
2408.644957,-1184.329507,-9474.636058,0.000000
2408.645284,-1332.370696,-9252.574275,-536.266849
2408.645612,-370.102971,-9918.759623,-2145.067394
2408.645939,74.020594,-9104.533087,-689.485948
2408.646267,592.164754,-9474.636058,-229.828649
2408.646594,962.267725,-9474.636058,0.000000
2408.646921,814.226536,-9474.636058,459.657299
2408.647249,518.144159,-9326.594869,612.876398
2408.647576,0.000000,-8586.388927,383.047749
2408.647904,0.000000,-9770.718434,-153.219100
2408.648231,-370.102971,-10288.862594,0.000000
2408.648559,296.082377,-10732.986159,-1225.752797
2408.648886,1036.288319,-11177.109724,-1302.362347
2408.649213,1258.350101,-10584.944971,-1302.362347
2408.649541,962.267725,-10362.883188,-1072.533697
2408.649868,592.164754,-10362.883188,-536.266849
2408.650196,740.205942,-10807.006753,0.000000
2408.650523,740.205942,-10140.821405,0.000000
2408.650851,-296.082377,-9918.759623,76.609550
2408.651178,-888.247130,-9622.677246,153.219100
2408.651505,-370.102971,-9696.697840,0.000000
2408.651833,74.020594,-9918.759623,-459.657299
2408.652160,0.000000,-9548.656652,459.657299
2408.652488,0.000000,-8882.471304,229.828649
2408.652815,-518.144159,-8586.388927,-689.485948
2408.653142,0.000000,-9622.677246,-919.314598
2408.653470,-592.164754,-9696.697840,-689.485948
2408.653797,-518.144159,-9992.780217,-383.047749
2408.654125,0.000000,-9992.780217,-383.047749
2408.654452,1036.288319,-10066.800811,76.609550
2408.654780,1702.473667,-10288.862594,-153.219100
2408.655107,2072.576638,-10140.821405,1072.533697
2408.655434,1628.453072,-8808.450710,1149.143247
2408.655762,1184.329507,-8512.368333,919.314598
2408.656089,518.144159,-8882.471304,306.438199
2408.656417,296.082377,-9252.574275,0.000000
2408.656744,0.000000,-9400.615463,-153.219100
2408.657071,-1110.308913,-9844.739029,-383.047749
2408.657399,-1184.329507,-9844.739029,-766.095498
2408.657726,222.061783,-9844.739029,-612.876398
2408.658054,1184.329507,-9992.780217,-383.047749
2408.658381,1776.494261,-9696.697840,0.000000
2408.658709,1776.494261,-9474.636058,536.266849
2408.659036,1480.411884,-9400.615463,842.705048
2408.659363,296.082377,-8660.409521,1685.410096
2408.659691,0.000000,-8956.491898,76.609550
2408.660018,-740.205942,-10140.821405,-229.828649
2408.660346,-518.144159,-10584.944971,-995.924147
2408.660673,518.144159,-10732.986159,-1685.410096
2408.661001,1480.411884,-11547.212695,-1378.971896
2408.661328,1480.411884,-10584.944971,-306.438199
2408.661655,1184.329507,-9474.636058,0.000000
2408.661983,814.226536,-9918.759623,-383.047749
2408.662310,222.061783,-9992.780217,76.609550
2408.662638,0.000000,-9548.656652,229.828649
2408.662965,-740.205942,-9474.636058,153.219100
2408.663292,-1184.329507,-9474.636058,383.047749
2408.663620,-962.267725,-9622.677246,-689.485948
2408.663947,-1332.370696,-10140.821405,-842.705048
2408.664275,-1258.350101,-9844.739029,-1225.752797
2408.664602,-296.082377,-9104.533087,-1302.362347
2408.664930,0.000000,-8956.491898,-1225.752797
2408.665257,-222.061783,-8956.491898,-383.047749
2408.665584,148.041188,-9178.553681,153.219100
2408.665912,666.185348,-9400.615463,766.095498
2408.666239,444.123565,-9696.697840,612.876398
2408.666567,740.205942,-9474.636058,383.047749
2408.666894,1776.494261,-10140.821405,0.000000
2408.667221,1850.514855,-10214.842000,-459.657299
2408.667549,1184.329507,-9844.739029,0.000000
2408.667876,740.205942,-9696.697840,76.609550
2408.668204,296.082377,-9474.636058,306.438199
2408.668531,74.020594,-9770.718434,689.485948
2408.668859,-222.061783,-9696.697840,-689.485948
2408.669186,-592.164754,-10510.924376,-383.047749
2408.669513,-1258.350101,-9474.636058,0.000000
2408.669841,-370.102971,-8956.491898,-689.485948
2408.670168,148.041188,-9104.533087,0.000000
2408.670496,592.164754,-9030.512492,536.266849
2408.670823,888.247130,-8956.491898,383.047749
2408.671151,0.000000,-8586.388927,0.000000
2408.671478,-296.082377,-9474.636058,-153.219100
2408.671805,-740.205942,-9696.697840,-1072.533697
2408.672133,-740.205942,-10658.965565,-1072.533697
2408.672460,0.000000,-10955.047942,-689.485948
2408.672788,1702.473667,-11029.068536,0.000000
2408.673115,2368.659014,-10955.047942,-459.657299
2408.673442,2442.679609,-10066.800811,612.876398
2408.673770,1776.494261,-8734.430116,1378.971896
2408.674097,888.247130,-8808.450710,306.438199
2408.674425,0.000000,-8808.450710,306.438199
2408.674752,-444.123565,-8956.491898,76.609550
2408.675080,-888.247130,-9252.574275,0.000000
2408.675407,-888.247130,-8956.491898,-536.266849
2408.675734,-222.061783,-9474.636058,0.000000
2408.676062,444.123565,-10436.903782,-1378.971896
2408.676389,666.185348,-10214.842000,-1072.533697
2408.676717,1110.308913,-9992.780217,-689.485948
2408.677044,1850.514855,-9326.594869,-766.095498
2408.677371,1480.411884,-9326.594869,0.000000
2408.677699,1702.473667,-9474.636058,0.000000
2408.678026,592.164754,-9178.553681,-383.047749
2408.678354,370.102971,-9918.759623,229.828649
2408.678681,1036.288319,-9844.739029,-536.266849
2408.679009,1924.535449,-9992.780217,-1225.752797
2408.679336,2146.597232,-10436.903782,-459.657299
2408.679663,2072.576638,-10362.883188,76.609550
2408.679991,1924.535449,-10066.800811,1072.533697
2408.680318,1628.453072,-9844.739029,459.657299
2408.680646,444.123565,-9474.636058,612.876398
2408.680973,-518.144159,-9400.615463,0.000000
2408.681301,-1480.411884,-9696.697840,0.000000
2408.681628,-1554.432478,-9770.718434,0.000000
2408.681955,-1332.370696,-9178.553681,-229.828649
2408.682283,-592.164754,-9178.553681,0.000000
2408.682610,-962.267725,-8512.368333,383.047749
2408.682938,0.000000,-8438.347739,153.219100
2408.683265,-370.102971,-9252.574275,0.000000
2408.683592,-740.205942,-9770.718434,0.000000
2408.683920,-592.164754,-9548.656652,229.828649
2408.684247,-370.102971,-9622.677246,383.047749
2408.684575,222.061783,-10584.944971,1149.143247
2408.684902,666.185348,-10436.903782,76.609550
2408.685230,1406.391290,-10584.944971,0.000000
2408.685557,666.185348,-9918.759623,229.828649
2408.685884,-148.041188,-9178.553681,0.000000
2408.686212,-1036.288319,-9178.553681,-383.047749
2408.686539,-1998.556043,-9326.594869,-689.485948
2408.686867,-1258.350101,-9548.656652,-766.095498
2408.687194,-1480.411884,-9770.718434,-612.876398
2408.687521,-814.226536,-10658.965565,-1149.143247
2408.687849,-518.144159,-9918.759623,-842.705048
2408.688176,0.000000,-9622.677246,-995.924147
2408.688504,518.144159,-9252.574275,-995.924147
2408.688831,518.144159,-8734.430116,-536.266849
2408.689159,1406.391290,-8956.491898,-612.876398
2408.689486,962.267725,-9474.636058,-689.485948
2408.689813,1110.308913,-9770.718434,-536.266849
2408.690141,740.205942,-10436.903782,-766.095498
2408.690468,888.247130,-11547.212695,-995.924147
2408.690796,1554.432478,-11251.130318,-1225.752797
2408.691123,2220.617826,-10584.944971,-1225.752797
2408.691451,2368.659014,-10510.924376,0.000000
2408.691778,2590.720797,-9918.759623,689.485948
2408.692105,1776.494261,-8586.388927,1302.362347
2408.692433,888.247130,-8660.409521,995.924147
2408.692760,0.000000,-8512.368333,536.266849
2408.693088,-370.102971,-8956.491898,0.000000
2408.693415,-1258.350101,-9400.615463,-612.876398
2408.693742,-1406.391290,-9548.656652,-459.657299
2408.694070,-444.123565,-9474.636058,-842.705048
2408.694397,518.144159,-9992.780217,-766.095498
2408.694725,888.247130,-9696.697840,-153.219100
2408.695052,1406.391290,-9474.636058,0.000000
2408.695380,1628.453072,-9844.739029,612.876398
2408.695707,1480.411884,-8882.471304,1685.410096
2408.696034,444.123565,-7846.182985,1378.971896
2408.696362,-370.102971,-8586.388927,612.876398
2408.696689,-518.144159,-8364.327145,306.438199
2408.697017,0.000000,-9178.553681,-536.266849
2408.697344,296.082377,-9992.780217,-612.876398
2408.697671,666.185348,-9992.780217,0.000000
2408.697999,1110.308913,-9918.759623,-306.438199
2408.698326,888.247130,-10066.800811,-612.876398
2408.698654,148.041188,-10732.986159,842.705048
2408.698981,0.000000,-10288.862594,-459.657299
2408.699309,-814.226536,-10288.862594,-459.657299
2408.699636,-1998.556043,-9992.780217,-383.047749
2408.699963,-1184.329507,-9474.636058,-766.095498
2408.700291,-296.082377,-9400.615463,-689.485948
2408.700618,0.000000,-9474.636058,-689.485948
2408.700946,518.144159,-9104.533087,-612.876398
2408.701273,444.123565,-8808.450710,-766.095498
2408.701601,296.082377,-9474.636058,-766.095498
2408.701928,0.000000,-9918.759623,-612.876398
2408.702255,222.061783,-9992.780217,-766.095498
2408.702583,592.164754,-10288.862594,306.438199
2408.702910,1924.535449,-11103.089130,-306.438199
2408.703238,2368.659014,-10658.965565,0.000000
2408.703565,1702.473667,-10658.965565,536.266849
2408.703892,814.226536,-9844.739029,612.876398
2408.704220,-444.123565,-8882.471304,-229.828649
2408.704547,-1184.329507,-8586.388927,-536.266849
2408.704875,-888.247130,-8956.491898,76.609550
2408.705202,-1406.391290,-8512.368333,-689.485948
2408.705530,-1480.411884,-9252.574275,536.266849
2408.705857,-1406.391290,-9474.636058,0.000000
2408.706184,-518.144159,-9104.533087,-459.657299
2408.706512,518.144159,-9474.636058,-612.876398
2408.706839,666.185348,-9326.594869,0.000000
2408.707167,1554.432478,-9178.553681,919.314598
2408.707494,1332.370696,-9104.533087,766.095498
2408.707821,1110.308913,-8882.471304,995.924147
2408.708149,666.185348,-9400.615463,76.609550
2408.708476,-740.205942,-10362.883188,153.219100
2408.708804,-962.267725,-10955.047942,-842.705048
2408.709131,0.000000,-10807.006753,-1685.410096
2408.709459,962.267725,-10362.883188,-1378.971896
2408.709786,1480.411884,-9918.759623,-459.657299
2408.710113,1776.494261,-9548.656652,842.705048
2408.710441,814.226536,-8808.450710,1072.533697
2408.710768,518.144159,-9326.594869,459.657299
2408.711096,0.000000,-9178.553681,-383.047749
2408.711423,-592.164754,-9918.759623,-842.705048
2408.711751,-666.185348,-10140.821405,-383.047749
2408.712078,0.000000,-10214.842000,-153.219100
2408.712405,740.205942,-10140.821405,-612.876398
2408.712733,814.226536,-10584.944971,0.000000
2408.713060,1480.411884,-10584.944971,-842.705048
2408.713388,1554.432478,-9992.780217,-1072.533697
2408.713715,740.205942,-9474.636058,-689.485948
2408.714042,518.144159,-9252.574275,0.000000
2408.714370,592.164754,-8956.491898,612.876398
2408.714697,1036.288319,-9178.553681,689.485948
2408.715025,1332.370696,-9030.512492,995.924147
2408.715352,1776.494261,-9992.780217,0.000000
2408.715680,1332.370696,-10288.862594,-306.438199
2408.716007,740.205942,-9622.677246,-229.828649
2408.716334,74.020594,-9030.512492,0.000000
2408.716662,-1036.288319,-9622.677246,153.219100
2408.716989,-518.144159,-10140.821405,536.266849
2408.717317,-296.082377,-9770.718434,-229.828649
2408.717644,-1258.350101,-9918.759623,0.000000
2408.717972,-1480.411884,-9474.636058,-306.438199
2408.718299,-962.267725,-8808.450710,-612.876398
2408.718626,-222.061783,-8808.450710,0.000000
2408.718954,0.000000,-7994.224174,153.219100
2408.719281,444.123565,-7920.203579,842.705048
2408.719609,1036.288319,-8364.327145,459.657299
2408.719936,592.164754,-9326.594869,229.828649
2408.720263,296.082377,-10214.842000,0.000000
2408.720591,0.000000,-11251.130318,0.000000
2408.720918,0.000000,-11621.233289,-766.095498
2408.721246,592.164754,-11177.109724,-612.876398
2408.721573,1110.308913,-10807.006753,-612.876398
2408.721901,1036.288319,-10584.944971,-536.266849
2408.722228,518.144159,-9622.677246,229.828649
2408.722555,0.000000,-9400.615463,0.000000
2408.722883,-592.164754,-9178.553681,0.000000
2408.723210,-1110.308913,-8808.450710,-766.095498
2408.723538,-1184.329507,-9474.636058,-536.266849
2408.723865,-1110.308913,-9326.594869,-612.876398
2408.724192,-222.061783,-9548.656652,-306.438199
2408.724520,814.226536,-10066.800811,-536.266849
2408.724847,1406.391290,-10510.924376,0.000000
2408.725175,1628.453072,-10362.883188,383.047749
2408.725502,1628.453072,-9474.636058,306.438199
2408.725829,888.247130,-9400.615463,536.266849
2408.726157,-444.123565,-8808.450710,229.828649
2408.726484,-296.082377,-8808.450710,0.000000
2408.726811,-518.144159,-9326.594869,-153.219100
2408.727139,-222.061783,-9918.759623,-153.219100
2408.727466,370.102971,-10066.800811,-383.047749
2408.727794,370.102971,-9844.739029,0.000000
2408.728121,0.000000,-8882.471304,76.609550
2408.728448,222.061783,-8512.368333,-612.876398
2408.728776,296.082377,-9178.553681,229.828649
2408.729103,518.144159,-9622.677246,766.095498
2408.729430,370.102971,-9252.574275,0.000000
2408.729758,0.000000,-10214.842000,0.000000
2408.730085,-518.144159,-10362.883188,-383.047749
2408.730413,0.000000,-9844.739029,-1149.143247
2408.730740,444.123565,-9474.636058,-995.924147
2408.731067,1258.350101,-9622.677246,-1455.581446
2408.731395,1406.391290,-9474.636058,-766.095498
2408.731722,1480.411884,-9400.615463,0.000000
2408.732049,1258.350101,-9326.594869,1149.143247
2408.732377,1110.308913,-9104.533087,689.485948
2408.732704,444.123565,-9770.718434,229.828649
2408.733032,148.041188,-9918.759623,229.828649
2408.733359,666.185348,-9918.759623,-842.705048
2408.733686,1480.411884,-10436.903782,-612.876398
2408.734014,1554.432478,-10288.862594,153.219100
2408.734341,1258.350101,-9992.780217,306.438199
2408.734668,444.123565,-10066.800811,-383.047749
2408.734996,0.000000,-10214.842000,-612.876398
2408.735323,74.020594,-9992.780217,-2298.286494
2408.735651,-518.144159,-9622.677246,-919.314598
2408.735978,-444.123565,-9548.656652,-306.438199
2408.736305,148.041188,-9400.615463,383.047749
2408.736633,592.164754,-8808.450710,689.485948
2408.736960,962.267725,-9030.512492,919.314598
2408.737287,1258.350101,-8660.409521,1149.143247
2408.737615,888.247130,-8438.347739,76.609550
2408.737942,296.082377,-8882.471304,0.000000
2408.738269,-444.123565,-9326.594869,-306.438199
2408.738597,-444.123565,-10362.883188,0.000000
2408.738924,-74.020594,-11029.068536,-459.657299
2408.739252,444.123565,-11103.089130,-919.314598
2408.739579,1110.308913,-10732.986159,-1149.143247
2408.739906,222.061783,-10288.862594,0.000000
2408.740234,962.267725,-9326.594869,536.266849
2408.740561,0.000000,-8586.388927,612.876398
2408.740888,-592.164754,-8290.306550,536.266849
2408.741216,-444.123565,-8364.327145,0.000000
2408.741543,-1110.308913,-8808.450710,-766.095498
2408.741871,-1554.432478,-10658.965565,-459.657299
2408.742198,-888.247130,-10214.842000,-842.705048
2408.742525,-296.082377,-9400.615463,-1302.362347
2408.742853,592.164754,-10807.006753,-1532.190996
2408.743180,1332.370696,-10807.006753,-919.314598
2408.743507,1702.473667,-10510.924376,-229.828649
2408.743835,1110.308913,-10510.924376,536.266849
2408.744162,592.164754,-9992.780217,919.314598
2408.744490,74.020594,-8956.491898,459.657299
2408.744817,-1480.411884,-8808.450710,306.438199
2408.745144,-1332.370696,-9992.780217,0.000000
2408.745472,-296.082377,-10436.903782,-1225.752797
2408.745799,222.061783,-10288.862594,-1302.362347
2408.746126,222.061783,-9252.574275,-153.219100
2408.746454,222.061783,-8734.430116,689.485948
2408.746781,296.082377,-9622.677246,0.000000
2408.747109,0.000000,-9844.739029,-229.828649
2408.747436,148.041188,-9844.739029,-689.485948
2408.747763,-148.041188,-9696.697840,-306.438199
2408.748091,-518.144159,-9252.574275,0.000000
2408.748418,-148.041188,-9326.594869,0.000000
2408.748745,222.061783,-9474.636058,153.219100
2408.749073,1258.350101,-9400.615463,76.609550
2408.749400,1258.350101,-8956.491898,153.219100
2408.749728,962.267725,-8956.491898,0.000000
2408.750055,1110.308913,-9400.615463,-306.438199
2408.750382,666.185348,-9474.636058,0.000000
2408.750710,148.041188,-9992.780217,383.047749
2408.751037,222.061783,-10584.944971,0.000000
2408.751364,1480.411884,-9178.553681,-383.047749
2408.751692,2368.659014,-9844.739029,0.000000
2408.752019,2294.638420,-10140.821405,0.000000
2408.752346,1998.556043,-9548.656652,459.657299
2408.752674,1406.391290,-9474.636058,76.609550
2408.753001,592.164754,-9696.697840,0.000000
2408.753329,148.041188,-9770.718434,-842.705048
2408.753656,-888.247130,-10140.821405,-919.314598
2408.753983,-518.144159,-10584.944971,-995.924147
2408.754311,-222.061783,-10214.842000,-919.314598
2408.754638,444.123565,-9918.759623,-919.314598
2408.754965,1036.288319,-10140.821405,76.609550
2408.755293,1258.350101,-9326.594869,536.266849
2408.755620,1480.411884,-9030.512492,536.266849
2408.755948,740.205942,-9030.512492,306.438199
2408.756275,148.041188,-9326.594869,766.095498
2408.756602,-740.205942,-9326.594869,459.657299
2408.756930,-1258.350101,-9770.718434,0.000000
2408.757257,-962.267725,-10584.944971,-459.657299
2408.757584,-296.082377,-10881.027347,-995.924147
2408.757912,0.000000,-10362.883188,-919.314598
2408.758239,0.000000,-9400.615463,536.266849
2408.758567,0.000000,-8734.430116,-229.828649
2408.758894,-370.102971,-9252.574275,76.609550
2408.759221,-1184.329507,-8956.491898,306.438199
2408.759549,-518.144159,-8808.450710,383.047749
2408.759876,-740.205942,-9030.512492,229.828649
2408.760203,-370.102971,-9770.718434,0.000000
2408.760531,-592.164754,-9696.697840,-612.876398
2408.760858,-296.082377,-10066.800811,-383.047749
2408.761186,148.041188,-10140.821405,-383.047749
2408.761513,592.164754,-9918.759623,-306.438199
2408.761840,740.205942,-9696.697840,0.000000
2408.762168,518.144159,-9548.656652,0.000000
2408.762495,518.144159,-9696.697840,-459.657299
2408.762822,74.020594,-9992.780217,842.705048
2408.763150,222.061783,-9992.780217,0.000000
2408.763477,222.061783,-9696.697840,-842.705048
2408.763805,740.205942,-9992.780217,-1532.190996
2408.764132,888.247130,-9844.739029,-919.314598
2408.764459,1184.329507,-9770.718434,-459.657299
2408.764787,1258.350101,-9474.636058,-229.828649
2408.765114,1258.350101,-9992.780217,-689.485948
2408.765441,1406.391290,-10066.800811,0.000000
2408.765769,518.144159,-10436.903782,-383.047749
2408.766096,0.000000,-10214.842000,-383.047749
2408.766424,-296.082377,-9474.636058,-383.047749
2408.766751,222.061783,-9474.636058,-536.266849
2408.767078,814.226536,-9696.697840,459.657299
2408.767406,1628.453072,-9400.615463,306.438199
2408.767733,1110.308913,-8068.244768,383.047749
2408.768060,888.247130,-8956.491898,153.219100
2408.768388,222.061783,-9178.553681,153.219100
2408.768715,-222.061783,-9252.574275,306.438199
2408.769042,-518.144159,-9844.739029,0.000000
2408.769370,-296.082377,-10436.903782,-153.219100
2408.769697,0.000000,-9992.780217,-766.095498
2408.770025,1480.411884,-10732.986159,-612.876398
2408.770352,1554.432478,-9770.718434,612.876398
2408.770679,1554.432478,-9400.615463,459.657299
2408.771007,888.247130,-9400.615463,229.828649
2408.771334,0.000000,-9474.636058,-306.438199
2408.771661,0.000000,-9992.780217,-612.876398
2408.771989,-740.205942,-9474.636058,-383.047749
2408.772316,-740.205942,-9770.718434,-229.828649
2408.772644,-592.164754,-10362.883188,-383.047749
2408.772971,74.020594,-9918.759623,0.000000
2408.773298,444.123565,-10066.800811,0.000000
2408.773626,518.144159,-9992.780217,0.000000
2408.773953,74.020594,-9326.594869,-229.828649
2408.774280,-296.082377,-8808.450710,-229.828649
2408.774608,-518.144159,-9178.553681,-229.828649
2408.774935,-888.247130,-9992.780217,-766.095498
2408.775263,-1184.329507,-10140.821405,-383.047749
2408.775590,0.000000,-10362.883188,-919.314598
2408.775917,1184.329507,-10510.924376,-1378.971896
2408.776245,1924.535449,-10584.944971,-612.876398
2408.776572,1776.494261,-10066.800811,-383.047749
2408.776899,1110.308913,-9252.574275,536.266849
2408.777227,740.205942,-9400.615463,536.266849
2408.777554,444.123565,-9178.553681,76.609550
2408.777882,-222.061783,-8956.491898,0.000000
2408.778209,-1332.370696,-9474.636058,229.828649
2408.778536,-1480.411884,-9326.594869,-306.438199
2408.778864,-740.205942,-8956.491898,-995.924147
2408.779191,222.061783,-10436.903782,-1072.533697
2408.779518,0.000000,-9622.677246,-306.438199
2408.779846,370.102971,-9474.636058,-536.266849
2408.780173,666.185348,-9474.636058,-383.047749
2408.780501,666.185348,-9622.677246,383.047749
2408.780828,222.061783,-9252.574275,536.266849
2408.781155,-592.164754,-8956.491898,919.314598
2408.781483,-444.123565,-9548.656652,383.047749
2408.781810,518.144159,-10436.903782,-612.876398
2408.782137,740.205942,-10288.862594,-995.924147
2408.782465,888.247130,-9918.759623,-459.657299
2408.782792,740.205942,-9474.636058,-536.266849
2408.783120,592.164754,-9622.677246,-689.485948
2408.783447,962.267725,-10807.006753,-459.657299
2408.783774,888.247130,-10436.903782,-995.924147
2408.784102,0.000000,-10362.883188,-383.047749
2408.784429,-370.102971,-10436.903782,-229.828649
2408.784756,0.000000,-9770.718434,0.000000
2408.785084,666.185348,-10584.944971,0.000000
2408.785411,666.185348,-10214.842000,229.828649
2408.785738,1184.329507,-9178.553681,76.609550
2408.786066,518.144159,-7920.203579,76.609550
2408.786393,296.082377,-9178.553681,-536.266849
2408.786721,-148.041188,-9548.656652,-306.438199
2408.787048,-222.061783,-9474.636058,-536.266849
2408.787375,222.061783,-9992.780217,-612.876398
2408.787703,1702.473667,-10658.965565,-306.438199
2408.788030,2738.761985,-10362.883188,-459.657299
2408.788357,2590.720797,-10362.883188,842.705048
2408.788685,2368.659014,-9548.656652,1455.581446
2408.789012,1554.432478,-9030.512492,1149.143247
2408.789340,740.205942,-9252.574275,383.047749
2408.789667,0.000000,-8956.491898,153.219100
2408.789994,-888.247130,-8586.388927,0.000000
2408.790322,-1480.411884,-9474.636058,0.000000
2408.790649,-1776.494261,-9474.636058,-383.047749
2408.790976,-888.247130,-9474.636058,-1838.629195
2408.791304,-148.041188,-9474.636058,-1072.533697
2408.791631,592.164754,-9104.533087,-536.266849
2408.791959,1258.350101,-9252.574275,0.000000
2408.792286,1036.288319,-8956.491898,612.876398
2408.792613,1036.288319,-9326.594869,0.000000
2408.792941,0.000000,-8808.450710,919.314598
2408.793268,-888.247130,-9918.759623,0.000000
2408.793595,-1036.288319,-10807.006753,-919.314598
2408.793923,-740.205942,-10807.006753,-1915.238745
2408.794250,-148.041188,-10807.006753,-1685.410096
2408.794578,296.082377,-10288.862594,-919.314598
2408.794905,518.144159,-9992.780217,-995.924147
2408.795232,888.247130,-9696.697840,-919.314598
2408.795560,1036.288319,-10436.903782,-229.828649
2408.795887,444.123565,-10066.800811,0.000000
2408.796214,74.020594,-9696.697840,0.000000
2408.796542,0.000000,-9696.697840,383.047749
2408.796869,0.000000,-10140.821405,536.266849
2408.797197,148.041188,-10436.903782,536.266849
2408.797524,518.144159,-10807.006753,-306.438199
2408.797851,222.061783,-9770.718434,-383.047749
2408.798179,0.000000,-9104.533087,-842.705048
2408.798506,0.000000,-9400.615463,-1149.143247
2408.798833,-296.082377,-9548.656652,-842.705048
2408.799161,148.041188,-9474.636058,153.219100
2408.799488,740.205942,-9178.553681,612.876398
2408.799815,1776.494261,-9030.512492,383.047749
2408.800143,1998.556043,-9252.574275,536.266849
2408.800470,2368.659014,-9844.739029,1149.143247
2408.800798,1702.473667,-9326.594869,1378.971896
2408.801125,1036.288319,-8808.450710,766.095498
2408.801452,444.123565,-9400.615463,459.657299
2408.801780,370.102971,-9844.739029,-995.924147
2408.802107,-962.267725,-9770.718434,-536.266849
2408.802434,-814.226536,-10362.883188,-995.924147
2408.802762,-1332.370696,-9918.759623,-536.266849
2408.803089,-888.247130,-9696.697840,-612.876398
2408.803417,-370.102971,-9400.615463,-383.047749
2408.803744,0.000000,-8734.430116,76.609550
2408.804071,518.144159,-8512.368333,459.657299
2408.804399,518.144159,-8438.347739,383.047749
2408.804726,-296.082377,-8364.327145,459.657299
2408.805053,-222.061783,-9252.574275,153.219100
2408.805381,-370.102971,-10807.006753,-536.266849
2408.805708,-222.061783,-11991.336260,-1225.752797
2408.806036,814.226536,-11917.315666,-2145.067394
2408.806363,1110.308913,-11399.171507,-1685.410096
2408.806690,1332.370696,-10510.924376,-766.095498
2408.807018,1776.494261,-10214.842000,-536.266849
2408.807345,962.267725,-9696.697840,0.000000
2408.807672,592.164754,-9474.636058,459.657299
2408.808000,444.123565,-9104.533087,76.609550
2408.808327,148.041188,-8660.409521,0.000000
2408.808655,-592.164754,-9178.553681,-689.485948
2408.808982,-518.144159,-8808.450710,536.266849
2408.809309,148.041188,-9474.636058,-229.828649
2408.809637,444.123565,-10214.842000,0.000000
2408.809964,592.164754,-9918.759623,-229.828649
2408.810291,1036.288319,-9474.636058,-995.924147
2408.810619,962.267725,-9252.574275,-919.314598
2408.810946,296.082377,-9770.718434,0.000000
2408.811274,148.041188,-9474.636058,306.438199
2408.811601,888.247130,-9548.656652,612.876398
2408.811928,1184.329507,-8882.471304,76.609550
2408.812256,1702.473667,-9030.512492,-229.828649
2408.812583,1850.514855,-9474.636058,459.657299
2408.812910,1406.391290,-8956.491898,995.924147
2408.813238,1850.514855,-8438.347739,842.705048
2408.813565,888.247130,-9474.636058,459.657299
2408.813893,0.000000,-10362.883188,612.876398
2408.814220,-814.226536,-10288.862594,-229.828649
2408.814547,-1628.453072,-10436.903782,-842.705048
2408.814875,-1554.432478,-10436.903782,-995.924147
2408.815202,-444.123565,-9992.780217,-1225.752797
2408.815529,0.000000,-9548.656652,-306.438199
2408.815857,0.000000,-9326.594869,-229.828649
2408.816184,518.144159,-8882.471304,0.000000
2408.816511,148.041188,-8882.471304,-306.438199
2408.816839,-222.061783,-9030.512492,-229.828649
2408.817166,-148.041188,-9474.636058,-229.828649
2408.817494,0.000000,-9918.759623,-306.438199
2408.817821,444.123565,-11029.068536,-306.438199
2408.818148,1332.370696,-11251.130318,-459.657299
2408.818476,1628.453072,-11325.150913,-689.485948
2408.818803,1628.453072,-10807.006753,-459.657299
2408.819130,1184.329507,-10362.883188,-612.876398
2408.819458,222.061783,-9770.718434,-842.705048
2408.819785,-518.144159,-9104.533087,-229.828649
2408.820113,-888.247130,-9622.677246,-536.266849
2408.820440,-1036.288319,-9326.594869,0.000000
2408.820767,-1258.350101,-8882.471304,-383.047749
2408.821095,-1332.370696,-9104.533087,0.000000
2408.821422,-518.144159,-9400.615463,-229.828649
2408.821749,0.000000,-9400.615463,-229.828649
2408.822077,296.082377,-8734.430116,383.047749
2408.822404,1036.288319,-8216.285956,229.828649
2408.822732,1110.308913,-8956.491898,-689.485948
2408.823059,444.123565,-9030.512492,229.828649
2408.823386,222.061783,-9918.759623,-153.219100
2408.823714,444.123565,-10584.944971,-536.266849
2408.824041,962.267725,-10214.842000,-1532.190996
2408.824368,1702.473667,-9844.739029,-1149.143247
2408.824696,1850.514855,-9918.759623,0.000000
2408.825023,1850.514855,-9622.677246,842.705048
2408.825351,1554.432478,-9696.697840,1225.752797
2408.825678,592.164754,-9400.615463,919.314598
2408.826005,0.000000,-9178.553681,459.657299
2408.826333,-962.267725,-8956.491898,0.000000
2408.826660,-1258.350101,-9474.636058,-229.828649
2408.826988,-2072.576638,-9474.636058,-919.314598
2408.827315,-740.205942,-9474.636058,-1532.190996
2408.827642,222.061783,-10066.800811,-1532.190996
2408.827970,740.205942,-9844.739029,-1149.143247
2408.828297,1258.350101,-9844.739029,-689.485948
2408.828625,1184.329507,-9918.759623,-306.438199
2408.828952,1184.329507,-9696.697840,459.657299
2408.829279,1258.350101,-10066.800811,689.485948
2408.829607,814.226536,-9844.739029,1072.533697
2408.829934,222.061783,-9548.656652,536.266849
2408.830262,1184.329507,-10214.842000,0.000000
2408.830589,1184.329507,-10288.862594,-536.266849
2408.830917,1036.288319,-9622.677246,-306.438199
2408.831244,814.226536,-9104.533087,153.219100
2408.831571,0.000000,-9178.553681,536.266849
2408.831899,-666.185348,-9622.677246,-689.485948
2408.832226,-1110.308913,-9622.677246,-612.876398
2408.832554,-962.267725,-9474.636058,-536.266849
2408.832881,-1036.288319,-9770.718434,0.000000
2408.833208,-814.226536,-9696.697840,306.438199
2408.833536,-518.144159,-9474.636058,689.485948
2408.833863,0.000000,-9252.574275,76.609550
2408.834191,0.000000,-8808.450710,0.000000
2408.834518,296.082377,-9104.533087,-995.924147
2408.834846,0.000000,-9326.594869,-766.095498
2408.835173,0.000000,-9770.718434,-612.876398
2408.835500,518.144159,-10066.800811,-612.876398
2408.835828,1036.288319,-10658.965565,-536.266849
2408.836155,1332.370696,-10658.965565,-612.876398
2408.836483,1850.514855,-10362.883188,459.657299
2408.836810,2220.617826,-10288.862594,229.828649
2408.837137,1628.453072,-10288.862594,612.876398
2408.837465,666.185348,-9622.677246,689.485948
2408.837792,-370.102971,-9252.574275,766.095498
2408.838120,-814.226536,-9104.533087,459.657299
2408.838447,-1258.350101,-9770.718434,-1225.752797
2408.838774,-1998.556043,-9770.718434,-1455.581446
2408.839102,-1924.535449,-10066.800811,-1838.629195
2408.839429,-740.205942,-9474.636058,-1915.238745
2408.839757,370.102971,-9622.677246,-1455.581446
2408.840084,962.267725,-9474.636058,0.000000
2408.840412,1702.473667,-8882.471304,459.657299
2408.840739,2516.700203,-9474.636058,383.047749
2408.841066,1850.514855,-9696.697840,306.438199
2408.841394,1110.308913,-9474.636058,919.314598
2408.841721,148.041188,-9252.574275,919.314598
2408.842049,74.020594,-9918.759623,0.000000
2408.842376,370.102971,-10510.924376,-995.924147
2408.842703,1036.288319,-10584.944971,-766.095498
2408.843031,666.185348,-10066.800811,-383.047749
2408.843358,814.226536,-9326.594869,-612.876398
2408.843686,1480.411884,-9178.553681,-1149.143247
2408.844013,148.041188,-9474.636058,229.828649
2408.844341,0.000000,-9474.636058,459.657299
2408.844668,-296.082377,-9252.574275,229.828649
2408.844995,-666.185348,-9474.636058,0.000000
2408.845323,-740.205942,-9400.615463,0.000000
2408.845650,-592.164754,-8956.491898,-689.485948
2408.845978,0.000000,-10066.800811,-306.438199
2408.846305,518.144159,-10140.821405,-766.095498
2408.846632,888.247130,-9770.718434,-1149.143247
2408.846960,592.164754,-10362.883188,-689.485948
2408.847287,518.144159,-9844.739029,-459.657299
2408.847615,666.185348,-9548.656652,-612.876398
2408.847942,740.205942,-10584.944971,-153.219100
2408.848270,1036.288319,-9770.718434,306.438199
2408.848597,1480.411884,-9622.677246,153.219100
2408.848924,2072.576638,-10140.821405,842.705048
2408.849252,1480.411884,-9844.739029,842.705048
2408.849579,888.247130,-9770.718434,383.047749
2408.849907,-222.061783,-9400.615463,-229.828649
2408.850234,-1184.329507,-9474.636058,-383.047749
2408.850561,-1850.514855,-9178.553681,-919.314598
2408.850889,-2146.597232,-9696.697840,-1072.533697
2408.851216,-1480.411884,-9548.656652,-689.485948
2408.851544,-296.082377,-9400.615463,-689.485948
2408.851871,1036.288319,-9474.636058,153.219100
2408.852198,1110.308913,-9104.533087,536.266849
2408.852526,1332.370696,-8216.285956,306.438199
2408.852853,1776.494261,-8512.368333,0.000000
2408.853181,370.102971,-8586.388927,612.876398
2408.853508,-222.061783,-9030.512492,536.266849
2408.853836,0.000000,-9918.759623,306.438199
2408.854163,148.041188,-10881.027347,-536.266849
2408.854490,444.123565,-11177.109724,-1532.190996
2408.854818,1702.473667,-11843.295072,-1302.362347
2408.855145,1628.453072,-10510.924376,-383.047749
2408.855473,1406.391290,-9548.656652,-229.828649
2408.855800,740.205942,-8882.471304,-229.828649
2408.856127,0.000000,-9252.574275,229.828649
2408.856455,0.000000,-9104.533087,459.657299
2408.856782,-740.205942,-8882.471304,0.000000
2408.857110,-1628.453072,-9474.636058,-383.047749
2408.857437,-962.267725,-9770.718434,-995.924147
2408.857765,-666.185348,-10214.842000,-1149.143247
2408.858092,-222.061783,-10658.965565,-766.095498
2408.858419,444.123565,-10584.944971,-995.924147
2408.858747,888.247130,-10140.821405,-1072.533697
2408.859074,1184.329507,-9474.636058,-459.657299
2408.859402,814.226536,-9548.656652,229.828649
2408.859729,1184.329507,-9992.780217,306.438199
2408.860056,888.247130,-10214.842000,459.657299
2408.860384,888.247130,-9918.759623,229.828649
2408.860711,1258.350101,-9548.656652,0.000000
2408.861039,814.226536,-9548.656652,612.876398
2408.861366,518.144159,-9252.574275,842.705048
2408.861693,148.041188,-8512.368333,919.314598
2408.862021,74.020594,-9548.656652,0.000000
2408.862348,0.000000,-9844.739029,76.609550
2408.862676,-666.185348,-9474.636058,76.609550
2408.863003,-1554.432478,-9474.636058,0.000000
2408.863331,-1480.411884,-9400.615463,0.000000
2408.863658,0.000000,-9474.636058,-1302.362347
2408.863985,296.082377,-8586.388927,-689.485948
2408.864313,666.185348,-8586.388927,459.657299
2408.864640,1332.370696,-9474.636058,766.095498
2408.864968,1110.308913,-9474.636058,306.438199
2408.865295,370.102971,-9326.594869,153.219100
2408.865622,-222.061783,-9770.718434,459.657299
2408.865950,-518.144159,-9474.636058,229.828649
2408.866277,74.020594,-10436.903782,-766.095498
2408.866605,148.041188,-10658.965565,-1149.143247
2408.866932,888.247130,-10732.986159,-766.095498
2408.867260,1332.370696,-9918.759623,76.609550
2408.867587,962.267725,-9400.615463,0.000000
2408.867914,148.041188,-9474.636058,-459.657299
2408.868242,-370.102971,-9400.615463,-612.876398
2408.868569,-888.247130,-9252.574275,-919.314598
2408.868897,-888.247130,-9474.636058,-536.266849
2408.869224,-1406.391290,-10288.862594,-306.438199
2408.869551,-888.247130,-10732.986159,-383.047749
2408.869879,-444.123565,-10732.986159,-612.876398
2408.870206,296.082377,-10510.924376,-612.876398
2408.870534,1258.350101,-9548.656652,-306.438199
2408.870861,1332.370696,-8882.471304,-459.657299
2408.871189,1480.411884,-8586.388927,0.000000
2408.871516,1184.329507,-9104.533087,459.657299
2408.871843,814.226536,-9252.574275,536.266849
2408.872171,814.226536,-9992.780217,536.266849
2408.872498,666.185348,-10140.821405,-229.828649
2408.872826,1554.432478,-10436.903782,-229.828649
2408.873153,2368.659014,-10881.027347,-459.657299
2408.873480,2072.576638,-10214.842000,766.095498
2408.873808,1110.308913,-9326.594869,995.924147
2408.874135,222.061783,-9474.636058,689.485948
2408.874463,-296.082377,-8882.471304,0.000000
2408.874790,-814.226536,-8808.450710,-459.657299
2408.875117,-1332.370696,-8808.450710,76.609550
2408.875445,-1258.350101,-8734.430116,0.000000
2408.875772,-370.102971,-9030.512492,-766.095498
2408.876100,148.041188,-9474.636058,-612.876398
