#time,accel_x,accel_y,accel_z
3410.209184,370.102971,-9918.759623,-306.438199
3410.209512,1036.288319,-10066.800811,-459.657299
3410.209840,518.144159,-10066.800811,229.828649
3410.210167,592.164754,-9474.636058,383.047749
3410.210495,814.226536,-9622.677246,153.219100
3410.210823,444.123565,-9696.697840,153.219100
3410.211150,148.041188,-9400.615463,0.000000
3410.211478,74.020594,-9252.574275,-306.438199
3410.211806,0.000000,-9696.697840,-306.438199
3410.212134,-592.164754,-9622.677246,-766.095498
3410.212461,-222.061783,-9548.656652,-459.657299
3410.212789,0.000000,-10140.821405,-995.924147
3410.213117,296.082377,-10288.862594,-459.657299
3410.213444,592.164754,-10214.842000,-383.047749
3410.213772,370.102971,-10066.800811,0.000000
3410.214100,444.123565,-9548.656652,0.000000
3410.214427,222.061783,-9474.636058,0.000000
3410.214755,0.000000,-9474.636058,153.219100
3410.215083,-370.102971,-9252.574275,0.000000
3410.215411,0.000000,-9474.636058,0.000000
3410.215738,-370.102971,-9548.656652,-459.657299
3410.216066,-370.102971,-9844.739029,0.000000
3410.216394,0.000000,-9844.739029,0.000000
3410.216721,518.144159,-9696.697840,-459.657299
3410.217049,370.102971,-9770.718434,306.438199
3410.217377,888.247130,-9770.718434,306.438199
3410.217704,814.226536,-9400.615463,229.828649
3410.218032,666.185348,-9474.636058,153.219100
3410.218360,370.102971,-9252.574275,-153.219100
3410.218688,148.041188,-9326.594869,76.609550
3410.219015,518.144159,-9474.636058,-1225.752797
3410.219343,0.000000,-9400.615463,-153.219100
3410.219671,296.082377,-9474.636058,-536.266849
3410.219998,296.082377,-9992.780217,-766.095498
3410.220326,592.164754,-10288.862594,-536.266849
3410.220654,814.226536,-10214.842000,-383.047749
3410.220981,1110.308913,-10066.800811,0.000000
3410.221309,814.226536,-10288.862594,-919.314598
3410.221637,666.185348,-9770.718434,153.219100
3410.221965,666.185348,-9770.718434,0.000000
3410.222292,74.020594,-9474.636058,0.000000
3410.222620,148.041188,-9474.636058,-383.047749
3410.222948,0.000000,-9622.677246,-612.876398
3410.223275,-222.061783,-9474.636058,-919.314598
3410.223603,518.144159,-9400.615463,-842.705048
3410.223931,1406.391290,-10214.842000,-536.266849
3410.224258,2368.659014,-9918.759623,-229.828649
3410.224586,3330.926739,-9400.615463,0.000000
3410.224914,4515.256246,-9548.656652,536.266849
3410.225242,4959.379811,-9474.636058,383.047749
3410.225569,5403.503377,-9770.718434,459.657299
3410.225897,6143.709319,-8808.450710,536.266849
3410.226225,6809.894666,-8882.471304,-766.095498
3410.226552,6809.894666,-9104.533087,-536.266849
3410.226880,7624.121203,-9918.759623,-153.219100
3410.227208,7550.100608,-10658.965565,76.609550
3410.227535,8068.244768,-10881.027347,459.657299
3410.227863,8956.491898,-9474.636058,76.609550
3410.228191,9030.512492,-8956.491898,0.000000
3410.228519,9548.656652,-9030.512492,383.047749
3410.228846,10362.883188,-8364.327145,536.266849
3410.229174,11103.089130,-8808.450710,383.047749
3410.229502,11029.068536,-9474.636058,536.266849
3410.229829,11029.068536,-9326.594869,306.438199
3410.230157,10140.821405,-8142.265362,0.000000
3410.230485,11029.068536,-9992.780217,536.266849
3410.230812,11251.130318,-9770.718434,153.219100
3410.231140,13101.645173,-11251.130318,-766.095498
3410.231468,13915.871710,-10584.944971,-612.876398
3410.231796,14730.098246,-10140.821405,76.609550
3410.232123,14656.077652,-9844.739029,1225.752797
3410.232451,13841.851115,-8438.347739,1225.752797
3410.232779,13323.706956,-8882.471304,919.314598
3410.233106,13619.789333,-9696.697840,-306.438199
3410.233434,13323.706956,-9992.780217,-383.047749
3410.233762,12805.562797,-9622.677246,383.047749
3410.234090,12287.418637,-9474.636058,612.876398
3410.234417,11991.336260,-9548.656652,459.657299
3410.234745,12361.439231,-10140.821405,-459.657299
3410.235073,11917.315666,-10362.883188,-919.314598
3410.235400,11473.192101,-10807.006753,-459.657299
3410.235728,9918.759623,-9992.780217,153.219100
3410.236056,8586.388927,-9178.553681,306.438199
3410.236383,7698.141797,-7994.224174,766.095498
3410.236711,8660.409521,-7772.162391,306.438199
3410.237039,9918.759623,-8808.450710,0.000000
3410.237367,10436.903782,-10807.006753,153.219100
3410.237694,9622.677246,-11251.130318,689.485948
3410.238022,8734.430116,-9844.739029,1072.533697
3410.238350,8216.285956,-7920.203579,306.438199
3410.238677,7179.997637,-7698.141797,0.000000
3410.239005,8068.244768,-9474.636058,0.000000
3410.239333,9252.574275,-9992.780217,0.000000
3410.239660,9992.780217,-10955.047942,0.000000
3410.239988,9252.574275,-8956.491898,1149.143247
3410.240316,7846.182985,-8586.388927,1072.533697
3410.240644,6217.729913,-9400.615463,842.705048
3410.240971,5995.668130,-9548.656652,-612.876398
3410.241299,7624.121203,-9474.636058,-2451.505594
3410.241627,9844.739029,-9178.553681,-1302.362347
3410.241954,10732.986159,-9400.615463,76.609550
3410.242282,8586.388927,-8808.450710,2298.286494
3410.242610,7772.162391,-8512.368333,2681.334243
3410.242937,8808.450710,-9400.615463,919.314598
3410.243265,11103.089130,-11103.089130,-1762.019645
3410.243593,10658.965565,-10140.821405,-2068.457845
3410.243921,9030.512492,-9474.636058,0.000000
3410.244248,8438.347739,-9400.615463,229.828649
3410.244576,8290.306550,-10436.903782,76.609550
3410.244904,7698.141797,-9178.553681,-306.438199
3410.245231,7846.182985,-8512.368333,-842.705048
3410.245559,9992.780217,-9622.677246,-1072.533697
3410.245887,11621.233289,-10658.965565,-459.657299
3410.246214,11325.150913,-10214.842000,766.095498
3410.246542,10510.924376,-9326.594869,1072.533697
3410.246870,11325.150913,-8364.327145,612.876398
3410.247198,10658.965565,-8660.409521,153.219100
3410.247525,12731.542202,-9474.636058,-306.438199
3410.247853,15840.407159,-9030.512492,-1072.533697
3410.248181,15248.242405,-9326.594869,612.876398
3410.248508,12657.521608,-11325.150913,2528.115143
3410.248836,11473.192101,-11621.233289,995.924147
3410.249164,11917.315666,-9252.574275,-1455.581446
3410.249491,13027.624579,-9104.533087,-3753.867940
3410.249819,12583.501014,-12287.418637,-1915.238745
3410.250147,12731.542202,-13545.768739,1455.581446
3410.250475,11991.336260,-10436.903782,3447.429741
3410.250802,11547.212695,-7402.059420,2221.676944
3410.251130,8512.368333,-7846.182985,383.047749
3410.251458,4737.318029,-8512.368333,919.314598
3410.251785,4145.153275,-7105.977043,459.657299
3410.252113,4589.276840,-5847.626942,-2068.457845
3410.252441,5477.523971,-7402.059420,-1225.752797
3410.252768,7698.141797,-9696.697840,536.266849
3410.253096,9252.574275,-10732.986159,2068.457845
3410.253424,9770.718434,-11103.089130,1991.848295
3410.253752,9622.677246,-12213.398043,76.609550
3410.254079,8512.368333,-13249.686362,-1532.190996
3410.254407,6365.771101,-11399.171507,-1072.533697
3410.254735,4811.338623,-10658.965565,612.876398
3410.255062,3108.864956,-8142.265362,2145.067394
3410.255390,888.247130,-9252.574275,3600.648841
3410.255718,-814.226536,-9474.636058,1685.410096
3410.256045,-2738.761985,-8512.368333,-612.876398
3410.256373,-2368.659014,-8586.388927,-1225.752797
3410.256701,-2960.823768,-7179.997637,-1838.629195
3410.257029,-3034.844362,-8290.306550,-1072.533697
3410.257356,-1554.432478,-7698.141797,-459.657299
3410.257684,0.000000,-8586.388927,306.438199
3410.258012,1184.329507,-10066.800811,153.219100
3410.258339,2294.638420,-11547.212695,-229.828649
3410.258667,3182.885551,-11547.212695,-383.047749
3410.258995,3997.112087,-13175.665768,-1225.752797
3410.259322,740.205942,-13101.645173,459.657299
3410.259650,-2072.576638,-9918.759623,153.219100
3410.259978,-2368.659014,-8660.409521,-1532.190996
3410.260306,-3478.967927,-9178.553681,-919.314598
3410.260633,-5181.441594,-9622.677246,0.000000
3410.260961,-4589.276840,-6439.791695,-919.314598
3410.261289,-4885.359217,-5625.565159,-995.924147
3410.261616,-3182.885551,-8290.306550,-995.924147
3410.261944,-1036.288319,-8438.347739,0.000000
3410.262272,-666.185348,-7105.977043,842.705048
3410.262599,-1258.350101,-7105.977043,1225.752797
3410.262927,444.123565,-9844.739029,-1608.800546
3410.263255,0.000000,-12065.356855,-2911.162892
3410.263583,0.000000,-13101.645173,-1225.752797
3410.263910,1850.514855,-11991.336260,-2298.286494
3410.264238,1628.453072,-12953.603985,-1302.362347
3410.264566,1628.453072,-12583.501014,0.000000
3410.264893,3701.029710,-10658.965565,-1685.410096
3410.265221,2220.617826,-9400.615463,-1302.362347
3410.265549,1702.473667,-7624.121203,1762.019645
3410.265876,2368.659014,-5107.421000,1302.362347
3410.266204,2886.803174,-7328.038826,1991.848295
3410.266532,2590.720797,-7624.121203,2451.505594
3410.266860,7105.977043,-7994.224174,0.000000
3410.267187,7328.038826,-9252.574275,-536.266849
3410.267515,4737.318029,-13471.748144,1072.533697
3410.267843,3627.009116,-14878.139434,-383.047749
3410.268170,2220.617826,-12361.439231,-3524.039291
3410.268498,222.061783,-11917.315666,-3753.867940
3410.268826,814.226536,-12213.398043,-3294.210641
3410.269153,592.164754,-11251.130318,459.657299
3410.269481,-370.102971,-8364.327145,3064.381992
3410.269809,1258.350101,-6957.935855,919.314598
3410.270137,444.123565,-7994.224174,-153.219100
3410.270464,-1776.494261,-8142.265362,1532.190996
3410.270792,-1554.432478,-5107.421000,1608.800546
3410.271120,592.164754,-4219.173869,383.047749
3410.271447,1480.411884,-6809.894666,-842.705048
3410.271775,2146.597232,-11399.171507,-536.266849
3410.272103,3627.009116,-12287.418637,1225.752797
3410.272430,5033.400406,-12435.459826,1302.362347
3410.272758,2442.679609,-13175.665768,1225.752797
3410.273086,592.164754,-13545.768739,-612.876398
3410.273414,-3404.947333,-10510.924376,-1378.971896
3410.273741,-3552.988522,-7105.977043,-1991.848295
3410.274069,-2960.823768,-7254.018232,-766.095498
3410.274397,-4145.153275,-8660.409521,1532.190996
3410.274725,-3775.050304,-8068.244768,2911.162892
3410.275052,-962.267725,-5847.626942,842.705048
3410.275380,-1258.350101,-7105.977043,919.314598
3410.275708,-888.247130,-10362.883188,-536.266849
3410.276036,148.041188,-11547.212695,-1302.362347
3410.276363,-222.061783,-9548.656652,-1455.581446
3410.276691,-296.082377,-9844.739029,-995.924147
3410.277019,-1258.350101,-11177.109724,306.438199
3410.277347,-1998.556043,-12879.583391,459.657299
3410.277674,-1628.453072,-12361.439231,-919.314598
3410.278002,-814.226536,-11917.315666,-2451.505594
3410.278330,-1998.556043,-11177.109724,-2145.067394
3410.278658,-2368.659014,-10288.862594,-1532.190996
3410.278985,-2886.803174,-8734.430116,-383.047749
3410.279313,-1480.411884,-5699.585753,0.000000
3410.279641,-1554.432478,-5625.565159,306.438199
3410.279969,-1628.453072,-9178.553681,1762.019645
3410.280296,-296.082377,-8882.471304,1608.800546
3410.280624,814.226536,-7846.182985,-919.314598
3410.280952,1036.288319,-10658.965565,-2145.067394
3410.281280,1036.288319,-11991.336260,-2911.162892
3410.281607,-888.247130,-11991.336260,-1455.581446
3410.281935,0.000000,-10584.944971,-1225.752797
3410.282263,2368.659014,-11251.130318,-2221.676944
3410.282591,1702.473667,-12583.501014,-1072.533697
3410.282918,592.164754,-11029.068536,1225.752797
3410.283246,962.267725,-8142.265362,1149.143247
3410.283574,1776.494261,-7624.121203,919.314598
3410.283902,1850.514855,-7254.018232,995.924147
3410.284229,4145.153275,-7920.203579,153.219100
3410.284557,4219.173869,-6365.771101,1378.971896
3410.284885,3627.009116,-6143.709319,2221.676944
3410.285213,3108.864956,-11399.171507,1991.848295
3410.285540,2220.617826,-12805.562797,-383.047749
3410.285868,1998.556043,-11473.192101,-1915.238745
3410.286196,2590.720797,-10732.986159,-4673.182538
3410.286524,740.205942,-13693.809927,-2604.724693
3410.286851,148.041188,-13989.892304,0.000000
3410.287179,1036.288319,-10881.027347,-689.485948
3410.287507,148.041188,-7550.100608,-1532.190996
3410.287835,-518.144159,-8882.471304,383.047749
3410.288162,0.000000,-7772.162391,1072.533697
3410.288490,1258.350101,-6587.832884,2068.457845
3410.288818,2220.617826,-5699.585753,1225.752797
3410.289146,2960.823768,-7105.977043,1762.019645
3410.289473,2072.576638,-9770.718434,3677.258390
3410.289801,4071.132681,-11621.233289,2298.286494
3410.290129,1628.453072,-10955.047942,1149.143247
3410.290457,-740.205942,-10214.842000,229.828649
3410.290784,-1924.535449,-10658.965565,-1149.143247
3410.291112,-2590.720797,-11177.109724,-2911.162892
3410.291440,-3701.029710,-10807.006753,-1532.190996
3410.291768,-2886.803174,-9622.677246,0.000000
3410.292095,-1406.391290,-9178.553681,919.314598
3410.292423,-666.185348,-8734.430116,76.609550
3410.292751,-1702.473667,-8808.450710,229.828649
3410.293079,-2072.576638,-6883.915261,1762.019645
3410.293406,-1998.556043,-7624.121203,306.438199
3410.293734,-1258.350101,-8512.368333,-1149.143247
3410.294062,-1184.329507,-9400.615463,0.000000
3410.294390,-444.123565,-9326.594869,153.219100
3410.294717,0.000000,-10658.965565,612.876398
3410.295045,148.041188,-12805.562797,383.047749
3410.295373,444.123565,-12287.418637,-1762.019645
3410.295701,296.082377,-12435.459826,-383.047749
3410.296028,-1480.411884,-10510.924376,-689.485948
3410.296356,-2146.597232,-10140.821405,-1762.019645
3410.296684,-2368.659014,-8364.327145,-1378.971896
3410.297012,-2886.803174,-6587.832884,76.609550
3410.297339,-2664.741391,-7328.038826,306.438199
3410.297667,-1702.473667,-8142.265362,995.924147
3410.297995,0.000000,-9178.553681,-612.876398
3410.298323,740.205942,-11103.089130,-1915.238745
3410.298650,0.000000,-10807.006753,-2145.067394
3410.298978,0.000000,-10214.842000,-1532.190996
3410.299306,1998.556043,-9548.656652,-766.095498
3410.299634,3775.050304,-11325.150913,0.000000
3410.299961,3627.009116,-12065.356855,1532.190996
3410.300289,2812.782580,-10658.965565,2298.286494
3410.300617,2220.617826,-9474.636058,306.438199
3410.300945,1850.514855,-9844.739029,-919.314598
3410.301272,-592.164754,-9104.533087,229.828649
3410.301600,296.082377,-6883.915261,306.438199
3410.301928,1850.514855,-5255.462188,-612.876398
3410.302256,2812.782580,-8808.450710,919.314598
3410.302583,2220.617826,-12657.521608,2681.334243
3410.302911,2368.659014,-10881.027347,919.314598
3410.303239,2812.782580,-8586.388927,-919.314598
3410.303567,2886.803174,-10066.800811,-3064.381992
3410.303894,-296.082377,-14137.933492,-1072.533697
3410.304222,-518.144159,-11325.150913,229.828649
3410.304550,962.267725,-8216.285956,-995.924147
3410.304878,814.226536,-9252.574275,-1532.190996
3410.305205,-1776.494261,-10288.862594,0.000000
3410.305533,-2072.576638,-9178.553681,-459.657299
3410.305861,518.144159,-7846.182985,-536.266849
3410.306189,1480.411884,-7772.162391,-842.705048
3410.306516,2220.617826,-9474.636058,1378.971896
3410.306844,814.226536,-9326.594869,3447.429741
3410.307172,3256.906145,-8512.368333,2451.505594
3410.307500,2220.617826,-10436.903782,229.828649
3410.307827,-592.164754,-11695.253884,536.266849
3410.308155,-1628.453072,-7698.141797,-459.657299
3410.308483,-592.164754,-8512.368333,-2528.115143
3410.308811,-1850.514855,-12065.356855,-2068.457845
3410.309138,-1850.514855,-11251.130318,-766.095498
3410.309466,-1628.453072,-10807.006753,459.657299
3410.309794,-1258.350101,-9474.636058,0.000000
3410.310122,-1258.350101,-9696.697840,-1225.752797
3410.310449,-1332.370696,-10066.800811,76.609550
3410.310777,-1110.308913,-8808.450710,919.314598
3410.311105,962.267725,-7846.182985,612.876398
3410.311433,1036.288319,-7772.162391,383.047749
3410.311760,0.000000,-8660.409521,766.095498
3410.312088,-888.247130,-9992.780217,612.876398
3410.312416,-1406.391290,-10584.944971,-306.438199
3410.312744,-1332.370696,-10362.883188,-1455.581446
3410.313071,-1184.329507,-11547.212695,-1302.362347
3410.313399,-222.061783,-10881.027347,-1685.410096
3410.313727,444.123565,-11103.089130,-1378.971896
3410.314055,1850.514855,-10214.842000,-229.828649
3410.314382,1258.350101,-8882.471304,842.705048
3410.314710,74.020594,-8068.244768,1532.190996
3410.315038,-2072.576638,-7476.080014,1685.410096
3410.315366,-1850.514855,-6661.853478,-153.219100
3410.315693,-1628.453072,-8068.244768,-1072.533697
3410.316021,-740.205942,-10214.842000,-2374.896044
3410.316349,-444.123565,-11251.130318,-2221.676944
3410.316677,962.267725,-10214.842000,-766.095498
3410.317004,3034.844362,-10584.944971,-229.828649
3410.317332,3849.070898,-11769.274478,306.438199
3410.317660,3256.906145,-12213.398043,1302.362347
3410.317988,2072.576638,-10436.903782,1455.581446
3410.318315,1258.350101,-7994.224174,459.657299
3410.318643,1406.391290,-9030.512492,-459.657299
3410.318971,2072.576638,-9400.615463,0.000000
3410.319299,1258.350101,-8438.347739,1455.581446
3410.319626,518.144159,-7105.977043,1378.971896
3410.319954,1110.308913,-8882.471304,-459.657299
3410.320282,2072.576638,-10955.047942,-2451.505594
3410.320610,1554.432478,-12805.562797,-1762.019645
3410.320937,1776.494261,-10140.821405,-1915.238745
3410.321265,2220.617826,-9844.739029,-995.924147
3410.321593,592.164754,-12805.562797,536.266849
3410.321921,-370.102971,-12065.356855,1225.752797
3410.322248,-740.205942,-8068.244768,-536.266849
3410.322576,-444.123565,-8290.306550,-2068.457845
3410.322904,-666.185348,-8290.306550,-2298.286494
3410.323232,-814.226536,-9030.512492,0.000000
3410.323559,-1110.308913,-7624.121203,1608.800546
3410.323887,222.061783,-7772.162391,1149.143247
3410.324215,1924.535449,-8882.471304,0.000000
3410.324543,2294.638420,-11177.109724,536.266849
3410.324871,1406.391290,-10807.006753,2221.676944
3410.325198,2664.741391,-8068.244768,612.876398
3410.325526,1776.494261,-7698.141797,153.219100
3410.325854,-296.082377,-10807.006753,153.219100
3410.326182,-2960.823768,-10807.006753,229.828649
3410.326509,-3330.926739,-8068.244768,-1072.533697
3410.326837,-1554.432478,-8956.491898,-2834.553343
3410.327165,-962.267725,-12139.377449,-2374.896044
3410.327493,-1998.556043,-10807.006753,-459.657299
3410.327820,-592.164754,-9400.615463,229.828649
3410.328148,888.247130,-9770.718434,0.000000
3410.328476,1998.556043,-9770.718434,-1532.190996
3410.328804,296.082377,-9326.594869,76.609550
3410.329131,296.082377,-8512.368333,766.095498
3410.329459,0.000000,-8660.409521,-153.219100
3410.329787,148.041188,-10140.821405,-229.828649
3410.330115,222.061783,-11917.315666,0.000000
3410.330442,-296.082377,-11621.233289,842.705048
3410.330770,666.185348,-11843.295072,-1149.143247
3410.331098,222.061783,-11769.274478,-2834.553343
3410.331426,370.102971,-10584.944971,-2757.943793
3410.331753,-740.205942,-9252.574275,-1532.190996
3410.332081,-962.267725,-8142.265362,1302.362347
3410.332409,-814.226536,-7254.018232,1762.019645
3410.332737,0.000000,-7994.224174,1685.410096
3410.333064,222.061783,-10362.883188,1685.410096
3410.333392,222.061783,-9252.574275,0.000000
3410.333720,296.082377,-8290.306550,-1762.019645
3410.334048,-148.041188,-10066.800811,-1915.238745
3410.334375,0.000000,-11029.068536,-1072.533697
3410.334703,-370.102971,-9178.553681,-306.438199
3410.335031,-296.082377,-8586.388927,459.657299
3410.335359,1332.370696,-8956.491898,0.000000
3410.335686,2590.720797,-11251.130318,153.219100
3410.336014,2368.659014,-10584.944971,1685.410096
3410.336342,2664.741391,-9622.677246,1838.629195
3410.336670,3182.885551,-7031.956449,689.485948
3410.336997,1924.535449,-8586.388927,766.095498
3410.337325,148.041188,-10584.944971,1072.533697
3410.337653,-592.164754,-8956.491898,-1072.533697
3410.337981,-370.102971,-7920.203579,-2451.505594
3410.338308,2294.638420,-10881.027347,-2221.676944
3410.338636,2220.617826,-14878.139434,0.000000
3410.338964,1776.494261,-12879.583391,995.924147
3410.339292,1702.473667,-9622.677246,-229.828649
3410.339619,0.000000,-10214.842000,-3217.601092
3410.339947,-3330.926739,-11843.295072,-2374.896044
3410.340275,-4071.132681,-8660.409521,-1149.143247
3410.340603,-2368.659014,-4515.256246,-689.485948
3410.340930,-740.205942,-6883.915261,0.000000
3410.341258,0.000000,-10955.047942,1762.019645
3410.341586,1332.370696,-10066.800811,2068.457845
3410.341914,2220.617826,-8882.471304,612.876398
3410.342241,2664.741391,-11547.212695,-766.095498
3410.342569,1850.514855,-10881.027347,-1072.533697
3410.342897,518.144159,-9178.553681,-229.828649
3410.343225,148.041188,-8586.388927,306.438199
3410.343552,296.082377,-9178.553681,919.314598
3410.343880,0.000000,-10955.047942,1838.629195
3410.344208,222.061783,-11029.068536,842.705048
3410.344536,888.247130,-7550.100608,-689.485948
3410.344863,740.205942,-8290.306550,-689.485948
3410.345191,296.082377,-10362.883188,0.000000
3410.345519,-148.041188,-10140.821405,919.314598
3410.345847,-1110.308913,-6883.915261,0.000000
3410.346174,-1628.453072,-6217.729913,-536.266849
3410.346502,-1184.329507,-9030.512492,-612.876398
3410.346830,296.082377,-11769.274478,-766.095498
3410.347158,1406.391290,-11621.233289,383.047749
3410.347485,2738.761985,-11399.171507,0.000000
3410.347813,2368.659014,-11103.089130,76.609550
3410.348141,-370.102971,-11473.192101,-383.047749
3410.348469,-1924.535449,-9400.615463,-766.095498
3410.348796,-1850.514855,-7476.080014,-2068.457845
3410.349124,-1406.391290,-9400.615463,-2068.457845
3410.349452,-1184.329507,-11029.068536,-995.924147
3410.349780,-222.061783,-9548.656652,459.657299
3410.350107,1628.453072,-9104.533087,306.438199
3410.350435,2590.720797,-11843.295072,0.000000
3410.350763,2072.576638,-12213.398043,-1608.800546
3410.351091,1776.494261,-9548.656652,-2451.505594
3410.351418,-148.041188,-7920.203579,-766.095498
3410.351746,-444.123565,-9400.615463,1149.143247
3410.352074,-518.144159,-9474.636058,1762.019645
3410.352402,-740.205942,-9844.739029,1532.190996
3410.352729,-962.267725,-9548.656652,-536.266849
3410.353057,-296.082377,-9252.574275,-2451.505594
3410.353385,-1554.432478,-9548.656652,-1378.971896
3410.353713,740.205942,-9252.574275,-1685.410096
3410.354040,518.144159,-6809.894666,306.438199
3410.354368,0.000000,-8290.306550,1838.629195
3410.354696,0.000000,-11325.150913,1149.143247
3410.355024,1480.411884,-12361.439231,-766.095498
3410.355351,2146.597232,-9252.574275,-1225.752797
3410.355679,2590.720797,-9326.594869,-766.095498
3410.356007,1850.514855,-11621.233289,1455.581446
3410.356335,2146.597232,-11843.295072,1532.190996
3410.356662,1924.535449,-8956.491898,-689.485948
3410.356990,74.020594,-9030.512492,-766.095498
3410.357318,-1036.288319,-10881.027347,0.000000
3410.357646,-1110.308913,-8586.388927,-536.266849
3410.357973,-1258.350101,-7846.182985,-306.438199
3410.358301,-1702.473667,-9178.553681,0.000000
3410.358629,-296.082377,-9622.677246,229.828649
3410.358957,2072.576638,-9030.512492,76.609550
3410.359284,2220.617826,-10066.800811,-766.095498
3410.359612,666.185348,-10510.924376,1225.752797
3410.359940,370.102971,-7920.203579,0.000000
3410.360268,-222.061783,-8882.471304,-1302.362347
3410.360595,-962.267725,-10955.047942,-612.876398
3410.360923,-222.061783,-10214.842000,536.266849
3410.361251,1554.432478,-9992.780217,0.000000
3410.361579,1332.370696,-12139.377449,-612.876398
3410.361906,1998.556043,-11621.233289,-1302.362347
3410.362234,-444.123565,-9918.759623,842.705048
3410.362562,-1110.308913,-8290.306550,1302.362347
3410.362890,222.061783,-8068.244768,0.000000
3410.363217,-296.082377,-8364.327145,-306.438199
3410.363545,-518.144159,-8364.327145,536.266849
3410.363873,0.000000,-8882.471304,0.000000
3410.364201,148.041188,-10510.924376,766.095498
3410.364528,814.226536,-11843.295072,0.000000
3410.364856,814.226536,-11917.315666,-306.438199
3410.365184,-666.185348,-11325.150913,-1532.190996
3410.365512,-1850.514855,-9030.512492,-2221.676944
3410.365839,-888.247130,-9474.636058,-1685.410096
3410.366167,-296.082377,-9252.574275,-689.485948
3410.366495,148.041188,-9548.656652,1378.971896
3410.366823,-296.082377,-8142.265362,2145.067394
3410.367150,222.061783,-8882.471304,842.705048
3410.367478,1036.288319,-10288.862594,-995.924147
3410.367806,666.185348,-10066.800811,-1455.581446
3410.368134,-592.164754,-8956.491898,-1149.143247
3410.368461,0.000000,-9252.574275,-995.924147
3410.368789,-370.102971,-9770.718434,766.095498
3410.369117,370.102971,-10955.047942,1915.238745
3410.369445,222.061783,-10214.842000,995.924147
3410.369772,74.020594,-10436.903782,-306.438199
3410.370100,222.061783,-10436.903782,-1685.410096
3410.370428,-740.205942,-9400.615463,-1991.848295
3410.370756,-1184.329507,-8956.491898,0.000000
3410.371083,0.000000,-6661.853478,-383.047749
3410.371411,0.000000,-7476.080014,1149.143247
3410.371739,-518.144159,-10732.986159,1378.971896
3410.372067,-222.061783,-11325.150913,76.609550
3410.372394,666.185348,-9622.677246,-2451.505594
3410.372722,2072.576638,-9992.780217,-2834.553343
3410.373050,2368.659014,-11991.336260,-1455.581446
3410.373378,1924.535449,-13027.624579,766.095498
3410.373705,2220.617826,-9622.677246,1072.533697
3410.374033,1850.514855,-8882.471304,0.000000
3410.374361,518.144159,-10288.862594,-229.828649
3410.374689,-592.164754,-9030.512492,306.438199
3410.375016,-1184.329507,-7254.018232,0.000000
3410.375344,-518.144159,-8438.347739,-612.876398
3410.375672,0.000000,-8882.471304,153.219100
3410.376000,444.123565,-9918.759623,76.609550
3410.376327,814.226536,-9696.697840,306.438199
3410.376655,1036.288319,-9326.594869,-306.438199
3410.376983,1036.288319,-10362.883188,-306.438199
3410.377311,2664.741391,-9844.739029,-306.438199
3410.377638,1554.432478,-8438.347739,1072.533697
3410.377966,1036.288319,-8882.471304,1608.800546
3410.378294,666.185348,-9474.636058,1225.752797
3410.378621,888.247130,-11399.171507,0.000000
3410.378949,0.000000,-11695.253884,-1225.752797
3410.379276,-370.102971,-9178.553681,-1762.019645
3410.379604,-1110.308913,-8512.368333,-536.266849
3410.379932,-592.164754,-9844.739029,-919.314598
3410.380259,296.082377,-9918.759623,306.438199
3410.380587,148.041188,-8216.285956,919.314598
3410.380914,-518.144159,-7254.018232,229.828649
3410.381242,592.164754,-10140.821405,0.000000
3410.381570,370.102971,-11769.274478,76.609550
3410.381897,296.082377,-10955.047942,76.609550
3410.382225,1258.350101,-11399.171507,0.000000
3410.382552,814.226536,-10732.986159,-1378.971896
3410.382880,-222.061783,-11029.068536,-1915.238745
3410.383207,-1332.370696,-10288.862594,-689.485948
3410.383535,-1332.370696,-8364.327145,-1915.238745
3410.383863,-444.123565,-9178.553681,-1532.190996
3410.384190,148.041188,-10066.800811,-842.705048
3410.384518,74.020594,-9474.636058,919.314598
3410.384845,1036.288319,-9178.553681,459.657299
3410.385173,1184.329507,-8512.368333,153.219100
3410.385501,0.000000,-10362.883188,-612.876398
3410.385828,222.061783,-9474.636058,-612.876398
3410.386156,296.082377,-8586.388927,76.609550
3410.386483,-370.102971,-9918.759623,842.705048
3410.386811,-222.061783,-10584.944971,229.828649
3410.387139,-1258.350101,-11769.274478,0.000000
3410.387466,-2294.638420,-9622.677246,-842.705048
3410.387794,-1850.514855,-7254.018232,-1762.019645
3410.388121,-1480.411884,-8364.327145,-1455.581446
3410.388449,1036.288319,-9474.636058,153.219100
3410.388777,1702.473667,-7698.141797,2451.505594
3410.389104,2220.617826,-8216.285956,2987.772442
3410.389432,518.144159,-9770.718434,1532.190996
3410.389759,1184.329507,-10510.924376,-919.314598
3410.390087,592.164754,-9104.533087,-1991.848295
3410.390415,1184.329507,-9992.780217,-1149.143247
3410.390742,1258.350101,-11029.068536,306.438199
3410.391070,2072.576638,-11843.295072,766.095498
3410.391397,1628.453072,-11917.315666,766.095498
3410.391725,1332.370696,-10362.883188,-1225.752797
3410.392053,0.000000,-8882.471304,-1302.362347
3410.392380,-1480.411884,-9844.739029,-919.314598
3410.392708,-1480.411884,-8364.327145,-1455.581446
3410.393035,-888.247130,-7624.121203,0.000000
3410.393363,296.082377,-8216.285956,766.095498
3410.393691,1406.391290,-9770.718434,842.705048
3410.394018,2072.576638,-11621.233289,919.314598
3410.394346,1406.391290,-11251.130318,536.266849
3410.394673,2072.576638,-10066.800811,-1149.143247
3410.395001,1406.391290,-9474.636058,-1302.362347
3410.395329,74.020594,-10140.821405,-1685.410096
3410.395656,-370.102971,-10436.903782,383.047749
3410.395984,1628.453072,-9770.718434,536.266849
3410.396311,1406.391290,-10214.842000,689.485948
3410.396639,-222.061783,-10214.842000,459.657299
3410.396967,-592.164754,-9326.594869,0.000000
3410.397294,-222.061783,-7328.038826,-842.705048
3410.397622,-592.164754,-7624.121203,-612.876398
3410.397949,-666.185348,-7920.203579,-612.876398
3410.398277,-1110.308913,-7846.182985,0.000000
3410.398605,-1406.391290,-8808.450710,612.876398
3410.398932,370.102971,-10288.862594,383.047749
3410.399260,666.185348,-11621.233289,0.000000
3410.399587,740.205942,-12805.562797,0.000000
3410.399915,222.061783,-11991.336260,-1225.752797
3410.400243,-148.041188,-9252.574275,-1838.629195
3410.400570,148.041188,-10066.800811,0.000000
3410.400898,0.000000,-9104.533087,-229.828649
3410.401225,-444.123565,-8068.244768,919.314598
3410.401553,-1554.432478,-7328.038826,1378.971896
3410.401881,0.000000,-8142.265362,459.657299
3410.402208,518.144159,-9474.636058,-229.828649
3410.402536,444.123565,-10658.965565,-306.438199
3410.402863,1184.329507,-10510.924376,-689.485948
3410.403191,1480.411884,-9844.739029,-919.314598
3410.403519,2294.638420,-10288.862594,-766.095498
3410.403846,0.000000,-11695.253884,766.095498
3410.404174,-740.205942,-10214.842000,766.095498
3410.404501,-1110.308913,-9696.697840,-766.095498
3410.404829,-1850.514855,-10140.821405,-1532.190996
3410.405157,-962.267725,-9548.656652,-2298.286494
3410.405484,-1184.329507,-9326.594869,-919.314598
3410.405812,814.226536,-7846.182985,76.609550
3410.406139,1998.556043,-8068.244768,766.095498
3410.406467,1332.370696,-10362.883188,1685.410096
3410.406795,592.164754,-11029.068536,689.485948
3410.407122,814.226536,-9474.636058,-1455.581446
3410.407450,1480.411884,-9104.533087,-842.705048
3410.407777,2664.741391,-10066.800811,-153.219100
3410.408105,1776.494261,-12731.542202,1685.410096
3410.408433,2220.617826,-9918.759623,1149.143247
3410.408760,2294.638420,-8882.471304,-536.266849
3410.409088,1332.370696,-10584.944971,-1149.143247
3410.409415,-888.247130,-10140.821405,-536.266849
3410.409743,-1702.473667,-7772.162391,-306.438199
3410.410071,-1480.411884,-6661.853478,-919.314598
3410.410398,-1184.329507,-8364.327145,76.609550
3410.410726,1110.308913,-10288.862594,842.705048
3410.411053,2146.597232,-9770.718434,919.314598
3410.411381,1776.494261,-9622.677246,919.314598
3410.411709,1998.556043,-11251.130318,229.828649
3410.412036,1850.514855,-10584.944971,-689.485948
3410.412364,74.020594,-8216.285956,0.000000
3410.412691,-296.082377,-8586.388927,153.219100
3410.413019,-1184.329507,-10140.821405,689.485948
3410.413347,74.020594,-11029.068536,-612.876398
3410.413674,1110.308913,-12139.377449,-1455.581446
3410.414002,0.000000,-10807.006753,-612.876398
3410.414329,222.061783,-8734.430116,-153.219100
3410.414657,888.247130,-9400.615463,-383.047749
3410.414985,222.061783,-10066.800811,383.047749
3410.415312,0.000000,-7550.100608,0.000000
3410.415640,-1184.329507,-6069.688724,306.438199
3410.415967,-1480.411884,-9178.553681,689.485948
3410.416295,-296.082377,-10807.006753,0.000000
3410.416623,0.000000,-10732.986159,842.705048
3410.416950,444.123565,-11029.068536,-612.876398
3410.417278,1924.535449,-12805.562797,-1685.410096
3410.417605,962.267725,-11547.212695,-3447.429741
3410.417933,-1480.411884,-10955.047942,0.000000
3410.418261,-222.061783,-8586.388927,-383.047749
3410.418588,-814.226536,-6809.894666,76.609550
3410.418916,0.000000,-7698.141797,919.314598
3410.419243,296.082377,-9104.533087,2757.943793
3410.419571,814.226536,-8808.450710,1072.533697
3410.419899,1258.350101,-8882.471304,-459.657299
3410.420226,1776.494261,-10288.862594,-1991.848295
3410.420554,74.020594,-10140.821405,-153.219100
3410.420881,444.123565,-8216.285956,229.828649
3410.421209,296.082377,-8956.491898,1149.143247
3410.421537,-592.164754,-10881.027347,459.657299
3410.421864,444.123565,-11399.171507,-995.924147
3410.422192,0.000000,-9548.656652,-1685.410096
3410.422519,-518.144159,-7920.203579,-1225.752797
3410.422847,-296.082377,-9030.512492,-1149.143247
3410.423175,-518.144159,-10140.821405,0.000000
3410.423502,2516.700203,-9252.574275,0.000000
3410.423830,3330.926739,-8068.244768,306.438199
3410.424157,-222.061783,-9696.697840,2298.286494
3410.424485,-1110.308913,-11325.150913,842.705048
3410.424813,-666.185348,-11843.295072,-2757.943793
3410.425140,222.061783,-10140.821405,-4290.134789
3410.425468,2146.597232,-10140.821405,-2911.162892
3410.425795,2812.782580,-12583.501014,0.000000
3410.426123,2960.823768,-12879.583391,3370.820191
3410.426451,2886.803174,-9696.697840,2221.676944
3410.426778,592.164754,-8216.285956,306.438199
3410.427106,-1998.556043,-8660.409521,-766.095498
3410.427433,-2220.617826,-7846.182985,-2221.676944
3410.427761,-1628.453072,-7402.059420,-1532.190996
3410.428089,-666.185348,-7476.080014,-459.657299
3410.428416,1036.288319,-8956.491898,1608.800546
3410.428744,2294.638420,-11769.274478,1608.800546
3410.429071,1998.556043,-11621.233289,1455.581446
3410.429399,1184.329507,-10436.903782,-383.047749
3410.429727,74.020594,-10066.800811,-306.438199
3410.430054,814.226536,-8512.368333,-1072.533697
3410.430382,814.226536,-6439.791695,0.000000
3410.430709,-370.102971,-7994.224174,1608.800546
3410.431037,-444.123565,-9844.739029,2451.505594
3410.431365,0.000000,-10066.800811,1762.019645
3410.431692,518.144159,-9992.780217,-919.314598
3410.432020,-740.205942,-9474.636058,-1915.238745
3410.432347,-1332.370696,-9622.677246,-383.047749
3410.432675,0.000000,-8586.388927,-306.438199
3410.433003,1480.411884,-8808.450710,-995.924147
3410.433330,74.020594,-9178.553681,766.095498
3410.433658,-222.061783,-9104.533087,766.095498
3410.433985,888.247130,-10362.883188,76.609550
3410.434313,1036.288319,-11547.212695,-306.438199
3410.434641,370.102971,-11843.295072,-689.485948
3410.434968,-1036.288319,-10732.986159,766.095498
3410.435296,-814.226536,-9696.697840,-383.047749
3410.435623,-296.082377,-9326.594869,-2451.505594
3410.435951,-1184.329507,-9326.594869,-1838.629195
3410.436279,-962.267725,-9474.636058,-1838.629195
3410.436606,74.020594,-9548.656652,-536.266849
3410.436934,1110.308913,-9992.780217,-229.828649
3410.437261,1036.288319,-10288.862594,766.095498
3410.437589,1036.288319,-10436.903782,1838.629195
3410.437917,1776.494261,-10066.800811,459.657299
3410.438244,0.000000,-9178.553681,-1532.190996
3410.438572,-666.185348,-9844.739029,-1838.629195
3410.438899,-1480.411884,-10066.800811,-229.828649
3410.439227,-888.247130,-8882.471304,-229.828649
3410.439555,0.000000,-8438.347739,-459.657299
3410.439882,148.041188,-9252.574275,-1455.581446
3410.440210,148.041188,-9400.615463,-229.828649
3410.440537,74.020594,-9030.512492,612.876398
3410.440865,1850.514855,-8142.265362,459.657299
3410.441193,1850.514855,-8882.471304,1149.143247
3410.441520,-296.082377,-9474.636058,2911.162892
3410.441848,-962.267725,-9326.594869,1455.581446
3410.442175,-740.205942,-10140.821405,-2681.334243
3410.442503,1036.288319,-11399.171507,-3753.867940
3410.442831,2146.597232,-11029.068536,-2681.334243
3410.443158,1036.288319,-9622.677246,0.000000
3410.443486,592.164754,-9992.780217,2145.067394
3410.443813,1850.514855,-11399.171507,1991.848295
3410.444141,2220.617826,-10584.944971,0.000000
3410.444469,0.000000,-8734.430116,-229.828649
3410.444796,-962.267725,-7402.059420,-1455.581446
3410.445124,222.061783,-7846.182985,-1532.190996
3410.445451,0.000000,-9622.677246,-612.876398
3410.445779,-370.102971,-9622.677246,1532.190996
3410.446107,0.000000,-8956.491898,1608.800546
3410.446434,1110.308913,-10510.924376,612.876398
3410.446762,1110.308913,-12657.521608,-1302.362347
3410.447089,592.164754,-11399.171507,-1915.238745
3410.447417,814.226536,-9030.512492,-919.314598
3410.447745,1702.473667,-7328.038826,-1149.143247
3410.448072,814.226536,-9844.739029,76.609550
3410.448400,-1924.535449,-11177.109724,2681.334243
3410.448727,-740.205942,-9178.553681,1378.971896
3410.449055,296.082377,-8068.244768,0.000000
3410.449383,296.082377,-10362.883188,-1608.800546
3410.449710,-296.082377,-11029.068536,-1455.581446
3410.450038,-444.123565,-9252.574275,536.266849
3410.450365,1110.308913,-8068.244768,-536.266849
3410.450693,1110.308913,-10214.842000,-459.657299
3410.451021,-370.102971,-11177.109724,229.828649
3410.451348,-296.082377,-8142.265362,76.609550
3410.451676,370.102971,-9030.512492,153.219100
3410.452003,1406.391290,-10510.924376,153.219100
3410.452331,666.185348,-11547.212695,1455.581446
3410.452659,666.185348,-10658.965565,1608.800546
3410.452986,1184.329507,-9252.574275,-689.485948
3410.453314,296.082377,-8734.430116,-2298.286494
3410.453641,-1628.453072,-8882.471304,-842.705048
3410.453969,-1776.494261,-8142.265362,0.000000
3410.454297,-370.102971,-7772.162391,306.438199
3410.454624,1628.453072,-9474.636058,383.047749
3410.454952,1184.329507,-11695.253884,689.485948
3410.455279,888.247130,-12879.583391,76.609550
3410.455607,1628.453072,-10436.903782,-995.924147
3410.455935,1110.308913,-9474.636058,-1991.848295
3410.456262,-444.123565,-9918.759623,-689.485948
3410.456590,-370.102971,-10510.924376,689.485948
3410.456917,-222.061783,-9474.636058,842.705048
3410.457245,0.000000,-8216.285956,0.000000
3410.457573,-370.102971,-8142.265362,-306.438199
3410.457900,-518.144159,-10066.800811,-459.657299
3410.458228,-666.185348,-9104.533087,-459.657299
3410.458555,2072.576638,-8882.471304,-766.095498
3410.458883,2294.638420,-9474.636058,-383.047749
3410.459211,1480.411884,-11399.171507,1302.362347
3410.459538,-370.102971,-11029.068536,1302.362347
3410.459866,-814.226536,-10510.924376,-1225.752797
3410.460193,-518.144159,-9770.718434,-2374.896044
3410.460521,740.205942,-9622.677246,-2834.553343
3410.460849,222.061783,-10658.965565,-383.047749
3410.461176,296.082377,-10584.944971,3294.210641
3410.461504,1406.391290,-8586.388927,1685.410096
3410.461831,1776.494261,-8290.306550,-1072.533697
3410.462159,-1184.329507,-9770.718434,-1149.143247
3410.462487,-2146.597232,-8734.430116,-1378.971896
3410.462814,-1554.432478,-6883.915261,-612.876398
3410.463142,-296.082377,-7698.141797,306.438199
3410.463469,444.123565,-9622.677246,689.485948
3410.463797,740.205942,-10584.944971,2374.896044
3410.464125,2368.659014,-10584.944971,459.657299
3410.464452,1850.514855,-11399.171507,-919.314598
3410.464780,1480.411884,-12213.398043,-1149.143247
3410.465107,1110.308913,-9474.636058,-383.047749
3410.465435,1258.350101,-5847.626942,0.000000
3410.465763,-592.164754,-7402.059420,995.924147
3410.466090,-2072.576638,-10436.903782,1072.533697
3410.466418,-1332.370696,-10510.924376,919.314598
3410.466745,296.082377,-9548.656652,-1225.752797
3410.467073,1554.432478,-10362.883188,-2681.334243
3410.467401,-370.102971,-10214.842000,-1302.362347
3410.467728,1184.329507,-11251.130318,842.705048
3410.468056,1702.473667,-9474.636058,306.438199
3410.468383,1554.432478,-8882.471304,-306.438199
3410.468711,-444.123565,-9770.718434,459.657299
3410.469039,-444.123565,-10214.842000,0.000000
3410.469366,0.000000,-10732.986159,-383.047749
3410.469694,1332.370696,-10881.027347,-1685.410096
3410.470021,74.020594,-11325.150913,76.609550
3410.470349,814.226536,-11251.130318,612.876398
3410.470677,444.123565,-9474.636058,0.000000
3410.471004,-1036.288319,-7920.203579,-766.095498
3410.471332,-740.205942,-7920.203579,-919.314598
3410.471659,-518.144159,-8068.244768,-919.314598
3410.471987,296.082377,-9252.574275,842.705048
3410.472315,740.205942,-9178.553681,1532.190996
3410.472642,888.247130,-10214.842000,689.485948
3410.472970,1184.329507,-10807.006753,-995.924147
3410.473297,518.144159,-11695.253884,-1685.410096
3410.473625,-962.267725,-10140.821405,-842.705048
3410.473953,0.000000,-8660.409521,0.000000
3410.474280,-296.082377,-9548.656652,383.047749
3410.474608,814.226536,-9400.615463,0.000000
3410.474935,-222.061783,-7772.162391,306.438199
3410.475263,740.205942,-7846.182985,0.000000
3410.475591,1702.473667,-8364.327145,0.000000
3410.475918,1480.411884,-10214.842000,-459.657299
3410.476242,962.267725,-11547.212695,0.000000
3410.476569,-592.164754,-9104.533087,919.314598
3410.476897,-666.185348,-8586.388927,995.924147
3410.477224,-666.185348,-10881.027347,-1915.238745
3410.477552,-888.247130,-12731.542202,-1991.848295
3410.477879,222.061783,-10436.903782,-2451.505594
3410.478207,1924.535449,-9548.656652,-1532.190996
3410.478534,1850.514855,-11991.336260,536.266849
3410.478862,1184.329507,-12435.459826,2451.505594
3410.479189,0.000000,-8142.265362,1991.848295
3410.479517,-962.267725,-6291.750507,-459.657299
3410.479844,-1998.556043,-9178.553681,-2451.505594
3410.480172,-1702.473667,-9030.512492,-2451.505594
3410.480499,-740.205942,-7402.059420,-689.485948
3410.480827,444.123565,-7846.182985,0.000000
3410.481154,1332.370696,-10436.903782,1685.410096
3410.481482,3256.906145,-12139.377449,1225.752797
3410.481809,2664.741391,-12139.377449,459.657299
3410.482137,1924.535449,-9844.739029,-383.047749
3410.482464,1184.329507,-8290.306550,0.000000
3410.482792,1850.514855,-7624.121203,0.000000
3410.483120,148.041188,-8290.306550,766.095498
3410.483447,-1628.453072,-8808.450710,536.266849
3410.483775,-1406.391290,-8142.265362,383.047749
3410.484102,1702.473667,-9918.759623,-1685.410096
3410.484430,1850.514855,-11917.315666,-1455.581446
3410.484757,0.000000,-9178.553681,-153.219100
3410.485085,222.061783,-7846.182985,-536.266849
3410.485412,1776.494261,-10066.800811,-766.095498
3410.485740,2590.720797,-10658.965565,-153.219100
3410.486067,1850.514855,-9474.636058,919.314598
3410.486395,666.185348,-9622.677246,383.047749
3410.486722,1850.514855,-11177.109724,-995.924147
3410.487050,1776.494261,-11473.192101,-1608.800546
3410.487377,-222.061783,-10658.965565,612.876398
3410.487705,-1998.556043,-8364.327145,995.924147
3410.488032,-740.205942,-9178.553681,-1149.143247
3410.488360,-592.164754,-10955.047942,-3524.039291
3410.488687,-592.164754,-11399.171507,-1685.410096
3410.489015,-296.082377,-8882.471304,-1225.752797
3410.489342,592.164754,-8734.430116,383.047749
3410.489670,666.185348,-10066.800811,1225.752797
3410.489998,-148.041188,-11103.089130,1072.533697
3410.490325,-518.144159,-9844.739029,919.314598
3410.490653,-814.226536,-8882.471304,-1378.971896
3410.490980,-1110.308913,-10066.800811,-2221.676944
3410.491308,-1702.473667,-10955.047942,-459.657299
3410.491635,-1406.391290,-9770.718434,76.609550
3410.491963,-1036.288319,-8734.430116,229.828649
3410.492290,0.000000,-8364.327145,0.000000
3410.492618,444.123565,-9178.553681,-383.047749
3410.492945,-444.123565,-8364.327145,919.314598
3410.493273,-888.247130,-7476.080014,1915.238745
3410.493600,-888.247130,-8216.285956,995.924147
3410.493928,-518.144159,-10584.944971,-229.828649
3410.494255,222.061783,-10214.842000,-689.485948
3410.494583,666.185348,-9030.512492,-536.266849
3410.494910,-148.041188,-9474.636058,612.876398
3410.495238,-370.102971,-10436.903782,-919.314598
3410.495565,-296.082377,-11769.274478,-1532.190996
3410.495893,-962.267725,-10214.842000,-995.924147
3410.496220,370.102971,-7698.141797,-1532.190996
3410.496548,1036.288319,-9622.677246,76.609550
3410.496876,592.164754,-12361.439231,1685.410096
3410.497203,1258.350101,-9992.780217,842.705048
3410.497531,1998.556043,-8364.327145,-2145.067394
3410.497858,1110.308913,-9030.512492,-2068.457845
3410.498186,444.123565,-9548.656652,-766.095498
3410.498513,0.000000,-9326.594869,536.266849
3410.498841,222.061783,-8734.430116,0.000000
3410.499168,666.185348,-10436.903782,229.828649
3410.499496,2368.659014,-11473.192101,0.000000
3410.499823,2886.803174,-10881.027347,-766.095498
3410.500151,2294.638420,-11399.171507,-612.876398
3410.500478,1776.494261,-11029.068536,0.000000
3410.500806,1554.432478,-8808.450710,-766.095498
3410.501133,962.267725,-6365.771101,383.047749
3410.501461,0.000000,-7402.059420,1149.143247
3410.501788,-2590.720797,-8068.244768,1838.629195
3410.502116,-1332.370696,-8956.491898,919.314598
3410.502443,666.185348,-9474.636058,-2298.286494
3410.502771,1628.453072,-11029.068536,-1991.848295
3410.503098,1406.391290,-11325.150913,-536.266849
3410.503426,2516.700203,-10436.903782,0.000000
3410.503753,3034.844362,-11325.150913,0.000000
3410.504081,2368.659014,-10362.883188,689.485948
3410.504409,-222.061783,-7920.203579,919.314598
3410.504736,-2220.617826,-7328.038826,2451.505594
3410.505064,-518.144159,-8660.409521,-459.657299
3410.505391,-222.061783,-10436.903782,-995.924147
3410.505719,-1184.329507,-11177.109724,0.000000
3410.506046,296.082377,-9844.739029,-766.095498
3410.506374,1406.391290,-9326.594869,-2374.896044
3410.506701,962.267725,-10288.862594,-1225.752797
3410.507029,296.082377,-10362.883188,0.000000
3410.507356,-962.267725,-9178.553681,459.657299
3410.507684,-962.267725,-8734.430116,383.047749
3410.508011,74.020594,-10436.903782,153.219100
3410.508339,-888.247130,-11843.295072,383.047749
3410.508666,-740.205942,-9918.759623,-306.438199
3410.508994,-1258.350101,-9326.594869,-1991.848295
3410.509321,-1036.288319,-10066.800811,-2298.286494
3410.509649,-1998.556043,-9252.574275,-1302.362347
3410.509976,-1480.411884,-8068.244768,153.219100
3410.510304,-888.247130,-7179.997637,1378.971896
3410.510631,740.205942,-9400.615463,306.438199
3410.510959,148.041188,-11621.233289,919.314598
3410.511287,740.205942,-10658.965565,229.828649
3410.511614,1850.514855,-9252.574275,0.000000
3410.511942,1850.514855,-11029.068536,-612.876398
3410.512269,-666.185348,-11029.068536,919.314598
3410.512597,-1258.350101,-9178.553681,0.000000
3410.512924,-2072.576638,-8734.430116,-536.266849
3410.513252,-222.061783,-9178.553681,-1149.143247
3410.513579,0.000000,-9844.739029,-1302.362347
3410.513907,-1184.329507,-10510.924376,842.705048
3410.514234,-222.061783,-10362.883188,383.047749
3410.514562,2146.597232,-10066.800811,-1302.362347
3410.514889,1628.453072,-10066.800811,-1685.410096
3410.515217,0.000000,-9104.533087,76.609550
3410.515544,592.164754,-7624.121203,919.314598
3410.515872,1184.329507,-8364.327145,536.266849
3410.516199,962.267725,-9622.677246,76.609550
3410.516527,0.000000,-10881.027347,1838.629195
3410.516854,1776.494261,-8956.491898,1072.533697
3410.517182,3330.926739,-9400.615463,-919.314598
3410.517509,1776.494261,-12805.562797,-1608.800546
3410.517837,1036.288319,-10955.047942,-1225.752797
3410.518164,74.020594,-5773.606348,-842.705048
3410.518492,-296.082377,-7031.956449,536.266849
3410.518820,-888.247130,-8882.471304,76.609550
3410.519147,444.123565,-10214.842000,1455.581446
3410.519475,1110.308913,-10436.903782,1455.581446
3410.519802,2220.617826,-9844.739029,-612.876398
3410.520130,1998.556043,-11251.130318,-1685.410096
3410.520457,2368.659014,-12583.501014,-1378.971896
3410.520785,740.205942,-10362.883188,0.000000
3410.521112,666.185348,-8734.430116,-153.219100
3410.521440,-592.164754,-8216.285956,-383.047749
3410.521767,0.000000,-10214.842000,76.609550
3410.522095,-148.041188,-10436.903782,1455.581446
3410.522422,666.185348,-8808.450710,536.266849
3410.522750,0.000000,-9400.615463,689.485948
3410.523077,1036.288319,-11177.109724,0.000000
3410.523405,296.082377,-9770.718434,-1149.143247
3410.523732,518.144159,-8586.388927,-1532.190996
3410.524060,-1184.329507,-8142.265362,153.219100
3410.524387,-814.226536,-9400.615463,459.657299
3410.524715,-296.082377,-9622.677246,1378.971896
3410.525042,-962.267725,-9548.656652,1455.581446
3410.525370,-666.185348,-10214.842000,689.485948
3410.525698,0.000000,-10658.965565,-1532.190996
3410.526025,-1184.329507,-11991.336260,-1838.629195
3410.526353,-1998.556043,-8586.388927,-1149.143247
3410.526680,-1258.350101,-6587.832884,-1532.190996
3410.527008,-1184.329507,-8068.244768,842.705048
3410.527335,296.082377,-10140.821405,383.047749
3410.527663,296.082377,-9326.594869,2145.067394
3410.527990,222.061783,-8734.430116,919.314598
3410.528318,518.144159,-9400.615463,-383.047749
3410.528645,444.123565,-11177.109724,-2068.457845
3410.528973,-814.226536,-10140.821405,-2221.676944
3410.529300,-1036.288319,-9104.533087,-919.314598
3410.529628,-296.082377,-9696.697840,229.828649
3410.529955,666.185348,-11917.315666,0.000000
3410.530283,592.164754,-12213.398043,536.266849
3410.530610,888.247130,-9474.636058,76.609550
3410.530938,962.267725,-7698.141797,-689.485948
3410.531265,0.000000,-10732.986159,-459.657299
3410.531593,-1036.288319,-9992.780217,-459.657299
3410.531920,1110.308913,-8882.471304,-2068.457845
3410.532248,1110.308913,-8290.306550,-1378.971896
3410.532576,370.102971,-9474.636058,153.219100
3410.532903,1110.308913,-10584.944971,459.657299
3410.533231,1110.308913,-9992.780217,459.657299
3410.533558,444.123565,-8586.388927,0.000000
3410.533886,370.102971,-9548.656652,229.828649
3410.534213,2590.720797,-11399.171507,-766.095498
3410.534541,1998.556043,-11325.150913,0.000000
3410.534868,1998.556043,-10362.883188,383.047749
3410.535196,1628.453072,-6661.853478,229.828649
3410.535523,740.205942,-7476.080014,229.828649
3410.535851,-666.185348,-9326.594869,383.047749
3410.536178,-148.041188,-8734.430116,-306.438199
3410.536506,148.041188,-8290.306550,0.000000
3410.536833,2294.638420,-9548.656652,-536.266849
3410.537161,2220.617826,-12139.377449,-689.485948
3410.537488,1850.514855,-11399.171507,383.047749
3410.537816,2368.659014,-9400.615463,229.828649
3410.538143,1406.391290,-10362.883188,-229.828649
3410.538471,444.123565,-10881.027347,-612.876398
3410.538798,-740.205942,-8142.265362,0.000000
3410.539126,-296.082377,-8364.327145,-306.438199
3410.539453,0.000000,-10436.903782,0.000000
3410.539781,296.082377,-11473.192101,-306.438199
3410.540109,-814.226536,-10140.821405,306.438199
3410.540436,-444.123565,-9252.574275,-995.924147
3410.540764,222.061783,-9104.533087,-2374.896044
3410.541091,222.061783,-10214.842000,-2221.676944
3410.541419,370.102971,-9844.739029,-229.828649
3410.541746,1110.308913,-9770.718434,612.876398
3410.542074,1258.350101,-9844.739029,919.314598
3410.542401,1184.329507,-9770.718434,612.876398
3410.542729,-370.102971,-11177.109724,306.438199
3410.543056,-1332.370696,-10510.924376,-229.828649
3410.543384,-1480.411884,-7920.203579,-2221.676944
3410.543711,-2220.617826,-7476.080014,-2451.505594
3410.544039,-1554.432478,-10140.821405,-306.438199
3410.544366,-518.144159,-10066.800811,766.095498
3410.544694,592.164754,-8438.347739,1378.971896
3410.545021,1406.391290,-9252.574275,995.924147
3410.545349,666.185348,-10288.862594,76.609550
3410.545676,-888.247130,-9992.780217,842.705048
3410.546004,-666.185348,-9178.553681,-153.219100
3410.546331,-148.041188,-8068.244768,-842.705048
3410.546659,-518.144159,-9992.780217,0.000000
3410.546987,-1480.411884,-11251.130318,995.924147
3410.547314,-444.123565,-10807.006753,-612.876398
3410.547642,592.164754,-10362.883188,-1762.019645
3410.547969,1924.535449,-9918.759623,-2834.553343
3410.548297,0.000000,-9474.636058,-612.876398
3410.548624,-1332.370696,-10955.047942,2145.067394
3410.548952,444.123565,-9178.553681,842.705048
3410.549279,2294.638420,-8660.409521,-1302.362347
3410.549607,1110.308913,-10584.944971,-612.876398
3410.549934,222.061783,-9770.718434,153.219100
3410.550262,-222.061783,-8142.265362,-842.705048
3410.550589,1036.288319,-8808.450710,-2451.505594
3410.550917,666.185348,-10955.047942,-1608.800546
3410.551244,592.164754,-11251.130318,0.000000
3410.551572,1258.350101,-9622.677246,383.047749
3410.551899,2294.638420,-11103.089130,612.876398
3410.552227,2368.659014,-11695.253884,76.609550
3410.552554,1480.411884,-8068.244768,766.095498
3410.552882,0.000000,-5033.400406,919.314598
3410.553209,518.144159,-8512.368333,76.609550
3410.553537,518.144159,-10807.006753,76.609550
3410.553864,1628.453072,-9844.739029,995.924147
3410.554192,1184.329507,-8956.491898,-536.266849
3410.554520,222.061783,-10955.047942,-612.876398
3410.554847,1036.288319,-10288.862594,-612.876398
3410.555175,1480.411884,-10584.944971,-1378.971896
3410.555502,740.205942,-10362.883188,153.219100
3410.555830,1184.329507,-9178.553681,-842.705048
3410.556157,1184.329507,-9104.533087,-995.924147
3410.556485,1184.329507,-10807.006753,306.438199
3410.556812,-814.226536,-9326.594869,2221.676944
3410.557140,-888.247130,-7994.224174,766.095498
3410.557467,-1036.288319,-7698.141797,1149.143247
3410.557795,1036.288319,-10066.800811,-1608.800546
3410.558122,0.000000,-10658.965565,-1225.752797
3410.558450,-592.164754,-10584.944971,-612.876398
3410.558777,444.123565,-8882.471304,-1762.019645
3410.559105,1480.411884,-9918.759623,-2757.943793
3410.559432,888.247130,-11843.295072,76.609550
3410.559760,592.164754,-11325.150913,2374.896044
3410.560087,-370.102971,-9178.553681,2068.457845
3410.560415,370.102971,-9696.697840,-383.047749
3410.560742,-666.185348,-11399.171507,-689.485948
3410.561070,-2294.638420,-9474.636058,383.047749
3410.561398,-2220.617826,-6957.935855,-536.266849
3410.561725,-1628.453072,-8438.347739,-1302.362347
3410.562053,0.000000,-9844.739029,-1915.238745
3410.562380,-740.205942,-9918.759623,-153.219100
3410.562708,-962.267725,-9474.636058,1378.971896
3410.563035,-370.102971,-8142.265362,1532.190996
3410.563363,1184.329507,-11103.089130,306.438199
3410.563690,-222.061783,-11991.336260,1225.752797
3410.564018,888.247130,-9178.553681,-1378.971896
3410.564345,888.247130,-6365.771101,-1455.581446
3410.564673,-296.082377,-9400.615463,766.095498
3410.565000,-2072.576638,-11991.336260,1149.143247
3410.565328,-1924.535449,-9622.677246,-919.314598
3410.565655,-1850.514855,-7920.203579,-1072.533697
3410.565983,444.123565,-9178.553681,-1532.190996
3410.566310,518.144159,-11399.171507,689.485948
3410.566638,740.205942,-10732.986159,1762.019645
3410.566965,1480.411884,-8586.388927,-842.705048
3410.567293,1110.308913,-9622.677246,-2298.286494
3410.567620,222.061783,-11251.130318,-1762.019645
3410.567948,-962.267725,-8660.409521,-383.047749
3410.568275,222.061783,-6735.874072,1149.143247
3410.568603,888.247130,-8660.409521,1608.800546
3410.568931,1036.288319,-11325.150913,1991.848295
3410.569258,2294.638420,-11251.130318,1762.019645
3410.569586,3034.844362,-9622.677246,-1455.581446
3410.569913,1554.432478,-9474.636058,-2221.676944
3410.570241,1036.288319,-8956.491898,-1685.410096
3410.570568,74.020594,-8290.306550,-1455.581446
3410.570896,-370.102971,-7105.977043,536.266849
3410.571223,0.000000,-8512.368333,2681.334243
3410.571551,1998.556043,-10732.986159,1608.800546
3410.571878,2368.659014,-12805.562797,1378.971896
3410.572206,2886.803174,-10436.903782,-1225.752797
3410.572533,1110.308913,-9770.718434,-2987.772442
3410.572861,592.164754,-10510.924376,-3064.381992
3410.573188,296.082377,-9474.636058,-2221.676944
3410.573516,0.000000,-9030.512492,842.705048
3410.573843,-222.061783,-8882.471304,1608.800546
3410.574171,74.020594,-10214.842000,1991.848295
3410.574498,1110.308913,-10881.027347,919.314598
3410.574826,1110.308913,-9992.780217,76.609550
3410.575153,0.000000,-9104.533087,0.000000
3410.575481,-370.102971,-8808.450710,-1302.362347
3410.575809,222.061783,-9622.677246,-2911.162892
3410.576136,518.144159,-11399.171507,-995.924147
3410.576464,1036.288319,-9178.553681,-153.219100
3410.576791,-222.061783,-9252.574275,1532.190996
3410.577119,-296.082377,-10881.027347,1685.410096
3410.577446,-148.041188,-10658.965565,919.314598
3410.577774,296.082377,-9622.677246,-383.047749
3410.578101,-592.164754,-9770.718434,-689.485948
3410.578429,-592.164754,-9326.594869,-1838.629195
3410.578757,-222.061783,-7476.080014,-1762.019645
3410.579084,0.000000,-8660.409521,76.609550
3410.579412,-592.164754,-8290.306550,1838.629195
3410.579740,-1110.308913,-8808.450710,2451.505594
3410.580067,-740.205942,-9696.697840,689.485948
3410.580395,-888.247130,-9252.574275,-153.219100
3410.580723,-1702.473667,-8364.327145,-2145.067394
3410.581050,0.000000,-10288.862594,-2451.505594
3410.581378,666.185348,-10584.944971,-2068.457845
3410.581705,0.000000,-11991.336260,229.828649
3410.582033,-1258.350101,-11695.253884,995.924147
3410.582361,-888.247130,-11547.212695,-1072.533697
3410.582688,-518.144159,-9474.636058,-1991.848295
3410.583016,444.123565,-9992.780217,-1532.190996
3410.583344,-1184.329507,-10140.821405,1455.581446
3410.583671,592.164754,-8882.471304,1455.581446
3410.583999,2886.803174,-8290.306550,-1532.190996
3410.584327,2516.700203,-11177.109724,-2145.067394
3410.584654,0.000000,-10584.944971,-766.095498
3410.584982,-296.082377,-7994.224174,306.438199
3410.585309,-888.247130,-8882.471304,-306.438199
3410.585637,0.000000,-10732.986159,-459.657299
3410.585965,-444.123565,-11029.068536,1225.752797
3410.586292,962.267725,-9178.553681,1915.238745
3410.586620,3849.070898,-8142.265362,-842.705048
3410.586948,2516.700203,-10510.924376,-1149.143247
3410.587275,518.144159,-10436.903782,-383.047749
3410.587603,-370.102971,-5921.647536,306.438199
3410.587931,-148.041188,-5995.668130,0.000000
3410.588258,0.000000,-9770.718434,0.000000
3410.588586,74.020594,-11399.171507,1991.848295
3410.588913,1924.535449,-9918.759623,1762.019645
3410.589241,3627.009116,-10436.903782,-536.266849
3410.589569,3404.947333,-12287.418637,-1991.848295
3410.589896,2294.638420,-11843.295072,-1302.362347
3410.590224,666.185348,-8882.471304,-229.828649
3410.590552,370.102971,-7402.059420,0.000000
3410.590879,-296.082377,-7328.038826,229.828649
3410.591207,-1480.411884,-9326.594869,919.314598
3410.591535,-2146.597232,-9844.739029,1915.238745
3410.591862,444.123565,-9030.512492,-459.657299
3410.592190,1924.535449,-10066.800811,-2451.505594
3410.592517,1998.556043,-11991.336260,-2068.457845
3410.592845,148.041188,-10807.006753,-2068.457845
3410.593173,-222.061783,-9548.656652,-1302.362347
3410.593500,0.000000,-8808.450710,-612.876398
3410.593828,1406.391290,-10362.883188,-612.876398
3410.594156,-222.061783,-11695.253884,1455.581446
3410.594483,370.102971,-10807.006753,1532.190996
3410.594811,962.267725,-9104.533087,-229.828649
3410.595139,2146.597232,-10732.986159,-2068.457845
3410.595466,0.000000,-11547.212695,-1762.019645
3410.595794,-962.267725,-8216.285956,-689.485948
3410.596121,-2442.679609,-6513.812290,0.000000
3410.596449,-148.041188,-9918.759623,0.000000
3410.596777,-296.082377,-9992.780217,1302.362347
3410.597104,-296.082377,-9104.533087,1685.410096
3410.597432,-1554.432478,-8882.471304,1532.190996
3410.597760,0.000000,-9178.553681,-995.924147
3410.598087,962.267725,-8734.430116,-2298.286494
3410.598415,-444.123565,-9326.594869,-995.924147
3410.598743,-1850.514855,-8364.327145,1302.362347
3410.599070,-1184.329507,-9696.697840,2068.457845
3410.599398,-1480.411884,-11991.336260,-536.266849
3410.599725,-962.267725,-11251.130318,-1838.629195
3410.600053,0.000000,-8068.244768,-2374.896044
3410.600381,444.123565,-9400.615463,76.609550
3410.600708,1258.350101,-11547.212695,2911.162892
3410.601036,1258.350101,-8956.491898,919.314598
3410.601364,814.226536,-8068.244768,-153.219100
3410.601691,0.000000,-8808.450710,-229.828649
3410.602019,592.164754,-9474.636058,-612.876398
3410.602347,148.041188,-9400.615463,-1225.752797
3410.602674,-1184.329507,-10436.903782,76.609550
3410.603002,-1110.308913,-10436.903782,-995.924147
3410.603329,1406.391290,-11177.109724,-1302.362347
3410.603657,2072.576638,-12435.459826,-1149.143247
3410.603985,2220.617826,-11695.253884,-229.828649
3410.604312,1850.514855,-9844.739029,536.266849
3410.604640,2886.803174,-6661.853478,-383.047749
3410.604968,592.164754,-5773.606348,-536.266849
3410.605295,-592.164754,-8882.471304,1072.533697
3410.605623,-592.164754,-8660.409521,1762.019645
3410.605951,1406.391290,-9844.739029,766.095498
3410.606278,3034.844362,-11695.253884,-1608.800546
3410.606606,2368.659014,-12805.562797,-2451.505594
3410.606933,518.144159,-10955.047942,-536.266849
3410.607261,666.185348,-8956.491898,-1302.362347
3410.607589,1036.288319,-9770.718434,-842.705048
3410.607916,-370.102971,-10066.800811,-459.657299
3410.608244,-1406.391290,-7994.224174,229.828649
3410.608572,-296.082377,-9474.636058,842.705048
3410.608899,592.164754,-9474.636058,689.485948
3410.609227,1480.411884,-10436.903782,306.438199
3410.609555,74.020594,-9992.780217,1608.800546
3410.609882,148.041188,-8882.471304,-306.438199
3410.610210,0.000000,-7550.100608,-1608.800546
3410.610537,-148.041188,-9696.697840,-995.924147
3410.610865,-370.102971,-10288.862594,-383.047749
3410.611193,0.000000,-9252.574275,-153.219100
3410.611520,0.000000,-9548.656652,76.609550
3410.611848,1998.556043,-12509.480420,306.438199
3410.612176,962.267725,-11029.068536,-383.047749
3410.612503,666.185348,-9770.718434,0.000000
3410.612831,-740.205942,-7698.141797,-383.047749
3410.613159,74.020594,-8290.306550,-766.095498
3410.613486,-444.123565,-9400.615463,459.657299
3410.613814,-888.247130,-9326.594869,919.314598
3410.614141,-1110.308913,-7476.080014,306.438199
3410.614469,518.144159,-8956.491898,-1302.362347
3410.614797,0.000000,-10436.903782,-1608.800546
3410.615124,-1332.370696,-10881.027347,-842.705048
3410.615452,-740.205942,-9178.553681,-1762.019645
3410.615780,-888.247130,-8660.409521,153.219100
3410.616107,222.061783,-11473.192101,689.485948
3410.616435,-370.102971,-12509.480420,153.219100
3410.616763,-1332.370696,-10362.883188,-766.095498
3410.617090,222.061783,-8068.244768,-2987.772442
3410.617418,888.247130,-10066.800811,-2604.724693
3410.617745,-518.144159,-12805.562797,842.705048
3410.618073,-962.267725,-8660.409521,2451.505594
3410.618401,666.185348,-6587.832884,153.219100
3410.618728,1850.514855,-8734.430116,-1072.533697
3410.619056,1702.473667,-11029.068536,-766.095498
3410.619384,666.185348,-9178.553681,766.095498
3410.619711,518.144159,-6883.915261,0.000000
3410.620039,740.205942,-9030.512492,-766.095498
3410.620367,148.041188,-11621.233289,0.000000
3410.620694,444.123565,-10807.006753,1762.019645
3410.621022,1332.370696,-10658.965565,1455.581446
3410.621349,2146.597232,-9770.718434,919.314598
3410.621677,2590.720797,-8956.491898,-612.876398
3410.622005,74.020594,-6587.832884,0.000000
3410.622332,-1924.535449,-8808.450710,0.000000
3410.622660,-1480.411884,-9400.615463,0.000000
3410.622988,1184.329507,-10510.924376,-229.828649
3410.623315,2664.741391,-12065.356855,766.095498
3410.623643,2664.741391,-10658.965565,1302.362347
3410.623971,1110.308913,-10658.965565,1762.019645
3410.624298,1184.329507,-9844.739029,459.657299
3410.624626,1110.308913,-8808.450710,-1225.752797
3410.624953,-962.267725,-8438.347739,-995.924147
3410.625281,-1628.453072,-7105.977043,-1225.752797
3410.625609,-888.247130,-9030.512492,-1608.800546
3410.625936,444.123565,-12953.603985,76.609550
3410.626264,74.020594,-11547.212695,612.876398
3410.626592,0.000000,-9252.574275,1072.533697
3410.626919,740.205942,-9474.636058,612.876398
3410.627247,1480.411884,-10436.903782,-2221.676944
3410.627575,0.000000,-10732.986159,-995.924147
3410.627902,592.164754,-8068.244768,-1608.800546
3410.628230,518.144159,-8216.285956,-1225.752797
3410.628557,740.205942,-11325.150913,689.485948
3410.628885,-148.041188,-11769.274478,2374.896044
3410.629213,0.000000,-9696.697840,1225.752797
3410.629540,814.226536,-10584.944971,-1378.971896
3410.629868,370.102971,-10510.924376,-3064.381992
3410.630196,0.000000,-10288.862594,-1225.752797
3410.630523,888.247130,-8290.306550,689.485948
3410.630851,1702.473667,-7179.997637,919.314598
3410.631179,444.123565,-7179.997637,229.828649
3410.631506,-444.123565,-9474.636058,766.095498
3410.631834,-2664.741391,-8882.471304,1455.581446
3410.632161,-1332.370696,-7698.141797,76.609550
3410.632489,74.020594,-9326.594869,-1532.190996
3410.632817,-444.123565,-9696.697840,-919.314598
3410.633144,-1850.514855,-10140.821405,766.095498
3410.633472,-2072.576638,-9548.656652,-383.047749
3410.633800,-296.082377,-10807.006753,-2451.505594
3410.634127,1554.432478,-11251.130318,-3753.867940
3410.634455,666.185348,-11325.150913,-1302.362347
3410.634783,-814.226536,-11029.068536,2834.553343
3410.635110,1702.473667,-9770.718434,2528.115143
3410.635438,1702.473667,-8512.368333,842.705048
3410.635765,666.185348,-9474.636058,383.047749
3410.636093,-148.041188,-8438.347739,-459.657299
3410.636421,666.185348,-7994.224174,-2374.896044
3410.636748,962.267725,-10362.883188,-2221.676944
3410.637076,814.226536,-11991.336260,-1991.848295
3410.637404,-518.144159,-10214.842000,1225.752797
3410.637731,518.144159,-9844.739029,1685.410096
3410.638059,1110.308913,-11399.171507,842.705048
3410.638387,222.061783,-12213.398043,-842.705048
3410.638714,0.000000,-10807.006753,-459.657299
3410.639042,1776.494261,-6661.853478,-1685.410096
3410.639369,1332.370696,-4885.359217,-1302.362347
3410.639697,-1554.432478,-8216.285956,1378.971896
3410.640025,-2294.638420,-10955.047942,2834.553343
3410.640352,-814.226536,-9622.677246,1455.581446
3410.640680,1554.432478,-9770.718434,-1685.410096
3410.641008,1850.514855,-10955.047942,-1762.019645
3410.641335,1480.411884,-11843.295072,919.314598
3410.641663,2368.659014,-9992.780217,536.266849
3410.641991,2294.638420,-8512.368333,-383.047749
3410.642318,1036.288319,-8660.409521,76.609550
3410.642646,-592.164754,-8882.471304,536.266849
3410.642973,-888.247130,-9400.615463,1149.143247
3410.643301,-444.123565,-8882.471304,1072.533697
3410.643629,74.020594,-8956.491898,536.266849
3410.643956,-666.185348,-11399.171507,1685.410096
3410.644284,666.185348,-9474.636058,0.000000
3410.644612,1702.473667,-8512.368333,-1991.848295
3410.644939,1554.432478,-10732.986159,-2221.676944
3410.645267,1110.308913,-11177.109724,-2298.286494
3410.645595,370.102971,-10362.883188,-459.657299
3410.645922,-592.164754,-9104.533087,1685.410096
3410.646250,0.000000,-9474.636058,2145.067394
3410.646577,962.267725,-11399.171507,1532.190996
3410.646905,296.082377,-10955.047942,-306.438199
3410.647233,0.000000,-9844.739029,-2528.115143
3410.647560,1110.308913,-8438.347739,-3524.039291
3410.647888,1776.494261,-9992.780217,-1762.019645
3410.648216,592.164754,-10955.047942,536.266849
3410.648543,-1184.329507,-8956.491898,1685.410096
3410.648871,0.000000,-8586.388927,995.924147
3410.649199,1036.288319,-9474.636058,459.657299
3410.649526,814.226536,-10436.903782,-229.828649
3410.649854,-1702.473667,-9030.512492,612.876398
3410.650181,-1258.350101,-8068.244768,-1072.533697
3410.650509,962.267725,-8586.388927,-2451.505594
3410.650837,1702.473667,-9474.636058,-2681.334243
3410.651164,-1702.473667,-9548.656652,1685.410096
3410.651492,-1480.411884,-10436.903782,3370.820191
3410.651820,-814.226536,-11621.233289,689.485948
3410.652147,222.061783,-11547.212695,-2451.505594
3410.652475,-888.247130,-8438.347739,-2374.896044
3410.652803,296.082377,-7698.141797,0.000000
3410.653130,2146.597232,-9030.512492,1608.800546
3410.653458,4737.318029,-9770.718434,612.876398
3410.653785,2812.782580,-9474.636058,76.609550
3410.654113,0.000000,-9104.533087,1378.971896
3410.654441,-296.082377,-9400.615463,306.438199
3410.654768,0.000000,-10066.800811,0.000000
3410.655096,-1850.514855,-9178.553681,-842.705048
3410.655424,-3404.947333,-9770.718434,-1378.971896
3410.655751,-1332.370696,-10955.047942,-1532.190996
3410.656079,3256.906145,-11399.171507,-3064.381992
3410.656407,2960.823768,-11325.150913,-1455.581446
3410.656734,1036.288319,-10066.800811,2374.896044
3410.657062,740.205942,-7105.977043,2528.115143
3410.657389,518.144159,-5255.462188,76.609550
3410.657717,-1702.473667,-9326.594869,459.657299
3410.658045,-1924.535449,-9918.759623,306.438199
3410.658372,-444.123565,-9918.759623,153.219100
3410.658700,2590.720797,-10807.006753,-1915.238745
3410.659028,3627.009116,-12509.480420,-2604.724693
3410.659355,1776.494261,-13471.748144,-229.828649
3410.659683,592.164754,-10214.842000,1838.629195
3410.660011,370.102971,-7328.038826,0.000000
3410.660338,-1110.308913,-8364.327145,-383.047749
3410.660666,-2442.679609,-8364.327145,-536.266849
3410.660993,-3034.844362,-8068.244768,1455.581446
3410.661321,-666.185348,-8808.450710,536.266849
3410.661649,1998.556043,-9252.574275,-766.095498
3410.661976,2590.720797,-12139.377449,0.000000
3410.662304,1258.350101,-11547.212695,689.485948
3410.662632,518.144159,-9178.553681,-842.705048
3410.662959,0.000000,-7550.100608,-1685.410096
3410.663287,-370.102971,-9696.697840,-1532.190996
3410.663615,-1628.453072,-9844.739029,689.485948
3410.663942,-296.082377,-9252.574275,1378.971896
3410.664270,666.185348,-9844.739029,229.828649
3410.664597,1998.556043,-12287.418637,-842.705048
3410.664925,1406.391290,-11399.171507,-1915.238745
3410.665253,-444.123565,-9548.656652,-459.657299
3410.665580,-666.185348,-7105.977043,536.266849
3410.665908,518.144159,-7772.162391,-919.314598
3410.666236,-1184.329507,-9992.780217,766.095498
3410.666563,-962.267725,-9326.594869,842.705048
3410.666891,0.000000,-9178.553681,0.000000
3410.667219,1406.391290,-10584.944971,-306.438199
3410.667546,296.082377,-10732.986159,-1455.581446
3410.667874,-148.041188,-10066.800811,-1302.362347
3410.668201,592.164754,-7920.203579,-1072.533697
3410.668529,0.000000,-8734.430116,153.219100
3410.668857,-962.267725,-11917.315666,1685.410096
3410.669184,-1184.329507,-12287.418637,306.438199
3410.669512,0.000000,-9918.759623,-2221.676944
3410.669840,740.205942,-9474.636058,-2987.772442
3410.670167,-296.082377,-9104.533087,-536.266849
3410.670495,0.000000,-10807.006753,1455.581446
3410.670823,2442.679609,-10955.047942,1455.581446
3410.671150,2886.803174,-9178.553681,0.000000
3410.671478,2146.597232,-8956.491898,459.657299
3410.671805,2368.659014,-11103.089130,1455.581446
3410.672133,1258.350101,-8808.450710,1302.362347
3410.672461,-518.144159,-7031.956449,306.438199
3410.672788,-2072.576638,-8586.388927,-383.047749
3410.673116,-962.267725,-10732.986159,-1608.800546
3410.673444,-370.102971,-10807.006753,-383.047749
3410.673771,222.061783,-10140.821405,-459.657299
3410.674099,0.000000,-8438.347739,153.219100
3410.674427,1258.350101,-8068.244768,-842.705048
3410.674754,518.144159,-6587.832884,-1072.533697
3410.675082,-888.247130,-9696.697840,842.705048
3410.675409,592.164754,-9400.615463,689.485948
3410.675737,3108.864956,-9474.636058,-383.047749
3410.676065,3552.988522,-13175.665768,459.657299
3410.676392,2590.720797,-12435.459826,612.876398
3410.676720,962.267725,-8956.491898,-995.924147
3410.677048,1776.494261,-7920.203579,-689.485948
3410.677375,962.267725,-11029.068536,-2221.676944
3410.677703,-2294.638420,-10881.027347,-842.705048
3410.678031,-2442.679609,-7254.018232,-76.609550
3410.678358,-2294.638420,-8734.430116,-153.219100
3410.678686,296.082377,-10732.986159,-1072.533697
3410.679013,-222.061783,-10510.924376,1149.143247
3410.679341,1036.288319,-10436.903782,1915.238745
3410.679669,1480.411884,-9104.533087,0.000000
3410.679996,2220.617826,-11177.109724,-2681.334243
3410.680324,74.020594,-10584.944971,-2068.457845
3410.680651,-592.164754,-9844.739029,-459.657299
3410.680979,-444.123565,-8808.450710,229.828649
3410.681306,370.102971,-9474.636058,1072.533697
3410.681634,-518.144159,-11325.150913,306.438199
3410.681961,296.082377,-11029.068536,-995.924147
3410.682289,-444.123565,-8660.409521,-1378.971896
3410.682616,1036.288319,-9844.739029,-536.266849
3410.682944,370.102971,-9474.636058,229.828649
3410.683272,814.226536,-7550.100608,536.266849
3410.683599,-962.267725,-8142.265362,1685.410096
3410.683927,-444.123565,-8290.306550,383.047749
3410.684254,74.020594,-9400.615463,-229.828649
3410.684582,-592.164754,-10807.006753,306.438199
3410.684909,-1554.432478,-8956.491898,-1225.752797
3410.685237,-1628.453072,-8956.491898,-1532.190996
3410.685564,2072.576638,-10658.965565,-1991.848295
3410.685892,2442.679609,-9770.718434,-689.485948
3410.686219,518.144159,-10362.883188,1532.190996
3410.686547,-370.102971,-10362.883188,2681.334243
3410.686874,-518.144159,-10807.006753,76.609550
3410.687202,-296.082377,-9696.697840,-2451.505594
3410.687530,-370.102971,-7254.018232,-2374.896044
3410.687857,-814.226536,-7772.162391,536.266849
3410.688185,2072.576638,-10955.047942,842.705048
3410.688512,3701.029710,-11621.233289,0.000000
3410.688840,2368.659014,-9474.636058,-383.047749
3410.689167,1480.411884,-10288.862594,-995.924147
3410.689495,1702.473667,-10732.986159,-1685.410096
3410.689822,0.000000,-10584.944971,-612.876398
3410.690150,-2516.700203,-9696.697840,76.609550
3410.690477,-2146.597232,-9030.512492,-766.095498
3410.690805,74.020594,-9770.718434,0.000000
3410.691133,2072.576638,-11325.150913,-383.047749
3410.691460,0.000000,-9326.594869,1149.143247
3410.691788,-666.185348,-8216.285956,612.876398
3410.692115,592.164754,-5033.400406,-1762.019645
3410.692443,518.144159,-7550.100608,-1225.752797
3410.692770,-370.102971,-10362.883188,766.095498
3410.693098,0.000000,-10288.862594,2145.067394
3410.693425,1554.432478,-10732.986159,2145.067394
3410.693753,4145.153275,-12583.501014,-689.485948
3410.694080,2590.720797,-13397.727550,-995.924147
3410.694408,1554.432478,-9104.533087,229.828649
3410.694736,962.267725,-6587.832884,0.000000
3410.695063,1184.329507,-9326.594869,-229.828649
3410.695391,-1036.288319,-8808.450710,-919.314598
3410.695718,-3849.070898,-8068.244768,1302.362347
3410.696046,-3034.844362,-7402.059420,1072.533697
3410.696373,-1036.288319,-8882.471304,-306.438199
3410.696701,518.144159,-12139.377449,-766.095498
3410.697028,814.226536,-11177.109724,0.000000
3410.697356,2146.597232,-8956.491898,-919.314598
3410.697683,2368.659014,-9474.636058,-1991.848295
3410.698011,1702.473667,-11695.253884,-1532.190996
3410.698339,0.000000,-10732.986159,153.219100
3410.698666,-1702.473667,-8364.327145,1072.533697
3410.698994,-1184.329507,-8956.491898,306.438199
3410.699321,1332.370696,-11991.336260,-612.876398
3410.699649,370.102971,-11473.192101,-536.266849
3410.699976,0.000000,-10510.924376,-919.314598
3410.700304,0.000000,-8438.347739,-1991.848295
3410.700631,148.041188,-8438.347739,-2298.286494
3410.700959,-1110.308913,-9992.780217,-612.876398
3410.701286,-592.164754,-9844.739029,306.438199
3410.701614,-888.247130,-8068.244768,842.705048
3410.701942,740.205942,-9030.512492,689.485948
3410.702269,222.061783,-11251.130318,383.047749
3410.702597,0.000000,-10362.883188,383.047749
3410.702924,-148.041188,-8216.285956,-1225.752797
3410.703252,1110.308913,-8808.450710,-1915.238745
3410.703579,2368.659014,-9992.780217,-1838.629195
3410.703907,444.123565,-10658.965565,1149.143247
3410.704234,-1332.370696,-10436.903782,3524.039291
3410.704562,0.000000,-8512.368333,0.000000
3410.704889,814.226536,-8068.244768,-1225.752797
3410.705217,592.164754,-8956.491898,-919.314598
3410.705544,296.082377,-8734.430116,1072.533697
3410.705872,2442.679609,-9030.512492,612.876398
3410.706200,4811.338623,-9548.656652,-459.657299
3410.706527,3330.926739,-12509.480420,-995.924147
3410.706855,518.144159,-10658.965565,153.219100
3410.707182,-370.102971,-7772.162391,-306.438199
3410.707510,-592.164754,-8956.491898,-536.266849
3410.707837,-518.144159,-10881.027347,-1915.238745
3410.708165,-740.205942,-10436.903782,-153.219100
3410.708492,296.082377,-9548.656652,1608.800546
3410.708820,2220.617826,-9400.615463,229.828649
3410.709147,1924.535449,-9770.718434,-766.095498
3410.709475,1036.288319,-8216.285956,-1072.533697
3410.709803,-1480.411884,-7179.997637,-383.047749
3410.710130,-1036.288319,-7476.080014,0.000000
3410.710458,444.123565,-10584.944971,229.828649
3410.710785,888.247130,-12509.480420,1762.019645
3410.711113,1628.453072,-11917.315666,1455.581446
3410.711440,1924.535449,-10066.800811,-536.266849
3410.711768,2590.720797,-10584.944971,-2987.772442
3410.712095,0.000000,-11029.068536,-1915.238745
3410.712423,-1332.370696,-9918.759623,-612.876398
3410.712750,-2738.761985,-6809.894666,306.438199
3410.713078,-2072.576638,-7105.977043,766.095498
3410.713406,-1110.308913,-9252.574275,229.828649
3410.713733,-1332.370696,-9400.615463,2068.457845
3410.714061,-814.226536,-9030.512492,612.876398
3410.714388,888.247130,-9030.512492,-1378.971896
3410.714716,1406.391290,-9474.636058,-2987.772442
3410.715043,444.123565,-10584.944971,-2068.457845
3410.715371,-962.267725,-10288.862594,-153.219100
3410.715698,222.061783,-9770.718434,1149.143247
3410.716026,518.144159,-9696.697840,0.000000
3410.716353,148.041188,-11917.315666,842.705048
3410.716681,296.082377,-11177.109724,1149.143247
3410.717009,296.082377,-7846.182985,0.000000
3410.717336,592.164754,-8512.368333,-1378.971896
3410.717664,814.226536,-10732.986159,-2298.286494
3410.717991,-1184.329507,-9252.574275,-689.485948
3410.718319,-1184.329507,-7698.141797,-766.095498
3410.718646,-1924.535449,-7846.182985,76.609550
3410.718974,-740.205942,-11029.068536,-229.828649
3410.719301,-740.205942,-11399.171507,0.000000
3410.719629,-740.205942,-9104.533087,-536.266849
3410.719956,-222.061783,-7402.059420,-842.705048
3410.720284,2294.638420,-10732.986159,-1608.800546
3410.720612,2368.659014,-12657.521608,-1149.143247
3410.720939,740.205942,-9474.636058,0.000000
3410.721267,-592.164754,-7772.162391,612.876398
3410.721594,444.123565,-10510.924376,76.609550
3410.721922,888.247130,-10658.965565,306.438199
3410.722249,518.144159,-9104.533087,536.266849
3410.722577,296.082377,-7105.977043,1225.752797
3410.722904,1110.308913,-9030.512492,0.000000
3410.723232,1332.370696,-11103.089130,-2374.896044
3410.723559,1924.535449,-9474.636058,-2298.286494
3410.723887,1184.329507,-9400.615463,-995.924147
3410.724214,1850.514855,-11251.130318,919.314598
3410.724542,3182.885551,-13545.768739,1532.190996
3410.724870,1554.432478,-11695.253884,1915.238745
3410.725197,888.247130,-9030.512492,-919.314598
3410.725525,0.000000,-8216.285956,-383.047749
3410.725852,-296.082377,-9474.636058,-1762.019645
3410.726180,-1480.411884,-7846.182985,-1378.971896
3410.726507,-1776.494261,-5033.400406,-1532.190996
3410.726835,-1776.494261,-6735.874072,0.000000
3410.727162,814.226536,-11843.295072,1838.629195
3410.727490,3849.070898,-10955.047942,1838.629195
3410.727817,3552.988522,-9918.759623,1455.581446
3410.728145,2960.823768,-9548.656652,1532.190996
3410.728473,2738.761985,-9030.512492,536.266849
3410.728800,1110.308913,-8364.327145,-842.705048
3410.729128,-1702.473667,-7994.224174,-689.485948
3410.729455,-1850.514855,-8660.409521,-383.047749
3410.729783,-888.247130,-11769.274478,-689.485948
3410.730110,296.082377,-12361.439231,-842.705048
3410.730438,-962.267725,-11473.192101,383.047749
3410.730765,-962.267725,-9918.759623,-229.828649
3410.731093,444.123565,-8512.368333,-612.876398
3410.731420,148.041188,-8956.491898,-919.314598
3410.731748,-962.267725,-7772.162391,-383.047749
3410.732076,-2072.576638,-7328.038826,383.047749
3410.732403,-1110.308913,-9252.574275,383.047749
3410.732731,518.144159,-11177.109724,76.609550
3410.733058,444.123565,-11991.336260,995.924147
3410.733386,-518.144159,-11177.109724,689.485948
3410.733713,-370.102971,-10288.862594,-1225.752797
3410.734041,1776.494261,-9474.636058,-2528.115143
3410.734368,592.164754,-9548.656652,-2221.676944
3410.734696,-444.123565,-10584.944971,0.000000
3410.735023,-1110.308913,-8512.368333,919.314598
3410.735351,-740.205942,-7994.224174,689.485948
3410.735679,0.000000,-9844.739029,229.828649
3410.736006,-962.267725,-9770.718434,536.266849
3410.736334,-1258.350101,-9400.615463,0.000000
3410.736661,-666.185348,-8512.368333,-1532.190996
3410.736989,0.000000,-8956.491898,-2911.162892
3410.737316,-518.144159,-9030.512492,-1455.581446
3410.737644,0.000000,-9252.574275,0.000000
3410.737971,1184.329507,-9474.636058,383.047749
3410.738299,2368.659014,-12139.377449,76.609550
3410.738626,1850.514855,-13027.624579,1762.019645
3410.738954,1850.514855,-10214.842000,766.095498
3410.739282,592.164754,-7476.080014,0.000000
3410.739609,1406.391290,-7476.080014,-306.438199
3410.739937,-444.123565,-7550.100608,229.828649
3410.740264,-814.226536,-8364.327145,536.266849
3410.740592,-592.164754,-8660.409521,-766.095498
3410.740919,1332.370696,-9548.656652,-1762.019645
3410.741247,2368.659014,-13397.727550,-383.047749
3410.741574,2368.659014,-13397.727550,-383.047749
3410.741902,1036.288319,-10066.800811,-229.828649
3410.742229,888.247130,-10288.862594,-1455.581446
3410.742557,1480.411884,-11547.212695,-2757.943793
3410.742885,0.000000,-9400.615463,-1072.533697
3410.743212,296.082377,-7698.141797,2374.896044
3410.743540,74.020594,-7105.977043,536.266849
3410.743867,814.226536,-9252.574275,0.000000
3410.744195,-888.247130,-9030.512492,306.438199
3410.744522,-814.226536,-9326.594869,229.828649
3410.744850,1924.535449,-9918.759623,-536.266849
3410.745177,3034.844362,-11473.192101,-383.047749
3410.745505,1850.514855,-11103.089130,153.219100
3410.745832,1924.535449,-8216.285956,766.095498
3410.746160,1480.411884,-7920.203579,919.314598
3410.746487,-444.123565,-9696.697840,1225.752797
3410.746815,-1554.432478,-10362.883188,842.705048
3410.747143,-1850.514855,-9474.636058,76.609550
3410.747470,-370.102971,-9252.574275,-689.485948
3410.747798,-518.144159,-9252.574275,-1378.971896
3410.748125,-296.082377,-10436.903782,-1072.533697
3410.748453,0.000000,-9622.677246,0.000000
3410.748780,1036.288319,-9104.533087,0.000000
3410.749108,74.020594,-7994.224174,-306.438199
3410.749435,-444.123565,-8734.430116,0.000000
3410.749763,148.041188,-9474.636058,995.924147
3410.750090,666.185348,-9474.636058,766.095498
3410.750418,148.041188,-9030.512492,459.657299
3410.750746,666.185348,-10732.986159,153.219100
3410.751073,370.102971,-11473.192101,-842.705048
3410.751401,518.144159,-9474.636058,-1915.238745
3410.751728,-518.144159,-9770.718434,-1455.581446
3410.752056,-1036.288319,-10732.986159,-612.876398
3410.752383,-888.247130,-9918.759623,-919.314598
3410.752711,-1110.308913,-9474.636058,689.485948
3410.753038,-222.061783,-10066.800811,0.000000
3410.753366,-296.082377,-9918.759623,229.828649
3410.753693,0.000000,-10510.924376,-995.924147
3410.754021,-1184.329507,-9252.574275,-1455.581446
3410.754349,-1628.453072,-8364.327145,-383.047749
3410.754676,-592.164754,-8586.388927,0.000000
3410.755004,-518.144159,-9696.697840,-842.705048
3410.755331,666.185348,-11473.192101,-229.828649
3410.755659,1776.494261,-10436.903782,0.000000
3410.755986,1702.473667,-11621.233289,153.219100
3410.756314,1628.453072,-11029.068536,536.266849
3410.756641,740.205942,-8438.347739,-229.828649
3410.756969,0.000000,-7328.038826,383.047749
3410.757296,962.267725,-6587.832884,1302.362347
3410.757624,444.123565,-9104.533087,1991.848295
3410.757952,740.205942,-9474.636058,842.705048
3410.758279,2072.576638,-9252.574275,-383.047749
3410.758607,1850.514855,-11103.089130,-383.047749
3410.758934,1924.535449,-11103.089130,-383.047749
3410.759262,740.205942,-10510.924376,-1378.971896
3410.759589,-1406.391290,-10436.903782,-536.266849
3410.759917,-222.061783,-9844.739029,-2681.334243
3410.760244,-222.061783,-10066.800811,-766.095498
3410.760572,592.164754,-9918.759623,229.828649
3410.760899,0.000000,-7994.224174,842.705048
3410.761227,0.000000,-7402.059420,612.876398
3410.761555,0.000000,-7624.121203,306.438199
3410.761882,2146.597232,-10732.986159,-1072.533697
3410.762210,2590.720797,-9918.759623,0.000000
3410.762537,1258.350101,-10362.883188,995.924147
3410.762865,1184.329507,-9548.656652,1072.533697
3410.763192,2294.638420,-10214.842000,-459.657299
3410.763520,-814.226536,-9400.615463,-1072.533697
3410.763847,-1184.329507,-10807.006753,-919.314598
3410.764175,-1184.329507,-10066.800811,-1302.362347
3410.764502,1258.350101,-9992.780217,-995.924147
3410.764830,0.000000,-10362.883188,-536.266849
3410.765157,-1110.308913,-10732.986159,1302.362347
3410.765485,-1110.308913,-8216.285956,1608.800546
3410.765813,1184.329507,-8734.430116,536.266849
3410.766140,-222.061783,-10214.842000,-612.876398
3410.766468,0.000000,-9474.636058,0.000000
3410.766795,-1258.350101,-8290.306550,-536.266849
3410.767123,0.000000,-9252.574275,-1072.533697
3410.767450,0.000000,-11547.212695,-995.924147
3410.767778,0.000000,-11399.171507,0.000000
3410.768105,-592.164754,-9844.739029,842.705048
3410.768433,296.082377,-9696.697840,306.438199
3410.768760,2590.720797,-10066.800811,-306.438199
3410.769088,2072.576638,-10584.944971,0.000000
3410.769416,0.000000,-9844.739029,1762.019645
3410.769743,222.061783,-7698.141797,-229.828649
3410.770071,0.000000,-9474.636058,-1149.143247
3410.770398,-444.123565,-10881.027347,-1149.143247
3410.770726,-1702.473667,-9178.553681,-229.828649
3410.771053,-1998.556043,-9030.512492,-459.657299
3410.771381,0.000000,-9474.636058,-1225.752797
3410.771708,74.020594,-10288.862594,-842.705048
3410.772036,-148.041188,-9696.697840,459.657299
3410.772363,-444.123565,-7698.141797,-536.266849
3410.772691,1554.432478,-8956.491898,-919.314598
3410.773019,2886.803174,-11843.295072,-766.095498
3410.773346,1110.308913,-11917.315666,1072.533697
3410.773674,-296.082377,-8734.430116,1455.581446
3410.774001,814.226536,-6883.915261,76.609550
3410.774329,1332.370696,-9474.636058,0.000000
3410.774656,592.164754,-10732.986159,1149.143247
3410.774984,0.000000,-9770.718434,1149.143247
3410.775311,592.164754,-8586.388927,-612.876398
3410.775639,2368.659014,-10066.800811,-2451.505594
3410.775966,2294.638420,-12065.356855,-1915.238745
3410.776294,1554.432478,-10881.027347,689.485948
3410.776622,-518.144159,-8438.347739,1532.190996
3410.776949,0.000000,-10214.842000,612.876398
3410.777277,222.061783,-10955.047942,-1991.848295
3410.777604,296.082377,-9548.656652,-153.219100
3410.777932,-666.185348,-7994.224174,383.047749
3410.778259,-740.205942,-7254.018232,-536.266849
3410.778587,-296.082377,-9178.553681,-1455.581446
3410.778914,296.082377,-9474.636058,-1532.190996
3410.779242,592.164754,-8734.430116,0.000000
3410.779569,1998.556043,-10066.800811,1915.238745
3410.779897,2960.823768,-10362.883188,2834.553343
3410.780225,2664.741391,-11103.089130,1608.800546
3410.780552,1702.473667,-9696.697840,-76.609550
3410.780880,148.041188,-7105.977043,-1608.800546
3410.781207,-740.205942,-8956.491898,-1455.581446
3410.781535,-1406.391290,-10584.944971,-1608.800546
3410.781862,-1258.350101,-9844.739029,-306.438199
3410.782190,-1924.535449,-8808.450710,-689.485948
3410.782517,-1702.473667,-10510.924376,229.828649
3410.782845,0.000000,-11473.192101,842.705048
3410.783172,1480.411884,-9252.574275,153.219100
3410.783500,444.123565,-9400.615463,0.000000
3410.783827,740.205942,-9474.636058,-1149.143247
3410.784155,444.123565,-9030.512492,-2145.067394
3410.784482,-666.185348,-9918.759623,-689.485948
3410.784810,1036.288319,-9326.594869,-766.095498
3410.785138,-518.144159,-9770.718434,-383.047749
3410.785465,0.000000,-11473.192101,1532.190996
3410.785793,444.123565,-11325.150913,76.609550
3410.786120,1110.308913,-10288.862594,-995.924147
3410.786448,-592.164754,-9252.574275,-842.705048
3410.786775,370.102971,-10066.800811,-1072.533697
3410.787103,-814.226536,-9326.594869,-1225.752797
3410.787430,-1036.288319,-8882.471304,919.314598
3410.787758,-444.123565,-8586.388927,229.828649
3410.788085,-296.082377,-8660.409521,842.705048
3410.788413,-592.164754,-10658.965565,1072.533697
3410.788740,-444.123565,-9992.780217,76.609550
3410.789068,-1406.391290,-9178.553681,-612.876398
3410.789395,-666.185348,-8364.327145,-1455.581446
3410.789723,1776.494261,-9622.677246,-2374.896044
3410.790050,1480.411884,-10732.986159,-1149.143247
3410.790378,1628.453072,-11399.171507,536.266849
3410.790706,1036.288319,-10362.883188,1149.143247
3410.791033,1480.411884,-9474.636058,1225.752797
3410.791361,1110.308913,-8364.327145,689.485948
3410.791688,1110.308913,-9474.636058,1991.848295
3410.792016,518.144159,-7994.224174,1378.971896
3410.792343,2146.597232,-9178.553681,-383.047749
3410.792671,1702.473667,-11473.192101,-1685.410096
3410.792998,962.267725,-11769.274478,-1149.143247
3410.793326,444.123565,-9252.574275,-1685.410096
3410.793653,740.205942,-9400.615463,-306.438199
3410.793981,0.000000,-12139.377449,-229.828649
3410.794308,-370.102971,-11547.212695,459.657299
3410.794636,518.144159,-9770.718434,383.047749
3410.794963,1258.350101,-8956.491898,383.047749
3410.795291,1258.350101,-9030.512492,-842.705048
3410.795619,-888.247130,-7402.059420,0.000000
3410.795946,-1258.350101,-6883.915261,-536.266849
3410.796274,-1110.308913,-8216.285956,-842.705048
3410.796601,888.247130,-11547.212695,229.828649
3410.796929,1776.494261,-11843.295072,1608.800546
3410.797256,2368.659014,-10658.965565,1838.629195
3410.797584,2738.761985,-9178.553681,0.000000
3410.797911,2220.617826,-10436.903782,-1225.752797
3410.798239,-1776.494261,-9548.656652,-1302.362347
3410.798566,-2072.576638,-7476.080014,-459.657299
3410.798894,-814.226536,-6513.812290,0.000000
3410.799221,962.267725,-10140.821405,76.609550
3410.799549,-814.226536,-12509.480420,2068.457845
3410.799876,-740.205942,-10214.842000,1608.800546
3410.800204,-592.164754,-8956.491898,0.000000
3410.800532,888.247130,-10362.883188,-2145.067394
3410.800859,814.226536,-9474.636058,-2145.067394
3410.801187,-1850.514855,-7698.141797,-459.657299
3410.801514,-1406.391290,-8956.491898,306.438199
3410.801842,1776.494261,-10881.027347,-306.438199
3410.802169,1406.391290,-12065.356855,76.609550
3410.802497,-1184.329507,-10288.862594,1532.190996
3410.802824,-1110.308913,-9326.594869,1455.581446
3410.803152,1702.473667,-9474.636058,-3140.991542
3410.803479,814.226536,-10288.862594,-2757.943793
3410.803807,-814.226536,-10807.006753,-1608.800546
3410.804134,-1110.308913,-8882.471304,0.000000
3410.804462,-296.082377,-8438.347739,-766.095498
3410.804789,222.061783,-10436.903782,306.438199
3410.805117,444.123565,-11177.109724,-766.095498
3410.805444,296.082377,-9400.615463,-383.047749
3410.805772,888.247130,-9104.533087,76.609550
3410.806100,1924.535449,-9474.636058,76.609550
3410.806427,1628.453072,-10658.965565,612.876398
3410.806755,-1258.350101,-9474.636058,842.705048
3410.807082,-1554.432478,-8216.285956,-919.314598
3410.807410,-1332.370696,-9030.512492,-2834.553343
3410.807737,-148.041188,-10214.842000,-1072.533697
3410.808065,-1110.308913,-9252.574275,-383.047749
3410.808392,-444.123565,-10214.842000,1532.190996
3410.808720,1332.370696,-10140.821405,536.266849
3410.809047,3552.988522,-10807.006753,-153.219100
3410.809375,2072.576638,-9548.656652,0.000000
3410.809702,1184.329507,-8734.430116,153.219100
3410.810030,666.185348,-7328.038826,-1302.362347
3410.810357,1850.514855,-8364.327145,0.000000
3410.810685,666.185348,-10362.883188,229.828649
3410.811013,222.061783,-9992.780217,1225.752797
3410.811340,1110.308913,-11325.150913,459.657299
3410.811668,2886.803174,-12805.562797,-919.314598
3410.811995,3108.864956,-10732.986159,-1915.238745
3410.812323,296.082377,-8364.327145,-459.657299
3410.812650,-1332.370696,-8364.327145,0.000000
3410.812978,-1110.308913,-8512.368333,-306.438199
3410.813305,-518.144159,-9400.615463,-842.705048
3410.813633,0.000000,-9400.615463,689.485948
3410.813960,666.185348,-9474.636058,919.314598
3410.814288,1628.453072,-9474.636058,842.705048
3410.814615,2738.761985,-11325.150913,-153.219100
3410.814943,2368.659014,-9178.553681,-842.705048
3410.815270,222.061783,-9918.759623,-459.657299
3410.815598,-1924.535449,-9844.739029,-383.047749
3410.815926,-296.082377,-10214.842000,-919.314598
3410.816253,296.082377,-10510.924376,-842.705048
3410.816581,-666.185348,-11769.274478,919.314598
3410.816908,-814.226536,-10436.903782,229.828649
3410.817236,0.000000,-8956.491898,-919.314598
3410.817563,888.247130,-9400.615463,-1149.143247
3410.817891,592.164754,-8956.491898,-306.438199
3410.818218,-2072.576638,-8216.285956,229.828649
3410.818546,-2738.761985,-7476.080014,0.000000
3410.818873,-1480.411884,-9622.677246,-1225.752797
3410.819201,-444.123565,-11843.295072,-1149.143247
3410.819528,0.000000,-10732.986159,-536.266849
3410.819856,592.164754,-9474.636058,0.000000
3410.820183,2220.617826,-10436.903782,-689.485948
3410.820511,1184.329507,-10362.883188,-306.438199
3410.820839,-296.082377,-9030.512492,536.266849
3410.821166,-2146.597232,-6291.750507,766.095498
3410.821494,-1406.391290,-8956.491898,536.266849
3410.821821,0.000000,-10510.924376,-1762.019645
3410.822149,0.000000,-10807.006753,-842.705048
3410.822476,-888.247130,-9252.574275,-689.485948
3410.822804,666.185348,-9326.594869,-1302.362347
3410.823131,1184.329507,-9992.780217,-1838.629195
3410.823459,1628.453072,-10881.027347,-612.876398
3410.823786,370.102971,-9252.574275,612.876398
3410.824114,1184.329507,-7624.121203,919.314598
3410.824441,814.226536,-10066.800811,1378.971896
3410.824769,0.000000,-11103.089130,1532.190996
3410.825096,-814.226536,-9992.780217,459.657299
3410.825424,-1184.329507,-8364.327145,-1991.848295
3410.825751,0.000000,-9622.677246,-3677.258390
3410.826079,-888.247130,-9770.718434,-2911.162892
3410.826407,-2220.617826,-8068.244768,-536.266849
3410.826734,-740.205942,-8290.306550,1225.752797
3410.827062,2294.638420,-12435.459826,995.924147
3410.827389,3256.906145,-13027.624579,0.000000
3410.827717,3182.885551,-10658.965565,-153.219100
3410.828044,2294.638420,-8660.409521,-306.438199
3410.828372,3775.050304,-9992.780217,153.219100
3410.828699,2664.741391,-11695.253884,1225.752797
3410.829027,1998.556043,-9104.533087,919.314598
3410.829354,0.000000,-6439.791695,459.657299
3410.829682,370.102971,-9474.636058,153.219100
3410.830009,1628.453072,-14137.933492,-536.266849
3410.830337,962.267725,-10362.883188,-1608.800546
3410.830664,-1702.473667,-6957.935855,-995.924147
3410.830992,-2146.597232,-7476.080014,-1072.533697
3410.831320,444.123565,-10140.821405,-1685.410096
3410.831647,1110.308913,-9474.636058,-1072.533697
3410.831975,962.267725,-8956.491898,1072.533697
3410.832302,1110.308913,-7994.224174,995.924147
3410.832630,1184.329507,-9696.697840,995.924147
3410.832957,444.123565,-10584.944971,919.314598
3410.833285,444.123565,-9030.512492,0.000000
3410.833612,666.185348,-9400.615463,-612.876398
3410.833940,1258.350101,-10881.027347,-842.705048
3410.834267,518.144159,-10362.883188,-1915.238745
3410.834595,-888.247130,-9178.553681,0.000000
3410.834922,-1406.391290,-8956.491898,995.924147
3410.835250,-814.226536,-8512.368333,459.657299
3410.835577,-370.102971,-9844.739029,-383.047749
3410.835905,-1776.494261,-9400.615463,229.828649
3410.836233,-1184.329507,-9252.574275,0.000000
3410.836560,-740.205942,-9770.718434,-1378.971896
3410.836888,296.082377,-11399.171507,-1762.019645
3410.837215,-1036.288319,-9178.553681,-995.924147
3410.837543,-740.205942,-9474.636058,612.876398
3410.837870,-518.144159,-9696.697840,0.000000
3410.838198,1258.350101,-12361.439231,-689.485948
3410.838525,0.000000,-10807.006753,-229.828649
3410.838853,-1036.288319,-9030.512492,689.485948
3410.839180,-962.267725,-8734.430116,-153.219100
3410.839508,222.061783,-9918.759623,-612.876398
3410.839835,-444.123565,-9622.677246,-1302.362347
3410.840163,-370.102971,-9622.677246,-153.219100
3410.840490,666.185348,-9474.636058,-919.314598
3410.840818,1998.556043,-9474.636058,76.609550
3410.841145,1554.432478,-12139.377449,1302.362347
3410.841473,222.061783,-9474.636058,1838.629195
3410.841801,222.061783,-8364.327145,0.000000
3410.842128,296.082377,-9400.615463,-1608.800546
3410.842456,-592.164754,-10214.842000,-1149.143247
3410.842783,-2220.617826,-9030.512492,0.000000
3410.843111,-666.185348,-8734.430116,0.000000
3410.843438,-592.164754,-7846.182985,-536.266849
3410.843766,0.000000,-9992.780217,612.876398
3410.844093,-296.082377,-9992.780217,612.876398
3410.844421,1776.494261,-9844.739029,-612.876398
3410.844748,2960.823768,-8956.491898,-2528.115143
3410.845076,3108.864956,-11843.295072,-1149.143247
3410.845403,1702.473667,-11029.068536,1149.143247
3410.845731,2812.782580,-9252.574275,842.705048
3410.846058,2072.576638,-9622.677246,0.000000
3410.846386,3034.844362,-11473.192101,612.876398
3410.846714,2442.679609,-10732.986159,306.438199
3410.847041,1406.391290,-7550.100608,1072.533697
3410.847369,592.164754,-8364.327145,0.000000
3410.847696,1036.288319,-11029.068536,-995.924147
3410.848024,814.226536,-11399.171507,-1225.752797
3410.848351,74.020594,-9178.553681,-1991.848295
3410.848679,-666.185348,-9178.553681,-995.924147
3410.849006,-666.185348,-9918.759623,-1072.533697
3410.849334,2072.576638,-10140.821405,0.000000
3410.849661,2368.659014,-9178.553681,612.876398
3410.849989,0.000000,-9770.718434,1302.362347
3410.850316,0.000000,-9178.553681,-229.828649
3410.850644,666.185348,-9326.594869,-536.266849
3410.850971,962.267725,-10288.862594,-1225.752797
3410.851299,0.000000,-10214.842000,153.219100
3410.851627,-518.144159,-9400.615463,383.047749
3410.851954,296.082377,-9326.594869,1072.533697
3410.852282,1110.308913,-10732.986159,153.219100
3410.852609,-222.061783,-9474.636058,153.219100
3410.852937,-2220.617826,-8290.306550,229.828649
3410.853264,-1998.556043,-8438.347739,-612.876398
3410.853592,-1110.308913,-10436.903782,-1302.362347
3410.853919,-370.102971,-9918.759623,-1991.848295
3410.854247,-666.185348,-9252.574275,612.876398
3410.854574,-444.123565,-9474.636058,919.314598
3410.854902,814.226536,-10807.006753,1072.533697
3410.855229,666.185348,-10362.883188,536.266849
3410.855557,0.000000,-9104.533087,612.876398
3410.855884,-1554.432478,-7846.182985,-459.657299
3410.856212,-1036.288319,-9104.533087,-842.705048
3410.856540,-2072.576638,-9474.636058,-1072.533697
3410.856867,-2146.597232,-9992.780217,0.000000
3410.857195,-1332.370696,-9474.636058,-459.657299
3410.857522,518.144159,-10140.821405,-1302.362347
3410.857850,2368.659014,-10955.047942,-689.485948
3410.858177,2442.679609,-10066.800811,1685.410096
3410.858505,2812.782580,-10362.883188,1302.362347
3410.858832,1776.494261,-9474.636058,1072.533697
3410.859160,814.226536,-9400.615463,-306.438199
3410.859487,-1184.329507,-9252.574275,-919.314598
3410.859815,-2738.761985,-9474.636058,-306.438199
3410.860142,-3182.885551,-9474.636058,-612.876398
3410.860470,-666.185348,-9474.636058,-1762.019645
3410.860797,-666.185348,-8956.491898,-1685.410096
3410.861125,-2146.597232,-9770.718434,612.876398
3410.861452,-1480.411884,-9918.759623,0.000000
3410.861780,2072.576638,-9992.780217,-1991.848295
3410.862108,3849.070898,-10436.903782,-2681.334243
3410.862435,2220.617826,-10955.047942,842.705048
3410.862763,1036.288319,-10066.800811,2451.505594
3410.863090,4219.173869,-9918.759623,1455.581446
3410.863418,4219.173869,-10140.821405,0.000000
3410.863745,1924.535449,-10140.821405,153.219100
3410.864073,814.226536,-8956.491898,-153.219100
3410.864400,1258.350101,-7698.141797,-689.485948
3410.864728,2294.638420,-10214.842000,-1608.800546
3410.865055,-296.082377,-11325.150913,-995.924147
3410.865383,-1850.514855,-8734.430116,1762.019645
3410.865710,444.123565,-7105.977043,0.000000
3410.866038,1776.494261,-11103.089130,-383.047749
3410.866365,296.082377,-11621.233289,229.828649
3410.866693,1036.288319,-7698.141797,0.000000
3410.867021,1332.370696,-5551.544565,-995.924147
3410.867348,296.082377,-10214.842000,0.000000
3410.867676,-296.082377,-10362.883188,612.876398
3410.868003,-296.082377,-9104.533087,689.485948
3410.868331,592.164754,-10066.800811,0.000000
3410.868658,2812.782580,-11843.295072,-1072.533697
3410.868986,1850.514855,-11251.130318,766.095498
3410.869313,1480.411884,-9326.594869,2757.943793
3410.869641,1110.308913,-8364.327145,1072.533697
3410.869968,518.144159,-8882.471304,153.219100
3410.870296,-370.102971,-8660.409521,-1225.752797
3410.870623,-1924.535449,-8364.327145,-1378.971896
3410.870951,-2886.803174,-9474.636058,-766.095498
3410.871278,-1184.329507,-10881.027347,-689.485948
3410.871606,0.000000,-11843.295072,-1455.581446
3410.871934,-222.061783,-9770.718434,0.000000
3410.872261,-370.102971,-10510.924376,0.000000
3410.872589,962.267725,-10584.944971,-306.438199
3410.872916,814.226536,-10214.842000,-612.876398
3410.873244,-370.102971,-9474.636058,-1072.533697
3410.873571,-2442.679609,-7402.059420,459.657299
3410.873899,-2368.659014,-7772.162391,1072.533697
3410.874226,-444.123565,-9622.677246,306.438199
3410.874554,-148.041188,-10436.903782,-459.657299
3410.874881,-222.061783,-10881.027347,-842.705048
3410.875209,518.144159,-9104.533087,-1532.190996
3410.875536,2146.597232,-11029.068536,-459.657299
3410.875864,2812.782580,-11251.130318,229.828649
3410.876191,1850.514855,-9030.512492,842.705048
3410.876519,-740.205942,-8956.491898,1991.848295
3410.876846,-518.144159,-9770.718434,306.438199
3410.877174,-1332.370696,-10288.862594,-229.828649
3410.877502,-2368.659014,-9474.636058,76.609550
3410.877829,-2368.659014,-8586.388927,-1915.238745
3410.878157,-2220.617826,-8142.265362,-2528.115143
3410.878484,-1036.288319,-9770.718434,-1608.800546
3410.878812,1776.494261,-9918.759623,-1455.581446
3410.879139,1776.494261,-9622.677246,459.657299
3410.879467,1184.329507,-11177.109724,1685.410096
3410.879794,1480.411884,-12361.439231,1225.752797
3410.880122,2220.617826,-10436.903782,0.000000
3410.880449,3108.864956,-8290.306550,-1225.752797
3410.880777,2294.638420,-9548.656652,0.000000
3410.881104,3034.844362,-10732.986159,2221.676944
3410.881432,3256.906145,-9918.759623,1455.581446
3410.881759,1776.494261,-9252.574275,-842.705048
3410.882087,222.061783,-9696.697840,-1608.800546
3410.882414,-592.164754,-11547.212695,-842.705048
3410.882742,-518.144159,-9474.636058,0.000000
3410.883069,-1036.288319,-7105.977043,-612.876398
3410.883397,-2072.576638,-9400.615463,76.609550
3410.883724,0.000000,-9770.718434,-306.438199
3410.884052,3034.844362,-9992.780217,-1455.581446
3410.884379,2072.576638,-9474.636058,-229.828649
3410.884707,0.000000,-8216.285956,1915.238745
3410.885034,0.000000,-6809.894666,2374.896044
3410.885362,1702.473667,-7550.100608,689.485948
3410.885689,0.000000,-10732.986159,689.485948
3410.886017,148.041188,-10584.944971,995.924147
3410.886344,74.020594,-9104.533087,-306.438199
3410.886672,1554.432478,-10510.924376,-689.485948
3410.886999,2442.679609,-12065.356855,-2221.676944
3410.887327,0.000000,-10140.821405,459.657299
3410.887654,-1184.329507,-7994.224174,1532.190996
3410.887982,0.000000,-7031.956449,0.000000
3410.888309,-222.061783,-9844.739029,-842.705048
3410.888637,-1702.473667,-10214.842000,0.000000
3410.888964,-1702.473667,-9400.615463,-229.828649
3410.889292,-592.164754,-9400.615463,-1685.410096
3410.889619,962.267725,-11769.274478,-1378.971896
3410.889947,666.185348,-11325.150913,-689.485948
3410.890274,592.164754,-10362.883188,-842.705048
3410.890602,0.000000,-9252.574275,-995.924147
3410.890929,296.082377,-10288.862594,-383.047749
3410.891257,-962.267725,-9770.718434,-153.219100
3410.891584,-1184.329507,-8068.244768,153.219100
3410.891912,-1406.391290,-9104.533087,153.219100
3410.892239,592.164754,-11325.150913,689.485948
3410.892567,1554.432478,-10362.883188,-1532.190996
3410.892894,962.267725,-9474.636058,-842.705048
3410.893222,518.144159,-10955.047942,-689.485948
3410.893549,222.061783,-9696.697840,0.000000
3410.893877,-814.226536,-9474.636058,842.705048
3410.894204,-518.144159,-9770.718434,153.219100
3410.894532,-1480.411884,-8956.491898,153.219100
3410.894859,-1480.411884,-8734.430116,383.047749
3410.895187,-222.061783,-9622.677246,-1685.410096
3410.895514,-2146.597232,-7179.997637,-1532.190996
3410.895842,-2886.803174,-7624.121203,-229.828649
3410.896170,-518.144159,-7698.141797,-766.095498
3410.896497,2738.761985,-10436.903782,-536.266849
3410.896825,3997.112087,-11029.068536,0.000000
3410.897152,1998.556043,-10732.986159,2374.896044
3410.897480,518.144159,-10807.006753,1685.410096
3410.897807,1628.453072,-10436.903782,-1762.019645
3410.898135,1332.370696,-9252.574275,-3447.429741
3410.898462,-740.205942,-8734.430116,-766.095498
3410.898790,148.041188,-10288.862594,1225.752797
3410.899117,3034.844362,-11473.192101,1455.581446
3410.899445,4959.379811,-11843.295072,383.047749
3410.899772,1924.535449,-11177.109724,1072.533697
3410.900100,74.020594,-10214.842000,153.219100
3410.900427,-740.205942,-6661.853478,-2221.676944
3410.900755,-1406.391290,-9400.615463,-2911.162892
3410.901082,-3034.844362,-9474.636058,-3064.381992
3410.901410,-2368.659014,-9326.594869,-229.828649
3410.901737,1184.329507,-10066.800811,1608.800546
3410.902065,2738.761985,-10214.842000,995.924147
3410.902392,1628.453072,-9992.780217,1302.362347
3410.902720,1332.370696,-8956.491898,1072.533697
3410.903047,1850.514855,-8068.244768,-229.828649
3410.903375,3182.885551,-8142.265362,-919.314598
3410.903702,-148.041188,-9326.594869,995.924147
3410.904030,-1702.473667,-9104.533087,2451.505594
3410.904357,0.000000,-9992.780217,766.095498
3410.904685,1406.391290,-9992.780217,-1532.190996
3410.905012,1036.288319,-10362.883188,-689.485948
3410.905340,-148.041188,-9622.677246,0.000000
3410.905667,-518.144159,-9252.574275,-229.828649
3410.905995,-888.247130,-7698.141797,-995.924147
3410.906322,-370.102971,-9178.553681,-306.438199
3410.906650,-1776.494261,-9252.574275,612.876398
3410.906977,-1480.411884,-8364.327145,1072.533697
3410.907305,740.205942,-9548.656652,-766.095498
3410.907632,1554.432478,-12139.377449,995.924147
3410.907960,2516.700203,-11399.171507,306.438199
3410.908287,592.164754,-9400.615463,0.000000
3410.908615,-814.226536,-9252.574275,-229.828649
3410.908942,222.061783,-9252.574275,-2604.724693
3410.909270,-740.205942,-9326.594869,-2604.724693
3410.909597,-2294.638420,-9178.553681,-995.924147
3410.909925,-666.185348,-10288.862594,-153.219100
3410.910252,1850.514855,-11325.150913,842.705048
3410.910580,2516.700203,-13027.624579,1532.190996
3410.910907,2368.659014,-10658.965565,612.876398
3410.911235,222.061783,-8216.285956,0.000000
3410.911562,-740.205942,-7846.182985,-766.095498
3410.911890,-370.102971,-9104.533087,-1225.752797
3410.912217,-3182.885551,-9400.615463,-612.876398
3410.912545,-4219.173869,-9178.553681,0.000000
3410.912872,-2368.659014,-8068.244768,-1455.581446
3410.913200,-148.041188,-10066.800811,-919.314598
3410.913527,1258.350101,-11325.150913,-766.095498
3410.913855,2146.597232,-10214.842000,229.828649
3410.914182,3627.009116,-9400.615463,0.000000
3410.914510,3182.885551,-9622.677246,536.266849
3410.914837,1110.308913,-10658.965565,1225.752797
3410.915165,-518.144159,-8068.244768,1685.410096
3410.915492,0.000000,-7402.059420,0.000000
3410.915820,74.020594,-9548.656652,-995.924147
3410.916147,1110.308913,-11843.295072,-842.705048
3410.916475,1332.370696,-10807.006753,1225.752797
3410.916802,2886.803174,-10214.842000,536.266849
3410.917130,2516.700203,-11695.253884,-383.047749
3410.917457,1554.432478,-11843.295072,-1072.533697
3410.917785,-1184.329507,-7031.956449,-1455.581446
3410.918112,-2368.659014,-7179.997637,-766.095498
3410.918440,-2812.782580,-7624.121203,-842.705048
3410.918767,-814.226536,-10584.944971,689.485948
3410.919095,1036.288319,-11325.150913,1149.143247
3410.919422,1850.514855,-9326.594869,842.705048
3410.919750,1036.288319,-7994.224174,-612.876398
3410.920077,962.267725,-9474.636058,-919.314598
3410.920405,1184.329507,-9548.656652,-153.219100
3410.920732,1702.473667,-7772.162391,-612.876398
3410.921060,296.082377,-9030.512492,689.485948
3410.921387,-444.123565,-10732.986159,2604.724693
3410.921715,1850.514855,-12213.398043,1532.190996
3410.922042,1480.411884,-9696.697840,0.000000
3410.922370,444.123565,-8808.450710,-995.924147
3410.922698,0.000000,-9030.512492,-2374.896044
3410.923025,-1036.288319,-9844.739029,-2604.724693
3410.923353,-2368.659014,-9104.533087,-1991.848295
3410.923680,-1924.535449,-9696.697840,-689.485948
3410.924008,-2368.659014,-9252.574275,-459.657299
3410.924335,-666.185348,-10732.986159,383.047749
3410.924663,370.102971,-11769.274478,842.705048
3410.924990,1036.288319,-11029.068536,995.924147
3410.925318,1702.473667,-9104.533087,-153.219100
3410.925645,1776.494261,-8660.409521,-1225.752797
3410.925973,0.000000,-9178.553681,-1149.143247
3410.926300,-1406.391290,-8438.347739,536.266849
3410.926628,-1480.411884,-8290.306550,229.828649
3410.926955,-296.082377,-10510.924376,-919.314598
3410.927283,888.247130,-12287.418637,-689.485948
3410.927610,518.144159,-9844.739029,536.266849
3410.927938,444.123565,-10214.842000,995.924147
3410.928265,2516.700203,-10881.027347,-1608.800546
3410.928593,1702.473667,-9844.739029,-2298.286494
3410.928920,-1776.494261,-8586.388927,-689.485948
3410.929248,-2220.617826,-7105.977043,1149.143247
3410.929575,-962.267725,-7772.162391,919.314598
3410.929903,0.000000,-9844.739029,229.828649
3410.930230,-1776.494261,-9844.739029,919.314598
3410.930558,-1850.514855,-9252.574275,689.485948
3410.930885,592.164754,-8438.347739,-2528.115143
3410.931213,3034.844362,-10658.965565,-2911.162892
3410.931540,1998.556043,-11695.253884,-1072.533697
3410.931868,2220.617826,-9548.656652,1225.752797
3410.932195,1776.494261,-9030.512492,1225.752797
3410.932523,2072.576638,-10584.944971,1762.019645
3410.932850,962.267725,-11769.274478,1378.971896
3410.933178,444.123565,-9992.780217,536.266849
3410.933505,1258.350101,-7920.203579,-1302.362347
3410.933833,1924.535449,-9104.533087,-1532.190996
3410.934160,2590.720797,-12731.542202,-689.485948
3410.934488,1702.473667,-12213.398043,995.924147
3410.934815,370.102971,-8438.347739,-1072.533697
3410.935143,-1332.370696,-8660.409521,-1991.848295
3410.935470,-1776.494261,-11621.233289,-1072.533697
3410.935798,-222.061783,-9844.739029,-612.876398
3410.936125,0.000000,-8586.388927,536.266849
3410.936453,296.082377,-9400.615463,1149.143247
3410.936780,962.267725,-10658.965565,459.657299
3410.937108,1850.514855,-8734.430116,-689.485948
3410.937435,0.000000,-7698.141797,-612.876398
3410.937763,518.144159,-9252.574275,-153.219100
3410.938090,1110.308913,-10214.842000,1685.410096
3410.938418,1702.473667,-8882.471304,1302.362347
3410.938745,444.123565,-7846.182985,1532.190996
3410.939073,-1036.288319,-10807.006753,1608.800546
3410.939400,370.102971,-10288.862594,-459.657299
3410.939728,1258.350101,-9104.533087,-2068.457845
3410.940055,-444.123565,-9252.574275,-2068.457845
3410.940383,-1628.453072,-9474.636058,-459.657299
3410.940710,-814.226536,-9252.574275,689.485948
3410.941038,814.226536,-10584.944971,0.000000
3410.941365,-518.144159,-9326.594869,383.047749
3410.941693,-1924.535449,-9178.553681,1072.533697
3410.942020,-1184.329507,-9326.594869,-612.876398
3410.942348,592.164754,-9992.780217,-2145.067394
3410.942675,-148.041188,-9326.594869,-2221.676944
3410.943003,-1628.453072,-9400.615463,0.000000
3410.943330,-1332.370696,-9030.512492,689.485948
3410.943658,74.020594,-10732.986159,-689.485948
3410.943985,-222.061783,-11843.295072,-766.095498
3410.944313,148.041188,-9918.759623,-995.924147
3410.944640,444.123565,-8586.388927,-995.924147
3410.944968,1702.473667,-10288.862594,-459.657299
3410.945295,1110.308913,-11251.130318,612.876398
3410.945623,444.123565,-9844.739029,306.438199
3410.945950,-592.164754,-8216.285956,-1838.629195
3410.946278,-1406.391290,-9474.636058,-2068.457845
3410.946605,-962.267725,-11547.212695,-842.705048
3410.946933,-1554.432478,-10140.821405,1378.971896
3410.947260,-1332.370696,-8364.327145,842.705048
3410.947588,-296.082377,-7698.141797,-1455.581446
3410.947915,148.041188,-8660.409521,-995.924147
3410.948243,0.000000,-8586.388927,0.000000
3410.948570,1110.308913,-9104.533087,-229.828649
3410.948898,1628.453072,-9548.656652,0.000000
3410.949226,2368.659014,-11325.150913,536.266849
3410.949553,2072.576638,-10807.006753,689.485948
3410.949881,2294.638420,-9622.677246,459.657299
3410.950208,3034.844362,-9474.636058,-459.657299
3410.950536,3108.864956,-10140.821405,-842.705048
3410.950863,148.041188,-9992.780217,0.000000
3410.951191,-666.185348,-8882.471304,689.485948
3410.951518,1036.288319,-9992.780217,-1302.362347
3410.951846,1776.494261,-10658.965565,-995.924147
3410.952173,1850.514855,-10955.047942,-689.485948
3410.952501,370.102971,-9030.512492,0.000000
3410.952828,814.226536,-10288.862594,306.438199
3410.953156,1850.514855,-9548.656652,-2145.067394
3410.953483,1480.411884,-9992.780217,-1838.629195
3410.953811,-592.164754,-9326.594869,0.000000
3410.954138,0.000000,-9770.718434,536.266849
3410.954466,74.020594,-8438.347739,-306.438199
3410.954793,1702.473667,-10140.821405,153.219100
3410.955121,740.205942,-10881.027347,612.876398
3410.955448,1702.473667,-9992.780217,1302.362347
3410.955776,2072.576638,-9252.574275,0.000000
3410.956103,1776.494261,-9178.553681,0.000000
3410.956431,444.123565,-8438.347739,536.266849
3410.956758,-1776.494261,-7846.182985,1378.971896
3410.957086,-1924.535449,-8734.430116,0.000000
3410.957413,-2146.597232,-9030.512492,-1532.190996
3410.957741,-518.144159,-11251.130318,-1532.190996
3410.958068,0.000000,-9696.697840,-689.485948
3410.958396,444.123565,-10362.883188,383.047749
3410.958723,814.226536,-10066.800811,0.000000
3410.959051,444.123565,-9918.759623,536.266849
3410.959378,-814.226536,-8586.388927,612.876398
3410.959706,-222.061783,-9474.636058,306.438199
3410.960033,-1850.514855,-7550.100608,76.609550
3410.960361,-1258.350101,-9030.512492,229.828649
3410.960688,-1480.411884,-10214.842000,-536.266849
3410.961016,-1850.514855,-10881.027347,-536.266849
3410.961343,-444.123565,-9844.739029,-1072.533697
3410.961671,666.185348,-10066.800811,-1532.190996
3410.961998,814.226536,-11399.171507,-612.876398
3410.962326,1036.288319,-9992.780217,306.438199
3410.962653,518.144159,-9770.718434,459.657299
3410.962981,518.144159,-9844.739029,612.876398
3410.963308,740.205942,-10214.842000,-306.438199
3410.963636,-1258.350101,-9622.677246,919.314598
3410.963963,-1332.370696,-9770.718434,383.047749
3410.964291,0.000000,-9400.615463,-1838.629195
3410.964618,-1258.350101,-10140.821405,-1838.629195
3410.964946,-2738.761985,-9326.594869,-1915.238745
3410.965273,-1554.432478,-9030.512492,-1378.971896
3410.965601,-962.267725,-8290.306550,-229.828649
3410.965928,2442.679609,-9474.636058,459.657299
3410.966256,3330.926739,-11473.192101,459.657299
3410.966583,2368.659014,-11843.295072,2068.457845
3410.966911,3552.988522,-9770.718434,766.095498
3410.967238,3478.967927,-8364.327145,-612.876398
3410.967566,2146.597232,-9474.636058,-536.266849
3410.967893,74.020594,-9252.574275,689.485948
3410.968221,-148.041188,-9474.636058,995.924147
3410.968548,962.267725,-9326.594869,-153.219100
3410.968876,2516.700203,-11325.150913,-2221.676944
3410.969203,666.185348,-11843.295072,-306.438199
3410.969531,962.267725,-10436.903782,919.314598
3410.969858,962.267725,-8216.285956,-383.047749
3410.970186,1776.494261,-10362.883188,-536.266849
3410.970513,0.000000,-8956.491898,-1378.971896
3410.970841,0.000000,-7994.224174,-383.047749
3410.971168,74.020594,-7031.956449,766.095498
3410.971496,1406.391290,-9548.656652,919.314598
3410.971823,888.247130,-10362.883188,-689.485948
3410.972151,296.082377,-10214.842000,0.000000
3410.972478,370.102971,-9696.697840,-1378.971896
3410.972806,3256.906145,-10955.047942,-766.095498
3410.973133,2442.679609,-10881.027347,459.657299
3410.973461,1110.308913,-8586.388927,1838.629195
3410.973788,1036.288319,-7846.182985,1608.800546
3410.974116,814.226536,-9178.553681,1225.752797
3410.974443,296.082377,-10955.047942,-383.047749
3410.974771,-2368.659014,-8512.368333,-153.219100
3410.975098,-2072.576638,-9326.594869,-689.485948
3410.975426,74.020594,-10214.842000,-2528.115143
3410.975754,0.000000,-11029.068536,-2221.676944
3410.976081,-1406.391290,-9992.780217,-995.924147
3410.976409,-592.164754,-9992.780217,-153.219100
3410.976736,148.041188,-9474.636058,229.828649
3410.977064,1850.514855,-10214.842000,0.000000
3410.977391,-962.267725,-8956.491898,995.924147
3410.977719,-2368.659014,-7624.121203,1838.629195
3410.978046,-1258.350101,-8586.388927,-459.657299
3410.978374,0.000000,-10436.903782,-1072.533697
3410.978701,-814.226536,-10066.800811,-612.876398
3410.979029,0.000000,-10140.821405,0.000000
3410.979356,-1110.308913,-10288.862594,612.876398
3410.979684,1628.453072,-10288.862594,-995.924147
3410.980011,1480.411884,-9696.697840,-1532.190996
3410.980339,-962.267725,-9474.636058,1532.190996
3410.980666,0.000000,-9548.656652,689.485948
3410.980994,1480.411884,-9474.636058,-383.047749
3410.981321,148.041188,-10066.800811,153.219100
3410.981649,-1184.329507,-9548.656652,0.000000
3410.981976,-2294.638420,-8438.347739,-229.828649
3410.982304,-1924.535449,-7846.182985,76.609550
3410.982632,296.082377,-9622.677246,-1608.800546
3410.982959,-1036.288319,-8364.327145,-1302.362347
3410.983287,-2146.597232,-8808.450710,153.219100
3410.983614,222.061783,-9104.533087,-1685.410096
3410.983942,2146.597232,-11843.295072,-919.314598
3410.984269,1850.514855,-11177.109724,1455.581446
3410.984597,3552.988522,-9548.656652,1915.238745
3410.984925,1998.556043,-9400.615463,995.924147
3410.985252,2590.720797,-9474.636058,76.609550
3410.985580,2072.576638,-10658.965565,-153.219100
3410.985907,814.226536,-9622.677246,0.000000
3410.986235,1036.288319,-8364.327145,-1762.019645
3410.986562,1332.370696,-9622.677246,-1991.848295
3410.986890,0.000000,-13397.727550,-383.047749
3410.987218,518.144159,-11769.274478,306.438199
3410.987545,2368.659014,-9696.697840,-2528.115143
3410.987873,1332.370696,-8956.491898,-1915.238745
3410.988200,1258.350101,-10362.883188,-306.438199
3410.988528,666.185348,-9178.553681,76.609550
3410.988855,740.205942,-7846.182985,1302.362347
3410.989183,0.000000,-8438.347739,383.047749
3410.989511,-814.226536,-9252.574275,383.047749
3410.989838,740.205942,-9696.697840,76.609550
3410.990166,1184.329507,-10584.944971,842.705048
3410.990493,1036.288319,-10584.944971,536.266849
3410.990821,1998.556043,-9696.697840,766.095498
3410.991148,2294.638420,-7994.224174,0.000000
3410.991476,-222.061783,-8660.409521,1302.362347
3410.991804,-962.267725,-8956.491898,919.314598
3410.992131,-962.267725,-8216.285956,306.438199
3410.992459,0.000000,-10066.800811,-919.314598
3410.992786,0.000000,-10362.883188,-842.705048
3410.993114,-1184.329507,-9104.533087,766.095498
3410.993441,-296.082377,-8808.450710,2068.457845
3410.993769,1554.432478,-10066.800811,0.000000
3410.994097,814.226536,-9770.718434,0.000000
3410.994424,-666.185348,-8660.409521,459.657299
3410.994752,-1110.308913,-7920.203579,-612.876398
3410.995079,-1406.391290,-10584.944971,-689.485948
3410.995407,-2072.576638,-10510.924376,-842.705048
3410.995734,-1628.453072,-9474.636058,0.000000
3410.996062,-814.226536,-9696.697840,0.000000
3410.996390,1554.432478,-10584.944971,0.000000
3410.996717,1480.411884,-11103.089130,-536.266849
3410.997045,814.226536,-9918.759623,-383.047749
3410.997372,740.205942,-8956.491898,-1915.238745
3410.997700,814.226536,-10732.986159,-995.924147
3410.998028,222.061783,-11325.150913,-229.828649
3410.998355,-888.247130,-10510.924376,153.219100
3410.998683,-1332.370696,-10214.842000,76.609550
3410.999010,-518.144159,-9400.615463,-459.657299
3410.999338,222.061783,-10214.842000,-536.266849
3410.999665,-814.226536,-9622.677246,842.705048
3410.999993,-666.185348,-8956.491898,0.000000
3411.000321,-1184.329507,-7179.997637,-1072.533697
3411.000648,-222.061783,-8142.265362,-612.876398
3411.000976,-222.061783,-9696.697840,-1762.019645
3411.001303,-296.082377,-10510.924376,689.485948
3411.001631,1110.308913,-10807.006753,995.924147
3411.001958,3997.112087,-10362.883188,-229.828649
3411.002286,2368.659014,-9474.636058,-306.438199
3411.002614,370.102971,-9178.553681,1532.190996
3411.002941,666.185348,-7772.162391,383.047749
3411.003269,1406.391290,-9030.512492,-1149.143247
3411.003596,1258.350101,-10436.903782,-1149.143247
3411.003924,222.061783,-9474.636058,306.438199
3411.004251,444.123565,-10807.006753,2528.115143
3411.004579,3182.885551,-10214.842000,1072.533697
3411.004907,3034.844362,-9770.718434,-1378.971896
3411.005234,-370.102971,-9474.636058,-306.438199
3411.005562,-444.123565,-8586.388927,-1302.362347
3411.005889,888.247130,-7402.059420,-3600.648841
3411.006217,888.247130,-9770.718434,-1685.410096
3411.006544,-1184.329507,-10584.944971,229.828649
3411.006872,-1036.288319,-10214.842000,1455.581446
3411.007200,1850.514855,-9400.615463,-689.485948
3411.007527,4441.235652,-11917.315666,-459.657299
3411.007855,3256.906145,-11103.089130,766.095498
3411.008182,1776.494261,-7476.080014,1838.629195
3411.008510,1406.391290,-7031.956449,306.438199
3411.008837,1258.350101,-10510.924376,-919.314598
3411.009165,-296.082377,-10807.006753,-919.314598
3411.009493,-1850.514855,-9400.615463,76.609550
3411.009820,-814.226536,-10658.965565,0.000000
3411.010148,1110.308913,-11399.171507,-1991.848295
3411.010475,592.164754,-12065.356855,-459.657299
3411.010803,-518.144159,-9622.677246,995.924147
3411.011130,740.205942,-9030.512492,229.828649
3411.011458,370.102971,-8364.327145,-919.314598
3411.011786,-370.102971,-9400.615463,-919.314598
3411.012113,-1702.473667,-9622.677246,-306.438199
3411.012441,-2886.803174,-8290.306550,383.047749
3411.012768,-1258.350101,-8364.327145,-689.485948
3411.013096,74.020594,-9696.697840,0.000000
3411.013423,-148.041188,-10732.986159,459.657299
3411.013751,-666.185348,-10362.883188,1225.752797
3411.014079,1924.535449,-9104.533087,-1455.581446
3411.014406,2294.638420,-9622.677246,-1378.971896
3411.014734,962.267725,-10436.903782,-919.314598
3411.015061,-1184.329507,-8734.430116,1838.629195
