#time,accel_x,accel_y,accel_z
2622.511385,0.000000,-9622.677246,-1149.143247
2622.511713,148.041188,-9844.739029,-1302.362347
2622.512040,518.144159,-10066.800811,153.219100
2622.512367,370.102971,-9696.697840,0.000000
2622.512695,518.144159,-9548.656652,0.000000
2622.513022,370.102971,-9474.636058,-153.219100
2622.513350,74.020594,-9326.594869,0.000000
2622.513677,518.144159,-9104.533087,-536.266849
2622.514004,0.000000,-8956.491898,0.000000
2622.514332,0.000000,-9474.636058,-536.266849
2622.514659,148.041188,-9548.656652,-995.924147
2622.514987,222.061783,-10066.800811,-689.485948
2622.515314,518.144159,-10288.862594,-229.828649
2622.515641,592.164754,-10362.883188,0.000000
2622.515969,740.205942,-10140.821405,0.000000
2622.516296,740.205942,-10066.800811,0.000000
2622.516624,666.185348,-9474.636058,0.000000
2622.516951,148.041188,-9770.718434,0.000000
2622.517278,0.000000,-9474.636058,-306.438199
2622.517606,0.000000,-9474.636058,-536.266849
2622.517933,0.000000,-9548.656652,-536.266849
2622.518260,74.020594,-9400.615463,-536.266849
2622.518588,0.000000,-9770.718434,0.000000
2622.518915,296.082377,-9770.718434,-306.438199
2622.519243,370.102971,-9696.697840,0.000000
2622.519570,814.226536,-10066.800811,153.219100
2622.519897,888.247130,-9622.677246,383.047749
2622.520225,592.164754,-9326.594869,229.828649
2622.520552,666.185348,-9030.512492,76.609550
2622.520880,222.061783,-8660.409521,306.438199
2622.521207,444.123565,-8438.347739,-229.828649
2622.521534,74.020594,-9178.553681,-153.219100
2622.521862,-296.082377,-9252.574275,0.000000
2622.522189,0.000000,-9474.636058,-383.047749
2622.522517,74.020594,-9918.759623,-229.828649
2622.522844,518.144159,-9622.677246,-383.047749
2622.523171,592.164754,-9844.739029,0.000000
2622.523499,518.144159,-9622.677246,-306.438199
2622.523826,222.061783,-9474.636058,-383.047749
2622.524154,444.123565,-9474.636058,-153.219100
2622.524481,0.000000,-9474.636058,-229.828649
2622.524808,0.000000,-9326.594869,-306.438199
2622.525136,0.000000,-9326.594869,-689.485948
2622.525463,0.000000,-9474.636058,-612.876398
2622.525790,148.041188,-9770.718434,-919.314598
2622.526118,148.041188,-10214.842000,-1149.143247
2622.526445,666.185348,-10362.883188,-383.047749
2622.526773,814.226536,-10436.903782,-536.266849
2622.527100,666.185348,-10584.944971,-306.438199
2622.527427,888.247130,-10362.883188,306.438199
2622.527755,296.082377,-9474.636058,76.609550
2622.528082,74.020594,-9696.697840,-153.219100
2622.528410,-666.185348,-9548.656652,0.000000
2622.528737,0.000000,-9474.636058,-306.438199
2622.529064,-296.082377,-9696.697840,-536.266849
2622.529392,0.000000,-9622.677246,-536.266849
2622.529719,444.123565,-9992.780217,76.609550
2622.530047,222.061783,-10140.821405,-306.438199
2622.530374,888.247130,-9770.718434,153.219100
2622.530701,74.020594,-9696.697840,383.047749
2622.531029,740.205942,-9474.636058,459.657299
2622.531356,888.247130,-8808.450710,229.828649
2622.531683,1110.308913,-8808.450710,229.828649
2622.532011,1332.370696,-8586.388927,689.485948
2622.532338,1702.473667,-8512.368333,612.876398
2622.532666,2738.761985,-7698.141797,689.485948
2622.532993,3997.112087,-8216.285956,-1149.143247
2622.533320,4367.215058,-9474.636058,-842.705048
2622.533648,5107.421000,-9696.697840,-229.828649
2622.533975,6365.771101,-9696.697840,-612.876398
2622.534303,7328.038826,-10955.047942,-459.657299
2622.534630,7994.224174,-11103.089130,0.000000
2622.534957,8290.306550,-10955.047942,0.000000
2622.535285,8882.471304,-10214.842000,229.828649
2622.535612,8734.430116,-9400.615463,76.609550
2622.535940,9474.636058,-8808.450710,-383.047749
2622.536267,9696.697840,-8438.347739,0.000000
2622.536594,9918.759623,-8956.491898,0.000000
2622.536922,12065.356855,-9178.553681,-766.095498
2622.537249,12361.439231,-9844.739029,0.000000
2622.537577,11843.295072,-9992.780217,612.876398
2622.537904,11917.315666,-9400.615463,-459.657299
2622.538231,11917.315666,-10436.903782,-229.828649
2622.538559,12435.459826,-11695.253884,0.000000
2622.538886,13693.809927,-11029.068536,-689.485948
2622.539213,13101.645173,-10510.924376,76.609550
2622.539541,12361.439231,-9844.739029,1302.362347
2622.539868,11695.253884,-8438.347739,766.095498
2622.540196,10584.944971,-8734.430116,306.438199
2622.540523,9622.677246,-8882.471304,536.266849
2622.540850,9474.636058,-9474.636058,229.828649
2622.541178,9104.533087,-10510.924376,229.828649
2622.541505,7846.182985,-10510.924376,383.047749
2622.541833,6809.894666,-9548.656652,1838.629195
2622.542160,5403.503377,-9030.512492,766.095498
2622.542487,3404.947333,-9474.636058,689.485948
2622.542815,3034.844362,-9178.553681,0.000000
2622.543142,3034.844362,-8290.306550,-383.047749
2622.543470,2590.720797,-8142.265362,0.000000
2622.543797,2442.679609,-8068.244768,1302.362347
2622.544124,3182.885551,-7994.224174,-383.047749
2622.544452,2738.761985,-8956.491898,229.828649
2622.544779,2960.823768,-10362.883188,-306.438199
2622.545107,3034.844362,-10510.924376,-995.924147
2622.545434,2294.638420,-10732.986159,0.000000
2622.545761,1702.473667,-11547.212695,76.609550
2622.546089,518.144159,-12509.480420,1455.581446
2622.546416,-1258.350101,-10881.027347,1838.629195
2622.546743,-2960.823768,-9992.780217,689.485948
2622.547071,-4145.153275,-9104.533087,-1532.190996
2622.547398,-5107.421000,-8364.327145,-2145.067394
2622.547726,-5699.585753,-7328.038826,-1455.581446
2622.548053,-4441.235652,-7550.100608,-842.705048
2622.548380,-4145.153275,-9030.512492,-689.485948
2622.548708,-3108.864956,-10807.006753,-306.438199
2622.549035,-3330.926739,-11251.130318,-1378.971896
2622.549363,-3478.967927,-10881.027347,-1991.848295
2622.549690,-2590.720797,-10362.883188,-2068.457845
2622.550017,-666.185348,-10214.842000,-2145.067394
2622.550345,592.164754,-11399.171507,-919.314598
2622.550672,1332.370696,-11843.295072,0.000000
2622.551000,444.123565,-11177.109724,1149.143247
2622.551327,-1184.329507,-10658.965565,-306.438199
2622.551654,-1924.535449,-7772.162391,-766.095498
2622.551982,-1776.494261,-6143.709319,-1149.143247
2622.552309,-296.082377,-7105.977043,-383.047749
2622.552637,2294.638420,-7846.182985,229.828649
2622.552964,3923.091493,-9548.656652,1149.143247
2622.553291,3034.844362,-10214.842000,2068.457845
2622.553619,1258.350101,-9622.677246,1455.581446
2622.553946,74.020594,-8142.265362,229.828649
2622.554273,148.041188,-8586.388927,-1762.019645
2622.554601,1332.370696,-10140.821405,-1532.190996
2622.554928,4367.215058,-11473.192101,-995.924147
2622.555256,3775.050304,-10955.047942,612.876398
2622.555583,888.247130,-10436.903782,2145.067394
2622.555910,-222.061783,-8586.388927,842.705048
2622.556238,0.000000,-7328.038826,-1608.800546
2622.556565,888.247130,-7031.956449,-2068.457845
2622.556893,4145.153275,-7624.121203,-612.876398
2622.557220,7254.018232,-8808.450710,766.095498
2622.557547,6809.894666,-11473.192101,3600.648841
2622.557875,4663.297435,-12065.356855,4213.525239
2622.558202,2516.700203,-10066.800811,1455.581446
2622.558530,592.164754,-9474.636058,-2298.286494
2622.558857,1332.370696,-11621.233289,-4060.306139
2622.559184,3182.885551,-11695.253884,-3830.477490
2622.559512,3775.050304,-12953.603985,-995.924147
2622.559839,2220.617826,-12879.583391,1915.238745
2622.560167,518.144159,-10881.027347,1991.848295
2622.560494,-962.267725,-8290.306550,-229.828649
2622.560821,-1924.535449,-7105.977043,-1915.238745
2622.561149,74.020594,-6365.771101,-2987.772442
2622.561476,2738.761985,-8216.285956,-919.314598
2622.561803,2738.761985,-10807.006753,3217.601092
2622.562131,1332.370696,-11177.109724,4903.011187
2622.562458,-518.144159,-10214.842000,1838.629195
2622.562786,-2442.679609,-10362.883188,-1072.533697
2622.563113,-2960.823768,-11621.233289,-3677.258390
2622.563440,-1110.308913,-11621.233289,-3753.867940
2622.563768,-1184.329507,-10658.965565,-919.314598
2622.564095,-1850.514855,-10510.924376,2221.676944
2622.564423,-2960.823768,-9474.636058,2451.505594
2622.564750,-6143.709319,-6957.935855,1225.752797
2622.565077,-6439.791695,-5329.482782,306.438199
2622.565405,-3478.967927,-5773.606348,-2451.505594
2622.565732,-1406.391290,-6809.894666,-1838.629195
2622.566060,-222.061783,-8882.471304,1072.533697
2622.566387,-1036.288319,-9918.759623,3140.991542
2622.566714,-3478.967927,-9622.677246,2987.772442
2622.567042,-3849.070898,-9474.636058,76.609550
2622.567369,-2146.597232,-10510.924376,-3064.381992
2622.567697,-1110.308913,-11399.171507,-3677.258390
2622.568024,666.185348,-11399.171507,-2145.067394
2622.568351,1406.391290,-11843.295072,536.266849
2622.568679,0.000000,-10658.965565,1838.629195
2622.569006,-2146.597232,-8216.285956,1149.143247
2622.569333,-2886.803174,-6661.853478,-995.924147
2622.569661,-740.205942,-7328.038826,-3217.601092
2622.569988,2220.617826,-8734.430116,-3447.429741
2622.570316,4737.318029,-10658.965565,-1532.190996
2622.570643,3478.967927,-11843.295072,2604.724693
2622.570970,1332.370696,-11843.295072,3600.648841
2622.571298,444.123565,-11843.295072,76.609550
2622.571625,0.000000,-11843.295072,-3677.258390
2622.571953,1406.391290,-12213.398043,-4673.182538
2622.572280,3775.050304,-11177.109724,-3600.648841
2622.572607,4441.235652,-11473.192101,153.219100
2622.572935,2294.638420,-10807.006753,2604.724693
2622.573262,74.020594,-8364.327145,1838.629195
2622.573590,-1258.350101,-6587.832884,-229.828649
2622.573917,444.123565,-6587.832884,-1302.362347
2622.574244,3923.091493,-6735.874072,-1991.848295
2622.574572,6069.688724,-8808.450710,383.047749
2622.574899,5847.626942,-11547.212695,4213.525239
2622.575227,4219.173869,-11843.295072,4979.620737
2622.575554,1184.329507,-9844.739029,2298.286494
2622.575881,-222.061783,-9252.574275,-536.266849
2622.576209,0.000000,-9770.718434,-2068.457845
2622.576536,2294.638420,-9474.636058,-2145.067394
2622.576863,3182.885551,-10510.924376,76.609550
2622.577191,2294.638420,-10510.924376,3370.820191
2622.577518,-814.226536,-7994.224174,3140.991542
2622.577846,-2072.576638,-7328.038826,306.438199
2622.578173,-2368.659014,-6735.874072,-1532.190996
2622.578500,0.000000,-6365.771101,-1991.848295
2622.578828,2294.638420,-7846.182985,-612.876398
2622.579155,3404.947333,-11177.109724,2604.724693
2622.579483,1702.473667,-11473.192101,4290.134789
2622.579810,-888.247130,-10436.903782,2681.334243
2622.580137,-3404.947333,-10214.842000,-919.314598
2622.580465,-2738.761985,-11251.130318,-3753.867940
2622.580792,-740.205942,-11917.315666,-5362.668486
2622.581120,148.041188,-11991.336260,-2911.162892
2622.581447,-296.082377,-11695.253884,229.828649
2622.581775,-1850.514855,-10066.800811,1685.410096
2622.582102,-4885.359217,-7476.080014,689.485948
2622.582430,-4737.318029,-7105.977043,-1532.190996
2622.582757,-2294.638420,-7031.956449,-3294.210641
2622.583085,296.082377,-8142.265362,-2757.943793
2622.583412,1998.556043,-10436.903782,0.000000
2622.583740,1554.432478,-11991.336260,2451.505594
2622.584067,-1554.432478,-10288.862594,3217.601092
2622.584395,-3404.947333,-9622.677246,-229.828649
2622.584722,-3256.906145,-10584.944971,-3600.648841
2622.585050,-1332.370696,-11103.089130,-4519.963438
2622.585377,518.144159,-11399.171507,-3064.381992
2622.585705,444.123565,-11695.253884,383.047749
2622.586032,74.020594,-11029.068536,2451.505594
2622.586360,-1702.473667,-8068.244768,1455.581446
2622.586687,-2812.782580,-6957.935855,536.266849
2622.587015,-1110.308913,-6365.771101,-995.924147
2622.587342,2590.720797,-6365.771101,-2451.505594
2622.587670,4367.215058,-8956.491898,459.657299
2622.587997,3775.050304,-11177.109724,2987.772442
2622.588325,1776.494261,-10362.883188,4290.134789
2622.588652,-740.205942,-9252.574275,2298.286494
2622.588980,-1406.391290,-9548.656652,-1838.629195
2622.589307,222.061783,-11399.171507,-4673.182538
2622.589635,2516.700203,-11695.253884,-4060.306139
2622.589962,3034.844362,-11991.336260,229.828649
2622.590290,1924.535449,-11251.130318,2528.115143
2622.590617,-370.102971,-8660.409521,2604.724693
2622.590945,-1480.411884,-6883.915261,459.657299
2622.591272,-592.164754,-6513.812290,-1532.190996
2622.591600,1702.473667,-7179.997637,-2068.457845
2622.591927,3404.947333,-9178.553681,-459.657299
2622.592255,4885.359217,-12657.521608,2681.334243
2622.592582,3108.864956,-12435.459826,4290.134789
2622.592910,0.000000,-9918.759623,2068.457845
2622.593237,-592.164754,-11251.130318,-1838.629195
2622.593565,740.205942,-12583.501014,-3830.477490
2622.593892,2368.659014,-11177.109724,-4060.306139
2622.594220,4145.153275,-11769.274478,-1991.848295
2622.594547,3923.091493,-12435.459826,2757.943793
2622.594875,1184.329507,-9622.677246,3983.696590
2622.595202,-666.185348,-7476.080014,1455.581446
2622.595530,-2516.700203,-6661.853478,-1608.800546
2622.595857,-1184.329507,-6883.915261,-3524.039291
2622.596185,1998.556043,-7772.162391,-3370.820191
2622.596512,2886.803174,-10584.944971,306.438199
2622.596840,1332.370696,-12287.418637,4826.401637
2622.597167,148.041188,-9992.780217,3217.601092
2622.597495,-1332.370696,-9252.574275,-459.657299
2622.597822,-1628.453072,-11769.274478,-3447.429741
2622.598150,0.000000,-10881.027347,-3753.867940
2622.598477,1110.308913,-10436.903782,-1991.848295
2622.598805,0.000000,-11399.171507,1991.848295
2622.599132,-1850.514855,-9474.636058,3064.381992
2622.599460,-2738.761985,-6587.832884,1455.581446
2622.599787,-5699.585753,-5403.503377,0.000000
2622.600115,-4145.153275,-5847.626942,-1915.238745
2622.600442,-296.082377,-6587.832884,-3294.210641
2622.600770,888.247130,-9326.594869,-842.705048
2622.601097,592.164754,-10807.006753,2911.162892
2622.601425,74.020594,-10066.800811,3524.039291
2622.601752,-1776.494261,-8808.450710,1838.629195
2622.602080,-2294.638420,-10140.821405,-306.438199
2622.602407,-1258.350101,-12287.418637,-3830.477490
2622.602735,0.000000,-11769.274478,-3600.648841
2622.603062,0.000000,-12509.480420,-919.314598
2622.603390,-1184.329507,-11917.315666,536.266849
2622.603717,-2516.700203,-9474.636058,536.266849
2622.604045,-3923.091493,-7698.141797,-612.876398
2622.604372,-2072.576638,-6587.832884,-2757.943793
2622.604700,1110.308913,-6365.771101,-2757.943793
2622.605027,4219.173869,-9030.512492,-919.314598
2622.605355,4515.256246,-11695.253884,2757.943793
2622.605682,2812.782580,-11177.109724,4749.792088
2622.606010,1258.350101,-9326.594869,2834.553343
2622.606337,296.082377,-9844.739029,-919.314598
2622.606665,814.226536,-11473.192101,-2834.553343
2622.606992,2664.741391,-12139.377449,-3753.867940
2622.607320,2960.823768,-12731.542202,-1762.019645
2622.607647,1332.370696,-12583.501014,612.876398
2622.607975,-370.102971,-10436.903782,1608.800546
2622.608302,-2516.700203,-6883.915261,919.314598
2622.608630,-2812.782580,-5403.503377,-689.485948
2622.608957,666.185348,-4811.338623,-1532.190996
2622.609285,4367.215058,-7105.977043,-1072.533697
2622.609612,4441.235652,-10510.924376,2221.676944
2622.609940,3923.091493,-10955.047942,4366.744339
2622.610267,1258.350101,-9474.636058,3447.429741
2622.610595,-666.185348,-8660.409521,612.876398
2622.610922,296.082377,-11103.089130,-2987.772442
2622.611250,1480.411884,-12065.356855,-4213.525239
2622.611577,2960.823768,-11769.274478,-2451.505594
2622.611905,3034.844362,-13027.624579,383.047749
2622.612232,962.267725,-11399.171507,1838.629195
2622.612560,-1110.308913,-8512.368333,1072.533697
2622.612887,-1480.411884,-5995.668130,0.000000
2622.613215,-444.123565,-5107.421000,-1762.019645
2622.613542,2294.638420,-6809.894666,-2068.457845
2622.613870,4515.256246,-9770.718434,76.609550
2622.614197,2886.803174,-10436.903782,2987.772442
2622.614525,148.041188,-10288.862594,3217.601092
2622.614852,-1332.370696,-10584.944971,0.000000
2622.615180,-1924.535449,-11547.212695,-3447.429741
2622.615507,-740.205942,-13545.768739,-4903.011187
2622.615835,962.267725,-13693.809927,-2834.553343
2622.616162,1184.329507,-13101.645173,-306.438199
2622.616490,0.000000,-11843.295072,919.314598
2622.616817,-2960.823768,-8660.409521,1072.533697
2622.617145,-4737.318029,-5847.626942,76.609550
2622.617472,-3775.050304,-4737.318029,-1302.362347
2622.617800,-1036.288319,-5255.462188,-1225.752797
2622.618127,1110.308913,-7328.038826,-229.828649
2622.618455,1850.514855,-9918.759623,1838.629195
2622.618782,-444.123565,-9770.718434,3753.867940
2622.619110,-1850.514855,-9770.718434,2451.505594
2622.619437,-1628.453072,-10732.986159,-1149.143247
2622.619765,74.020594,-12657.521608,-3064.381992
2622.620092,1480.411884,-12731.542202,-4519.963438
2622.620420,1702.473667,-13101.645173,-919.314598
2622.620747,740.205942,-12731.542202,1762.019645
2622.621075,-1702.473667,-9252.574275,2298.286494
2622.621402,-3404.947333,-5773.606348,1072.533697
2622.621730,-3552.988522,-4589.276840,-536.266849
2622.622057,0.000000,-5107.421000,-1991.848295
2622.622385,2368.659014,-6957.935855,-919.314598
2622.622712,3849.070898,-9844.739029,1302.362347
2622.623040,2442.679609,-10732.986159,3753.867940
2622.623367,666.185348,-10288.862594,2604.724693
2622.623695,-518.144159,-10436.903782,-536.266849
2622.624022,0.000000,-11991.336260,-3217.601092
2622.624350,2368.659014,-12509.480420,-4060.306139
2622.624677,2664.741391,-13101.645173,-2451.505594
2622.625005,1850.514855,-13545.768739,919.314598
2622.625332,-1406.391290,-9918.759623,1378.971896
2622.625660,-3034.844362,-7328.038826,-689.485948
2622.625987,-3627.009116,-6661.853478,-1762.019645
2622.626315,-888.247130,-5773.606348,-2757.943793
2622.626642,2738.761985,-6365.771101,-2221.676944
2622.626970,4589.276840,-9844.739029,1838.629195
2622.627297,3997.112087,-11029.068536,4826.401637
2622.627625,2220.617826,-10658.965565,3753.867940
2622.627952,370.102971,-9918.759623,1378.971896
2622.628280,740.205942,-10881.027347,-2145.067394
2622.628607,2368.659014,-13101.645173,-3753.867940
2622.628935,2590.720797,-12953.603985,-2604.724693
2622.629262,2664.741391,-12731.542202,0.000000
2622.629590,888.247130,-10732.986159,1685.410096
2622.629917,-2146.597232,-7179.997637,842.705048
2622.630245,-2738.761985,-6735.874072,-383.047749
2622.630572,-740.205942,-5847.626942,-1608.800546
2622.630900,1924.535449,-4737.318029,-1608.800546
2622.631227,3997.112087,-7846.182985,1532.190996
2622.631555,3775.050304,-10510.924376,4903.011187
2622.631882,888.247130,-9622.677246,4826.401637
2622.632210,-1480.411884,-8882.471304,1915.238745
2622.632537,-2590.720797,-10214.842000,-2298.286494
2622.632865,-1554.432478,-13027.624579,-4519.963438
2622.633192,518.144159,-13619.789333,-3983.696590
2622.633520,740.205942,-13545.768739,-1838.629195
2622.633847,-962.267725,-12435.459826,995.924147
2622.634175,-3034.844362,-9030.512492,1072.533697
2622.634502,-4293.194464,-6661.853478,-612.876398
2622.634830,-3627.009116,-6217.729913,-1532.190996
2622.635157,74.020594,-5107.421000,-2068.457845
2622.635485,3478.967927,-7846.182985,-612.876398
2622.635812,3034.844362,-11103.089130,3600.648841
2622.636140,1480.411884,-10881.027347,3447.429741
2622.636467,-370.102971,-9326.594869,2451.505594
2622.636795,-2368.659014,-10362.883188,-919.314598
2622.637122,-814.226536,-12953.603985,-3983.696590
2622.637450,1258.350101,-13471.748144,-4673.182538
2622.637777,1406.391290,-12805.562797,-1915.238745
2622.638105,518.144159,-12657.521608,919.314598
2622.638432,-740.205942,-10510.924376,1762.019645
2622.638760,-2738.761985,-7105.977043,306.438199
2622.639087,-3182.885551,-5255.462188,-766.095498
2622.639415,222.061783,-5255.462188,-2604.724693
2622.639742,2960.823768,-7031.956449,-995.924147
2622.640070,3701.029710,-9548.656652,2987.772442
2622.640397,1998.556043,-10066.800811,4596.572988
2622.640725,74.020594,-9844.739029,2451.505594
2622.641052,-666.185348,-10436.903782,-995.924147
2622.641380,0.000000,-12213.398043,-3600.648841
2622.641707,1184.329507,-12657.521608,-3677.258390
2622.642035,3182.885551,-12435.459826,-1608.800546
2622.642362,2516.700203,-12213.398043,1455.581446
2622.642690,-888.247130,-9474.636058,1915.238745
2622.643017,-2960.823768,-7179.997637,612.876398
2622.643345,-3182.885551,-5699.585753,-842.705048
2622.643672,-1850.514855,-4663.297435,-2374.896044
2622.644000,1480.411884,-6809.894666,-2451.505594
2622.644327,3701.029710,-9992.780217,995.924147
2622.644655,3108.864956,-10881.027347,3677.258390
2622.644982,1850.514855,-11473.192101,3140.991542
2622.645310,-296.082377,-10807.006753,383.047749
2622.645637,-148.041188,-11843.295072,-2681.334243
2622.645965,1480.411884,-13101.645173,-4443.353888
2622.646292,2294.638420,-13397.727550,-2987.772442
2622.646620,2220.617826,-12583.501014,383.047749
2622.646947,1332.370696,-10807.006753,1838.629195
2622.647275,-814.226536,-8068.244768,612.876398
2622.647602,-3330.926739,-5699.585753,-536.266849
2622.647930,-1480.411884,-4811.338623,-2987.772442
2622.648257,666.185348,-5477.523971,-2757.943793
2622.648585,3182.885551,-9400.615463,76.609550
2622.648912,4441.235652,-11843.295072,3447.429741
2622.649240,2442.679609,-10732.986159,4903.011187
2622.649567,0.000000,-10140.821405,2528.115143
2622.649895,-370.102971,-12139.377449,-2221.676944
2622.650222,-592.164754,-12361.439231,-3524.039291
2622.650550,0.000000,-11103.089130,-3370.820191
2622.650877,518.144159,-11917.315666,-1685.410096
2622.651205,-1110.308913,-11695.253884,1149.143247
2622.651532,-3923.091493,-7179.997637,459.657299
2622.651860,-4589.276840,-5255.462188,-995.924147
2622.652187,-4293.194464,-4811.338623,-1532.190996
2622.652515,-592.164754,-5107.421000,-2987.772442
2622.652842,2812.782580,-9252.574275,-995.924147
2622.653170,3552.988522,-11399.171507,2987.772442
2622.653497,2368.659014,-10658.965565,4903.011187
2622.653825,1036.288319,-9844.739029,2911.162892
2622.654152,-1184.329507,-10362.883188,0.000000
2622.654480,-370.102971,-12139.377449,-2298.286494
2622.654807,1110.308913,-12361.439231,-3600.648841
2622.655135,814.226536,-12065.356855,-1608.800546
2622.655462,222.061783,-12287.418637,229.828649
2622.655790,-1406.391290,-9326.594869,536.266849
2622.656117,-4293.194464,-5921.647536,383.047749
2622.656445,-3701.029710,-5033.400406,-689.485948
2622.656772,148.041188,-5995.668130,-2604.724693
2622.657100,3034.844362,-7994.224174,-1608.800546
2622.657427,4663.297435,-10214.842000,2757.943793
2622.657755,3775.050304,-10732.986159,4213.525239
2622.658082,1036.288319,-11621.233289,3600.648841
2622.658410,-222.061783,-11399.171507,0.000000
2622.658737,0.000000,-11769.274478,-3064.381992
2622.659065,592.164754,-11547.212695,-3064.381992
2622.659392,2146.597232,-11843.295072,-2451.505594
2622.659720,1258.350101,-11991.336260,-612.876398
2622.660047,0.000000,-11103.089130,1378.971896
2622.660375,-2368.659014,-7105.977043,766.095498
2622.660702,-2960.823768,-5255.462188,-689.485948
2622.661030,-296.082377,-5921.647536,-1685.410096
2622.661357,3108.864956,-6957.935855,-2604.724693
2622.661685,4737.318029,-9178.553681,153.219100
2622.662012,3256.906145,-11621.233289,4519.963438
2622.662340,1628.453072,-11177.109724,4443.353888
2622.662667,-740.205942,-10214.842000,306.438199
2622.662995,-1998.556043,-11621.233289,-2757.943793
2622.663322,-666.185348,-12805.562797,-4979.620737
2622.663650,1110.308913,-12583.501014,-4366.744339
2622.663977,1406.391290,-13323.706956,-995.924147
2622.664305,-370.102971,-10881.027347,1532.190996
2622.664632,-1702.473667,-7402.059420,1149.143247
2622.664960,-2368.659014,-5921.647536,536.266849
2622.665287,-1184.329507,-4663.297435,-612.876398
2622.665615,1480.411884,-5033.400406,-1378.971896
2622.665942,3330.926739,-8660.409521,842.705048
2622.666270,3478.967927,-11769.274478,3830.477490
2622.666597,1850.514855,-11103.089130,3983.696590
2622.666925,-444.123565,-10807.006753,1149.143247
2622.667252,-1554.432478,-11695.253884,-2374.896044
2622.667580,-740.205942,-13471.748144,-4213.525239
2622.667907,592.164754,-13101.645173,-3370.820191
2622.668235,1554.432478,-12213.398043,-1608.800546
2622.668562,-296.082377,-10362.883188,995.924147
2622.668890,-2294.638420,-7254.018232,1149.143247
2622.669217,-4441.235652,-5255.462188,0.000000
2622.669545,-3404.947333,-5847.626942,-1072.533697
2622.669872,-296.082377,-5255.462188,-1685.410096
2622.670200,2368.659014,-7846.182985,-536.266849
2622.670527,2590.720797,-10881.027347,2145.067394
2622.670855,1406.391290,-11843.295072,3524.039291
2622.671182,-1036.288319,-10510.924376,1991.848295
2622.671510,-2146.597232,-10732.986159,-995.924147
2622.671837,-888.247130,-11843.295072,-3524.039291
2622.672165,1406.391290,-12657.521608,-3677.258390
2622.672492,2812.782580,-12435.459826,-995.924147
2622.672820,1702.473667,-10658.965565,2068.457845
2622.673147,0.000000,-8142.265362,2221.676944
2622.673475,-2146.597232,-6143.709319,153.219100
2622.673802,-2442.679609,-5699.585753,-1302.362347
2622.674130,296.082377,-5329.482782,-2374.896044
2622.674457,2960.823768,-7254.018232,-1762.019645
2622.674785,4959.379811,-11473.192101,919.314598
2622.675112,3034.844362,-12731.542202,4136.915689
2622.675440,444.123565,-11473.192101,2145.067394
2622.675767,-1258.350101,-10436.903782,0.000000
2622.676095,-518.144159,-11399.171507,-3753.867940
2622.676422,1554.432478,-12287.418637,-4136.915689
2622.676750,2368.659014,-11325.150913,-1762.019645
2622.677077,1406.391290,-11177.109724,1455.581446
2622.677405,74.020594,-9622.677246,1608.800546
2622.677732,-2294.638420,-7031.956449,229.828649
2622.678060,-3849.070898,-5181.441594,-1532.190996
2622.678387,-1998.556043,-5921.647536,-3064.381992
2622.678715,1258.350101,-7624.121203,-2528.115143
2622.679042,3849.070898,-11103.089130,0.000000
2622.679370,3849.070898,-13249.686362,3294.210641
2622.679697,1184.329507,-11547.212695,4366.744339
2622.680025,-740.205942,-10288.862594,1455.581446
2622.680352,-1480.411884,-10955.047942,-1915.238745
2622.680680,-518.144159,-11029.068536,-3907.087040
2622.681007,1628.453072,-10436.903782,-3677.258390
2622.681335,1850.514855,-11917.315666,-612.876398
2622.681663,814.226536,-11251.130318,2604.724693
2622.681990,-666.185348,-7402.059420,2451.505594
2622.682318,-1850.514855,-5181.441594,-229.828649
2622.682645,-888.247130,-6513.812290,-2221.676944
2622.682973,1924.535449,-6513.812290,-2068.457845
2622.683301,4515.256246,-9178.553681,0.000000
2622.683628,3923.091493,-11991.336260,3600.648841
2622.683956,2294.638420,-11843.295072,4749.792088
2622.684284,0.000000,-9548.656652,2298.286494
2622.684611,-2220.617826,-9622.677246,-1149.143247
2622.684939,-1850.514855,-11473.192101,-3370.820191
2622.685266,1554.432478,-12065.356855,-4443.353888
2622.685594,1110.308913,-11251.130318,-1378.971896
2622.685922,-1480.411884,-10066.800811,1762.019645
2622.686249,-2368.659014,-8956.491898,1378.971896
2622.686577,-3404.947333,-7105.977043,0.000000
2622.686905,-3627.009116,-5181.441594,-1991.848295
2622.687232,-1406.391290,-6439.791695,-2451.505594
2622.687560,1702.473667,-8586.388927,-1762.019645
2622.687887,2590.720797,-11843.295072,1838.629195
2622.688215,1184.329507,-11917.315666,3294.210641
2622.688543,-1406.391290,-10510.924376,1762.019645
2622.688870,-1924.535449,-10140.821405,-919.314598
2622.689198,-518.144159,-11843.295072,-4366.744339
2622.689526,1406.391290,-12657.521608,-3524.039291
2622.689853,2146.597232,-12287.418637,-1225.752797
2622.690181,2664.741391,-12065.356855,1532.190996
2622.690508,814.226536,-10288.862594,2298.286494
2622.690836,-1554.432478,-7105.977043,1608.800546
2622.691164,-1036.288319,-5551.544565,-766.095498
2622.691491,0.000000,-5403.503377,-1608.800546
2622.691819,2516.700203,-7476.080014,-612.876398
2622.692147,3997.112087,-10140.821405,1149.143247
2622.692474,1850.514855,-11473.192101,3677.258390
2622.692802,-444.123565,-10658.965565,3064.381992
2622.693129,-1702.473667,-9992.780217,-842.705048
2622.693457,-962.267725,-11029.068536,-3753.867940
2622.693785,1110.308913,-11917.315666,-4060.306139
2622.694112,2664.741391,-11547.212695,-2298.286494
2622.694440,2442.679609,-11843.295072,1455.581446
2622.694768,296.082377,-9696.697840,3064.381992
2622.695095,-1554.432478,-6143.709319,1455.581446
2622.695423,-1702.473667,-5847.626942,-153.219100
2622.695750,-444.123565,-5255.462188,-1532.190996
2622.696078,2146.597232,-5699.585753,-1838.629195
2622.696406,3701.029710,-9770.718434,612.876398
2622.696733,2812.782580,-11991.336260,3064.381992
2622.697061,222.061783,-11029.068536,2834.553343
2622.697389,-1332.370696,-10584.944971,0.000000
2622.697716,-1702.473667,-11251.130318,-2528.115143
2622.698044,370.102971,-11843.295072,-4443.353888
2622.698371,2072.576638,-12139.377449,-2528.115143
2622.698699,2442.679609,-12509.480420,612.876398
2622.699027,1036.288319,-11473.192101,2451.505594
2622.699354,-962.267725,-8956.491898,1455.581446
2622.699682,-2516.700203,-5625.565159,-842.705048
2622.700010,-2368.659014,-5033.400406,-2911.162892
2622.700337,592.164754,-7105.977043,-2604.724693
2622.700665,2812.782580,-8512.368333,306.438199
2622.700992,3775.050304,-11769.274478,3370.820191
2622.701320,1776.494261,-11621.233289,4213.525239
2622.701648,-740.205942,-10436.903782,1915.238745
2622.701975,-1258.350101,-9918.759623,-1991.848295
2622.702303,-518.144159,-10214.842000,-3524.039291
2622.702631,888.247130,-11251.130318,-2757.943793
2622.702958,2590.720797,-11621.233289,-306.438199
2622.703286,888.247130,-11103.089130,2681.334243
2622.703613,-2664.741391,-8882.471304,2757.943793
2622.703941,-3478.967927,-7476.080014,0.000000
2622.704269,-3849.070898,-5995.668130,-2757.943793
2622.704596,-2220.617826,-6069.688724,-3753.867940
2622.704924,1258.350101,-7994.224174,-2757.943793
2622.705252,2960.823768,-11547.212695,842.705048
2622.705579,2072.576638,-11177.109724,4519.963438
2622.705907,-518.144159,-9696.697840,3294.210641
2622.706234,-1850.514855,-9178.553681,0.000000
2622.706562,-1406.391290,-10288.862594,-2987.772442
2622.706890,370.102971,-11029.068536,-4290.134789
2622.707217,1776.494261,-11547.212695,-2451.505594
2622.707545,1554.432478,-11695.253884,1072.533697
2622.707873,888.247130,-11325.150913,2451.505594
2622.708200,-592.164754,-8142.265362,1225.752797
2622.708528,-1776.494261,-6513.812290,-842.705048
2622.708855,-222.061783,-6883.915261,-2451.505594
2622.709183,2146.597232,-8290.306550,-2298.286494
2622.709511,4145.153275,-9992.780217,919.314598
2622.709838,2812.782580,-10658.965565,3677.258390
2622.710166,370.102971,-9104.533087,4979.620737
2622.710494,-740.205942,-8808.450710,1302.362347
2622.710821,-888.247130,-10510.924376,-2604.724693
2622.711149,444.123565,-12583.501014,-3447.429741
2622.711476,2146.597232,-12213.398043,-2528.115143
2622.711804,1924.535449,-12065.356855,-689.485948
2622.712132,-444.123565,-10807.006753,2068.457845
2622.712459,-1850.514855,-8734.430116,689.485948
2622.712787,-1924.535449,-7624.121203,-536.266849
2622.713115,-1480.411884,-5995.668130,-1685.410096
2622.713442,1924.535449,-6661.853478,-2451.505594
2622.713770,4663.297435,-9178.553681,-459.657299
2622.714097,3034.844362,-11103.089130,4136.915689
2622.714425,222.061783,-9548.656652,4366.744339
2622.714753,-962.267725,-9400.615463,612.876398
2622.715080,-2368.659014,-10066.800811,-2528.115143
2622.715408,-148.041188,-11621.233289,-4213.525239
2622.715736,2590.720797,-12139.377449,-3753.867940
2622.716063,2664.741391,-13249.686362,-766.095498
2622.716391,1776.494261,-13249.686362,2911.162892
2622.716718,0.000000,-9178.553681,1991.848295
2622.717046,-2368.659014,-6217.729913,-383.047749
2622.717374,-2368.659014,-5329.482782,-2298.286494
2622.717701,222.061783,-5551.544565,-2681.334243
2622.718029,2442.679609,-7698.141797,-459.657299
2622.718357,2664.741391,-10658.965565,2451.505594
2622.718684,1036.288319,-10510.924376,4213.525239
2622.719012,-962.267725,-8882.471304,2757.943793
2622.719339,-1702.473667,-9474.636058,-1915.238745
2622.719667,-888.247130,-12361.439231,-4749.792088
2622.719995,296.082377,-13545.768739,-3983.696590
2622.720322,2220.617826,-13101.645173,-1838.629195
2622.720650,1406.391290,-12657.521608,1762.019645
2622.720977,-1184.329507,-9178.553681,3447.429741
2622.721305,-2442.679609,-6143.709319,1685.410096
2622.721633,-3182.885551,-5329.482782,-1455.581446
2622.721960,-2294.638420,-5403.503377,-2757.943793
2622.722288,1184.329507,-7105.977043,-2604.724693
2622.722616,2886.803174,-9474.636058,766.095498
2622.722943,592.164754,-9992.780217,3447.429741
2622.723271,-888.247130,-9400.615463,3447.429741
2622.723598,-1554.432478,-9622.677246,-459.657299
2622.723926,-1258.350101,-11917.315666,-3140.991542
2622.724254,1702.473667,-13915.871710,-4290.134789
2622.724581,3034.844362,-13249.686362,-2374.896044
2622.724909,2220.617826,-13027.624579,1838.629195
2622.725237,370.102971,-11029.068536,3370.820191
2622.725564,-1850.514855,-6809.894666,2221.676944
2622.725892,-3182.885551,-4145.153275,-536.266849
2622.726219,-1776.494261,-4293.194464,-2681.334243
2622.726547,740.205942,-6217.729913,-2221.676944
2622.726875,3478.967927,-9844.739029,0.000000
2622.727202,3330.926739,-11251.130318,3830.477490
2622.727530,740.205942,-9474.636058,4443.353888
2622.727858,518.144159,-10807.006753,1302.362347
2622.728185,814.226536,-12213.398043,-2757.943793
2622.728513,1110.308913,-12509.480420,-3064.381992
2622.728840,3034.844362,-11917.315666,-2834.553343
2622.729168,3108.864956,-12435.459826,-612.876398
2622.729496,148.041188,-11399.171507,2068.457845
2622.729823,-2220.617826,-8438.347739,2068.457845
2622.730151,-4293.194464,-5033.400406,-459.657299
2622.730479,-3330.926739,-5699.585753,-2834.553343
2622.730806,518.144159,-6587.832884,-3600.648841
2622.731134,3034.844362,-8068.244768,-1762.019645
2622.731461,2368.659014,-10807.006753,3294.210641
2622.731789,1628.453072,-11547.212695,4826.401637
2622.732117,-518.144159,-10066.800811,2068.457845
2622.732444,-1036.288319,-11029.068536,-995.924147
2622.732772,296.082377,-12731.542202,-3753.867940
2622.733100,1554.432478,-11991.336260,-3830.477490
2622.733427,1998.556043,-13027.624579,-1685.410096
2622.733755,296.082377,-13397.727550,1225.752797
2622.734082,-888.247130,-10436.903782,1838.629195
2622.734410,-3108.864956,-5921.647536,0.000000
2622.734738,-3330.926739,-4515.256246,-689.485948
2622.735065,-666.185348,-5477.523971,-2604.724693
2622.735393,2442.679609,-7031.956449,-1225.752797
2622.735721,3775.050304,-9844.739029,2528.115143
2622.736048,2072.576638,-9474.636058,5286.058936
2622.736376,740.205942,-9252.574275,4060.306139
2622.736703,-296.082377,-9474.636058,153.219100
2622.737031,-518.144159,-11621.233289,-2681.334243
2622.737359,1406.391290,-12879.583391,-4749.792088
2622.737686,2072.576638,-13101.645173,-2298.286494
2622.738014,444.123565,-12583.501014,-153.219100
2622.738342,-1480.411884,-10658.965565,1149.143247
2622.738669,-2368.659014,-7402.059420,766.095498
2622.738997,-2886.803174,-4293.194464,-306.438199
2622.739324,-1628.453072,-4663.297435,-1991.848295
2622.739652,1702.473667,-7179.997637,-2221.676944
2622.739980,3849.070898,-9474.636058,383.047749
2622.740307,2220.617826,-10066.800811,3830.477490
2622.740635,-888.247130,-9474.636058,4673.182538
2622.740963,-1776.494261,-10066.800811,1225.752797
2622.741290,-1406.391290,-11991.336260,-3217.601092
2622.741618,0.000000,-13767.830521,-5745.716235
2622.741945,888.247130,-14285.974681,-4443.353888
2622.742273,888.247130,-13693.809927,-1149.143247
2622.742601,0.000000,-12139.377449,1072.533697
2622.742928,-2072.576638,-8142.265362,1072.533697
2622.743256,-2294.638420,-5107.421000,0.000000
2622.743584,-814.226536,-4589.276840,-1072.533697
2622.743911,2590.720797,-6143.709319,-1302.362347
2622.744239,5181.441594,-9400.615463,0.000000
2622.744566,4219.173869,-10807.006753,3447.429741
2622.744894,1702.473667,-10807.006753,4060.306139
2622.745222,0.000000,-9844.739029,1762.019645
2622.745549,-370.102971,-10807.006753,-766.095498
2622.745877,1184.329507,-13027.624579,-3447.429741
2622.746205,3108.864956,-13175.665768,-3140.991542
2622.746532,2146.597232,-12139.377449,-995.924147
2622.746860,-296.082377,-11177.109724,1762.019645
2622.747187,-2294.638420,-8512.368333,1532.190996
2622.747515,-3478.967927,-5033.400406,612.876398
2622.747843,-3034.844362,-3552.988522,-1838.629195
2622.748170,-370.102971,-4367.215058,-2757.943793
2622.748498,2368.659014,-7772.162391,-1225.752797
2622.748826,3552.988522,-11325.150913,2374.896044
2622.749153,1406.391290,-10732.986159,4519.963438
2622.749481,-888.247130,-10066.800811,2604.724693
2622.749808,-592.164754,-11843.295072,-1378.971896
2622.750136,148.041188,-12657.521608,-4213.525239
2622.750464,1924.535449,-13027.624579,-4290.134789
2622.750791,2590.720797,-13619.789333,-1762.019645
2622.751119,1554.432478,-12583.501014,306.438199
2622.751447,-1184.329507,-9548.656652,2145.067394
2622.751774,-3330.926739,-5847.626942,536.266849
2622.752102,-3478.967927,-4145.153275,-1915.238745
2622.752429,-1406.391290,-4811.338623,-3140.991542
2622.752757,1998.556043,-8068.244768,-2451.505594
2622.753085,3034.844362,-11399.171507,1225.752797
2622.753412,1998.556043,-12065.356855,4443.353888
2622.753740,0.000000,-10436.903782,3294.210641
2622.754068,0.000000,-11695.253884,0.000000
2622.754395,-518.144159,-12583.501014,-2834.553343
2622.754723,666.185348,-12953.603985,-3677.258390
2622.755050,1554.432478,-12361.439231,-2681.334243
2622.755378,518.144159,-11473.192101,306.438199
2622.755706,-1480.411884,-9104.533087,2145.067394
2622.756033,-3627.009116,-5773.606348,1838.629195
2622.756361,-4589.276840,-4145.153275,0.000000
2622.756689,-2590.720797,-4071.132681,-2834.553343
2622.757016,1258.350101,-7031.956449,-3140.991542
2622.757344,3404.947333,-10362.883188,536.266849
2622.757671,4219.173869,-11843.295072,5132.839837
2622.757999,1258.350101,-10288.862594,5669.106685
2622.758327,-740.205942,-10214.842000,2528.115143
2622.758654,-444.123565,-12065.356855,-2757.943793
2622.758982,592.164754,-13027.624579,-5056.230287
2622.759310,740.205942,-12435.459826,-4060.306139
2622.759637,1110.308913,-12805.562797,-1072.533697
2622.759965,-444.123565,-11029.068536,1838.629195
2622.760292,-2812.782580,-6069.688724,1608.800546
2622.760620,-3182.885551,-4663.297435,-689.485948
2622.760948,-2886.803174,-4515.256246,-1991.848295
2622.761275,1110.308913,-6291.750507,-2528.115143
2622.761603,4663.297435,-9252.574275,-1149.143247
2622.761931,4515.256246,-11843.295072,3677.258390
2622.762258,2886.803174,-11325.150913,5286.058936
2622.762586,1924.535449,-10288.862594,3600.648841
2622.762913,222.061783,-11399.171507,-306.438199
2622.763241,444.123565,-13989.892304,-3753.867940
2622.763569,1850.514855,-13101.645173,-4903.011187
2622.763896,888.247130,-12065.356855,-2757.943793
2622.764224,-666.185348,-11547.212695,0.000000
2622.764551,-1850.514855,-7698.141797,1302.362347
2622.764879,-3330.926739,-4515.256246,229.828649
2622.765207,-2590.720797,-4737.318029,-766.095498
2622.765534,592.164754,-5329.482782,-1991.848295
2622.765862,3701.029710,-8512.368333,-1378.971896
2622.766190,4145.153275,-11769.274478,2757.943793
2622.766517,2738.761985,-11399.171507,4673.182538
2622.766845,74.020594,-10436.903782,2987.772442
2622.767172,-1332.370696,-10955.047942,76.609550
2622.767500,-296.082377,-12361.439231,-3524.039291
2622.767828,1110.308913,-12805.562797,-4903.011187
2622.768155,1258.350101,-12879.583391,-3447.429741
2622.768483,1628.453072,-12879.583391,0.000000
2622.768811,-592.164754,-9030.512492,2834.553343
2622.769138,-2812.782580,-3923.091493,1838.629195
2622.769466,-2146.597232,-3627.009116,-306.438199
2622.769793,592.164754,-5921.647536,-2068.457845
2622.770121,3330.926739,-7105.977043,-1378.971896
2622.770449,4737.318029,-11029.068536,1455.581446
2622.770776,3182.885551,-11843.295072,4749.792088
2622.771104,518.144159,-10732.986159,3830.477490
2622.771432,-888.247130,-11177.109724,612.876398
2622.771759,-2294.638420,-12435.459826,-3064.381992
2622.772087,222.061783,-13101.645173,-5286.058936
2622.772414,2220.617826,-13027.624579,-4673.182538
2622.772742,444.123565,-11695.253884,-153.219100
2622.773070,-1406.391290,-8956.491898,2374.896044
2622.773397,-2368.659014,-6291.750507,1838.629195
2622.773725,-4145.153275,-4293.194464,153.219100
2622.774053,-2590.720797,-4367.215058,-2068.457845
2622.774380,1184.329507,-6883.915261,-3140.991542
2622.774708,2442.679609,-10658.965565,0.000000
2622.775035,2664.741391,-12509.480420,3677.258390
2622.775363,666.185348,-10955.047942,3983.696590
2622.775691,-1258.350101,-11029.068536,1532.190996
2622.776018,-814.226536,-11917.315666,-1838.629195
2622.776346,148.041188,-11991.336260,-4596.572988
2622.776674,814.226536,-11103.089130,-2834.553343
2622.777001,1110.308913,-11177.109724,-383.047749
2622.777329,296.082377,-9770.718434,1608.800546
2622.777656,-2516.700203,-6735.874072,2374.896044
2622.777984,-3627.009116,-5107.421000,612.876398
2622.778312,-1924.535449,-5699.585753,-2221.676944
2622.778639,1332.370696,-7846.182985,-3524.039291
2622.778967,3701.029710,-10510.924376,-1455.581446
2622.779295,3552.988522,-13027.624579,2145.067394
2622.779622,1776.494261,-11621.233289,4903.011187
2622.779950,370.102971,-10214.842000,3447.429741
2622.780277,-1406.391290,-10362.883188,0.000000
2622.780605,-814.226536,-11917.315666,-3140.991542
2622.780933,1924.535449,-11621.233289,-3447.429741
2622.781260,1924.535449,-10066.800811,-919.314598
2622.781588,666.185348,-10140.821405,1378.971896
2622.781916,-962.267725,-7994.224174,2221.676944
2622.782243,-2146.597232,-6069.688724,383.047749
2622.782571,-1184.329507,-5699.585753,-1685.410096
2622.782898,1480.411884,-6883.915261,-3140.991542
2622.783227,4145.153275,-10066.800811,-2221.676944
2622.783555,4737.318029,-13027.624579,2681.334243
2622.783882,2886.803174,-11843.295072,4443.353888
2622.784210,0.000000,-10140.821405,3830.477490
2622.784537,-1406.391290,-10436.903782,459.657299
2622.784865,0.000000,-11473.192101,-3600.648841
2622.785193,370.102971,-11695.253884,-4903.011187
2622.785520,518.144159,-11399.171507,-2451.505594
2622.785848,1184.329507,-11843.295072,383.047749
2622.786175,-666.185348,-8956.491898,2068.457845
2622.786503,-3108.864956,-5033.400406,689.485948
2622.786831,-2442.679609,-5847.626942,-1532.190996
2622.787158,74.020594,-7328.038826,-2834.553343
2622.787486,3478.967927,-8734.430116,-1838.629195
2622.787813,4367.215058,-11843.295072,1149.143247
2622.788141,2886.803174,-11917.315666,4443.353888
2622.788468,74.020594,-10066.800811,4519.963438
2622.788796,-1332.370696,-9844.739029,842.705048
2622.789124,-2442.679609,-10214.842000,-2451.505594
2622.789451,-888.247130,-11399.171507,-4366.744339
2622.789779,1628.453072,-11473.192101,-3677.258390
2622.790106,74.020594,-10807.006753,0.000000
2622.790434,-518.144159,-9400.615463,2604.724693
2622.790761,-2072.576638,-5847.626942,1608.800546
2622.791089,-3256.906145,-5181.441594,0.000000
2622.791417,-1480.411884,-6883.915261,-2068.457845
2622.791744,2368.659014,-7846.182985,-2604.724693
2622.792072,4367.215058,-10881.027347,76.609550
2622.792399,3701.029710,-13323.706956,3983.696590
2622.792727,518.144159,-10881.027347,4519.963438
2622.793055,-740.205942,-9622.677246,1225.752797
2622.793382,-2368.659014,-10362.883188,-2068.457845
2622.793710,-296.082377,-12065.356855,-4673.182538
2622.794037,1184.329507,-12509.480420,-4290.134789
2622.794365,1110.308913,-11621.233289,-536.266849
2622.794692,666.185348,-10288.862594,2451.505594
2622.795020,-962.267725,-7698.141797,3294.210641
2622.795348,-3330.926739,-4663.297435,1149.143247
2622.795675,-1998.556043,-5699.585753,-2298.286494
2622.796003,666.185348,-7920.203579,-3447.429741
2622.796330,2368.659014,-9326.594869,-1915.238745
2622.796658,3404.947333,-10658.965565,2604.724693
2622.796985,1406.391290,-11177.109724,4826.401637
2622.797313,0.000000,-10658.965565,2911.162892
2622.797641,-1036.288319,-10362.883188,-689.485948
2622.797968,-518.144159,-11843.295072,-3907.087040
2622.798296,2294.638420,-12657.521608,-4903.011187
2622.798623,3404.947333,-11843.295072,-1991.848295
2622.798951,1110.308913,-9992.780217,2604.724693
2622.799279,-1110.308913,-7920.203579,2987.772442
2622.799606,-1184.329507,-6143.709319,1685.410096
2622.799934,-1628.453072,-5107.421000,-1149.143247
2622.800261,-444.123565,-6217.729913,-2451.505594
2622.800589,1850.514855,-8882.471304,-1991.848295
2622.800916,2442.679609,-11621.233289,459.657299
2622.801244,666.185348,-11399.171507,3140.991542
2622.801572,-1850.514855,-10658.965565,2604.724693
2622.801899,-2294.638420,-10288.862594,-459.657299
2622.802227,-1036.288319,-11473.192101,-3830.477490
2622.802554,740.205942,-12583.501014,-4060.306139
2622.802882,1702.473667,-11917.315666,-2221.676944
2622.803210,1110.308913,-11177.109724,919.314598
2622.803537,-222.061783,-8660.409521,2451.505594
2622.803865,-1628.453072,-6217.729913,1915.238745
2622.804192,-2146.597232,-5699.585753,-1072.533697
2622.804520,-444.123565,-7105.977043,-2681.334243
2622.804847,2590.720797,-8142.265362,-2374.896044
2622.805175,4145.153275,-10584.944971,0.000000
2622.805503,2368.659014,-12213.398043,3677.258390
2622.805830,666.185348,-11769.274478,3370.820191
2622.806158,-740.205942,-9918.759623,689.485948
2622.806485,-1110.308913,-10732.986159,-2681.334243
2622.806813,0.000000,-12065.356855,-3907.087040
2622.807140,2072.576638,-12065.356855,-2834.553343
2622.807468,1554.432478,-11399.171507,383.047749
2622.807796,-814.226536,-9474.636058,2681.334243
2622.808123,-2072.576638,-7772.162391,1455.581446
2622.808451,-3330.926739,-6143.709319,-1149.143247
2622.808778,-2072.576638,-5921.647536,-1762.019645
2622.809106,814.226536,-7476.080014,-2757.943793
2622.809434,3182.885551,-10732.986159,-766.095498
2622.809761,3552.988522,-11621.233289,2757.943793
2622.810089,1850.514855,-10362.883188,3907.087040
2622.810416,0.000000,-9326.594869,2834.553343
2622.810744,-1184.329507,-10066.800811,0.000000
2622.811071,-222.061783,-10584.944971,-2987.772442
2622.811399,1702.473667,-10807.006753,-3753.867940
2622.811727,1480.411884,-11621.233289,-1762.019645
2622.812054,148.041188,-11917.315666,1378.971896
2622.812382,-962.267725,-9030.512492,1838.629195
2622.812709,-1332.370696,-6439.791695,-306.438199
2622.813037,-814.226536,-6217.729913,-2834.553343
2622.813365,1702.473667,-7624.121203,-2757.943793
2622.813692,3997.112087,-9844.739029,-766.095498
2622.814020,4367.215058,-11843.295072,2374.896044
2622.814347,2368.659014,-10881.027347,3830.477490
2622.814675,-592.164754,-9474.636058,2221.676944
2622.815002,-2812.782580,-9770.718434,-1225.752797
2622.815330,-2368.659014,-10436.903782,-3677.258390
2622.815658,444.123565,-11325.150913,-3907.087040
2622.815985,1258.350101,-11843.295072,-2451.505594
2622.816313,370.102971,-11843.295072,536.266849
2622.816640,-444.123565,-9770.718434,1762.019645
2622.816968,-1554.432478,-7105.977043,1072.533697
2622.817295,-1628.453072,-5921.647536,0.000000
2622.817623,74.020594,-5847.626942,-1838.629195
2622.817951,2516.700203,-7179.997637,-1608.800546
2622.818278,3552.988522,-10436.903782,1455.581446
2622.818606,1628.453072,-11103.089130,4213.525239
2622.818933,-1110.308913,-10214.842000,3753.867940
2622.819261,-2442.679609,-9474.636058,229.828649
2622.819589,-2368.659014,-10288.862594,-2987.772442
2622.819916,-1036.288319,-11843.295072,-4519.963438
2622.820244,1258.350101,-12583.501014,-3140.991542
2622.820571,1110.308913,-11991.336260,459.657299
2622.820899,0.000000,-10214.842000,2757.943793
2622.821226,-1554.432478,-7328.038826,2298.286494
2622.821554,-2442.679609,-5699.585753,459.657299
2622.821882,-814.226536,-5329.482782,-1608.800546
2622.822209,1554.432478,-6513.812290,-1991.848295
2622.822537,3182.885551,-9474.636058,76.609550
2622.822864,2590.720797,-11399.171507,3370.820191
2622.823192,0.000000,-10362.883188,3753.867940
2622.823520,-1850.514855,-9030.512492,842.705048
2622.823847,-1480.411884,-11621.233289,-3447.429741
2622.824175,370.102971,-13175.665768,-4673.182538
2622.824502,2368.659014,-12361.439231,-3217.601092
2622.824830,2368.659014,-12435.459826,-766.095498
2622.825157,962.267725,-11473.192101,1838.629195
2622.825485,-1332.370696,-8216.285956,2221.676944
2622.825813,-2960.823768,-5625.565159,76.609550
2622.826140,-2442.679609,-5921.647536,-2374.896044
2622.826468,296.082377,-6809.894666,-3677.258390
2622.826795,3034.844362,-9474.636058,-1685.410096
2622.827123,3108.864956,-11769.274478,1302.362347
2622.827450,1184.329507,-11251.130318,3447.429741
2622.827778,-592.164754,-10288.862594,1685.410096
2622.828106,-1036.288319,-10288.862594,-1532.190996
2622.828433,0.000000,-12361.439231,-3447.429741
2622.828761,2664.741391,-13471.748144,-3370.820191
2622.829088,3330.926739,-12879.583391,-383.047749
2622.829416,2294.638420,-11621.233289,2911.162892
2622.829744,-518.144159,-7476.080014,3907.087040
2622.830071,-1924.535449,-5847.626942,1225.752797
2622.830399,-2146.597232,-4663.297435,-1225.752797
2622.830726,-222.061783,-4737.318029,-3140.991542
2622.831054,2886.803174,-8216.285956,-2145.067394
2622.831381,3997.112087,-11251.130318,1762.019645
2622.831709,1850.514855,-10214.842000,4443.353888
2622.832037,888.247130,-10732.986159,2987.772442
2622.832364,-518.144159,-10510.924376,0.000000
2622.832692,666.185348,-12583.501014,-3447.429741
2622.833019,2516.700203,-13397.727550,-3447.429741
2622.833347,2368.659014,-12509.480420,-1685.410096
2622.833675,1480.411884,-10955.047942,1685.410096
2622.834002,-1332.370696,-9622.677246,2757.943793
2622.834330,-4589.276840,-5033.400406,1302.362347
2622.834657,-4811.338623,-4293.194464,-1532.190996
2622.834985,-2220.617826,-5181.441594,-3447.429741
2622.835312,666.185348,-7772.162391,-3370.820191
2622.835640,3182.885551,-11325.150913,0.000000
2622.835968,3404.947333,-11843.295072,3907.087040
2622.836295,888.247130,-10510.924376,3064.381992
2622.836623,0.000000,-11029.068536,229.828649
2622.836950,-888.247130,-11917.315666,-2911.162892
2622.837278,666.185348,-13101.645173,-4213.525239
2622.837605,1406.391290,-13397.727550,-3447.429741
2622.837933,1110.308913,-13397.727550,-1225.752797
2622.838261,-1036.288319,-11769.274478,2221.676944
2622.838588,-1998.556043,-8068.244768,1608.800546
2622.838916,-3182.885551,-5847.626942,-842.705048
2622.839243,-2590.720797,-5477.523971,-2528.115143
2622.839571,666.185348,-5921.647536,-2834.553343
2622.839899,3256.906145,-8956.491898,-153.219100
2622.840226,3034.844362,-10584.944971,4213.525239
2622.840554,740.205942,-9696.697840,5822.325785
2622.840881,-296.082377,-8882.471304,3140.991542
2622.841209,-1036.288319,-10066.800811,-919.314598
2622.841536,0.000000,-13027.624579,-4213.525239
2622.841864,666.185348,-14137.933492,-4290.134789
2622.842192,296.082377,-13101.645173,-1991.848295
2622.842519,-1036.288319,-11621.233289,689.485948
2622.842847,-3330.926739,-7920.203579,1915.238745
2622.843174,-3108.864956,-5255.462188,1149.143247
2622.843502,-2960.823768,-4515.256246,0.000000
2622.843829,148.041188,-5107.421000,-1915.238745
2622.844157,3256.906145,-7402.059420,-919.314598
2622.844485,4145.153275,-9992.780217,2451.505594
2622.844812,1850.514855,-9548.656652,4749.792088
2622.845140,148.041188,-9400.615463,3677.258390
2622.845467,592.164754,-10881.027347,-229.828649
2622.845795,1628.453072,-12731.542202,-4060.306139
2622.846123,2442.679609,-14211.954086,-4749.792088
2622.846450,2294.638420,-14211.954086,-2911.162892
2622.846778,1850.514855,-14285.974681,229.828649
2622.847105,-222.061783,-10881.027347,1455.581446
2622.847433,-1998.556043,-5847.626942,689.485948
2622.847760,-2368.659014,-4737.318029,-995.924147
2622.848088,0.000000,-5107.421000,-2604.724693
2622.848416,2664.741391,-7105.977043,-1838.629195
2622.848743,3701.029710,-10066.800811,1838.629195
2622.849071,3256.906145,-10584.944971,4366.744339
2622.849398,1110.308913,-10658.965565,3600.648841
2622.849726,-370.102971,-11251.130318,612.876398
2622.850054,-592.164754,-12805.562797,-2451.505594
2622.850381,666.185348,-13619.789333,-5056.230287
2622.850709,2220.617826,-13471.748144,-4213.525239
2622.851036,518.144159,-12583.501014,0.000000
2622.851364,-1628.453072,-10288.862594,2987.772442
2622.851691,-2738.761985,-6513.812290,2068.457845
2622.852019,-3775.050304,-3701.029710,0.000000
2622.852347,-2516.700203,-3997.112087,-1762.019645
2622.852674,1628.453072,-5699.585753,-2298.286494
2622.853002,3034.844362,-9326.594869,383.047749
2622.853329,3701.029710,-11177.109724,3370.820191
2622.853657,1702.473667,-10436.903782,3907.087040
2622.853984,148.041188,-10807.006753,2145.067394
2622.854312,518.144159,-12065.356855,-1072.533697
2622.854640,1258.350101,-12361.439231,-3064.381992
2622.854967,1924.535449,-12805.562797,-3294.210641
2622.855295,1776.494261,-13101.645173,-1149.143247
2622.855622,74.020594,-11177.109724,1302.362347
2622.855950,-2664.741391,-6661.853478,1838.629195
2622.856278,-4071.132681,-4145.153275,0.000000
2622.856605,-3108.864956,-4589.276840,-1991.848295
2622.856933,-370.102971,-5255.462188,-3217.601092
2622.857260,2442.679609,-8364.327145,-1838.629195
2622.857588,3478.967927,-11399.171507,2987.772442
2622.857915,1628.453072,-11399.171507,4596.572988
2622.858243,962.267725,-11399.171507,2451.505594
2622.858571,74.020594,-12139.377449,-1225.752797
2622.858898,0.000000,-12583.501014,-3983.696590
2622.859226,1406.391290,-13101.645173,-4136.915689
2622.859553,1258.350101,-12509.480420,-2221.676944
2622.859881,-666.185348,-11399.171507,1455.581446
2622.860209,-2738.761985,-7920.203579,1915.238745
2622.860536,-4367.215058,-5477.523971,0.000000
2622.860864,-4145.153275,-5403.503377,-2298.286494
2622.861191,-1258.350101,-5551.544565,-2987.772442
2622.861519,2146.597232,-7254.018232,-2145.067394
2622.861846,3627.009116,-11103.089130,2834.553343
2622.862174,2590.720797,-12213.398043,4596.572988
2622.862502,962.267725,-10658.965565,3830.477490
2622.862829,-518.144159,-10140.821405,995.924147
2622.863157,0.000000,-11621.233289,-2451.505594
2622.863484,1258.350101,-12657.521608,-3677.258390
2622.863812,962.267725,-11917.315666,-2145.067394
2622.864139,962.267725,-13101.645173,76.609550
2622.864467,-592.164754,-9844.739029,1225.752797
2622.864795,-3182.885551,-5255.462188,842.705048
2622.865122,-3108.864956,-4885.359217,-536.266849
2622.865450,-1702.473667,-5181.441594,-1685.410096
2622.865777,2146.597232,-6809.894666,-2068.457845
2622.866105,3923.091493,-9400.615463,1072.533697
2622.866433,3701.029710,-11473.192101,4519.963438
2622.866760,2442.679609,-10510.924376,5286.058936
2622.867088,1998.556043,-10658.965565,2221.676944
2622.867415,888.247130,-12065.356855,-1991.848295
2622.867743,1480.411884,-13841.851115,-4213.525239
2622.868070,2220.617826,-13027.624579,-4060.306139
2622.868398,296.082377,-11917.315666,-3064.381992
2622.868726,-2294.638420,-9992.780217,842.705048
2622.869053,-3330.926739,-6587.832884,306.438199
2622.869381,-4441.235652,-4367.215058,-1225.752797
2622.869708,-2960.823768,-5329.482782,-1915.238745
2622.870036,1480.411884,-6587.832884,-2374.896044
2622.870364,4293.194464,-9104.533087,-306.438199
2622.870691,4367.215058,-11621.233289,3524.039291
2622.871019,2368.659014,-10362.883188,4060.306139
2622.871346,814.226536,-10066.800811,1685.410096
2622.871674,296.082377,-12139.377449,-1072.533697
2622.872001,1036.288319,-13323.706956,-3140.991542
2622.872329,1480.411884,-12213.398043,-3677.258390
2622.872657,1554.432478,-13027.624579,-1915.238745
2622.872984,296.082377,-12139.377449,842.705048
2622.873312,-2368.659014,-7698.141797,1378.971896
2622.873639,-3330.926739,-3775.050304,306.438199
2622.873967,-2812.782580,-4293.194464,-995.924147
2622.874294,148.041188,-5995.668130,-1378.971896
2622.874622,3034.844362,-8142.265362,-229.828649
2622.874950,3182.885551,-10584.944971,3524.039291
2622.875277,1776.494261,-10288.862594,4596.572988
2622.875605,518.144159,-10436.903782,2987.772442
2622.875932,-444.123565,-11251.130318,-766.095498
2622.876260,-148.041188,-12583.501014,-3447.429741
2622.876588,1184.329507,-12731.542202,-4519.963438
2622.876915,2294.638420,-12657.521608,-2068.457845
2622.877243,-296.082377,-11177.109724,842.705048
2622.877570,-1850.514855,-8216.285956,2451.505594
2622.877898,-3108.864956,-4959.379811,76.609550
2622.878225,-3627.009116,-4737.318029,-1302.362347
2622.878553,-1258.350101,-5033.400406,-2528.115143
2622.878881,2368.659014,-8290.306550,-2451.505594
2622.879208,3478.967927,-11843.295072,1378.971896
2622.879536,2590.720797,-12213.398043,3830.477490
2622.879863,1036.288319,-11029.068536,2834.553343
2622.880191,-370.102971,-11473.192101,-383.047749
2622.880519,518.144159,-12879.583391,-3524.039291
2622.880846,1850.514855,-13915.871710,-3983.696590
2622.881174,1924.535449,-13101.645173,-2221.676944
2622.881501,1258.350101,-12139.377449,229.828649
2622.881829,-222.061783,-9622.677246,995.924147
2622.882157,-2812.782580,-6069.688724,0.000000
2622.882484,-3330.926739,-4219.173869,-995.924147
2622.882812,-1998.556043,-5033.400406,-2451.505594
2622.883139,1406.391290,-7328.038826,-1838.629195
2622.883467,3997.112087,-10436.903782,229.828649
2622.883795,3478.967927,-11843.295072,3830.477490
2622.884122,888.247130,-10510.924376,5056.230287
2622.884450,370.102971,-9474.636058,1532.190996
2622.884777,-222.061783,-11325.150913,-1532.190996
2622.885105,222.061783,-12361.439231,-2987.772442
2622.885433,1258.350101,-11621.233289,-2374.896044
2622.885760,592.164754,-10436.903782,-536.266849
2622.886088,-1036.288319,-10140.821405,1072.533697
2622.886416,-2738.761985,-7402.059420,689.485948
2622.886743,-4293.194464,-4293.194464,-306.438199
2622.887071,-3256.906145,-4441.235652,-2834.553343
2622.887398,740.205942,-7105.977043,-3447.429741
2622.887726,3330.926739,-10732.986159,-1685.410096
2622.888054,3404.947333,-12287.418637,3217.601092
2622.888381,1480.411884,-10955.047942,4979.620737
2622.888709,222.061783,-10436.903782,2451.505594
2622.889036,0.000000,-11473.192101,-1608.800546
2622.889364,222.061783,-13101.645173,-3753.867940
2622.889692,1628.453072,-12435.459826,-3907.087040
2622.890019,2072.576638,-11843.295072,-1991.848295
2622.890347,592.164754,-11917.315666,383.047749
2622.890675,-1850.514855,-9178.553681,1225.752797
2622.891002,-2886.803174,-5773.606348,-919.314598
2622.891330,-1850.514855,-5625.565159,-2374.896044
2622.891657,814.226536,-7328.038826,-2604.724693
2622.891985,4589.276840,-10288.862594,-995.924147
2622.892313,4737.318029,-12065.356855,2681.334243
2622.892640,2886.803174,-11621.233289,4826.401637
2622.892968,1036.288319,-10584.944971,3217.601092
2622.893295,-740.205942,-10140.821405,689.485948
2622.893623,-296.082377,-11103.089130,-2987.772442
2622.893951,148.041188,-10807.006753,-3677.258390
2622.894278,0.000000,-11547.212695,-2451.505594
2622.894606,-592.164754,-11547.212695,459.657299
2622.894934,-2368.659014,-8586.388927,2451.505594
2622.895261,-4219.173869,-4515.256246,1149.143247
2622.895589,-3182.885551,-6291.750507,-995.924147
2622.895916,-888.247130,-7254.018232,-2757.943793
2622.896244,2368.659014,-8216.285956,-2911.162892
2622.896572,3997.112087,-10436.903782,1302.362347
2622.896899,2516.700203,-10881.027347,4826.401637
2622.897227,148.041188,-9622.677246,4366.744339
2622.897554,-1036.288319,-9844.739029,1455.581446
2622.897882,-1480.411884,-11251.130318,-2374.896044
2622.898210,1036.288319,-11695.253884,-4749.792088
2622.898537,2368.659014,-12509.480420,-3217.601092
2622.898865,1332.370696,-11991.336260,459.657299
2622.899193,444.123565,-10807.006753,1991.848295
2622.899520,-814.226536,-7846.182985,689.485948
2622.899848,-2220.617826,-5477.523971,-536.266849
2622.900175,-296.082377,-6439.791695,-2298.286494
2622.900503,2886.803174,-8068.244768,-1991.848295
2622.900831,4145.153275,-10732.986159,459.657299
2622.901158,3552.988522,-11621.233289,3217.601092
2622.901486,1110.308913,-11769.274478,2987.772442
2622.901813,-962.267725,-10510.924376,306.438199
2622.902141,-814.226536,-10807.006753,-2757.943793
2622.902469,0.000000,-11251.130318,-4443.353888
2622.902796,1480.411884,-12435.459826,-3447.429741
2622.903124,1702.473667,-12139.377449,-383.047749
2622.903452,0.000000,-9992.780217,1762.019645
2622.903779,-2664.741391,-7550.100608,2451.505594
2622.904107,-3256.906145,-5255.462188,612.876398
2622.904434,-2516.700203,-4959.379811,-1838.629195
2622.904762,-518.144159,-7179.997637,-2528.115143
2622.905090,2368.659014,-10140.821405,-1378.971896
2622.905417,1998.556043,-11843.295072,1838.629195
2622.905745,222.061783,-10881.027347,3524.039291
2622.906072,-1184.329507,-9696.697840,1991.848295
2622.906400,-1332.370696,-10362.883188,-1532.190996
2622.906728,-222.061783,-11991.336260,-2834.553343
2622.907055,2146.597232,-12139.377449,-3140.991542
2622.907383,2960.823768,-11991.336260,-919.314598
2622.907711,1850.514855,-11029.068536,2298.286494
2622.908038,222.061783,-8142.265362,2987.772442
2622.908366,-2146.597232,-4959.379811,1072.533697
2622.908693,-1998.556043,-4737.318029,-1149.143247
2622.909021,370.102971,-6883.915261,-2374.896044
2622.909349,2442.679609,-9104.533087,-1532.190996
2622.909676,4145.153275,-11473.192101,1149.143247
2622.910004,1776.494261,-10955.047942,4213.525239
2622.910331,-370.102971,-9696.697840,3064.381992
2622.910659,-1332.370696,-10732.986159,-995.924147
2622.910987,-518.144159,-11843.295072,-3600.648841
2622.911314,666.185348,-11325.150913,-4060.306139
2622.911642,1850.514855,-11547.212695,-2298.286494
2622.911970,740.205942,-11621.233289,1302.362347
2622.912297,-1554.432478,-9104.533087,1915.238745
2622.912625,-3034.844362,-6883.915261,0.000000
2622.912952,-3552.988522,-6217.729913,-1915.238745
2622.913280,-1110.308913,-7772.162391,-3677.258390
2622.913608,2590.720797,-9326.594869,-3370.820191
2622.913935,4145.153275,-10881.027347,76.609550
2622.914263,3182.885551,-12213.398043,3370.820191
2622.914590,1776.494261,-11103.089130,4136.915689
2622.914918,0.000000,-9474.636058,1915.238745
2622.915246,0.000000,-10881.027347,-1685.410096
2622.915573,962.267725,-12213.398043,-3447.429741
2622.915901,1998.556043,-11991.336260,-2834.553343
2622.916229,1332.370696,-12213.398043,153.219100
2622.916556,-666.185348,-10140.821405,2451.505594
2622.916884,-2812.782580,-6365.771101,1455.581446
2622.917211,-3108.864956,-5181.441594,-612.876398
2622.917539,-1554.432478,-6587.832884,-2374.896044
2622.917867,888.247130,-7031.956449,-1915.238745
2622.918194,3478.967927,-9178.553681,0.000000
2622.918522,3182.885551,-10658.965565,3830.477490
2622.918849,592.164754,-9622.677246,5056.230287
2622.919177,-1628.453072,-7994.224174,2681.334243
2622.919505,-1850.514855,-8438.347739,-1685.410096
2622.919832,-666.185348,-10955.047942,-3677.258390
2622.920160,1776.494261,-12435.459826,-3677.258390
2622.920488,1554.432478,-12509.480420,-1532.190996
2622.920815,148.041188,-11621.233289,1762.019645
2622.921143,-666.185348,-8068.244768,2145.067394
2622.921470,-2368.659014,-6291.750507,229.828649
2622.921798,-2146.597232,-7105.977043,-1378.971896
2622.922126,1036.288319,-6957.935855,-3217.601092
2622.922453,3404.947333,-8660.409521,-2298.286494
2622.922781,2590.720797,-11177.109724,1915.238745
2622.923108,592.164754,-10584.944971,3600.648841
2622.923436,-518.144159,-9252.574275,1762.019645
2622.923764,-2072.576638,-9992.780217,-1915.238745
2622.924091,-222.061783,-12213.398043,-4290.134789
2622.924419,2294.638420,-13989.892304,-4903.011187
2622.924747,2812.782580,-13545.768739,-2451.505594
2622.925074,1850.514855,-12435.459826,1378.971896
2622.925402,222.061783,-9548.656652,2451.505594
2622.925729,-1554.432478,-6587.832884,1685.410096
2622.926057,-888.247130,-6365.771101,-306.438199
2622.926385,222.061783,-6143.709319,-995.924147
2622.926712,2146.597232,-7772.162391,-995.924147
2622.927040,2590.720797,-10214.842000,1915.238745
2622.927367,518.144159,-9992.780217,3753.867940
2622.927695,-1554.432478,-8660.409521,2987.772442
2622.928023,-2664.741391,-7772.162391,0.000000
2622.928350,-1776.494261,-10436.903782,-3064.381992
2622.928678,1776.494261,-13397.727550,-3447.429741
2622.929006,2590.720797,-12139.377449,-1302.362347
2622.929333,1036.288319,-11547.212695,2145.067394
2622.929661,-888.247130,-9696.697840,3294.210641
2622.929988,-2664.741391,-6513.812290,1608.800546
2622.930316,-4071.132681,-5107.421000,-536.266849
2622.930644,-2368.659014,-5551.544565,-1991.848295
2622.930971,1628.453072,-7476.080014,-2374.896044
2622.931299,3034.844362,-10066.800811,-153.219100
2622.931626,1776.494261,-11177.109724,2911.162892
2622.931954,-74.020594,-10436.903782,2911.162892
2622.932282,-888.247130,-10214.842000,306.438199
2622.932609,0.000000,-11769.274478,-2834.553343
2622.932937,962.267725,-12583.501014,-4673.182538
2622.933265,3256.906145,-12731.542202,-2757.943793
2622.933592,3182.885551,-13767.830521,306.438199
2622.933920,1406.391290,-13027.624579,2451.505594
2622.934247,-1184.329507,-8586.388927,1302.362347
2622.934575,-3034.844362,-6365.771101,-1915.238745
2622.934903,-2220.617826,-6809.894666,-3524.039291
2622.935230,296.082377,-7254.018232,-4136.915689
2622.935558,2590.720797,-8956.491898,-1225.752797
2622.935885,2738.761985,-11103.089130,2834.553343
2622.936213,962.267725,-10584.944971,4060.306139
2622.936541,0.000000,-9178.553681,1915.238745
2622.936868,-592.164754,-9474.636058,-1149.143247
2622.937196,962.267725,-11103.089130,-3370.820191
2622.937524,2516.700203,-11917.315666,-2298.286494
2622.937851,1554.432478,-11769.274478,229.828649
2622.938179,1184.329507,-11177.109724,2834.553343
2622.938506,-1406.391290,-8586.388927,2757.943793
2622.938834,-3775.050304,-5699.585753,689.485948
2622.939162,-3627.009116,-5255.462188,-1915.238745
2622.939489,-1036.288319,-5329.482782,-3600.648841
2622.939817,1332.370696,-7624.121203,-1455.581446
2622.940144,2442.679609,-11251.130318,2528.115143
2622.940472,2220.617826,-10732.986159,3983.696590
2622.940800,370.102971,-9030.512492,2911.162892
2622.941127,-592.164754,-9548.656652,383.047749
2622.941455,148.041188,-11547.212695,-2681.334243
2622.941783,1850.514855,-13027.624579,-3600.648841
2622.942110,3034.844362,-12953.603985,-2374.896044
2622.942438,1332.370696,-12361.439231,842.705048
2622.942765,-740.205942,-10658.965565,1608.800546
2622.943093,-2294.638420,-7920.203579,229.828649
2622.943421,-2886.803174,-6439.791695,-1608.800546
2622.943748,-888.247130,-7179.997637,-2911.162892
2622.944076,2516.700203,-8290.306550,-1455.581446
2622.944403,4145.153275,-10510.924376,1072.533697
2622.944731,3182.885551,-10362.883188,3753.867940
2622.945059,740.205942,-9622.677246,3447.429741
2622.945386,-296.082377,-9474.636058,383.047749
2622.945714,0.000000,-11177.109724,-2834.553343
2622.946042,888.247130,-13101.645173,-3447.429741
2622.946369,1628.453072,-13397.727550,-2068.457845
2622.946697,1480.411884,-12953.603985,-383.047749
2622.947024,-888.247130,-11251.130318,1149.143247
2622.947352,-3627.009116,-7994.224174,1072.533697
2622.947680,-3923.091493,-5329.482782,-995.924147
2622.948007,-2812.782580,-4663.297435,-2068.457845
2622.948335,148.041188,-5625.565159,-1685.410096
2622.948662,2812.782580,-8290.306550,383.047749
2622.948990,2516.700203,-10066.800811,2834.553343
2622.949318,222.061783,-8956.491898,5132.839837
2622.949645,-740.205942,-8586.388927,1762.019645
2622.949973,-814.226536,-10807.006753,-2145.067394
2622.950301,0.000000,-13545.768739,-4213.525239
2622.950628,2368.659014,-13841.851115,-4443.353888
2622.950956,2220.617826,-14063.912898,-1302.362347
2622.951283,74.020594,-11991.336260,2374.896044
2622.951611,-1406.391290,-9030.512492,1685.410096
2622.951939,-2664.741391,-6883.915261,76.609550
2622.952266,-3034.844362,-4663.297435,-1149.143247
2622.952594,0.000000,-5255.462188,-2298.286494
2622.952921,2516.700203,-7994.224174,-995.924147
2622.953249,2590.720797,-9474.636058,2451.505594
2622.953577,2072.576638,-10288.862594,3907.087040
2622.953904,592.164754,-9474.636058,2374.896044
2622.954232,518.144159,-10881.027347,-1225.752797
2622.954560,1850.514855,-13767.830521,-3753.867940
2622.954887,2516.700203,-13915.871710,-3830.477490
2622.955215,2294.638420,-13249.686362,-1302.362347
2622.955542,962.267725,-13175.665768,995.924147
2622.955870,-962.267725,-10436.903782,995.924147
2622.956198,-2886.803174,-5847.626942,76.609550
2622.956525,-2812.782580,-4959.379811,-1532.190996
2622.956853,-1036.288319,-5181.441594,-2374.896044
2622.957180,1628.453072,-7105.977043,-1455.581446
2622.957508,2368.659014,-10214.842000,1302.362347
2622.957836,1332.370696,-9918.759623,3907.087040
2622.958163,296.082377,-9696.697840,2987.772442
2622.958491,0.000000,-10658.965565,76.609550
2622.958819,666.185348,-12435.459826,-2374.896044
2622.959146,2368.659014,-13101.645173,-2987.772442
2622.959474,2146.597232,-13101.645173,-1762.019645
2622.959801,666.185348,-13249.686362,612.876398
2622.960129,-1110.308913,-10140.821405,1532.190996
2622.960457,-3182.885551,-6143.709319,76.609550
2622.960784,-3627.009116,-3849.070898,-1149.143247
2622.961112,-1184.329507,-4515.256246,-2221.676944
2622.961439,1554.432478,-7105.977043,-1762.019645
2622.961767,3552.988522,-10362.883188,1532.190996
2622.962095,4145.153275,-10436.903782,3677.258390
2622.962422,2146.597232,-9252.574275,3677.258390
2622.962750,888.247130,-9992.780217,1685.410096
2622.963078,1332.370696,-11843.295072,-1149.143247
2622.963405,1628.453072,-12065.356855,-2987.772442
2622.963733,1924.535449,-12509.480420,-1991.848295
2622.964060,1110.308913,-13101.645173,-76.609550
2622.964388,-962.267725,-11325.150913,689.485948
2622.964716,-3330.926739,-7624.121203,0.000000
2622.965043,-4737.318029,-4737.318029,-1915.238745
2622.965371,-3330.926739,-5625.565159,-3370.820191
2622.965698,0.000000,-7179.997637,-2987.772442
2622.966026,2294.638420,-9030.512492,-612.876398
2622.966354,3034.844362,-11029.068536,3294.210641
2622.966681,1702.473667,-11399.171507,4213.525239
2622.967009,518.144159,-10214.842000,1915.238745
2622.967337,148.041188,-10955.047942,-995.924147
2622.967664,1628.453072,-13101.645173,-3447.429741
2622.967992,2442.679609,-12731.542202,-3064.381992
2622.968319,1850.514855,-13101.645173,-1762.019645
2622.968647,518.144159,-12953.603985,229.828649
2622.968975,-2368.659014,-8956.491898,689.485948
2622.969302,-4145.153275,-4515.256246,0.000000
2622.969630,-3552.988522,-4885.359217,-1838.629195
2622.969957,-296.082377,-6069.688724,-1991.848295
2622.970285,3256.906145,-8364.327145,0.000000
2622.970613,3997.112087,-10732.986159,2911.162892
2622.970940,2516.700203,-10066.800811,5056.230287
2622.971268,592.164754,-8734.430116,3600.648841
2622.971596,444.123565,-9474.636058,0.000000
2622.971923,-518.144159,-11917.315666,-2374.896044
2622.972251,666.185348,-12731.542202,-2221.676944
2622.972578,888.247130,-12805.562797,-1915.238745
2622.972906,-1110.308913,-12213.398043,153.219100
2622.973234,-3034.844362,-9030.512492,459.657299
2622.973561,-4145.153275,-5773.606348,-842.705048
2622.973889,-4071.132681,-4293.194464,-1915.238745
2622.974216,-1110.308913,-4811.338623,-1991.848295
2622.974544,3478.967927,-7994.224174,-1302.362347
2622.974872,4219.173869,-9696.697840,2987.772442
2622.975199,3404.947333,-10807.006753,4826.401637
2622.975527,2072.576638,-10510.924376,2911.162892
2622.975855,74.020594,-11251.130318,76.609550
2622.976182,592.164754,-12731.542202,-3370.820191
2622.976510,2368.659014,-14359.995275,-4979.620737
2622.976837,2590.720797,-14211.954086,-3447.429741
2622.977165,1702.473667,-13249.686362,-229.828649
2622.977493,296.082377,-11473.192101,536.266849
2622.977820,-2664.741391,-6735.874072,612.876398
2622.978148,-3108.864956,-3997.112087,-766.095498
2622.978475,-962.267725,-4959.379811,-2145.067394
2622.978803,1480.411884,-7402.059420,-995.924147
2622.979131,4367.215058,-9178.553681,1762.019645
2622.979458,4441.235652,-10214.842000,4366.744339
2622.979786,2072.576638,-9918.759623,3830.477490
2622.980114,592.164754,-11029.068536,1302.362347
2622.980441,592.164754,-12583.501014,-1915.238745
2622.980769,370.102971,-12435.459826,-3217.601092
2622.981096,1406.391290,-12435.459826,-2451.505594
2622.981424,444.123565,-11917.315666,-383.047749
2622.981752,-1332.370696,-10362.883188,1762.019645
2622.982079,-3627.009116,-5625.565159,1532.190996
2622.982407,-4737.318029,-2442.679609,229.828649
2622.982734,-3923.091493,-4367.215058,-1225.752797
2622.983062,518.144159,-6439.791695,-1762.019645
2622.983389,1998.556043,-7624.121203,229.828649
2622.983717,2146.597232,-10436.903782,3370.820191
2622.984045,888.247130,-11621.233289,4290.134789
2622.984372,-444.123565,-10436.903782,1302.362347
2622.984700,-1036.288319,-11473.192101,-1762.019645
2622.985027,444.123565,-13249.686362,-3907.087040
2622.985355,2664.741391,-13693.809927,-3217.601092
2622.985682,2442.679609,-13693.809927,-1072.533697
2622.986010,888.247130,-12139.377449,459.657299
2622.986337,-814.226536,-9030.512492,842.705048
2622.986665,-3849.070898,-4885.359217,-536.266849
2622.986992,-3404.947333,-4219.173869,-2451.505594
2622.987320,-1184.329507,-6365.771101,-2681.334243
2622.987647,3182.885551,-9770.718434,-612.876398
2622.987975,4145.153275,-10807.006753,2451.505594
2622.988302,3701.029710,-11843.295072,3907.087040
2622.988630,1036.288319,-10658.965565,2987.772442
2622.988957,-222.061783,-11177.109724,-766.095498
2622.989285,296.082377,-12509.480420,-3294.210641
2622.989612,666.185348,-12731.542202,-3217.601092
2622.989940,1480.411884,-12509.480420,-2068.457845
2622.990267,740.205942,-11917.315666,1072.533697
2622.990595,-1702.473667,-8290.306550,1685.410096
2622.990922,-3182.885551,-5255.462188,229.828649
2622.991250,-4145.153275,-4219.173869,-1455.581446
2622.991577,-1850.514855,-5181.441594,-2757.943793
2622.991905,2368.659014,-7476.080014,-1915.238745
2622.992232,3997.112087,-9474.636058,3294.210641
2622.992560,3404.947333,-9770.718434,5592.497135
2622.992887,2368.659014,-9548.656652,5745.716235
2622.993215,222.061783,-8512.368333,2681.334243
2622.993542,0.000000,-10658.965565,-1838.629195
2622.993870,1702.473667,-12731.542202,-3830.477490
2622.994197,1406.391290,-12287.418637,-3140.991542
2622.994525,444.123565,-11621.233289,-766.095498
2622.994852,-370.102971,-10436.903782,306.438199
2622.995180,-2146.597232,-7846.182985,-689.485948
2622.995508,-2738.761985,-5995.668130,-995.924147
2622.995835,-1036.288319,-5921.647536,-2451.505594
2622.996163,2368.659014,-8882.471304,-2451.505594
2622.996490,4441.235652,-10955.047942,383.047749
2622.996818,3923.091493,-11251.130318,3217.601092
2622.997145,1110.308913,-10362.883188,4443.353888
2622.997473,-370.102971,-10288.862594,1915.238745
2622.997800,-518.144159,-11029.068536,-2604.724693
2622.998128,-518.144159,-12953.603985,-4060.306139
2622.998455,740.205942,-12953.603985,-3600.648841
2622.998783,962.267725,-12583.501014,-1915.238745
2622.999110,-1702.473667,-11473.192101,0.000000
2622.999438,-2960.823768,-8586.388927,459.657299
2622.999765,-3849.070898,-5255.462188,-1378.971896
2623.000093,-2368.659014,-5995.668130,-2145.067394
2623.000420,888.247130,-7624.121203,-2145.067394
2623.000748,3627.009116,-9400.615463,153.219100
2623.001075,2368.659014,-10584.944971,3447.429741
2623.001403,370.102971,-10510.924376,4979.620737
2623.001730,-666.185348,-9030.512492,2374.896044
2623.002058,-2664.741391,-8808.450710,-1225.752797
2623.002385,0.000000,-11473.192101,-3370.820191
2623.002713,1480.411884,-11917.315666,-3217.601092
2623.003040,1406.391290,-11991.336260,-1149.143247
2623.003368,222.061783,-11325.150913,1455.581446
2623.003695,-1184.329507,-8290.306550,2068.457845
2623.004023,-3034.844362,-4737.318029,1149.143247
2623.004350,-2590.720797,-4885.359217,-766.095498
2623.004678,296.082377,-6661.853478,-1915.238745
2623.005005,3108.864956,-9030.512492,-995.924147
2623.005333,4219.173869,-10510.924376,2221.676944
2623.005660,2368.659014,-10807.006753,4443.353888
2623.005988,-592.164754,-10436.903782,3447.429741
2623.006315,-1184.329507,-10140.821405,-612.876398
2623.006643,-518.144159,-11547.212695,-3983.696590
2623.006970,370.102971,-12287.418637,-4443.353888
2623.007298,2664.741391,-12583.501014,-2604.724693
2623.007626,2294.638420,-12287.418637,1532.190996
2623.007953,0.000000,-9030.512492,2757.943793
2623.008281,-1554.432478,-7328.038826,536.266849
2623.008608,-1924.535449,-7254.018232,-1608.800546
2623.008936,-370.102971,-5847.626942,-3753.867940
2623.009263,2516.700203,-7772.162391,-3140.991542
2623.009591,3404.947333,-11547.212695,536.266849
2623.009918,2368.659014,-12065.356855,3370.820191
2623.010246,518.144159,-11325.150913,2681.334243
2623.010573,-1110.308913,-10658.965565,229.828649
2623.010901,-666.185348,-10807.006753,-3524.039291
2623.011228,518.144159,-12139.377449,-4673.182538
2623.011556,2368.659014,-12287.418637,-2834.553343
2623.011883,2294.638420,-11399.171507,612.876398
2623.012211,1110.308913,-10066.800811,2757.943793
2623.012538,-1406.391290,-7402.059420,2528.115143
2623.012866,-2886.803174,-5699.585753,306.438199
2623.013193,-1258.350101,-5403.503377,-2757.943793
2623.013521,74.020594,-7179.997637,-3064.381992
2623.013848,2738.761985,-10288.862594,-229.828649
2623.014176,3404.947333,-12213.398043,3140.991542
2623.014503,1258.350101,-11029.068536,4673.182538
2623.014831,0.000000,-9770.718434,2987.772442
2623.015158,-592.164754,-9326.594869,-1149.143247
2623.015486,-518.144159,-10881.027347,-2374.896044
2623.015813,740.205942,-11399.171507,-2681.334243
2623.016141,888.247130,-10214.842000,-612.876398
2623.016468,-1332.370696,-9474.636058,1225.752797
2623.016796,-3256.906145,-7179.997637,1685.410096
2623.017123,-3923.091493,-5477.523971,0.000000
2623.017451,-3182.885551,-5921.647536,-1991.848295
2623.017778,-888.247130,-7105.977043,-2757.943793
2623.018106,2368.659014,-9474.636058,-2528.115143
2623.018433,4145.153275,-12361.439231,1455.581446
2623.018761,1776.494261,-11325.150913,3907.087040
2623.019089,0.000000,-10140.821405,2834.553343
2623.019416,-222.061783,-10510.924376,-612.876398
2623.019744,0.000000,-11843.295072,-3064.381992
2623.020071,1332.370696,-12213.398043,-3447.429741
2623.020399,1924.535449,-11843.295072,-1915.238745
2623.020726,518.144159,-12139.377449,842.705048
2623.021054,-962.267725,-9918.759623,919.314598
2623.021381,-2516.700203,-7550.100608,-1149.143247
2623.021709,-2886.803174,-6365.771101,-2451.505594
2623.022036,-444.123565,-6809.894666,-2681.334243
2623.022364,2886.803174,-8734.430116,-2451.505594
2623.022691,4145.153275,-11695.253884,1532.190996
2623.023019,2738.761985,-11621.233289,3983.696590
2623.023346,740.205942,-9918.759623,3294.210641
2623.023674,-518.144159,-9178.553681,459.657299
2623.024001,-814.226536,-9918.759623,-1685.410096
2623.024329,888.247130,-11177.109724,-3064.381992
2623.024656,1850.514855,-11621.233289,-1915.238745
2623.024984,1258.350101,-11843.295072,766.095498
2623.025311,-1258.350101,-9104.533087,2451.505594
2623.025639,-2960.823768,-6143.709319,919.314598
2623.025966,-2960.823768,-5995.668130,-306.438199
2623.026294,-1480.411884,-5329.482782,-1762.019645
2623.026621,1258.350101,-6957.935855,-1762.019645
2623.026949,2738.761985,-9770.718434,536.266849
2623.027276,740.205942,-10732.986159,3907.087040
2623.027604,-296.082377,-9770.718434,3217.601092
2623.027931,-2738.761985,-8142.265362,919.314598
2623.028259,-1776.494261,-9918.759623,-2987.772442
2623.028586,592.164754,-12509.480420,-4903.011187
2623.028914,2442.679609,-13323.706956,-3524.039291
2623.029241,2886.803174,-13323.706956,76.609550
2623.029569,2220.617826,-12509.480420,2451.505594
2623.029896,-370.102971,-8438.347739,2604.724693
2623.030224,-1776.494261,-6143.709319,-306.438199
2623.030552,-1184.329507,-6069.688724,-2221.676944
2623.030879,1554.432478,-6735.874072,-2681.334243
2623.031207,3923.091493,-9326.594869,-689.485948
2623.031534,3775.050304,-11621.233289,3217.601092
2623.031862,1258.350101,-10362.883188,4366.744339
2623.032189,0.000000,-9696.697840,1072.533697
2623.032517,-444.123565,-11695.253884,-2987.772442
2623.032844,222.061783,-14063.912898,-4519.963438
2623.033172,2072.576638,-13619.789333,-4213.525239
2623.033499,2368.659014,-12583.501014,-995.924147
2623.033827,740.205942,-11843.295072,2451.505594
2623.034154,-1258.350101,-7846.182985,2604.724693
2623.034482,-3701.029710,-4515.256246,1225.752797
2623.034809,-3997.112087,-4663.297435,-1149.143247
2623.035137,-1110.308913,-5699.585753,-3217.601092
2623.035464,888.247130,-7031.956449,-1915.238745
2623.035792,1110.308913,-9622.677246,1838.629195
2623.036119,1332.370696,-10140.821405,4213.525239
2623.036447,-518.144159,-8808.450710,3140.991542
2623.036774,-444.123565,-9918.759623,-306.438199
2623.037102,888.247130,-11843.295072,-2911.162892
2623.037429,2072.576638,-12583.501014,-3064.381992
2623.037757,2220.617826,-12657.521608,-995.924147
2623.038084,1628.453072,-12361.439231,1838.629195
2623.038412,-1110.308913,-9252.574275,2451.505594
2623.038739,-3775.050304,-5699.585753,0.000000
2623.039067,-3478.967927,-5699.585753,-1915.238745
2623.039394,-1036.288319,-6217.729913,-3600.648841
2623.039722,1258.350101,-7624.121203,-2604.724693
2623.040049,2812.782580,-11103.089130,459.657299
2623.040377,2368.659014,-11473.192101,3370.820191
2623.040704,1036.288319,-10436.903782,2221.676944
2623.041032,-370.102971,-9844.739029,306.438199
2623.041359,814.226536,-11325.150913,-3370.820191
2623.041687,2220.617826,-12287.418637,-3524.039291
2623.042015,3627.009116,-13323.706956,-1455.581446
2623.042342,1998.556043,-13619.789333,1455.581446
2623.042670,444.123565,-11473.192101,1838.629195
2623.042997,-2960.823768,-6661.853478,1072.533697
2623.043325,-4737.318029,-4885.359217,-1455.581446
2623.043652,-3034.844362,-6513.812290,-3447.429741
2623.043980,0.000000,-7698.141797,-3524.039291
2623.044307,1776.494261,-9326.594869,0.000000
2623.044635,2960.823768,-11029.068536,3064.381992
2623.044962,1258.350101,-9622.677246,4443.353888
2623.045290,74.020594,-7994.224174,2757.943793
2623.045617,296.082377,-8882.471304,-306.438199
2623.045945,2294.638420,-11843.295072,-3140.991542
2623.046272,2590.720797,-12435.459826,-2987.772442
2623.046600,3108.864956,-11843.295072,0.000000
2623.046927,296.082377,-10288.862594,2604.724693
2623.047255,-2072.576638,-8142.265362,2145.067394
2623.047582,-2664.741391,-6513.812290,76.609550
2623.047910,-2442.679609,-4811.338623,-2604.724693
2623.048237,0.000000,-5625.565159,-3140.991542
2623.048565,2368.659014,-8586.388927,-1149.143247
2623.048892,4071.132681,-11621.233289,2681.334243
2623.049220,2368.659014,-10584.944971,4366.744339
2623.049547,666.185348,-9326.594869,2451.505594
2623.049875,0.000000,-9918.759623,-1225.752797
2623.050202,1184.329507,-12731.542202,-4366.744339
2623.050530,1998.556043,-13989.892304,-3677.258390
2623.050857,1480.411884,-13619.789333,-1762.019645
2623.051185,518.144159,-13323.706956,76.609550
2623.051512,-2146.597232,-9918.759623,76.609550
2623.051840,-4071.132681,-6735.874072,-766.095498
2623.052167,-3404.947333,-5847.626942,-2221.676944
2623.052495,-1110.308913,-6439.791695,-2757.943793
2623.052822,1776.494261,-8364.327145,-1455.581446
2623.053150,3404.947333,-10362.883188,1608.800546
2623.053478,2294.638420,-10584.944971,3830.477490
2623.053805,0.000000,-9178.553681,3677.258390
2623.054133,-518.144159,-8808.450710,459.657299
2623.054460,-370.102971,-11547.212695,-2604.724693
2623.054788,1036.288319,-13989.892304,-3447.429741
2623.055115,1628.453072,-12583.501014,-2987.772442
2623.055443,1406.391290,-12583.501014,229.828649
2623.055770,-1110.308913,-10955.047942,2298.286494
2623.056098,-2442.679609,-7772.162391,1072.533697
2623.056425,-3478.967927,-4885.359217,-383.047749
2623.056753,-2220.617826,-3775.050304,-1378.971896
2623.057080,1258.350101,-5033.400406,-766.095498
2623.057408,2812.782580,-8586.388927,1149.143247
2623.057735,1998.556043,-9844.739029,4366.744339
2623.058063,296.082377,-8512.368333,4596.572988
2623.058390,-370.102971,-8586.388927,1378.971896
2623.058718,-148.041188,-11103.089130,-2451.505594
2623.059045,1332.370696,-13619.789333,-3677.258390
2623.059373,1998.556043,-13767.830521,-2451.505594
2623.059700,1258.350101,-13767.830521,-229.828649
2623.060028,-592.164754,-11843.295072,1455.581446
2623.060355,-3182.885551,-7772.162391,689.485948
2623.060683,-4441.235652,-5329.482782,-1149.143247
2623.061010,-3330.926739,-5107.421000,-2451.505594
2623.061338,0.000000,-6883.915261,-2987.772442
2623.061665,2146.597232,-8734.430116,-1149.143247
2623.061993,2516.700203,-9696.697840,2451.505594
2623.062320,1036.288319,-10066.800811,3140.991542
2623.062648,74.020594,-11029.068536,1302.362347
2623.062975,1554.432478,-12065.356855,-1685.410096
2623.063303,2442.679609,-14211.954086,-2987.772442
2623.063630,3775.050304,-14508.036463,-2834.553343
2623.063958,3923.091493,-13323.706956,-689.485948
2623.064285,1702.473667,-12361.439231,1072.533697
2623.064613,-2072.576638,-8512.368333,1149.143247
2623.064940,-3775.050304,-5995.668130,-536.266849
2623.065268,-3478.967927,-4589.276840,-2145.067394
2623.065596,-888.247130,-4589.276840,-2757.943793
2623.065923,2664.741391,-7846.182985,-1532.190996
2623.066251,4293.194464,-10955.047942,3294.210641
2623.066578,2738.761985,-11103.089130,5745.716235
2623.066906,1702.473667,-9326.594869,3294.210641
2623.067233,370.102971,-9474.636058,0.000000
2623.067561,1332.370696,-11991.336260,-3217.601092
2623.067888,2812.782580,-13989.892304,-2987.772442
2623.068216,1998.556043,-12805.562797,-536.266849
2623.068543,-592.164754,-11695.253884,1532.190996
2623.068871,-1480.411884,-9474.636058,612.876398
2623.069198,-4515.256246,-5995.668130,-459.657299
2623.069526,-5699.585753,-3849.070898,-1762.019645
2623.069853,-2442.679609,-5255.462188,-2987.772442
2623.070181,888.247130,-7105.977043,-2374.896044
2623.070508,3330.926739,-9992.780217,766.095498
2623.070836,2886.803174,-11029.068536,4673.182538
2623.071163,1924.535449,-10066.800811,4826.401637
2623.071491,1480.411884,-9992.780217,1762.019645
2623.071818,1184.329507,-12731.542202,-1685.410096
2623.072146,1702.473667,-13397.727550,-3677.258390
2623.072473,2294.638420,-12583.501014,-3294.210641
2623.072801,222.061783,-12805.562797,-689.485948
2623.073128,-2146.597232,-11769.274478,689.485948
2623.073456,-3404.947333,-7846.182985,-153.219100
2623.073783,-4737.318029,-5033.400406,-1762.019645
2623.074111,-3627.009116,-4885.359217,-2987.772442
2623.074438,0.000000,-6809.894666,-2757.943793
2623.074766,3108.864956,-9474.636058,536.266849
2623.075093,4145.153275,-10955.047942,3907.087040
2623.075421,2220.617826,-10658.965565,4290.134789
2623.075748,1628.453072,-10658.965565,2298.286494
2623.076076,1258.350101,-11325.150913,-1072.533697
2623.076403,1554.432478,-12361.439231,-3064.381992
2623.076731,2220.617826,-13915.871710,-2987.772442
2623.077059,1480.411884,-13989.892304,-1072.533697
2623.077386,-370.102971,-11695.253884,536.266849
2623.077714,-2664.741391,-8068.244768,153.219100
2623.078041,-4589.276840,-3923.091493,-383.047749
2623.078369,-3775.050304,-3034.844362,-1225.752797
2623.078696,-740.205942,-5329.482782,-1762.019645
2623.079024,2368.659014,-8808.450710,-383.047749
2623.079351,3627.009116,-10584.944971,2987.772442
2623.079679,1998.556043,-9474.636058,4519.963438
2623.080006,370.102971,-9326.594869,3447.429741
2623.080334,-370.102971,-10881.027347,306.438199
2623.080661,-296.082377,-12213.398043,-3064.381992
2623.080989,0.000000,-13471.748144,-4596.572988
2623.081316,444.123565,-13767.830521,-3294.210641
2623.081644,592.164754,-12805.562797,-1225.752797
2623.081971,-1554.432478,-9474.636058,689.485948
2623.082299,-3256.906145,-5403.503377,1149.143247
2623.082626,-2368.659014,-3404.947333,-536.266849
2623.082954,-148.041188,-5329.482782,-1915.238745
2623.083281,2368.659014,-7624.121203,-689.485948
2623.083609,4071.132681,-10288.862594,1685.410096
2623.083936,2738.761985,-10584.944971,4290.134789
2623.084264,1628.453072,-10436.903782,3753.867940
2623.084591,518.144159,-11251.130318,0.000000
2623.084919,1184.329507,-14211.954086,-3524.039291
2623.085247,1258.350101,-14804.118840,-3983.696590
2623.085574,1998.556043,-13915.871710,-2987.772442
2623.085902,1110.308913,-13397.727550,-383.047749
2623.086229,-1924.535449,-9474.636058,919.314598
2623.086557,-3552.988522,-4737.318029,0.000000
2623.086885,-4071.132681,-3552.988522,0.000000
2623.087212,-2146.597232,-4811.338623,-689.485948
2623.087540,2368.659014,-8068.244768,-1302.362347
2623.087867,3404.947333,-10214.842000,689.485948
2623.088195,2442.679609,-10732.986159,3600.648841
2623.088523,1406.391290,-10214.842000,3217.601092
2623.088850,148.041188,-10510.924376,1302.362347
2623.089178,296.082377,-11991.336260,-1302.362347
2623.089505,1998.556043,-13323.706956,-2757.943793
2623.089833,3034.844362,-13397.727550,-2451.505594
2623.090161,1628.453072,-13027.624579,76.609550
2623.090488,-370.102971,-10436.903782,1915.238745
2623.090816,-3404.947333,-4885.359217,1762.019645
2623.091143,-4293.194464,-2738.761985,-306.438199
2623.091471,-1998.556043,-4885.359217,-3907.087040
2623.091799,296.082377,-6217.729913,-2451.505594
2623.092126,3256.906145,-9918.759623,0.000000
2623.092454,3627.009116,-11251.130318,3677.258390
2623.092781,2146.597232,-11695.253884,3677.258390
2623.093109,666.185348,-10066.800811,2451.505594
2623.093437,0.000000,-10584.944971,-1149.143247
2623.093764,1332.370696,-13397.727550,-3600.648841
2623.094092,2886.803174,-13915.871710,-3370.820191
2623.094419,1702.473667,-12139.377449,-459.657299
2623.094747,-666.185348,-10362.883188,1072.533697
2623.095075,-2960.823768,-7772.162391,689.485948
2623.095402,-4219.173869,-5329.482782,-1455.581446
2623.095730,-3552.988522,-5181.441594,-3140.991542
2623.096057,-740.205942,-7031.956449,-3217.601092
2623.096385,1628.453072,-9030.512492,-1378.971896
2623.096713,3108.864956,-11029.068536,2681.334243
2623.097040,2812.782580,-11695.253884,3907.087040
2623.097368,888.247130,-11251.130318,3064.381992
2623.097695,-296.082377,-10732.986159,536.266849
2623.098023,370.102971,-11769.274478,-3447.429741
2623.098351,1554.432478,-13323.706956,-3447.429741
2623.098678,888.247130,-13027.624579,-2451.505594
2623.099006,-444.123565,-11177.109724,0.000000
2623.099333,-1850.514855,-9178.553681,689.485948
2623.099661,-3404.947333,-6587.832884,383.047749
2623.099988,-2294.638420,-4737.318029,-1378.971896
2623.100316,0.000000,-5255.462188,-1455.581446
2623.100644,1924.535449,-7698.141797,-1915.238745
2623.100971,4663.297435,-10362.883188,2528.115143
2623.101299,3256.906145,-10214.842000,5362.668486
2623.101626,444.123565,-8586.388927,5132.839837
2623.101954,296.082377,-9474.636058,1302.362347
2623.102282,148.041188,-11695.253884,-2451.505594
2623.102609,296.082377,-12731.542202,-3830.477490
2623.102937,1702.473667,-13545.768739,-3447.429741
2623.103264,296.082377,-12139.377449,-995.924147
2623.103592,-3034.844362,-9474.636058,-306.438199
2623.103920,-3330.926739,-7254.018232,-612.876398
2623.104247,-3849.070898,-5107.421000,-1532.190996
2623.104575,-1702.473667,-6143.709319,-2068.457845
2623.104902,1998.556043,-8290.306550,-1532.190996
2623.105230,3701.029710,-9992.780217,1149.143247
2623.105558,3256.906145,-10436.903782,4136.915689
2623.105885,1406.391290,-9992.780217,4136.915689
2623.106213,-666.185348,-10362.883188,1608.800546
2623.106540,-888.247130,-11917.315666,-1685.410096
2623.106868,1258.350101,-13545.768739,-4213.525239
2623.107196,2072.576638,-12361.439231,-3907.087040
2623.107523,1776.494261,-12805.562797,-919.314598
2623.107851,666.185348,-11547.212695,459.657299
2623.108178,-1406.391290,-8290.306550,766.095498
2623.108506,-2812.782580,-5403.503377,-76.609550
2623.108834,-1332.370696,-5551.544565,-2221.676944
2623.109161,962.267725,-6735.874072,-2221.676944
2623.109489,3404.947333,-8808.450710,459.657299
2623.109816,3923.091493,-10288.862594,3753.867940
2623.110144,2072.576638,-10436.903782,5056.230287
2623.110472,444.123565,-9844.739029,2834.553343
2623.110799,0.000000,-10140.821405,-842.705048
2623.111127,74.020594,-12065.356855,-3064.381992
2623.111454,1628.453072,-12657.521608,-3294.210641
2623.111782,1628.453072,-11177.109724,-459.657299
2623.112110,-962.267725,-9918.759623,1762.019645
2623.112437,-2812.782580,-7698.141797,1302.362347
2623.112765,-3182.885551,-5847.626942,76.609550
2623.113092,-3627.009116,-5033.400406,-1378.971896
2623.113420,-1406.391290,-6735.874072,-2374.896044
2623.113748,962.267725,-8882.471304,-1455.581446
2623.114075,2590.720797,-10436.903782,1072.533697
2623.114403,1406.391290,-10362.883188,2987.772442
2623.114730,0.000000,-10732.986159,2451.505594
2623.115058,-518.144159,-11473.192101,766.095498
2623.115386,296.082377,-12731.542202,-2145.067394
2623.115713,1110.308913,-12879.583391,-3600.648841
2623.116041,1776.494261,-12657.521608,-2374.896044
2623.116368,1258.350101,-11769.274478,0.000000
2623.116696,-1036.288319,-9474.636058,1685.410096
2623.117024,-1998.556043,-7328.038826,612.876398
2623.117351,-2220.617826,-5403.503377,-1915.238745
2623.117679,-592.164754,-6143.709319,-2681.334243
2623.118006,2220.617826,-8290.306550,-2145.067394
2623.118334,3256.906145,-10362.883188,689.485948
2623.118662,2960.823768,-11251.130318,3064.381992
2623.118989,1628.453072,-11325.150913,3677.258390
2623.119317,444.123565,-10732.986159,919.314598
2623.119644,296.082377,-10510.924376,-1685.410096
2623.119972,1628.453072,-12065.356855,-2757.943793
2623.120300,1628.453072,-12213.398043,-1378.971896
2623.120627,592.164754,-10955.047942,0.000000
2623.120955,-1406.391290,-9104.533087,995.924147
2623.121282,-3034.844362,-6587.832884,76.609550
2623.121610,-3775.050304,-5551.544565,-995.924147
2623.121938,-2072.576638,-6069.688724,-2374.896044
2623.122265,296.082377,-7772.162391,-1838.629195
2623.122593,3108.864956,-10066.800811,0.000000
2623.122920,3404.947333,-11177.109724,2451.505594
2623.123248,962.267725,-9992.780217,3600.648841
2623.123576,0.000000,-9400.615463,1685.410096
2623.123903,814.226536,-10658.965565,0.000000
2623.124231,1332.370696,-12435.459826,-2987.772442
2623.124558,1184.329507,-12361.439231,-2528.115143
2623.124886,1036.288319,-11769.274478,-1378.971896
2623.125213,222.061783,-11177.109724,0.000000
2623.125541,-1554.432478,-9474.636058,153.219100
2623.125869,-2664.741391,-6957.935855,-612.876398
2623.126196,-1776.494261,-5995.668130,-766.095498
2623.126524,666.185348,-7254.018232,-1149.143247
2623.126851,3627.009116,-9918.759623,-459.657299
2623.127179,3478.967927,-11325.150913,2451.505594
2623.127507,1628.453072,-10214.842000,3677.258390
2623.127834,0.000000,-9770.718434,2374.896044
2623.128162,-296.082377,-10362.883188,-612.876398
2623.128489,518.144159,-12361.439231,-2221.676944
2623.128817,1036.288319,-12509.480420,-2145.067394
2623.129145,1406.391290,-12065.356855,-1149.143247
2623.129472,-222.061783,-11251.130318,-153.219100
2623.129800,-2442.679609,-9252.574275,229.828649
2623.130127,-3997.112087,-5773.606348,-229.828649
2623.130455,-4145.153275,-4441.235652,-1072.533697
2623.130783,-2368.659014,-5773.606348,-1378.971896
2623.131110,1406.391290,-7846.182985,-536.266849
2623.131438,3478.967927,-9326.594869,1608.800546
2623.131765,1850.514855,-9252.574275,3524.039291
2623.132093,-370.102971,-9400.615463,2681.334243
2623.132421,-592.164754,-10955.047942,0.000000
2623.132748,1110.308913,-12139.377449,-2451.505594
2623.133076,1850.514855,-13027.624579,-2834.553343
2623.133403,2960.823768,-13027.624579,-1991.848295
2623.133731,2294.638420,-12509.480420,0.000000
2623.134059,74.020594,-10658.965565,1072.533697
2623.134386,-1628.453072,-8142.265362,536.266849
2623.134714,-2368.659014,-5255.462188,-612.876398
2623.135041,-1332.370696,-4811.338623,-1378.971896
2623.135369,740.205942,-6883.915261,-2068.457845
2623.135697,1702.473667,-9178.553681,842.705048
2623.136024,1110.308913,-10362.883188,2221.676944
2623.136352,-592.164754,-10362.883188,1838.629195
2623.136679,-740.205942,-10881.027347,-689.485948
2623.137007,0.000000,-11991.336260,-2987.772442
2623.137335,962.267725,-13619.789333,-3600.648841
2623.137662,2738.761985,-13767.830521,-2298.286494
2623.137990,2220.617826,-12953.603985,-459.657299
2623.138317,518.144159,-10288.862594,76.609550
2623.138645,-1702.473667,-8586.388927,383.047749
2623.138973,-2368.659014,-6587.832884,0.000000
2623.139300,-1554.432478,-4737.318029,-842.705048
2623.139628,518.144159,-5773.606348,-1302.362347
2623.139955,2738.761985,-8438.347739,1838.629195
2623.140283,2886.803174,-10066.800811,2987.772442
2623.140611,888.247130,-9696.697840,3370.820191
2623.140938,-666.185348,-9474.636058,1762.019645
2623.141266,-296.082377,-10510.924376,-1302.362347
2623.141593,1480.411884,-11991.336260,-2757.943793
2623.141921,2442.679609,-12583.501014,-1685.410096
2623.142249,2368.659014,-12583.501014,612.876398
2623.142576,1776.494261,-11769.274478,1072.533697
2623.142904,-1184.329507,-9474.636058,76.609550
2623.143231,-3849.070898,-6735.874072,-153.219100
2623.143559,-2812.782580,-5625.565159,-1532.190996
2623.143887,-1036.288319,-5921.647536,-2145.067394
2623.144214,1036.288319,-8660.409521,-1455.581446
2623.144542,2960.823768,-10362.883188,1378.971896
2623.144869,1998.556043,-9548.656652,3983.696590
2623.145197,444.123565,-8808.450710,2911.162892
2623.145525,444.123565,-10955.047942,459.657299
2623.145852,1258.350101,-12435.459826,-1991.848295
2623.146180,1480.411884,-11325.150913,-2298.286494
2623.146507,1850.514855,-12657.521608,-2298.286494
2623.146835,518.144159,-12731.542202,0.000000
2623.147163,-1702.473667,-9770.718434,229.828649
2623.147490,-3775.050304,-7920.203579,-1532.190996
2623.147818,-4071.132681,-7105.977043,-2451.505594
2623.148145,-1850.514855,-6957.935855,-3140.991542
2623.148473,1332.370696,-8290.306550,-2145.067394
2623.148800,1998.556043,-9178.553681,612.876398
2623.149128,2072.576638,-9770.718434,3217.601092
2623.149456,1184.329507,-9992.780217,1915.238745
2623.149783,-518.144159,-9178.553681,1225.752797
2623.150111,370.102971,-11325.150913,-1302.362347
2623.150438,2294.638420,-13027.624579,-2374.896044
2623.150766,2294.638420,-13249.686362,-1532.190996
2623.151094,2072.576638,-12435.459826,-689.485948
2623.151421,666.185348,-10955.047942,0.000000
2623.151749,-2590.720797,-8290.306550,76.609550
2623.152076,-3997.112087,-6069.688724,0.000000
2623.152404,-1850.514855,-5255.462188,-1378.971896
2623.152732,1036.288319,-6661.853478,-1532.190996
2623.153059,2886.803174,-9178.553681,766.095498
2623.153387,2590.720797,-9400.615463,3140.991542
2623.153714,1184.329507,-8290.306550,3983.696590
2623.154042,-148.041188,-8438.347739,2604.724693
2623.154370,296.082377,-9548.656652,-689.485948
2623.154697,1036.288319,-13101.645173,-2757.943793
2623.155025,1998.556043,-13101.645173,-2298.286494
2623.155352,1628.453072,-12139.377449,-1302.362347
2623.155680,-666.185348,-11473.192101,-306.438199
2623.156008,-2516.700203,-8882.471304,766.095498
2623.156335,-2664.741391,-6365.771101,76.609550
2623.156663,-2664.741391,-4885.359217,-1378.971896
2623.156990,-296.082377,-6143.709319,-1838.629195
2623.157318,2368.659014,-8216.285956,-1072.533697
2623.157646,3034.844362,-10066.800811,1455.581446
2623.157973,1406.391290,-10066.800811,3447.429741
2623.158301,296.082377,-10140.821405,2145.067394
2623.158628,-222.061783,-11399.171507,-919.314598
2623.158956,148.041188,-13841.851115,-3217.601092
2623.159284,1554.432478,-13915.871710,-3753.867940
2623.159611,1776.494261,-13175.665768,-2604.724693
2623.159939,444.123565,-12805.562797,-459.657299
2623.160266,-1406.391290,-10658.965565,76.609550
2623.160594,-2516.700203,-7328.038826,612.876398
2623.160922,-2442.679609,-5107.421000,-306.438199
2623.161249,-518.144159,-5033.400406,-689.485948
2623.161577,2368.659014,-7624.121203,-842.705048
2623.161904,3478.967927,-9844.739029,1225.752797
2623.162232,2146.597232,-10066.800811,2987.772442
2623.162560,148.041188,-9474.636058,2911.162892
2623.162887,-296.082377,-9474.636058,842.705048
2623.163215,666.185348,-12139.377449,-2298.286494
2623.163542,1850.514855,-13767.830521,-2374.896044
2623.163870,2072.576638,-13101.645173,-766.095498
2623.164198,1036.288319,-11991.336260,229.828649
2623.164525,-740.205942,-9992.780217,689.485948
2623.164853,-2812.782580,-7105.977043,1225.752797
2623.165180,-3552.988522,-3997.112087,229.828649
2623.165508,-1998.556043,-2960.823768,-1378.971896
2623.165836,740.205942,-5921.647536,-1072.533697
2623.166163,2368.659014,-9400.615463,689.485948
2623.166491,1702.473667,-9400.615463,2604.724693
2623.166818,-222.061783,-9474.636058,2528.115143
2623.167146,-592.164754,-10584.944971,306.438199
2623.167474,518.144159,-12509.480420,-1991.848295
2623.167801,1406.391290,-13545.768739,-2451.505594
2623.168129,1998.556043,-13249.686362,-2068.457845
2623.168456,1184.329507,-13175.665768,-919.314598
2623.168784,-370.102971,-11695.253884,229.828649
2623.169112,-2738.761985,-8364.327145,76.609550
2623.169439,-3701.029710,-5551.544565,-842.705048
2623.169767,-2516.700203,-4515.256246,-1149.143247
2623.170094,518.144159,-6217.729913,-2374.896044
2623.170422,3108.864956,-9252.574275,-306.438199
2623.170750,3330.926739,-10362.883188,1915.238745
2623.171077,1924.535449,-10436.903782,2528.115143
2623.171405,888.247130,-10955.047942,1685.410096
2623.171732,1480.411884,-12509.480420,-536.266849
2623.172060,2516.700203,-13619.789333,-2374.896044
2623.172387,2738.761985,-13619.789333,-2451.505594
2623.172715,1924.535449,-12287.418637,-1072.533697
2623.173043,0.000000,-10658.965565,-766.095498
2623.173370,-2886.803174,-9030.512492,-689.485948
2623.173698,-4663.297435,-6587.832884,-536.266849
2623.174025,-3701.029710,-3627.009116,-1455.581446
2623.174353,-814.226536,-4515.256246,-1608.800546
2623.174681,2368.659014,-8290.306550,-612.876398
2623.175008,3997.112087,-9918.759623,2298.286494
2623.175336,2368.659014,-9622.677246,4826.401637
2623.175663,888.247130,-9400.615463,3983.696590
2623.175991,962.267725,-10362.883188,383.047749
2623.176319,1554.432478,-12583.501014,-2221.676944
2623.176646,1702.473667,-12509.480420,-2451.505594
2623.176974,1628.453072,-13249.686362,-1608.800546
2623.177301,888.247130,-12509.480420,-229.828649
2623.177629,-1702.473667,-10066.800811,-842.705048
2623.177957,-3552.988522,-6735.874072,-995.924147
2623.178284,-3552.988522,-4663.297435,-995.924147
2623.178612,-814.226536,-5033.400406,-1762.019645
2623.178939,2368.659014,-6883.915261,-919.314598
2623.179267,4219.173869,-10066.800811,1378.971896
2623.179595,3256.906145,-10066.800811,3524.039291
2623.179922,2220.617826,-10510.924376,2987.772442
2623.180250,1036.288319,-11325.150913,1378.971896
2623.180577,888.247130,-12879.583391,-1302.362347
2623.180905,888.247130,-13323.706956,-2451.505594
2623.181233,666.185348,-13693.809927,-2834.553343
2623.181560,-370.102971,-11843.295072,-2451.505594
2623.181888,-2368.659014,-9918.759623,-1225.752797
2623.182215,-3404.947333,-8734.430116,-766.095498
2623.182543,-4219.173869,-5921.647536,76.609550
2623.182871,-2220.617826,-4663.297435,-995.924147
2623.183198,0.000000,-5773.606348,-459.657299
2623.183526,2368.659014,-8216.285956,383.047749
2623.183853,2516.700203,-9622.677246,3677.258390
2623.184181,518.144159,-9770.718434,3907.087040
2623.184509,222.061783,-10955.047942,1762.019645
2623.184836,1036.288319,-13249.686362,-1149.143247
2623.185164,740.205942,-13693.809927,-1915.238745
2623.185491,444.123565,-12657.521608,-1455.581446
2623.185819,0.000000,-12805.562797,-1608.800546
2623.186147,-962.267725,-11547.212695,-1072.533697
2623.186474,-3256.906145,-7624.121203,-1302.362347
2623.186802,-3849.070898,-4367.215058,0.000000
2623.187130,-2442.679609,-3478.967927,-153.219100
2623.187457,740.205942,-5255.462188,0.000000
2623.187785,3552.988522,-7994.224174,842.705048
2623.188112,4515.256246,-10140.821405,2604.724693
2623.188440,3034.844362,-10658.965565,3064.381992
2623.188768,2886.803174,-11399.171507,1455.581446
2623.189095,2072.576638,-12509.480420,-459.657299
2623.189423,814.226536,-14063.912898,-1225.752797
2623.189750,1036.288319,-13323.706956,-2221.676944
2623.190078,518.144159,-12879.583391,-2451.505594
2623.190406,-1184.329507,-11473.192101,-1838.629195
2623.190733,-2294.638420,-8882.471304,-2298.286494
2623.191061,-3034.844362,-6883.915261,-689.485948
2623.191388,-3330.926739,-4367.215058,-536.266849
2623.191716,-222.061783,-5329.482782,-1302.362347
2623.192044,3108.864956,-7624.121203,-229.828649
2623.192371,4145.153275,-9770.718434,1685.410096
2623.192699,4071.132681,-11251.130318,2604.724693
2623.193026,2516.700203,-10510.924376,2528.115143
2623.193354,1776.494261,-11843.295072,229.828649
2623.193682,2294.638420,-13841.851115,-2145.067394
2623.194009,2220.617826,-13249.686362,-2221.676944
2623.194337,1702.473667,-12213.398043,-1762.019645
2623.194664,1628.453072,-11843.295072,-1455.581446
2623.194992,-444.123565,-8956.491898,-612.876398
2623.195320,-2664.741391,-5847.626942,0.000000
2623.195647,-3256.906145,-3552.988522,-383.047749
2623.195975,-1184.329507,-3997.112087,-766.095498
2623.196302,1702.473667,-7476.080014,-383.047749
2623.196630,3478.967927,-9844.739029,1685.410096
2623.196958,3923.091493,-10584.944971,3524.039291
2623.197285,1480.411884,-10140.821405,3140.991542
2623.197613,1184.329507,-11843.295072,1378.971896
2623.197941,1110.308913,-13101.645173,-612.876398
2623.198268,370.102971,-11991.336260,-1685.410096
2623.198596,-370.102971,-12139.377449,-1608.800546
2623.198923,0.000000,-11917.315666,-1915.238745
2623.199251,-2368.659014,-9918.759623,-919.314598
2623.199579,-5107.421000,-5921.647536,0.000000
2623.199906,-4737.318029,-4959.379811,-995.924147
2623.200234,-2368.659014,-5921.647536,-1762.019645
2623.200561,222.061783,-7328.038826,-1532.190996
2623.200889,2294.638420,-9178.553681,76.609550
2623.201217,3330.926739,-11251.130318,2681.334243
2623.201544,2368.659014,-11843.295072,3294.210641
2623.201872,1110.308913,-11917.315666,1915.238745
2623.202199,740.205942,-12361.439231,306.438199
2623.202527,1406.391290,-13027.624579,-2145.067394
2623.202855,1036.288319,-13027.624579,-2757.943793
2623.203182,-222.061783,-12953.603985,-2451.505594
2623.203510,-1110.308913,-11177.109724,-1991.848295
2623.203837,-2960.823768,-7402.059420,-689.485948
2623.204165,-4367.215058,-4367.215058,-766.095498
2623.204493,-2072.576638,-5033.400406,-1991.848295
2623.204820,1332.370696,-7476.080014,-383.047749
2623.205148,3775.050304,-8216.285956,919.314598
2623.205475,4737.318029,-10584.944971,2757.943793
2623.205803,3330.926739,-10732.986159,4060.306139
2623.206131,1628.453072,-9992.780217,3140.991542
2623.206458,1628.453072,-10881.027347,612.876398
2623.206786,370.102971,-11991.336260,-1685.410096
2623.207114,222.061783,-13101.645173,-2068.457845
2623.207441,444.123565,-11843.295072,-2528.115143
2623.207769,-1850.514855,-9770.718434,-2221.676944
2623.208096,-3404.947333,-8512.368333,-1149.143247
2623.208424,-3849.070898,-6217.729913,-766.095498
2623.208752,-3034.844362,-4441.235652,-459.657299
2623.209079,-518.144159,-5403.503377,0.000000
2623.209407,3701.029710,-7772.162391,153.219100
2623.209734,4589.276840,-9696.697840,2528.115143
2623.210062,3034.844362,-11325.150913,4136.915689
2623.210390,1258.350101,-11103.089130,2681.334243
2623.210717,296.082377,-11177.109724,0.000000
2623.211045,-296.082377,-11769.274478,-1915.238745
2623.211372,0.000000,-12435.459826,-2834.553343
2623.211700,0.000000,-13619.789333,-2987.772442
2623.212028,148.041188,-12953.603985,-1378.971896
2623.212355,-962.267725,-10584.944971,-919.314598
2623.212683,-2442.679609,-7624.121203,-536.266849
2623.213010,-2368.659014,-4885.359217,-995.924147
2623.213338,-740.205942,-5773.606348,-612.876398
2623.213666,1480.411884,-7772.162391,-153.219100
2623.213993,4071.132681,-10214.842000,1225.752797
2623.214321,3182.885551,-10732.986159,2987.772442
2623.214648,666.185348,-9992.780217,2834.553343
2623.214976,222.061783,-11769.274478,689.485948
2623.215304,296.082377,-13693.809927,-1455.581446
2623.215631,222.061783,-12879.583391,-2221.676944
2623.215959,962.267725,-12509.480420,-2528.115143
2623.216287,1480.411884,-11547.212695,-1991.848295
2623.216614,-222.061783,-9326.594869,-306.438199
2623.216942,-2442.679609,-6439.791695,612.876398
2623.217269,-3627.009116,-5181.441594,689.485948
2623.217597,-1924.535449,-4737.318029,-536.266849
2623.217925,1702.473667,-6217.729913,-1762.019645
2623.218252,2590.720797,-9252.574275,536.266849
2623.218580,2812.782580,-10362.883188,2757.943793
2623.218907,1480.411884,-10584.944971,2757.943793
2623.219235,74.020594,-10732.986159,1378.971896
2623.219563,-222.061783,-11843.295072,-612.876398
2623.219890,888.247130,-11843.295072,-1915.238745
2623.220218,1702.473667,-11695.253884,-1378.971896
2623.220545,1924.535449,-12509.480420,-306.438199
2623.220873,0.000000,-9844.739029,-612.876398
2623.221201,-2442.679609,-7105.977043,-536.266849
2623.221528,-3552.988522,-6143.709319,-383.047749
2623.221856,-2294.638420,-5477.523971,-1455.581446
2623.222183,814.226536,-7328.038826,-1915.238745
2623.222511,3404.947333,-10066.800811,0.000000
2623.222839,3997.112087,-11621.233289,1838.629195
2623.223166,2368.659014,-11325.150913,3294.210641
2623.223494,296.082377,-10955.047942,2451.505594
2623.223821,0.000000,-11177.109724,0.000000
2623.224149,1184.329507,-12731.542202,-2298.286494
2623.224477,1480.411884,-12435.459826,-1991.848295
2623.224804,1480.411884,-11251.130318,-1225.752797
2623.225132,74.020594,-10807.006753,-612.876398
2623.225460,-2442.679609,-9178.553681,0.000000
2623.225787,-3997.112087,-7179.997637,-689.485948
2623.226115,-3330.926739,-6069.688724,-1225.752797
2623.226442,-518.144159,-6661.853478,-1838.629195
2623.226770,2664.741391,-8586.388927,-1149.143247
2623.227098,4145.153275,-11103.089130,919.314598
2623.227425,3256.906145,-11843.295072,2604.724693
2623.227753,592.164754,-9918.759623,4290.134789
2623.228080,148.041188,-9030.512492,1532.190996
2623.228408,148.041188,-10955.047942,-1838.629195
2623.228736,1036.288319,-12361.439231,-2374.896044
2623.229063,1036.288319,-11103.089130,-1532.190996
2623.229391,296.082377,-10732.986159,-383.047749
2623.229718,-1184.329507,-9770.718434,1149.143247
2623.230046,-3701.029710,-6809.894666,-229.828649
2623.230374,-3627.009116,-5477.523971,-1685.410096
2623.230701,-1554.432478,-6513.812290,-1838.629195
2623.231029,1924.535449,-8364.327145,-1532.190996
2623.231356,3849.070898,-10510.924376,842.705048
2623.231684,2886.803174,-10436.903782,3830.477490
2623.232012,1406.391290,-10140.821405,3370.820191
2623.232339,222.061783,-9992.780217,1608.800546
2623.232667,0.000000,-11695.253884,-1302.362347
2623.232994,518.144159,-12361.439231,-3447.429741
2623.233322,962.267725,-12139.377449,-2987.772442
2623.233650,296.082377,-11843.295072,-1378.971896
2623.233977,-740.205942,-11325.150913,0.000000
2623.234305,-2294.638420,-8290.306550,0.000000
2623.234632,-3627.009116,-5773.606348,-153.219100
2623.234960,-1998.556043,-5921.647536,-1608.800546
2623.235288,1110.308913,-7105.977043,-1838.629195
2623.235615,3404.947333,-9030.512492,0.000000
2623.235943,3330.926739,-10584.944971,2451.505594
2623.236271,1406.391290,-10066.800811,3983.696590
2623.236598,-592.164754,-9696.697840,1838.629195
2623.236926,-370.102971,-10140.821405,-919.314598
2623.237253,518.144159,-11991.336260,-3064.381992
2623.237581,1110.308913,-12805.562797,-2834.553343
2623.237909,1850.514855,-12139.377449,-1225.752797
2623.238236,1332.370696,-11769.274478,76.609550
2623.238564,148.041188,-9326.594869,1225.752797
2623.238891,-2146.597232,-6809.894666,1455.581446
2623.239219,-2294.638420,-4737.318029,306.438199
2623.239547,0.000000,-5921.647536,-689.485948
2623.239874,2664.741391,-8290.306550,-766.095498
2623.240202,3404.947333,-9326.594869,1378.971896
2623.240529,888.247130,-9474.636058,3370.820191
2623.240857,-370.102971,-9770.718434,2068.457845
2623.241185,-444.123565,-10288.862594,0.000000
2623.241512,296.082377,-12213.398043,-3217.601092
2623.241840,1110.308913,-12879.583391,-3140.991542
2623.242167,2294.638420,-12509.480420,-1915.238745
2623.242495,1554.432478,-12213.398043,153.219100
2623.242823,-518.144159,-10214.842000,459.657299
2623.243150,-2738.761985,-7179.997637,766.095498
2623.243478,-2516.700203,-5847.626942,-766.095498
2623.243805,-518.144159,-5699.585753,-2068.457845
2623.244133,1258.350101,-7476.080014,-1225.752797
2623.244461,1850.514855,-10214.842000,229.828649
2623.244788,1110.308913,-11103.089130,1991.848295
2623.245116,-666.185348,-10732.986159,1685.410096
2623.245444,-1332.370696,-10510.924376,0.000000
2623.245771,-740.205942,-10881.027347,-1915.238745
2623.246099,1110.308913,-12065.356855,-2528.115143
2623.246426,2368.659014,-13175.665768,-1991.848295
2623.246754,3256.906145,-12953.603985,0.000000
2623.247082,1258.350101,-10362.883188,842.705048
2623.247409,-1998.556043,-7550.100608,459.657299
2623.247737,-2368.659014,-7031.956449,-842.705048
2623.248064,-888.247130,-5995.668130,-1838.629195
2623.248392,740.205942,-6513.812290,-1762.019645
2623.248720,2664.741391,-8734.430116,0.000000
2623.249047,3552.988522,-10658.965565,2528.115143
2623.249375,1850.514855,-10140.821405,3983.696590
2623.249702,518.144159,-9474.636058,2681.334243
2623.250030,148.041188,-10214.842000,-766.095498
2623.250358,1480.411884,-11695.253884,-2221.676944
2623.250685,1924.535449,-11695.253884,-2374.896044
2623.251013,1406.391290,-11695.253884,0.000000
2623.251340,148.041188,-10955.047942,1225.752797
2623.251668,-2368.659014,-8364.327145,1149.143247
2623.251996,-4515.256246,-6069.688724,-153.219100
2623.252323,-3330.926739,-5847.626942,-1915.238745
2623.252651,-1110.308913,-7031.956449,-3294.210641
2623.252978,740.205942,-7920.203579,-1225.752797
2623.253306,2442.679609,-9918.759623,1149.143247
2623.253634,1776.494261,-10066.800811,3217.601092
2623.253961,148.041188,-9474.636058,2757.943793
2623.254289,222.061783,-10658.965565,766.095498
2623.254617,1110.308913,-12657.521608,-1149.143247
2623.254944,2146.597232,-13175.665768,-1915.238745
2623.255272,1332.370696,-11547.212695,-1532.190996
2623.255599,0.000000,-12287.418637,-995.924147
2623.255927,-1480.411884,-10955.047942,-536.266849
2623.256255,-2368.659014,-8068.244768,-1149.143247
2623.256582,-2516.700203,-6365.771101,-1302.362347
2623.256910,-888.247130,-6883.915261,-1532.190996
2623.257237,2516.700203,-8364.327145,-689.485948
2623.257565,3997.112087,-10288.862594,1072.533697
2623.257893,1480.411884,-9030.512492,3064.381992
2623.258220,0.000000,-8956.491898,2681.334243
2623.258548,-296.082377,-9548.656652,383.047749
2623.258875,444.123565,-11399.171507,-1838.629195
2623.259203,1702.473667,-12065.356855,-2451.505594
2623.259531,1628.453072,-12435.459826,-1532.190996
2623.259858,1554.432478,-12731.542202,-612.876398
2623.260186,0.000000,-11029.068536,0.000000
2623.260513,-2812.782580,-7550.100608,0.000000
2623.260841,-3923.091493,-5255.462188,0.000000
2623.261169,-1924.535449,-5255.462188,-1149.143247
2623.261496,1406.391290,-6957.935855,-1762.019645
2623.261824,2812.782580,-8438.347739,1149.143247
2623.262151,2072.576638,-9474.636058,3830.477490
2623.262479,0.000000,-9252.574275,3524.039291
2623.262807,-740.205942,-9474.636058,1225.752797
2623.263134,296.082377,-10732.986159,-1915.238745
2623.263462,666.185348,-12731.542202,-3524.039291
2623.263790,1998.556043,-13767.830521,-1532.190996
2623.264117,1776.494261,-12731.542202,-1149.143247
2623.264445,1036.288319,-11399.171507,1072.533697
2623.264772,-1850.514855,-8512.368333,689.485948
2623.265100,-3330.926739,-6587.832884,-229.828649
2623.265428,-2072.576638,-5403.503377,-1608.800546
2623.265755,222.061783,-5847.626942,-2221.676944
2623.266083,1406.391290,-8364.327145,-383.047749
2623.266410,2146.597232,-10288.862594,2451.505594
2623.266738,814.226536,-10066.800811,2834.553343
2623.267066,518.144159,-10214.842000,919.314598
2623.267393,74.020594,-11251.130318,-1072.533697
2623.267721,740.205942,-13619.789333,-2451.505594
2623.268048,2294.638420,-14359.995275,-2451.505594
2623.268376,1776.494261,-13101.645173,-919.314598
2623.268704,-370.102971,-10955.047942,0.000000
2623.269031,-2368.659014,-9178.553681,229.828649
2623.269359,-3849.070898,-7031.956449,766.095498
2623.269686,-3552.988522,-5107.421000,-536.266849
2623.270014,-666.185348,-5699.585753,-1608.800546
2623.270342,1480.411884,-7920.203579,-1532.190996
2623.270669,2368.659014,-9622.677246,919.314598
2623.270997,1850.514855,-9548.656652,2451.505594
2623.271324,0.000000,-9030.512492,2298.286494
2623.271652,296.082377,-10214.842000,536.266849
2623.271980,2368.659014,-12065.356855,-1991.848295
2623.272307,3182.885551,-13323.706956,-1685.410096
2623.272635,2738.761985,-13619.789333,-383.047749
2623.272962,2442.679609,-12657.521608,536.266849
2623.273290,0.000000,-9844.739029,0.000000
2623.273618,-3552.988522,-5625.565159,-153.219100
2623.273945,-3034.844362,-5329.482782,-1532.190996
2623.274273,-1480.411884,-5329.482782,-1685.410096
2623.274601,666.185348,-6587.832884,-689.485948
2623.274928,2590.720797,-9252.574275,1225.752797
2623.275256,2368.659014,-9844.739029,2911.162892
2623.275583,962.267725,-10140.821405,1838.629195
2623.275911,888.247130,-10288.862594,-689.485948
2623.276239,1258.350101,-13175.665768,-1838.629195
2623.276566,2146.597232,-14063.912898,-1991.848295
2623.276894,2738.761985,-13397.727550,-995.924147
2623.277221,296.082377,-12435.459826,0.000000
2623.277549,-2442.679609,-10288.862594,229.828649
2623.277877,-2886.803174,-7846.182985,-1225.752797
2623.278204,-4515.256246,-5699.585753,-2298.286494
2623.278532,-3627.009116,-5255.462188,-1838.629195
2623.278859,148.041188,-7105.977043,-1455.581446
2623.279187,2516.700203,-9326.594869,229.828649
2623.279515,2664.741391,-9326.594869,2374.896044
2623.279842,1332.370696,-9178.553681,3294.210641
2623.280170,1184.329507,-9548.656652,1991.848295
2623.280497,1480.411884,-12509.480420,306.438199
2623.280825,2590.720797,-13027.624579,-1838.629195
2623.281153,2738.761985,-13397.727550,-2068.457845
2623.281480,1110.308913,-13841.851115,-536.266849
2623.281808,-740.205942,-11399.171507,-536.266849
2623.282135,-2738.761985,-8142.265362,-1302.362347
2623.282463,-4219.173869,-5921.647536,-1608.800546
2623.282791,-3627.009116,-4737.318029,-1149.143247
2623.283118,0.000000,-5921.647536,-1378.971896
2623.283446,1998.556043,-7328.038826,842.705048
2623.283774,2442.679609,-9252.574275,2604.724693
2623.284101,2294.638420,-9474.636058,3830.477490
2623.284429,666.185348,-9030.512492,2681.334243
2623.284756,888.247130,-10732.986159,-612.876398
2623.285084,1702.473667,-13323.706956,-2221.676944
2623.285412,2368.659014,-15174.221811,-2451.505594
2623.285739,666.185348,-13471.748144,-612.876398
2623.286067,-1332.370696,-11917.315666,-842.705048
2623.286395,-2442.679609,-9770.718434,-1302.362347
2623.286722,-3478.967927,-7105.977043,-919.314598
2623.287050,-3701.029710,-4441.235652,-2221.676944
2623.287378,-1184.329507,-5255.462188,-1532.190996
2623.287705,2516.700203,-7328.038826,306.438199
2623.288033,3997.112087,-9252.574275,1608.800546
2623.288361,2738.761985,-10140.821405,2987.772442
2623.288688,888.247130,-10066.800811,2451.505594
2623.289016,1702.473667,-10955.047942,0.000000
2623.289344,2220.617826,-13027.624579,-1838.629195
2623.289671,2146.597232,-14211.954086,-2451.505594
2623.289999,1998.556043,-13471.748144,-1378.971896
2623.290327,1702.473667,-13101.645173,-995.924147
2623.290654,-592.164754,-11325.150913,-1072.533697
2623.290982,-2960.823768,-7328.038826,-612.876398
2623.291310,-4293.194464,-3849.070898,-612.876398
2623.291637,-2516.700203,-3627.009116,-766.095498
2623.291965,888.247130,-6291.750507,229.828649
2623.292293,2960.823768,-8660.409521,1991.848295
2623.292620,3256.906145,-9474.636058,3830.477490
2623.292948,1628.453072,-9548.656652,2987.772442
2623.293276,370.102971,-10140.821405,766.095498
2623.293603,1998.556043,-13397.727550,-1532.190996
2623.293931,1554.432478,-13175.665768,-1685.410096
2623.294259,1702.473667,-13175.665768,-1302.362347
2623.294586,814.226536,-12213.398043,-229.828649
2623.294914,-592.164754,-10214.842000,-919.314598
2623.295242,-2812.782580,-6957.935855,-766.095498
2623.295569,-3849.070898,-4737.318029,-459.657299
2623.295897,-3034.844362,-3997.112087,-1225.752797
2623.296225,0.000000,-6661.853478,-1149.143247
2623.296552,2368.659014,-9548.656652,536.266849
2623.296880,3478.967927,-10510.924376,1378.971896
2623.297208,2516.700203,-10881.027347,2298.286494
2623.297535,2220.617826,-11843.295072,1225.752797
2623.297863,2220.617826,-13545.768739,-383.047749
2623.298191,2516.700203,-13989.892304,-1455.581446
2623.298518,2960.823768,-13397.727550,-2221.676944
2623.298846,1258.350101,-13175.665768,-612.876398
2623.299174,-370.102971,-11621.233289,-1149.143247
2623.299501,-2812.782580,-8290.306550,-1532.190996
2623.299829,-4811.338623,-5403.503377,-919.314598
2623.300157,-4737.318029,-4515.256246,-1225.752797
2623.300484,-1258.350101,-5995.668130,-1532.190996
2623.300812,1406.391290,-7994.224174,383.047749
2623.301140,2516.700203,-9770.718434,1608.800546
2623.301467,1628.453072,-9992.780217,3830.477490
2623.301795,666.185348,-10214.842000,2834.553343
2623.302123,1332.370696,-10658.965565,383.047749
2623.302450,2368.659014,-12731.542202,-1149.143247
2623.302778,2442.679609,-13619.789333,-842.705048
2623.303106,1406.391290,-12583.501014,-306.438199
2623.303433,0.000000,-10658.965565,-536.266849
2623.303761,-2886.803174,-8364.327145,-689.485948
