#time,accel_x,accel_y,accel_z
3441.034589,0.000000,-9548.656652,-612.876398
3441.034917,74.020594,-9770.718434,-689.485948
3441.035244,148.041188,-10140.821405,-689.485948
3441.035572,666.185348,-10066.800811,0.000000
3441.035900,814.226536,-10214.842000,-459.657299
3441.036227,888.247130,-10362.883188,0.000000
3441.036555,740.205942,-9918.759623,-153.219100
3441.036882,592.164754,-10066.800811,-229.828649
3441.037210,370.102971,-9918.759623,-459.657299
3441.037538,0.000000,-9844.739029,-383.047749
3441.037865,0.000000,-9474.636058,-919.314598
3441.038193,296.082377,-9992.780217,-1532.190996
3441.038520,0.000000,-9770.718434,-919.314598
3441.038848,222.061783,-10288.862594,-383.047749
3441.039175,444.123565,-10362.883188,-612.876398
3441.039503,444.123565,-10140.821405,-306.438199
3441.039831,814.226536,-10214.842000,0.000000
3441.040158,592.164754,-9474.636058,229.828649
3441.040486,888.247130,-9474.636058,0.000000
3441.040813,518.144159,-9622.677246,-689.485948
3441.041141,296.082377,-8956.491898,76.609550
3441.041469,0.000000,-8956.491898,-383.047749
3441.041796,74.020594,-8882.471304,-612.876398
3441.042124,0.000000,-9326.594869,-383.047749
3441.042451,370.102971,-9400.615463,-689.485948
3441.042779,518.144159,-9326.594869,-383.047749
3441.043107,296.082377,-9474.636058,76.609550
3441.043434,666.185348,-9770.718434,0.000000
3441.043762,666.185348,-9844.739029,153.219100
3441.044089,444.123565,-9548.656652,153.219100
3441.044417,148.041188,-9474.636058,306.438199
3441.044744,296.082377,-9400.615463,306.438199
3441.045072,-296.082377,-9548.656652,153.219100
3441.045400,0.000000,-9770.718434,-536.266849
3441.045727,-296.082377,-9548.656652,0.000000
3441.046055,0.000000,-10066.800811,-459.657299
3441.046382,148.041188,-9992.780217,-689.485948
3441.046710,444.123565,-10140.821405,-459.657299
3441.047038,666.185348,-10140.821405,0.000000
3441.047365,888.247130,-10214.842000,-1149.143247
3441.047693,444.123565,-9474.636058,229.828649
3441.048020,962.267725,-9326.594869,-229.828649
3441.048348,1554.432478,-9622.677246,76.609550
3441.048676,2146.597232,-9252.574275,-459.657299
3441.049003,2812.782580,-8808.450710,-383.047749
3441.049331,3552.988522,-9178.553681,-766.095498
3441.049658,4589.276840,-9474.636058,-383.047749
3441.049986,5847.626942,-9770.718434,0.000000
3441.050313,6957.935855,-9548.656652,76.609550
3441.050641,7624.121203,-9992.780217,0.000000
3441.050969,8512.368333,-10658.965565,229.828649
3441.051296,8734.430116,-10510.924376,919.314598
3441.051624,8216.285956,-10066.800811,766.095498
3441.051951,8364.327145,-9104.533087,306.438199
3441.052279,8808.450710,-8734.430116,-229.828649
3441.052607,9400.615463,-8364.327145,-919.314598
3441.052934,9474.636058,-8438.347739,153.219100
3441.053262,10510.924376,-9178.553681,0.000000
3441.053589,11325.150913,-8956.491898,0.000000
3441.053917,11769.274478,-9474.636058,76.609550
3441.054245,11769.274478,-9696.697840,76.609550
3441.054572,11843.295072,-9696.697840,-766.095498
3441.054900,12361.439231,-9770.718434,76.609550
3441.055227,12805.562797,-10214.842000,-383.047749
3441.055555,13545.768739,-10584.944971,383.047749
3441.055882,14211.954086,-9400.615463,842.705048
3441.056210,14434.015869,-8216.285956,153.219100
3441.056538,13619.789333,-9104.533087,689.485948
3441.056865,13397.727550,-9696.697840,-306.438199
3441.057193,12731.542202,-9696.697840,-229.828649
3441.057520,12583.501014,-10510.924376,0.000000
3441.057848,13101.645173,-9844.739029,229.828649
3441.058176,13175.665768,-10140.821405,689.485948
3441.058503,13471.748144,-9844.739029,1762.019645
3441.058831,13545.768739,-9622.677246,1149.143247
3441.059158,12435.459826,-9326.594869,0.000000
3441.059486,11473.192101,-10288.862594,995.924147
3441.059814,10140.821405,-10584.944971,-153.219100
3441.060141,8216.285956,-9400.615463,-536.266849
3441.060469,6735.874072,-8068.244768,-536.266849
3441.060796,7031.956449,-7994.224174,-306.438199
3441.061124,8142.265362,-8216.285956,-536.266849
3441.061451,10140.821405,-10362.883188,0.000000
3441.061779,9992.780217,-11695.253884,689.485948
3441.062107,9992.780217,-11103.089130,995.924147
3441.062434,8660.409521,-9104.533087,1225.752797
3441.062762,8068.244768,-7846.182985,612.876398
3441.063089,8290.306550,-6883.915261,229.828649
3441.063417,9104.533087,-10140.821405,919.314598
3441.063745,8882.471304,-11177.109724,2068.457845
3441.064072,8956.491898,-9918.759623,76.609550
3441.064400,7254.018232,-7105.977043,-689.485948
3441.064727,5699.585753,-9252.574275,-689.485948
3441.065055,5625.565159,-11251.130318,-612.876398
3441.065383,6513.812290,-9918.759623,-1455.581446
3441.065710,9178.553681,-8216.285956,-1608.800546
3441.066038,11547.212695,-8586.388927,-689.485948
3441.066365,10066.800811,-9844.739029,2068.457845
3441.066693,7550.100608,-8216.285956,4060.306139
3441.067020,8216.285956,-7402.059420,1991.848295
3441.067348,10288.862594,-9030.512492,-1915.238745
3441.067676,10362.883188,-11621.233289,-2681.334243
3441.068003,9622.677246,-10584.944971,-1302.362347
3441.068331,9474.636058,-9326.594869,0.000000
3441.068658,9622.677246,-10807.006753,0.000000
3441.068986,9474.636058,-11843.295072,0.000000
3441.069314,8364.327145,-10140.821405,0.000000
3441.069641,8882.471304,-9030.512492,-689.485948
3441.069969,11103.089130,-8068.244768,-1762.019645
3441.070296,10807.006753,-8734.430116,153.219100
3441.070624,10066.800811,-9770.718434,2834.553343
3441.070952,9104.533087,-7698.141797,2451.505594
3441.071279,9918.759623,-5995.668130,-306.438199
3441.071607,10881.027347,-9178.553681,-1762.019645
3441.071934,13471.748144,-11991.336260,-1532.190996
3441.072262,15840.407159,-11251.130318,-919.314598
3441.072589,14804.118840,-9474.636058,612.876398
3441.072917,13175.665768,-11695.253884,1915.238745
3441.073245,14211.954086,-11917.315666,0.000000
3441.073572,14211.954086,-10066.800811,-536.266849
3441.073900,13323.706956,-9474.636058,-306.438199
3441.074227,12361.439231,-8956.491898,0.000000
3441.074555,11473.192101,-9696.697840,1608.800546
3441.074883,10436.903782,-8882.471304,3524.039291
3441.075210,10510.924376,-6513.812290,459.657299
3441.075538,7254.018232,-7624.121203,459.657299
3441.075865,6883.915261,-9992.780217,766.095498
3441.076193,8734.430116,-9696.697840,-1302.362347
3441.076521,9548.656652,-8290.306550,-2221.676944
3441.076848,11399.171507,-8438.347739,-612.876398
3441.077176,11917.315666,-12879.583391,1838.629195
3441.077503,11991.336260,-13249.686362,2298.286494
3441.077831,11547.212695,-10732.986159,995.924147
3441.078158,8660.409521,-12509.480420,153.219100
3441.078486,5773.606348,-11251.130318,-919.314598
3441.078814,3108.864956,-11325.150913,-842.705048
3441.079141,1258.350101,-9104.533087,0.000000
3441.079469,0.000000,-7105.977043,-306.438199
3441.079796,-1332.370696,-9844.739029,459.657299
3441.080124,-2294.638420,-8438.347739,1225.752797
3441.080452,-1850.514855,-5847.626942,229.828649
3441.080779,814.226536,-6217.729913,-689.485948
3441.081107,222.061783,-8364.327145,536.266849
3441.081434,-1184.329507,-9548.656652,2451.505594
3441.081762,296.082377,-9770.718434,-306.438199
3441.082090,1184.329507,-10807.006753,-3140.991542
3441.082417,2886.803174,-11177.109724,-3294.210641
3441.082745,4737.318029,-11843.295072,-2298.286494
3441.083072,5995.668130,-13841.851115,-459.657299
3441.083400,4589.276840,-14656.077652,2451.505594
3441.083727,2442.679609,-10584.944971,2451.505594
3441.084055,-370.102971,-7624.121203,919.314598
3441.084383,-4663.297435,-7105.977043,459.657299
3441.084710,-5477.523971,-6069.688724,-842.705048
3441.085038,-6217.729913,-4145.153275,-995.924147
3441.085365,-5995.668130,-4737.318029,-306.438199
3441.085693,-3701.029710,-7328.038826,0.000000
3441.086021,-518.144159,-9918.759623,306.438199
3441.086348,-592.164754,-9104.533087,612.876398
3441.086676,444.123565,-10362.883188,-306.438199
3441.087003,-222.061783,-9474.636058,-2528.115143
3441.087331,-592.164754,-12879.583391,-4290.134789
3441.087659,148.041188,-13101.645173,-1991.848295
3441.087986,3849.070898,-11029.068536,-1072.533697
3441.088314,4663.297435,-11843.295072,1532.190996
3441.088641,3108.864956,-12657.521608,2834.553343
3441.088969,1406.391290,-11251.130318,689.485948
3441.089296,0.000000,-7698.141797,-1685.410096
3441.089624,-1480.411884,-7105.977043,-2451.505594
3441.089952,-888.247130,-5847.626942,-2604.724693
3441.090279,-444.123565,-5477.523971,229.828649
3441.090607,2960.823768,-7328.038826,1838.629195
3441.090934,5773.606348,-9844.739029,1302.362347
3441.091262,6957.935855,-13397.727550,1302.362347
3441.091590,5995.668130,-14137.933492,995.924147
3441.091917,4811.338623,-12731.542202,-1302.362347
3441.092245,3404.947333,-13175.665768,-3370.820191
3441.092572,1776.494261,-13249.686362,-2451.505594
3441.092900,148.041188,-9918.759623,-766.095498
3441.093228,518.144159,-8586.388927,229.828649
3441.093555,1110.308913,-9400.615463,2221.676944
3441.093883,1554.432478,-9696.697840,2451.505594
3441.094210,74.020594,-8512.368333,1762.019645
3441.094538,-1480.411884,-6809.894666,766.095498
3441.094865,-2294.638420,-4071.132681,-766.095498
3441.095193,-1480.411884,-5625.565159,-995.924147
3441.095521,222.061783,-8734.430116,1072.533697
3441.095848,3182.885551,-9400.615463,536.266849
3441.096176,4219.173869,-10732.986159,0.000000
3441.096503,3404.947333,-15100.201217,229.828649
3441.096831,1258.350101,-14508.036463,-306.438199
3441.097159,74.020594,-12065.356855,-1455.581446
3441.097486,-444.123565,-10362.883188,-1838.629195
3441.097814,-1480.411884,-9918.759623,-1455.581446
3441.098142,-3775.050304,-9252.574275,1455.581446
3441.098470,-3923.091493,-8142.265362,1685.410096
3441.098797,-2886.803174,-8364.327145,1378.971896
3441.099125,-740.205942,-7105.977043,-459.657299
3441.099453,518.144159,-6291.750507,-1225.752797
3441.099781,-814.226536,-7698.141797,1072.533697
3441.100108,0.000000,-9400.615463,1455.581446
3441.100436,1184.329507,-10436.903782,-995.924147
3441.100764,814.226536,-12509.480420,-1608.800546
3441.101092,-1184.329507,-11917.315666,-995.924147
3441.101419,-740.205942,-12287.418637,-1838.629195
3441.101747,-1332.370696,-12879.583391,-1838.629195
3441.102075,-2294.638420,-11843.295072,-2757.943793
3441.102403,-3478.967927,-10436.903782,-2298.286494
3441.102730,-2664.741391,-9252.574275,-383.047749
3441.103058,-888.247130,-8216.285956,229.828649
3441.103386,-518.144159,-7550.100608,1762.019645
3441.103714,-592.164754,-3997.112087,1838.629195
3441.104041,-740.205942,-5107.421000,919.314598
3441.104369,-740.205942,-8290.306550,689.485948
3441.104697,1258.350101,-8438.347739,0.000000
3441.105025,1776.494261,-8438.347739,766.095498
3441.105352,2146.597232,-11991.336260,536.266849
3441.105680,1628.453072,-14285.974681,-536.266849
3441.106008,740.205942,-14211.954086,-1915.238745
3441.106336,740.205942,-11621.233289,-2834.553343
3441.106663,888.247130,-11621.233289,-2604.724693
3441.106991,-1258.350101,-9104.533087,0.000000
3441.107319,0.000000,-7031.956449,1762.019645
3441.107646,0.000000,-7328.038826,1225.752797
3441.107974,518.144159,-7994.224174,1149.143247
3441.108302,1036.288319,-7698.141797,229.828649
3441.108630,1110.308913,-7105.977043,612.876398
3441.108957,1554.432478,-6883.915261,229.828649
3441.109285,2368.659014,-9104.533087,-536.266849
3441.109613,2812.782580,-11843.295072,-536.266849
3441.109941,5255.462188,-12657.521608,-1608.800546
3441.110268,4293.194464,-13101.645173,-995.924147
3441.110596,3552.988522,-13693.809927,306.438199
3441.110924,2072.576638,-12953.603985,306.438199
3441.111252,-1036.288319,-10510.924376,153.219100
3441.111579,-2146.597232,-10214.842000,-766.095498
3441.111907,-1850.514855,-8290.306550,-1915.238745
3441.112235,-1850.514855,-6513.812290,-919.314598
3441.112563,-296.082377,-6439.791695,-306.438199
3441.112890,-740.205942,-7994.224174,995.924147
3441.113218,-592.164754,-7772.162391,1991.848295
3441.113546,74.020594,-6735.874072,1532.190996
3441.113874,1628.453072,-7402.059420,536.266849
3441.114201,4071.132681,-11103.089130,1302.362347
3441.114529,4441.235652,-12065.356855,995.924147
3441.114857,1998.556043,-13101.645173,2298.286494
3441.115185,0.000000,-13471.748144,0.000000
3441.115512,-1998.556043,-13693.809927,-2911.162892
3441.115840,-3923.091493,-10140.821405,-2528.115143
3441.116168,-3256.906145,-7179.997637,-3600.648841
3441.116496,-2368.659014,-8808.450710,-1378.971896
3441.116823,-2072.576638,-10807.006753,2298.286494
3441.117151,740.205942,-7179.997637,536.266849
3441.117479,740.205942,-5181.441594,612.876398
3441.117806,-1924.535449,-6661.853478,2068.457845
3441.118134,-1628.453072,-8512.368333,1838.629195
3441.118462,-2146.597232,-8142.265362,229.828649
3441.118790,-666.185348,-8068.244768,-1072.533697
3441.119117,222.061783,-10510.924376,-2145.067394
3441.119445,1258.350101,-13841.851115,-612.876398
3441.119773,1332.370696,-14211.954086,1072.533697
3441.120101,1036.288319,-12065.356855,459.657299
3441.120428,0.000000,-9548.656652,-2221.676944
3441.120756,-3330.926739,-9474.636058,-2604.724693
3441.121084,-4811.338623,-8882.471304,-1532.190996
3441.121412,-962.267725,-5699.585753,-995.924147
3441.121739,0.000000,-5107.421000,1072.533697
3441.122067,1184.329507,-9326.594869,3447.429741
3441.122395,740.205942,-11029.068536,2911.162892
3441.122723,1554.432478,-9030.512492,306.438199
3441.123050,2072.576638,-9548.656652,-2451.505594
3441.123378,1850.514855,-11769.274478,-3140.991542
3441.123706,-370.102971,-11917.315666,-2068.457845
3441.124034,0.000000,-9622.677246,0.000000
3441.124361,1036.288319,-11029.068536,-612.876398
3441.124689,740.205942,-13397.727550,0.000000
3441.125017,-444.123565,-12065.356855,995.924147
3441.125345,740.205942,-8808.450710,0.000000
3441.125672,1554.432478,-7772.162391,-1532.190996
3441.126000,814.226536,-8142.265362,-306.438199
3441.126328,-1554.432478,-7402.059420,1072.533697
3441.126656,1110.308913,-5625.565159,459.657299
3441.126983,2442.679609,-7105.977043,612.876398
3441.127311,3330.926739,-11177.109724,1991.848295
3441.127639,1924.535449,-10807.006753,3370.820191
3441.127966,2072.576638,-9474.636058,1378.971896
3441.128294,2590.720797,-11177.109724,-1532.190996
3441.128622,2368.659014,-13101.645173,-2604.724693
3441.128950,-740.205942,-12065.356855,-459.657299
3441.129277,-666.185348,-8068.244768,-306.438199
3441.129605,-370.102971,-7624.121203,-1915.238745
3441.129933,-1036.288319,-9622.677246,-842.705048
3441.130261,-370.102971,-8512.368333,459.657299
3441.130588,1110.308913,-6735.874072,536.266849
3441.130916,3701.029710,-7402.059420,689.485948
3441.131244,2220.617826,-10436.903782,1991.848295
3441.131572,-1332.370696,-11399.171507,2451.505594
3441.131899,-296.082377,-9696.697840,-1915.238745
3441.132227,888.247130,-9474.636058,-4673.182538
3441.132555,2664.741391,-12361.439231,-3370.820191
3441.132883,1554.432478,-11843.295072,153.219100
3441.133210,1850.514855,-11399.171507,2911.162892
3441.133538,2294.638420,-12879.583391,1302.362347
3441.133866,962.267725,-12879.583391,-1302.362347
3441.134194,-3108.864956,-9104.533087,-1838.629195
3441.134521,-5551.544565,-6365.771101,-2298.286494
3441.134849,-4885.359217,-6587.832884,-2451.505594
3441.135177,-3849.070898,-7994.224174,-1149.143247
3441.135505,-2146.597232,-8142.265362,0.000000
3441.135832,0.000000,-8882.471304,1915.238745
3441.136160,2886.803174,-9104.533087,1302.362347
3441.136488,3330.926739,-11843.295072,995.924147
3441.136816,1554.432478,-11991.336260,1838.629195
3441.137143,0.000000,-7105.977043,0.000000
3441.137471,-1184.329507,-8290.306550,-1762.019645
3441.137799,-3404.947333,-10584.944971,-842.705048
3441.138126,-1776.494261,-9918.759623,383.047749
3441.138454,-370.102971,-8660.409521,1149.143247
3441.138782,592.164754,-10362.883188,842.705048
3441.139110,-370.102971,-11103.089130,153.219100
3441.139437,-814.226536,-10584.944971,-919.314598
3441.139765,-518.144159,-7846.182985,-1608.800546
3441.140093,-222.061783,-5403.503377,-1302.362347
3441.140421,-1480.411884,-6143.709319,306.438199
3441.140748,222.061783,-8586.388927,2451.505594
3441.141076,1628.453072,-11177.109724,3140.991542
3441.141404,3627.009116,-10881.027347,383.047749
3441.141732,3034.844362,-13027.624579,-612.876398
3441.142059,2812.782580,-14804.118840,-1608.800546
3441.142387,-148.041188,-11473.192101,-2451.505594
3441.142715,-444.123565,-9400.615463,-3830.477490
3441.143043,-1184.329507,-9992.780217,-2374.896044
3441.143370,0.000000,-9400.615463,-995.924147
3441.143698,2590.720797,-7994.224174,536.266849
3441.144026,3701.029710,-8660.409521,2068.457845
3441.144354,3404.947333,-9992.780217,3524.039291
3441.144681,3330.926739,-9474.636058,1455.581446
3441.145009,0.000000,-8216.285956,229.828649
3441.145337,-222.061783,-7476.080014,-1608.800546
3441.145665,1036.288319,-8216.285956,-2145.067394
3441.145992,666.185348,-11547.212695,-1149.143247
3441.146320,74.020594,-11621.233289,-229.828649
3441.146648,1628.453072,-10807.006753,-1838.629195
3441.146976,370.102971,-11547.212695,-842.705048
3441.147303,1258.350101,-11769.274478,-383.047749
3441.147631,1998.556043,-8290.306550,-383.047749
3441.147959,0.000000,-7105.977043,1455.581446
3441.148286,-1110.308913,-9030.512492,2221.676944
3441.148614,370.102971,-9622.677246,-995.924147
3441.148942,-1110.308913,-6809.894666,-306.438199
3441.149270,1480.411884,-8216.285956,-689.485948
3441.149597,2886.803174,-10214.842000,536.266849
3441.149925,3256.906145,-12583.501014,1532.190996
3441.150253,3108.864956,-11991.336260,1302.362347
3441.150581,2664.741391,-12213.398043,-1608.800546
3441.150908,0.000000,-11029.068536,-1532.190996
3441.151236,-2812.782580,-8438.347739,-1685.410096
3441.151564,-4441.235652,-8438.347739,-536.266849
3441.151892,-3627.009116,-8660.409521,-842.705048
3441.152219,-2072.576638,-8364.327145,-306.438199
3441.152547,0.000000,-8882.471304,0.000000
3441.152875,0.000000,-9548.656652,0.000000
3441.153203,-1628.453072,-8882.471304,1302.362347
3441.153530,-1184.329507,-7846.182985,0.000000
3441.153858,-1332.370696,-8734.430116,-1685.410096
3441.154186,-1702.473667,-10362.883188,-1149.143247
3441.154514,296.082377,-10362.883188,0.000000
3441.154841,3478.967927,-10288.862594,459.657299
3441.155169,4293.194464,-12805.562797,2987.772442
3441.155497,1702.473667,-13323.706956,2834.553343
3441.155825,-1554.432478,-12213.398043,306.438199
3441.156152,-2886.803174,-7031.956449,-2604.724693
3441.156480,-1702.473667,-6439.791695,-5669.106685
3441.156808,-2664.741391,-8364.327145,-2145.067394
3441.157136,-3034.844362,-7698.141797,1532.190996
3441.157463,-444.123565,-6883.915261,2451.505594
3441.157791,1850.514855,-9918.759623,1072.533697
3441.158119,1998.556043,-11843.295072,229.828649
3441.158446,296.082377,-11103.089130,689.485948
3441.158774,962.267725,-8808.450710,-383.047749
3441.159102,2442.679609,-10436.903782,-2528.115143
3441.159430,2146.597232,-12065.356855,-2145.067394
3441.159757,518.144159,-10288.862594,536.266849
3441.160085,740.205942,-7772.162391,1762.019645
3441.160413,1258.350101,-9474.636058,536.266849
3441.160741,-370.102971,-11843.295072,-459.657299
3441.161068,-1776.494261,-10288.862594,-1072.533697
3441.161396,0.000000,-6809.894666,-2298.286494
3441.161724,1998.556043,-8364.327145,-2681.334243
3441.162052,2812.782580,-11325.150913,229.828649
3441.162379,2886.803174,-9178.553681,2451.505594
3441.162707,2516.700203,-7698.141797,2374.896044
3441.163035,2072.576638,-9918.759623,536.266849
3441.163363,1628.453072,-11473.192101,-766.095498
3441.163690,-962.267725,-10955.047942,-383.047749
3441.164018,888.247130,-10140.821405,-995.924147
3441.164346,666.185348,-8216.285956,-1991.848295
3441.164674,-962.267725,-10436.903782,0.000000
3441.165001,-2516.700203,-10436.903782,689.485948
3441.165329,222.061783,-10362.883188,-1762.019645
3441.165657,1850.514855,-9400.615463,-2451.505594
3441.165985,2664.741391,-9770.718434,-1072.533697
3441.166312,1702.473667,-9918.759623,2834.553343
3441.166640,592.164754,-9252.574275,4443.353888
3441.166968,2368.659014,-8882.471304,2145.067394
3441.167296,2368.659014,-9992.780217,-383.047749
3441.167623,0.000000,-9992.780217,-1455.581446
3441.167951,296.082377,-10140.821405,-1532.190996
3441.168279,1332.370696,-11251.130318,-919.314598
3441.168606,296.082377,-11103.089130,-1302.362347
3441.168934,-1776.494261,-9918.759623,-153.219100
3441.169262,-2368.659014,-10066.800811,689.485948
3441.169590,-1702.473667,-8956.491898,536.266849
3441.169917,-962.267725,-8956.491898,-612.876398
3441.170245,-1702.473667,-7328.038826,-995.924147
3441.170573,-1998.556043,-8438.347739,-995.924147
3441.170901,-1332.370696,-8216.285956,-306.438199
3441.171228,814.226536,-9178.553681,383.047749
3441.171556,814.226536,-10288.862594,2528.115143
3441.171884,1480.411884,-8586.388927,1532.190996
3441.172212,1110.308913,-10584.944971,-995.924147
3441.172539,74.020594,-13693.809927,-1455.581446
3441.172867,74.020594,-10732.986159,-1991.848295
3441.173195,0.000000,-10066.800811,-842.705048
3441.173523,-222.061783,-9992.780217,459.657299
3441.173850,-518.144159,-8882.471304,0.000000
3441.174178,-962.267725,-8808.450710,612.876398
3441.174506,-1406.391290,-8142.265362,612.876398
3441.174834,-370.102971,-7920.203579,0.000000
3441.175161,0.000000,-8808.450710,-612.876398
3441.175489,-1110.308913,-9844.739029,-383.047749
3441.175817,148.041188,-10436.903782,-1072.533697
3441.176145,1924.535449,-10955.047942,-1991.848295
3441.176472,1332.370696,-12583.501014,-1915.238745
3441.176800,1110.308913,-12509.480420,-536.266849
3441.177128,444.123565,-10288.862594,229.828649
3441.177456,74.020594,-9844.739029,919.314598
3441.177783,296.082377,-9770.718434,-383.047749
3441.178111,370.102971,-9474.636058,-612.876398
3441.178439,1776.494261,-9326.594869,612.876398
3441.178766,2738.761985,-8660.409521,689.485948
3441.179094,2146.597232,-8364.327145,842.705048
3441.179422,222.061783,-8364.327145,1072.533697
3441.179750,-1332.370696,-8068.244768,612.876398
3441.180077,-740.205942,-7846.182985,-612.876398
3441.180405,0.000000,-9770.718434,-612.876398
3441.180733,1998.556043,-10807.006753,-919.314598
3441.181061,2146.597232,-9992.780217,0.000000
3441.181388,740.205942,-9844.739029,1072.533697
3441.181716,-222.061783,-11621.233289,-153.219100
3441.182044,148.041188,-11251.130318,-1915.238745
3441.182372,0.000000,-9474.636058,-2068.457845
3441.182699,1036.288319,-8216.285956,-1608.800546
3441.183027,962.267725,-9548.656652,0.000000
3441.183355,1850.514855,-10584.944971,2374.896044
3441.183683,2738.761985,-9992.780217,2451.505594
3441.184010,2812.782580,-9400.615463,229.828649
3441.184338,1406.391290,-8956.491898,-842.705048
3441.184666,518.144159,-11029.068536,-612.876398
3441.184994,74.020594,-9474.636058,-689.485948
3441.185321,296.082377,-8290.306550,-306.438199
3441.185649,-592.164754,-8586.388927,995.924147
3441.185977,-296.082377,-10584.944971,689.485948
3441.186305,-518.144159,-11843.295072,306.438199
3441.186632,0.000000,-10140.821405,-842.705048
3441.186960,-370.102971,-7550.100608,-2068.457845
3441.187288,-1480.411884,-9548.656652,-2145.067394
3441.187616,-3108.864956,-10362.883188,-1072.533697
3441.187943,-1184.329507,-9326.594869,0.000000
3441.188271,962.267725,-7550.100608,766.095498
3441.188599,2072.576638,-9474.636058,766.095498
3441.188926,0.000000,-11325.150913,1455.581446
3441.189254,888.247130,-10288.862594,229.828649
3441.189582,666.185348,-9030.512492,-459.657299
3441.189910,-296.082377,-10807.006753,0.000000
3441.190237,-2220.617826,-9104.533087,-689.485948
3441.190565,-2146.597232,-6883.915261,-995.924147
3441.190893,-962.267725,-9178.553681,-1072.533697
3441.191221,0.000000,-11621.233289,-536.266849
3441.191548,296.082377,-11547.212695,1302.362347
3441.191876,1110.308913,-8660.409521,766.095498
3441.192204,1554.432478,-8586.388927,153.219100
3441.192532,1480.411884,-11547.212695,-229.828649
3441.192859,0.000000,-10362.883188,-842.705048
3441.193187,-1554.432478,-8068.244768,-766.095498
3441.193515,-1110.308913,-6735.874072,-1072.533697
3441.193843,-1258.350101,-8734.430116,-536.266849
3441.194170,-1554.432478,-11473.192101,1455.581446
3441.194498,518.144159,-10658.965565,612.876398
3441.194826,2886.803174,-10584.944971,-2451.505594
3441.195154,2220.617826,-12731.542202,-1685.410096
3441.195481,1554.432478,-10584.944971,-1302.362347
3441.195809,370.102971,-7920.203579,536.266849
3441.196137,-518.144159,-8216.285956,1991.848295
3441.196465,0.000000,-9474.636058,0.000000
3441.196792,0.000000,-9992.780217,229.828649
3441.197120,814.226536,-9622.677246,0.000000
3441.197448,2146.597232,-8956.491898,-1072.533697
3441.197776,0.000000,-9622.677246,229.828649
3441.198103,-2516.700203,-10658.965565,306.438199
3441.198431,-2146.597232,-10510.924376,-2298.286494
3441.198759,-222.061783,-9548.656652,-3753.867940
3441.199086,814.226536,-9622.677246,-2221.676944
3441.199414,2886.803174,-10584.944971,919.314598
3441.199741,2664.741391,-11325.150913,3753.867940
3441.200069,3256.906145,-10658.965565,3677.258390
3441.200396,3701.029710,-10510.924376,766.095498
3441.200724,2294.638420,-9622.677246,-2221.676944
3441.201052,-814.226536,-9104.533087,-1072.533697
3441.201379,-1036.288319,-7698.141797,689.485948
3441.201707,-518.144159,-7105.977043,-1302.362347
3441.202034,-1036.288319,-8808.450710,76.609550
3441.202362,-814.226536,-10140.821405,1302.362347
3441.202690,888.247130,-9918.759623,919.314598
3441.203017,3108.864956,-11695.253884,459.657299
3441.203345,2664.741391,-10436.903782,-842.705048
3441.203672,0.000000,-8290.306550,-689.485948
3441.204000,-1184.329507,-8660.409521,229.828649
3441.204327,-2146.597232,-7920.203579,-995.924147
3441.204655,-1110.308913,-9918.759623,0.000000
3441.204983,296.082377,-9326.594869,1072.533697
3441.205310,2294.638420,-8956.491898,153.219100
3441.205638,2368.659014,-12361.439231,1225.752797
3441.205965,1258.350101,-12657.521608,-459.657299
3441.206293,-1332.370696,-9548.656652,-1532.190996
3441.206620,-1850.514855,-7476.080014,-1608.800546
3441.206948,-3034.844362,-6809.894666,-1685.410096
3441.207276,-1850.514855,-8660.409521,-536.266849
3441.207603,-888.247130,-9104.533087,1225.752797
3441.207931,1036.288319,-10214.842000,842.705048
3441.208258,1628.453072,-12879.583391,1378.971896
3441.208586,1036.288319,-12509.480420,0.000000
3441.208914,-814.226536,-10288.862594,-1685.410096
3441.209241,-1702.473667,-10436.903782,-2298.286494
3441.209569,-1850.514855,-9326.594869,-3600.648841
3441.209896,-666.185348,-8882.471304,-2911.162892
3441.210224,-370.102971,-9326.594869,995.924147
3441.210551,1258.350101,-9400.615463,1838.629195
3441.210879,1406.391290,-9770.718434,3140.991542
3441.211207,1110.308913,-9770.718434,842.705048
3441.211534,296.082377,-10436.903782,-2145.067394
3441.211862,-296.082377,-8808.450710,-2757.943793
3441.212189,444.123565,-7550.100608,-1302.362347
3441.212517,1036.288319,-9326.594869,0.000000
3441.212844,296.082377,-9474.636058,3677.258390
3441.213172,370.102971,-8142.265362,2604.724693
3441.213500,1110.308913,-11029.068536,0.000000
3441.213827,222.061783,-12435.459826,-1302.362347
3441.214155,0.000000,-10807.006753,-2298.286494
3441.214482,-1258.350101,-8068.244768,-1608.800546
3441.214810,-3182.885551,-7328.038826,-153.219100
3441.215138,-2072.576638,-9548.656652,-1378.971896
3441.215465,370.102971,-9474.636058,-1532.190996
3441.215793,2442.679609,-8586.388927,0.000000
3441.216120,4663.297435,-9326.594869,689.485948
3441.216448,3404.947333,-12583.501014,2757.943793
3441.216775,1998.556043,-11621.233289,2298.286494
3441.217103,2220.617826,-9474.636058,-1225.752797
3441.217431,1258.350101,-10584.944971,-1608.800546
3441.217758,296.082377,-10288.862594,-1762.019645
3441.218086,148.041188,-9178.553681,-612.876398
3441.218413,962.267725,-9696.697840,0.000000
3441.218741,1258.350101,-9474.636058,0.000000
3441.219068,814.226536,-9918.759623,612.876398
3441.219396,74.020594,-10584.944971,1149.143247
3441.219724,-1110.308913,-9918.759623,-306.438199
3441.220051,-962.267725,-7550.100608,-383.047749
3441.220379,-962.267725,-6291.750507,-2451.505594
3441.220706,-1628.453072,-8290.306550,-1532.190996
3441.221034,-1702.473667,-10288.862594,536.266849
3441.221362,1406.391290,-11325.150913,1072.533697
3441.221689,3108.864956,-11399.171507,536.266849
3441.222017,4145.153275,-12435.459826,0.000000
3441.222344,1184.329507,-10955.047942,306.438199
3441.222672,-814.226536,-9770.718434,-459.657299
3441.222999,-962.267725,-8438.347739,-1225.752797
3441.223327,-1332.370696,-8142.265362,-1225.752797
3441.223655,-1998.556043,-7772.162391,612.876398
3441.223982,-962.267725,-6809.894666,1072.533697
3441.224310,444.123565,-8660.409521,229.828649
3441.224637,2442.679609,-11843.295072,-459.657299
3441.224965,148.041188,-11473.192101,0.000000
3441.225292,-888.247130,-9474.636058,0.000000
3441.225620,-370.102971,-9030.512492,-1915.238745
3441.225948,-370.102971,-11399.171507,-2374.896044
3441.226275,-1184.329507,-10732.986159,-1685.410096
3441.226603,814.226536,-8512.368333,-766.095498
3441.226930,1184.329507,-9622.677246,536.266849
3441.227258,1258.350101,-12139.377449,1915.238745
3441.227586,-518.144159,-10732.986159,1378.971896
3441.227913,-1110.308913,-8364.327145,-1302.362347
3441.228241,-1110.308913,-8586.388927,-2757.943793
3441.228568,666.185348,-8956.491898,-3140.991542
3441.228896,1924.535449,-8808.450710,536.266849
3441.229223,3256.906145,-9252.574275,3064.381992
3441.229551,4071.132681,-10584.944971,3064.381992
3441.229879,3478.967927,-10807.006753,2374.896044
3441.230206,370.102971,-10510.924376,919.314598
3441.230534,-2146.597232,-8660.409521,-1378.971896
3441.230861,-2960.823768,-8882.471304,-2451.505594
3441.231189,-2220.617826,-10214.842000,-3600.648841
3441.231516,-370.102971,-9400.615463,-2604.724693
3441.231844,-222.061783,-7476.080014,0.000000
3441.232172,0.000000,-8956.491898,1762.019645
3441.232499,1110.308913,-11843.295072,612.876398
3441.232827,666.185348,-11843.295072,-842.705048
3441.233154,222.061783,-8808.450710,-1762.019645
3441.233482,1184.329507,-6587.832884,-1608.800546
3441.233810,1406.391290,-9844.739029,766.095498
3441.234137,1480.411884,-12139.377449,3217.601092
3441.234465,2886.803174,-9474.636058,1991.848295
3441.234792,3330.926739,-8808.450710,-1149.143247
3441.235120,814.226536,-12657.521608,-1685.410096
3441.235447,-666.185348,-11251.130318,-1838.629195
3441.235775,-1776.494261,-7698.141797,-1608.800546
3441.236103,-2664.741391,-7031.956449,-1225.752797
3441.236430,-1702.473667,-9104.533087,0.000000
3441.236758,-296.082377,-10140.821405,153.219100
3441.237085,1924.535449,-10732.986159,459.657299
3441.237413,2664.741391,-9696.697840,153.219100
3441.237740,2886.803174,-9474.636058,383.047749
3441.238068,1702.473667,-7550.100608,-1455.581446
3441.238396,-2590.720797,-9622.677246,919.314598
3441.238723,-2368.659014,-8438.347739,536.266849
3441.239051,-148.041188,-8068.244768,-766.095498
3441.239378,518.144159,-11991.336260,-689.485948
3441.239706,1036.288319,-13101.645173,-306.438199
3441.240034,2220.617826,-11843.295072,-459.657299
3441.240361,2146.597232,-11103.089130,306.438199
3441.240689,1406.391290,-9844.739029,-153.219100
3441.241016,-1776.494261,-8808.450710,612.876398
3441.241344,-2220.617826,-5995.668130,536.266849
3441.241671,-2294.638420,-5699.585753,0.000000
3441.241999,-592.164754,-8882.471304,-459.657299
3441.242327,296.082377,-10288.862594,842.705048
3441.242654,2220.617826,-12361.439231,1991.848295
3441.242982,2886.803174,-11547.212695,0.000000
3441.243309,1628.453072,-12213.398043,-2145.067394
3441.243637,-592.164754,-11029.068536,-2068.457845
3441.243964,-888.247130,-8290.306550,-1685.410096
3441.244292,-740.205942,-8438.347739,76.609550
3441.244620,148.041188,-7772.162391,1685.410096
3441.244947,888.247130,-8734.430116,1149.143247
3441.245275,2368.659014,-9992.780217,842.705048
3441.245602,2146.597232,-11103.089130,0.000000
3441.245930,2220.617826,-10214.842000,-1608.800546
3441.246258,0.000000,-8660.409521,-1378.971896
3441.246585,-1702.473667,-7772.162391,0.000000
3441.246913,-1184.329507,-8216.285956,689.485948
3441.247240,-592.164754,-9696.697840,1149.143247
3441.247568,0.000000,-10955.047942,536.266849
3441.247895,2294.638420,-10955.047942,-1762.019645
3441.248223,2146.597232,-11103.089130,-1685.410096
3441.248551,1480.411884,-11103.089130,-919.314598
3441.248878,-1110.308913,-9400.615463,842.705048
3441.249206,-2590.720797,-8808.450710,536.266849
3441.249533,-2516.700203,-9104.533087,-1378.971896
3441.249861,-592.164754,-10436.903782,-1838.629195
3441.250188,2146.597232,-9844.739029,-2068.457845
3441.250516,2738.761985,-10214.842000,0.000000
3441.250844,1776.494261,-11991.336260,2221.676944
3441.251171,2590.720797,-11769.274478,995.924147
3441.251499,2590.720797,-10436.903782,-995.924147
3441.251826,-296.082377,-8586.388927,-459.657299
3441.252154,-1554.432478,-7772.162391,459.657299
3441.252482,-1702.473667,-7994.224174,229.828649
3441.252809,-1628.453072,-7698.141797,229.828649
3441.253137,-1480.411884,-8216.285956,-536.266849
3441.253464,-518.144159,-9548.656652,0.000000
3441.253792,740.205942,-11843.295072,0.000000
3441.254119,1998.556043,-12435.459826,-766.095498
3441.254447,518.144159,-9770.718434,-766.095498
3441.254775,1258.350101,-4515.256246,76.609550
3441.255102,0.000000,-7772.162391,459.657299
3441.255430,-1332.370696,-10066.800811,1915.238745
3441.255757,0.000000,-8364.327145,1072.533697
3441.256085,2368.659014,-8808.450710,0.000000
3441.256412,2146.597232,-11621.233289,-536.266849
3441.256740,888.247130,-12287.418637,-1302.362347
3441.257068,-148.041188,-10807.006753,-612.876398
3441.257395,-518.144159,-7994.224174,-1532.190996
3441.257723,-1036.288319,-8956.491898,-1378.971896
3441.258050,-2294.638420,-9252.574275,-995.924147
3441.258378,-2516.700203,-7550.100608,153.219100
3441.258706,888.247130,-8882.471304,-306.438199
3441.259033,2812.782580,-12287.418637,0.000000
3441.259361,2516.700203,-12805.562797,0.000000
3441.259688,1554.432478,-10881.027347,1149.143247
3441.260016,1184.329507,-9400.615463,-1072.533697
3441.260343,-1036.288319,-9548.656652,-1608.800546
3441.260671,-1702.473667,-9030.512492,-2834.553343
3441.260999,-1924.535449,-7550.100608,-1608.800546
3441.261326,444.123565,-9326.594869,-306.438199
3441.261654,1776.494261,-10584.944971,612.876398
3441.261981,3478.967927,-13101.645173,76.609550
3441.262309,2146.597232,-11843.295072,536.266849
3441.262636,1702.473667,-9252.574275,229.828649
3441.262964,296.082377,-7179.997637,0.000000
3441.263292,0.000000,-7476.080014,-306.438199
3441.263619,-1628.453072,-7772.162391,842.705048
3441.263947,-888.247130,-8512.368333,919.314598
3441.264274,592.164754,-9696.697840,766.095498
3441.264602,1258.350101,-11843.295072,0.000000
3441.264930,-814.226536,-10436.903782,-612.876398
3441.265257,-370.102971,-8216.285956,-1302.362347
3441.265585,-1850.514855,-7105.977043,-1608.800546
3441.265912,-1924.535449,-8734.430116,-766.095498
3441.266240,-1406.391290,-9474.636058,0.000000
3441.266567,592.164754,-10362.883188,0.000000
3441.266895,2664.741391,-10436.903782,306.438199
3441.267223,4663.297435,-12065.356855,153.219100
3441.267550,1554.432478,-12065.356855,1991.848295
3441.267878,0.000000,-10658.965565,1838.629195
3441.268205,888.247130,-7772.162391,-1532.190996
3441.268533,740.205942,-8586.388927,-3753.867940
3441.268860,-1850.514855,-10140.821405,-1072.533697
3441.269188,-296.082377,-9104.533087,229.828649
3441.269516,1036.288319,-9104.533087,0.000000
3441.269843,962.267725,-10881.027347,383.047749
3441.270171,-666.185348,-9548.656652,0.000000
3441.270498,-666.185348,-9992.780217,153.219100
3441.270826,-444.123565,-10214.842000,-306.438199
3441.271154,0.000000,-9474.636058,-1838.629195
3441.271481,-222.061783,-7550.100608,-229.828649
3441.271809,370.102971,-6365.771101,0.000000
3441.272136,740.205942,-10066.800811,1302.362347
3441.272464,518.144159,-11843.295072,1685.410096
3441.272791,296.082377,-10658.965565,-612.876398
3441.273119,814.226536,-10436.903782,-919.314598
3441.273447,814.226536,-10732.986159,-1915.238745
3441.273774,-370.102971,-9104.533087,-1149.143247
3441.274102,0.000000,-10066.800811,842.705048
3441.274429,-296.082377,-8882.471304,1532.190996
3441.274757,740.205942,-7254.018232,-612.876398
3441.275085,-444.123565,-7105.977043,-1149.143247
3441.275412,-1184.329507,-9474.636058,0.000000
3441.275740,-888.247130,-9844.739029,612.876398
3441.276067,518.144159,-10066.800811,0.000000
3441.276395,592.164754,-11473.192101,76.609550
3441.276722,1110.308913,-11177.109724,-1072.533697
3441.277050,222.061783,-10362.883188,-1378.971896
3441.277378,518.144159,-9992.780217,-1455.581446
3441.277705,2072.576638,-10362.883188,-2374.896044
3441.278033,1036.288319,-10140.821405,-612.876398
3441.278360,0.000000,-8956.491898,2068.457845
3441.278688,444.123565,-8142.265362,1838.629195
3441.279015,1776.494261,-9548.656652,-229.828649
3441.279343,1110.308913,-10955.047942,-306.438199
3441.279671,222.061783,-9474.636058,-1532.190996
3441.279998,444.123565,-7179.997637,-1838.629195
3441.280326,592.164754,-8364.327145,-612.876398
3441.280653,814.226536,-11473.192101,919.314598
3441.280981,222.061783,-12139.377449,1838.629195
3441.281309,296.082377,-9326.594869,0.000000
3441.281636,296.082377,-8216.285956,-1991.848295
3441.281964,0.000000,-9326.594869,-1532.190996
3441.282291,-518.144159,-9252.574275,-306.438199
3441.282619,-962.267725,-8734.430116,1378.971896
3441.282946,-370.102971,-9548.656652,536.266849
3441.283274,-370.102971,-11399.171507,-1685.410096
3441.283602,0.000000,-11621.233289,-2068.457845
3441.283929,2368.659014,-9030.512492,-1072.533697
3441.284257,1850.514855,-9770.718434,0.000000
3441.284584,666.185348,-11177.109724,1838.629195
3441.284912,888.247130,-10214.842000,1149.143247
3441.285239,2368.659014,-9400.615463,-919.314598
3441.285567,1036.288319,-9696.697840,-306.438199
3441.285895,74.020594,-9844.739029,-459.657299
3441.286222,-1480.411884,-8438.347739,536.266849
3441.286550,-1924.535449,-9326.594869,-306.438199
3441.286877,-2516.700203,-7994.224174,-995.924147
3441.287205,-1480.411884,-8808.450710,0.000000
3441.287533,0.000000,-10732.986159,-153.219100
3441.287860,888.247130,-11251.130318,153.219100
3441.288188,2368.659014,-9326.594869,766.095498
3441.288515,1998.556043,-7179.997637,-612.876398
3441.288843,-518.144159,-9474.636058,766.095498
3441.289170,-3330.926739,-10140.821405,1762.019645
3441.289498,-1258.350101,-8142.265362,0.000000
3441.289826,370.102971,-9622.677246,-612.876398
3441.290153,1406.391290,-11991.336260,-1072.533697
3441.290481,-74.020594,-12065.356855,0.000000
3441.290808,740.205942,-10807.006753,-459.657299
3441.291136,2072.576638,-9548.656652,-1685.410096
3441.291463,0.000000,-8808.450710,-1608.800546
3441.291791,-2146.597232,-7179.997637,0.000000
3441.292119,-1998.556043,-7328.038826,383.047749
3441.292446,666.185348,-9474.636058,306.438199
3441.292774,2294.638420,-11399.171507,-459.657299
3441.293101,592.164754,-12287.418637,1608.800546
3441.293429,1554.432478,-10955.047942,1149.143247
3441.293757,1332.370696,-9844.739029,-2528.115143
3441.294084,-740.205942,-11843.295072,-2834.553343
3441.294412,-1628.453072,-9252.574275,-2528.115143
3441.294739,-1702.473667,-7402.059420,-1915.238745
3441.295067,296.082377,-8734.430116,612.876398
3441.295394,2590.720797,-10436.903782,995.924147
3441.295722,2294.638420,-10807.006753,2221.676944
3441.296050,2442.679609,-10436.903782,689.485948
3441.296377,2886.803174,-10066.800811,-1608.800546
3441.296705,2072.576638,-8956.491898,-2221.676944
3441.297032,0.000000,-8364.327145,-536.266849
3441.297360,-74.020594,-7550.100608,1762.019645
3441.297688,444.123565,-9104.533087,2451.505594
3441.298015,1554.432478,-10288.862594,153.219100
3441.298343,518.144159,-9770.718434,229.828649
3441.298671,0.000000,-8956.491898,-1455.581446
3441.298999,1036.288319,-10066.800811,-1378.971896
3441.299326,2368.659014,-11103.089130,-1302.362347
3441.299654,74.020594,-8660.409521,919.314598
3441.299982,-666.185348,-8142.265362,2681.334243
3441.300309,-592.164754,-9770.718434,1072.533697
3441.300637,1554.432478,-10955.047942,-1762.019645
3441.300965,592.164754,-9770.718434,-1532.190996
3441.301292,1110.308913,-9474.636058,-536.266849
3441.301620,1406.391290,-11473.192101,306.438199
3441.301948,1406.391290,-12139.377449,1991.848295
3441.302275,1332.370696,-9844.739029,153.219100
3441.302603,592.164754,-7994.224174,-842.705048
3441.302931,-1110.308913,-8512.368333,-842.705048
3441.303258,-1702.473667,-9844.739029,-995.924147
3441.303586,-1480.411884,-10066.800811,-612.876398
3441.303914,-1036.288319,-8142.265362,-536.266849
3441.304242,74.020594,-8216.285956,0.000000
3441.304569,222.061783,-10436.903782,1685.410096
3441.304897,0.000000,-10584.944971,1072.533697
3441.305225,-518.144159,-9474.636058,766.095498
3441.305552,222.061783,-7476.080014,-766.095498
3441.305880,0.000000,-6883.915261,-1532.190996
3441.306208,-2886.803174,-10658.965565,-153.219100
3441.306535,-2886.803174,-11177.109724,1225.752797
3441.306863,1110.308913,-9622.677246,76.609550
3441.307191,2960.823768,-12139.377449,-459.657299
3441.307518,222.061783,-12139.377449,153.219100
3441.307846,-1554.432478,-10066.800811,995.924147
3441.308174,-296.082377,-7254.018232,-842.705048
3441.308502,-740.205942,-7402.059420,-2221.676944
3441.308829,-2146.597232,-8586.388927,-1455.581446
3441.309157,-2072.576638,-8438.347739,612.876398
3441.309485,0.000000,-8882.471304,919.314598
3441.309812,1702.473667,-11769.274478,-459.657299
3441.310140,148.041188,-12583.501014,-766.095498
3441.310468,-1554.432478,-10881.027347,536.266849
3441.310795,-740.205942,-9104.533087,-536.266849
3441.311123,-296.082377,-9696.697840,-1991.848295
3441.311451,0.000000,-10140.821405,-2451.505594
3441.311778,740.205942,-9844.739029,-1149.143247
3441.312106,3182.885551,-9252.574275,306.438199
3441.312434,3108.864956,-10214.842000,1915.238745
3441.312761,1258.350101,-10658.965565,2451.505594
3441.313089,-518.144159,-9474.636058,1149.143247
3441.313417,-296.082377,-8808.450710,-1838.629195
3441.313745,148.041188,-8364.327145,-2987.772442
3441.314072,370.102971,-8586.388927,-1378.971896
3441.314400,2220.617826,-11029.068536,1455.581446
3441.314728,2738.761985,-10807.006753,1762.019645
3441.315055,2220.617826,-9770.718434,689.485948
3441.315383,1628.453072,-9252.574275,-536.266849
3441.315711,0.000000,-9400.615463,0.000000
3441.316038,444.123565,-8734.430116,-229.828649
3441.316366,962.267725,-8438.347739,-612.876398
3441.316694,518.144159,-10658.965565,766.095498
3441.317021,370.102971,-10436.903782,0.000000
3441.317349,1702.473667,-10510.924376,-1991.848295
3441.317677,1628.453072,-10436.903782,-842.705048
3441.318004,3923.091493,-10658.965565,-1378.971896
3441.318332,2590.720797,-10436.903782,842.705048
3441.318660,1702.473667,-11399.171507,3294.210641
3441.318988,1702.473667,-9400.615463,1225.752797
3441.319315,1036.288319,-8216.285956,-612.876398
3441.319643,-2590.720797,-9178.553681,-229.828649
3441.319971,-2886.803174,-9474.636058,-1225.752797
3441.320298,-1258.350101,-9104.533087,-2604.724693
3441.320626,0.000000,-10362.883188,-2221.676944
3441.320954,-888.247130,-10066.800811,153.219100
3441.321281,370.102971,-9030.512492,1455.581446
3441.321609,1480.411884,-9696.697840,1149.143247
3441.321937,1406.391290,-11769.274478,766.095498
3441.322264,814.226536,-9400.615463,-153.219100
3441.322592,592.164754,-7402.059420,-1532.190996
3441.322920,-1480.411884,-10140.821405,-919.314598
3441.323247,0.000000,-11177.109724,-766.095498
3441.323575,370.102971,-9178.553681,536.266849
3441.323903,0.000000,-10510.924376,1532.190996
3441.324231,-1554.432478,-10807.006753,1378.971896
3441.324558,-518.144159,-9326.594869,-1838.629195
3441.324886,-518.144159,-9030.512492,-2604.724693
3441.325214,-296.082377,-8586.388927,-1378.971896
3441.325541,-740.205942,-7476.080014,76.609550
3441.325869,0.000000,-9400.615463,1225.752797
3441.326197,74.020594,-10955.047942,1532.190996
3441.326524,444.123565,-9622.677246,153.219100
3441.326852,-592.164754,-9844.739029,0.000000
3441.327180,-1554.432478,-10510.924376,-536.266849
3441.327507,-1998.556043,-9252.574275,-1608.800546
3441.327835,-1258.350101,-9696.697840,-2451.505594
3441.328163,-740.205942,-10214.842000,-1532.190996
3441.328491,1258.350101,-10658.965565,-1149.143247
3441.328818,1406.391290,-10362.883188,0.000000
3441.329146,666.185348,-10732.986159,1762.019645
3441.329474,0.000000,-9178.553681,1532.190996
3441.329801,370.102971,-7698.141797,-383.047749
3441.330129,-814.226536,-9548.656652,-1072.533697
3441.330457,-888.247130,-9474.636058,-536.266849
3441.330784,1554.432478,-7402.059420,-306.438199
3441.331112,2146.597232,-10732.986159,0.000000
3441.331440,592.164754,-11769.274478,689.485948
3441.331767,-518.144159,-9474.636058,-306.438199
3441.332095,0.000000,-7994.224174,-1378.971896
3441.332423,962.267725,-9844.739029,-2221.676944
3441.332750,1258.350101,-9844.739029,-842.705048
3441.333078,296.082377,-9474.636058,1838.629195
3441.333406,222.061783,-11325.150913,1915.238745
3441.333734,2294.638420,-11843.295072,-1915.238745
3441.334061,1332.370696,-10584.944971,-2604.724693
3441.334389,0.000000,-8660.409521,-383.047749
3441.334717,1406.391290,-6883.915261,229.828649
3441.335044,1406.391290,-10288.862594,1378.971896
3441.335372,1998.556043,-11843.295072,995.924147
3441.335700,1998.556043,-10066.800811,-306.438199
3441.336027,1850.514855,-8956.491898,-536.266849
3441.336355,962.267725,-9400.615463,-306.438199
3441.336683,0.000000,-10066.800811,-536.266849
3441.337010,-888.247130,-9104.533087,-536.266849
3441.337338,0.000000,-8142.265362,306.438199
3441.337666,592.164754,-9252.574275,1072.533697
3441.337993,2294.638420,-9474.636058,919.314598
3441.338321,814.226536,-9770.718434,1991.848295
3441.338649,148.041188,-8734.430116,1225.752797
3441.338977,-666.185348,-8882.471304,-1685.410096
3441.339304,-1332.370696,-10066.800811,-1762.019645
3441.339632,-1554.432478,-9622.677246,-2068.457845
3441.339960,-518.144159,-8956.491898,-229.828649
3441.340287,814.226536,-9400.615463,1532.190996
3441.340615,1554.432478,-11843.295072,1838.629195
3441.340943,296.082377,-11917.315666,612.876398
3441.341270,814.226536,-8956.491898,-919.314598
3441.341598,370.102971,-8438.347739,-2451.505594
3441.341926,-740.205942,-9104.533087,-1685.410096
3441.342253,-2220.617826,-7328.038826,-1072.533697
3441.342581,-1258.350101,-9030.512492,0.000000
3441.342909,74.020594,-10732.986159,1225.752797
3441.343236,1480.411884,-11991.336260,153.219100
3441.343564,0.000000,-11621.233289,-229.828649
3441.343892,-518.144159,-9622.677246,-842.705048
3441.344220,-296.082377,-9178.553681,-2604.724693
3441.344547,0.000000,-9696.697840,-2604.724693
3441.344875,-1332.370696,-9844.739029,-995.924147
3441.345203,-222.061783,-9622.677246,459.657299
3441.345530,888.247130,-9474.636058,919.314598
3441.345858,1036.288319,-9622.677246,1838.629195
3441.346186,-444.123565,-10066.800811,383.047749
3441.346513,-592.164754,-8808.450710,-383.047749
3441.346841,370.102971,-9030.512492,-2221.676944
3441.347169,1184.329507,-9104.533087,-1991.848295
3441.347496,666.185348,-9400.615463,612.876398
3441.347824,444.123565,-9770.718434,1608.800546
3441.348152,296.082377,-9252.574275,1225.752797
3441.348480,-444.123565,-9030.512492,842.705048
3441.348807,0.000000,-9030.512492,-1072.533697
3441.349135,1184.329507,-8956.491898,-1455.581446
3441.349463,888.247130,-8438.347739,153.219100
3441.349790,0.000000,-10362.883188,612.876398
3441.350118,0.000000,-12139.377449,-995.924147
3441.350446,-518.144159,-10658.965565,-1762.019645
3441.350773,296.082377,-8290.306550,-2374.896044
3441.351101,1554.432478,-8290.306550,-1455.581446
3441.351429,1924.535449,-11399.171507,1302.362347
3441.351756,2812.782580,-12731.542202,2451.505594
3441.352084,3701.029710,-10288.862594,536.266849
3441.352412,2590.720797,-9622.677246,-689.485948
3441.352739,444.123565,-9252.574275,-919.314598
3441.353067,-2516.700203,-8068.244768,0.000000
3441.353395,-1850.514855,-6661.853478,-919.314598
3441.353723,-962.267725,-8290.306550,-1762.019645
3441.354050,222.061783,-10436.903782,-1302.362347
3441.354378,1258.350101,-11843.295072,919.314598
3441.354706,2960.823768,-11399.171507,689.485948
3441.355033,2886.803174,-9992.780217,153.219100
3441.355361,1628.453072,-9844.739029,-1225.752797
3441.355689,-1998.556043,-9844.739029,-842.705048
3441.356016,-888.247130,-8882.471304,-1608.800546
3441.356344,-148.041188,-7031.956449,-383.047749
3441.356672,1628.453072,-9918.759623,1455.581446
3441.356999,740.205942,-12139.377449,2987.772442
3441.357327,1036.288319,-10732.986159,919.314598
3441.357655,814.226536,-9622.677246,-1149.143247
3441.357982,0.000000,-8586.388927,-2068.457845
3441.358310,-1924.535449,-8586.388927,-995.924147
3441.358638,-2442.679609,-6587.832884,229.828649
3441.358966,-296.082377,-7105.977043,1225.752797
3441.359293,1406.391290,-11177.109724,1072.533697
3441.359621,1036.288319,-11843.295072,1762.019645
3441.359949,740.205942,-10436.903782,1608.800546
3441.360276,666.185348,-9696.697840,-1225.752797
3441.360604,-962.267725,-9622.677246,-2374.896044
3441.360932,-2664.741391,-9696.697840,-2145.067394
3441.361259,-3478.967927,-8216.285956,-1378.971896
3441.361587,-1554.432478,-8438.347739,-689.485948
3441.361915,2368.659014,-10955.047942,-612.876398
3441.362242,1628.453072,-11769.274478,1149.143247
3441.362570,888.247130,-10658.965565,2374.896044
3441.362898,1554.432478,-9548.656652,-459.657299
3441.363225,1258.350101,-9844.739029,-2145.067394
3441.363553,148.041188,-8734.430116,-1532.190996
3441.363881,-1110.308913,-8734.430116,1149.143247
3441.364209,-888.247130,-8290.306550,2451.505594
3441.364536,1258.350101,-10510.924376,536.266849
3441.364864,592.164754,-11029.068536,-842.705048
3441.365192,-1258.350101,-9548.656652,-995.924147
3441.365519,-296.082377,-9474.636058,-1915.238745
3441.365847,1480.411884,-10584.944971,-1838.629195
3441.366175,1406.391290,-10732.986159,-1149.143247
3441.366502,-1332.370696,-8660.409521,1532.190996
3441.366830,-1110.308913,-8882.471304,1915.238745
3441.367158,814.226536,-10436.903782,612.876398
3441.367485,1258.350101,-9992.780217,-1225.752797
3441.367813,74.020594,-8882.471304,-229.828649
3441.368141,1406.391290,-8512.368333,-689.485948
3441.368469,2812.782580,-11325.150913,0.000000
3441.368796,2590.720797,-12731.542202,995.924147
3441.369124,1628.453072,-9992.780217,306.438199
3441.369452,74.020594,-7624.121203,919.314598
3441.369779,148.041188,-9030.512492,0.000000
3441.370107,-518.144159,-9474.636058,-1149.143247
3441.370435,-666.185348,-8660.409521,-995.924147
3441.370762,-592.164754,-7846.182985,0.000000
3441.371090,1480.411884,-9770.718434,0.000000
3441.371418,2442.679609,-11103.089130,0.000000
3441.371745,1406.391290,-10732.986159,1225.752797
3441.372073,666.185348,-9474.636058,1991.848295
3441.372401,1406.391290,-7624.121203,-306.438199
3441.372728,-962.267725,-8586.388927,-1225.752797
3441.373056,-2590.720797,-9696.697840,0.000000
3441.373384,0.000000,-9918.759623,-459.657299
3441.373712,1702.473667,-9918.759623,0.000000
3441.374039,3478.967927,-12953.603985,0.000000
3441.374367,1332.370696,-12435.459826,842.705048
3441.374695,370.102971,-9770.718434,536.266849
3441.375022,518.144159,-7254.018232,0.000000
3441.375350,-370.102971,-7920.203579,-995.924147
3441.375678,-2368.659014,-8290.306550,76.609550
3441.376005,-2220.617826,-8364.327145,459.657299
3441.376333,0.000000,-9548.656652,-1072.533697
3441.376661,2072.576638,-12213.398043,-1991.848295
3441.376988,666.185348,-13249.686362,-229.828649
3441.377316,-444.123565,-10510.924376,689.485948
3441.377644,-814.226536,-8734.430116,0.000000
3441.377971,0.000000,-8586.388927,-1608.800546
3441.378299,-1184.329507,-8956.491898,-536.266849
3441.378627,-666.185348,-9474.636058,229.828649
3441.378955,1332.370696,-9178.553681,306.438199
3441.379282,2294.638420,-10732.986159,383.047749
3441.379610,222.061783,-11103.089130,689.485948
3441.379938,0.000000,-10362.883188,153.219100
3441.380265,-1258.350101,-8586.388927,-383.047749
3441.380593,814.226536,-8512.368333,-1915.238745
3441.380921,0.000000,-8660.409521,-995.924147
3441.381248,296.082377,-10881.027347,1532.190996
3441.381576,1110.308913,-10510.924376,1532.190996
3441.381904,1184.329507,-9474.636058,0.000000
3441.382231,-1628.453072,-9030.512492,-383.047749
3441.382559,-962.267725,-8660.409521,-1532.190996
3441.382887,-1776.494261,-7254.018232,-1838.629195
3441.383214,-1628.453072,-8142.265362,1072.533697
3441.383542,-1184.329507,-10955.047942,0.000000
3441.383870,222.061783,-10955.047942,-842.705048
3441.384198,1258.350101,-9252.574275,-1302.362347
3441.384525,3478.967927,-10510.924376,-1762.019645
3441.384853,2590.720797,-11991.336260,76.609550
3441.385181,1332.370696,-11917.315666,1378.971896
3441.385508,1480.411884,-9918.759623,995.924147
3441.385836,2146.597232,-9474.636058,-766.095498
3441.386164,0.000000,-9474.636058,459.657299
3441.386491,-1184.329507,-7994.224174,842.705048
3441.386819,-888.247130,-7179.997637,-383.047749
3441.387147,-222.061783,-8956.491898,-2068.457845
3441.387474,-444.123565,-11473.192101,-1685.410096
3441.387802,518.144159,-10955.047942,-689.485948
3441.388130,1998.556043,-10881.027347,-459.657299
3441.388458,2294.638420,-10066.800811,612.876398
3441.388785,1776.494261,-8068.244768,1225.752797
3441.389113,962.267725,-9400.615463,995.924147
3441.389441,1258.350101,-9622.677246,0.000000
3441.389768,1554.432478,-9178.553681,-306.438199
3441.390096,2294.638420,-8660.409521,76.609550
3441.390424,1258.350101,-9918.759623,229.828649
3441.390751,-592.164754,-10807.006753,766.095498
3441.391079,-222.061783,-9400.615463,-306.438199
3441.391407,-296.082377,-8808.450710,-766.095498
3441.391734,-444.123565,-9252.574275,0.000000
3441.392062,-814.226536,-7402.059420,-1685.410096
3441.392390,0.000000,-8512.368333,-612.876398
3441.392717,666.185348,-10732.986159,-612.876398
3441.393045,148.041188,-11177.109724,153.219100
3441.393373,-296.082377,-9400.615463,995.924147
3441.393701,814.226536,-9696.697840,536.266849
3441.394028,518.144159,-9992.780217,306.438199
3441.394356,370.102971,-10807.006753,-766.095498
3441.394684,-444.123565,-9030.512492,-766.095498
3441.395011,222.061783,-9252.574275,-1838.629195
3441.395339,222.061783,-10436.903782,-2451.505594
3441.395667,-518.144159,-11547.212695,-689.485948
3441.395994,-1036.288319,-10066.800811,536.266849
3441.396322,222.061783,-9178.553681,-536.266849
3441.396650,666.185348,-9770.718434,-306.438199
3441.396977,0.000000,-10214.842000,995.924147
3441.397305,740.205942,-8290.306550,536.266849
3441.397633,222.061783,-7846.182985,536.266849
3441.397960,0.000000,-9844.739029,0.000000
3441.398288,-1480.411884,-10362.883188,-1225.752797
3441.398616,-2294.638420,-9474.636058,-919.314598
3441.398943,740.205942,-9844.739029,-1378.971896
3441.399271,296.082377,-9474.636058,76.609550
3441.399598,-2664.741391,-9252.574275,2911.162892
3441.399926,-1998.556043,-9918.759623,-229.828649
3441.400254,-444.123565,-10510.924376,-2987.772442
3441.400581,1332.370696,-9992.780217,-2834.553343
3441.400909,1776.494261,-7920.203579,-842.705048
3441.401236,1628.453072,-10066.800811,995.924147
3441.401564,2220.617826,-10881.027347,2987.772442
3441.401891,1628.453072,-9770.718434,919.314598
3441.402219,0.000000,-9030.512492,-383.047749
3441.402547,0.000000,-8438.347739,-1838.629195
3441.402874,-740.205942,-8660.409521,-1762.019645
3441.403202,444.123565,-10288.862594,-459.657299
3441.403529,0.000000,-8586.388927,-1072.533697
3441.403857,74.020594,-9474.636058,536.266849
3441.404185,666.185348,-9104.533087,1225.752797
3441.404512,2442.679609,-10881.027347,76.609550
3441.404840,1924.535449,-10214.842000,76.609550
3441.405167,2072.576638,-7402.059420,-153.219100
3441.405495,444.123565,-6661.853478,-689.485948
3441.405822,592.164754,-10955.047942,-995.924147
3441.406150,-370.102971,-10510.924376,-612.876398
3441.406478,666.185348,-10214.842000,306.438199
3441.406805,2146.597232,-10881.027347,-1072.533697
3441.407133,1628.453072,-13619.789333,-1378.971896
3441.407460,1258.350101,-13323.706956,-612.876398
3441.407788,1554.432478,-9252.574275,-459.657299
3441.408115,296.082377,-7772.162391,0.000000
3441.408443,-888.247130,-8216.285956,842.705048
3441.408771,-2220.617826,-7254.018232,0.000000
3441.409098,-2294.638420,-8142.265362,306.438199
3441.409426,148.041188,-9474.636058,-919.314598
3441.409753,1480.411884,-10955.047942,-612.876398
3441.410081,2220.617826,-11177.109724,1225.752797
3441.410408,1628.453072,-9326.594869,1838.629195
3441.410736,814.226536,-10066.800811,-153.219100
3441.411064,-370.102971,-9474.636058,-689.485948
3441.411391,-370.102971,-9252.574275,-2681.334243
3441.411719,-1702.473667,-8512.368333,-919.314598
3441.412046,-666.185348,-9474.636058,1072.533697
3441.412374,-444.123565,-10955.047942,1838.629195
3441.412701,518.144159,-10955.047942,-689.485948
3441.413029,296.082377,-9474.636058,-1762.019645
3441.413357,518.144159,-8956.491898,-2221.676944
3441.413684,222.061783,-8438.347739,0.000000
3441.414012,444.123565,-9252.574275,229.828649
3441.414339,-518.144159,-9030.512492,919.314598
3441.414667,-296.082377,-10214.842000,1225.752797
3441.414995,-296.082377,-10436.903782,766.095498
3441.415322,1702.473667,-10066.800811,-1302.362347
3441.415650,518.144159,-8364.327145,-612.876398
3441.415977,-1480.411884,-9400.615463,153.219100
3441.416305,-3849.070898,-10140.821405,0.000000
3441.416632,-2220.617826,-9992.780217,-3524.039291
3441.416960,-1776.494261,-8882.471304,-3217.601092
3441.417288,1036.288319,-9992.780217,-1532.190996
3441.417615,222.061783,-11473.192101,1302.362347
3441.417943,1776.494261,-12361.439231,2145.067394
3441.418270,2368.659014,-10436.903782,-306.438199
3441.418598,2442.679609,-10214.842000,-1225.752797
3441.418925,518.144159,-9844.739029,-229.828649
3441.419253,1110.308913,-8142.265362,0.000000
3441.419581,962.267725,-6957.935855,919.314598
3441.419908,370.102971,-7624.121203,536.266849
3441.420236,-1776.494261,-8956.491898,995.924147
3441.420563,888.247130,-11103.089130,689.485948
3441.420891,1480.411884,-11177.109724,-306.438199
3441.421218,1850.514855,-11399.171507,-842.705048
3441.421546,962.267725,-8068.244768,-383.047749
3441.421874,592.164754,-7772.162391,-995.924147
3441.422201,-1036.288319,-9844.739029,-689.485948
3441.422529,-814.226536,-9474.636058,0.000000
3441.422856,222.061783,-9030.512492,1455.581446
3441.423184,2590.720797,-10510.924376,1608.800546
3441.423511,2146.597232,-11843.295072,536.266849
3441.423839,1776.494261,-11103.089130,-1149.143247
3441.424167,1480.411884,-8882.471304,-1532.190996
3441.424494,1110.308913,-9400.615463,-1838.629195
3441.424822,-962.267725,-7179.997637,-995.924147
3441.425149,-2368.659014,-6883.915261,0.000000
3441.425477,-1406.391290,-9252.574275,842.705048
3441.425804,1110.308913,-11547.212695,536.266849
3441.426132,2368.659014,-12435.459826,306.438199
3441.426460,2812.782580,-10955.047942,459.657299
3441.426787,1480.411884,-9030.512492,-536.266849
3441.427115,1036.288319,-10881.027347,-995.924147
3441.427442,-814.226536,-9696.697840,-1072.533697
3441.427770,-1998.556043,-8660.409521,-1838.629195
3441.428098,-2146.597232,-8216.285956,-1532.190996
3441.428425,74.020594,-11325.150913,-306.438199
3441.428753,0.000000,-12213.398043,76.609550
3441.429080,888.247130,-11769.274478,153.219100
3441.429408,148.041188,-10510.924376,-1608.800546
3441.429735,1184.329507,-9474.636058,-2298.286494
3441.430063,1998.556043,-8290.306550,-1608.800546
3441.430391,962.267725,-8808.450710,1762.019645
3441.430718,0.000000,-9622.677246,3907.087040
3441.431046,814.226536,-9474.636058,1762.019645
3441.431373,222.061783,-9474.636058,536.266849
3441.431701,-296.082377,-9844.739029,-306.438199
3441.432028,-222.061783,-8512.368333,-1532.190996
3441.432356,-1702.473667,-9252.574275,536.266849
3441.432684,-2590.720797,-10732.986159,-612.876398
3441.433011,-3478.967927,-11473.192101,-2451.505594
3441.433339,-3034.844362,-7105.977043,-2298.286494
3441.433666,148.041188,-6365.771101,-1991.848295
3441.433994,1406.391290,-10510.924376,1225.752797
3441.434321,1776.494261,-12953.603985,3830.477490
3441.434649,2590.720797,-10732.986159,1838.629195
3441.434977,3256.906145,-10362.883188,-842.705048
3441.435304,2072.576638,-10066.800811,-1991.848295
3441.435632,-592.164754,-8586.388927,-383.047749
3441.435959,-1628.453072,-6069.688724,1378.971896
3441.436287,148.041188,-7105.977043,-153.219100
3441.436614,-296.082377,-10807.006753,0.000000
3441.436942,1628.453072,-11917.315666,383.047749
3441.437270,3404.947333,-11695.253884,76.609550
3441.437597,1776.494261,-9770.718434,306.438199
3441.437925,1480.411884,-10140.821405,-383.047749
3441.438252,-2146.597232,-7105.977043,-2068.457845
3441.438580,-4589.276840,-8216.285956,-1149.143247
3441.438907,-2738.761985,-7328.038826,-689.485948
3441.439235,1110.308913,-10732.986159,0.000000
3441.439563,3108.864956,-13323.706956,919.314598
3441.439890,2812.782580,-11991.336260,842.705048
3441.440218,666.185348,-12583.501014,0.000000
3441.440545,2072.576638,-10658.965565,-1608.800546
3441.440873,740.205942,-8290.306550,-2298.286494
3441.441201,-2072.576638,-7105.977043,0.000000
3441.441528,-1998.556043,-6957.935855,1685.410096
3441.441856,-666.185348,-9474.636058,1532.190996
3441.442183,370.102971,-10362.883188,536.266849
3441.442511,888.247130,-9622.677246,-229.828649
3441.442838,1924.535449,-10732.986159,766.095498
3441.443166,2146.597232,-11029.068536,-919.314598
3441.443494,0.000000,-10362.883188,-1685.410096
3441.443821,-444.123565,-8808.450710,-1915.238745
3441.444149,-888.247130,-9178.553681,-766.095498
3441.444476,-370.102971,-9474.636058,995.924147
3441.444804,0.000000,-8956.491898,2145.067394
3441.445131,222.061783,-9178.553681,1072.533697
3441.445459,1998.556043,-10140.821405,-1685.410096
3441.445787,666.185348,-10881.027347,-1608.800546
3441.446114,-666.185348,-9326.594869,-1302.362347
3441.446442,-2220.617826,-7476.080014,-536.266849
3441.446769,-1110.308913,-8142.265362,76.609550
3441.447097,666.185348,-9622.677246,229.828649
3441.447424,666.185348,-10066.800811,766.095498
3441.447752,2442.679609,-12435.459826,689.485948
3441.448080,3997.112087,-12583.501014,0.000000
3441.448407,3849.070898,-10955.047942,-1225.752797
3441.448735,296.082377,-8808.450710,-536.266849
3441.449062,-2812.782580,-6809.894666,306.438199
3441.449390,-2442.679609,-8290.306550,229.828649
3441.449717,148.041188,-8142.265362,-1378.971896
3441.450045,0.000000,-9400.615463,-153.219100
3441.450373,-1480.411884,-10658.965565,919.314598
3441.450700,-1924.535449,-11769.274478,-1072.533697
3441.451028,-888.247130,-10955.047942,-3064.381992
3441.451355,2294.638420,-9548.656652,-5439.278036
3441.451683,518.144159,-9844.739029,-536.266849
3441.452010,1480.411884,-11843.295072,3677.258390
3441.452338,3256.906145,-8882.471304,3140.991542
3441.452666,3923.091493,-9474.636058,1378.971896
3441.452993,1998.556043,-10807.006753,612.876398
3441.453321,370.102971,-9030.512492,-306.438199
3441.453648,-370.102971,-7846.182985,-1608.800546
3441.453976,962.267725,-8660.409521,-2068.457845
3441.454304,-1110.308913,-9326.594869,-1915.238745
3441.454631,-814.226536,-8512.368333,1225.752797
3441.454959,-444.123565,-9474.636058,2298.286494
3441.455286,2072.576638,-11325.150913,153.219100
3441.455614,592.164754,-9696.697840,0.000000
3441.455941,148.041188,-7328.038826,-612.876398
3441.456269,-2146.597232,-6291.750507,-995.924147
3441.456597,-888.247130,-10066.800811,-995.924147
3441.456924,148.041188,-10807.006753,-612.876398
3441.457252,740.205942,-11251.130318,1608.800546
3441.457579,1258.350101,-10214.842000,1072.533697
3441.457907,1776.494261,-11991.336260,-306.438199
3441.458234,296.082377,-11251.130318,-766.095498
3441.458562,296.082377,-8068.244768,-1532.190996
3441.458890,-592.164754,-7179.997637,-1149.143247
3441.459217,-518.144159,-9474.636058,0.000000
3441.459545,-1184.329507,-10732.986159,766.095498
3441.459872,-1554.432478,-9030.512492,919.314598
3441.460200,-1258.350101,-9474.636058,919.314598
3441.460527,296.082377,-11473.192101,612.876398
3441.460855,592.164754,-10288.862594,-306.438199
3441.461183,962.267725,-8882.471304,-1225.752797
3441.461510,-518.144159,-10140.821405,-1762.019645
3441.461838,1184.329507,-11621.233289,-2145.067394
3441.462165,74.020594,-9030.512492,-2145.067394
3441.462493,-1924.535449,-9178.553681,689.485948
3441.462820,-740.205942,-9252.574275,1991.848295
3441.463148,592.164754,-11029.068536,612.876398
3441.463476,74.020594,-11991.336260,689.485948
3441.463803,888.247130,-9178.553681,-1838.629195
3441.464131,1776.494261,-7920.203579,-1762.019645
3441.464458,1850.514855,-10288.862594,459.657299
3441.464786,888.247130,-10362.883188,1302.362347
3441.465114,-1406.391290,-7402.059420,1762.019645
3441.465441,-1258.350101,-7328.038826,0.000000
3441.465769,0.000000,-10732.986159,-1225.752797
3441.466096,-222.061783,-11325.150913,612.876398
3441.466424,740.205942,-8586.388927,153.219100
3441.466751,1702.473667,-8660.409521,-306.438199
3441.467079,814.226536,-10658.965565,-612.876398
3441.467407,-222.061783,-10881.027347,-1378.971896
3441.467734,-2072.576638,-8808.450710,-1455.581446
3441.468062,-370.102971,-6587.832884,-995.924147
3441.468389,1480.411884,-8956.491898,-1149.143247
3441.468717,222.061783,-13101.645173,1302.362347
3441.469044,1258.350101,-11029.068536,2145.067394
3441.469372,2664.741391,-9178.553681,0.000000
3441.469700,2590.720797,-10955.047942,-842.705048
3441.470027,2072.576638,-10955.047942,-2374.896044
3441.470355,0.000000,-7846.182985,-1532.190996
3441.470682,-296.082377,-8290.306550,995.924147
3441.471010,1406.391290,-10955.047942,766.095498
3441.471337,518.144159,-10584.944971,1149.143247
3441.471665,444.123565,-9622.677246,1302.362347
3441.471993,1036.288319,-10510.924376,-153.219100
3441.472320,1850.514855,-10955.047942,-1225.752797
3441.472648,2812.782580,-8216.285956,-2374.896044
3441.472975,-1406.391290,-5995.668130,-1378.971896
3441.473303,-2368.659014,-7698.141797,-306.438199
3441.473630,-1776.494261,-8734.430116,0.000000
3441.473958,1036.288319,-11029.068536,919.314598
3441.474286,2812.782580,-10732.986159,1915.238745
3441.474613,3775.050304,-12213.398043,612.876398
3441.474941,2664.741391,-12213.398043,-689.485948
3441.475268,2442.679609,-10658.965565,-1378.971896
3441.475596,666.185348,-7476.080014,-2068.457845
3441.475923,-1776.494261,-6439.791695,0.000000
3441.476251,-3404.947333,-6439.791695,1225.752797
3441.476579,-1480.411884,-9548.656652,153.219100
3441.476906,-1110.308913,-9992.780217,306.438199
3441.477234,814.226536,-11695.253884,229.828649
3441.477561,666.185348,-10955.047942,1072.533697
3441.477889,888.247130,-9770.718434,-612.876398
3441.478217,-1110.308913,-7698.141797,-1608.800546
3441.478544,-1332.370696,-7550.100608,-1838.629195
3441.478872,-1332.370696,-8364.327145,-1455.581446
3441.479199,-888.247130,-11029.068536,459.657299
3441.479527,148.041188,-11399.171507,1762.019645
3441.479854,-518.144159,-9622.677246,1072.533697
3441.480182,0.000000,-11103.089130,-536.266849
3441.480510,-1036.288319,-11769.274478,-2681.334243
3441.480837,-592.164754,-9326.594869,-3830.477490
3441.481165,74.020594,-7402.059420,-1991.848295
3441.481492,1110.308913,-11029.068536,306.438199
3441.481820,2146.597232,-10510.924376,2757.943793
3441.482147,666.185348,-9474.636058,2681.334243
3441.482475,-518.144159,-8882.471304,1991.848295
3441.482803,-1702.473667,-8734.430116,-383.047749
3441.483130,-592.164754,-9770.718434,-1685.410096
3441.483458,666.185348,-8808.450710,-2604.724693
3441.483785,-1036.288319,-8882.471304,-689.485948
3441.484113,-2294.638420,-9400.615463,0.000000
3441.484440,-666.185348,-11843.295072,-612.876398
3441.484768,-1184.329507,-10584.944971,-2374.896044
3441.485096,888.247130,-9770.718434,-3064.381992
3441.485423,1776.494261,-10436.903782,-1302.362347
3441.485751,2590.720797,-11917.315666,2068.457845
3441.486078,4219.173869,-10140.821405,1149.143247
3441.486406,2442.679609,-7402.059420,1608.800546
3441.486733,370.102971,-7105.977043,1608.800546
3441.487061,296.082377,-6513.812290,612.876398
3441.487389,814.226536,-8142.265362,-1149.143247
3441.487716,1184.329507,-10436.903782,-919.314598
3441.488044,370.102971,-10214.842000,-919.314598
3441.488371,1036.288319,-10584.944971,1072.533697
3441.488699,2072.576638,-12805.562797,536.266849
3441.489026,148.041188,-11769.274478,383.047749
3441.489354,-370.102971,-7031.956449,-229.828649
3441.489682,-370.102971,-4737.318029,-1685.410096
3441.490009,-444.123565,-8882.471304,-1378.971896
3441.490337,222.061783,-9770.718434,0.000000
3441.490664,1258.350101,-10881.027347,1991.848295
3441.490992,1998.556043,-11843.295072,2604.724693
3441.491320,3923.091493,-10658.965565,383.047749
3441.491647,1258.350101,-10436.903782,-1072.533697
3441.491975,-1258.350101,-8734.430116,-689.485948
3441.492302,-296.082377,-8364.327145,-1455.581446
3441.492630,814.226536,-9770.718434,-689.485948
3441.492957,-592.164754,-9696.697840,842.705048
3441.493285,-888.247130,-9770.718434,689.485948
3441.493613,222.061783,-9770.718434,1225.752797
3441.493940,1998.556043,-11029.068536,-689.485948
3441.494268,-666.185348,-10510.924376,0.000000
3441.494595,-962.267725,-8068.244768,536.266849
3441.494923,0.000000,-7698.141797,306.438199
3441.495250,814.226536,-10288.862594,-919.314598
3441.495578,666.185348,-9918.759623,-919.314598
3441.495906,-444.123565,-10214.842000,-919.314598
3441.496233,-740.205942,-10807.006753,76.609550
3441.496561,296.082377,-10066.800811,0.000000
3441.496888,-740.205942,-9548.656652,76.609550
3441.497216,-1184.329507,-9696.697840,689.485948
3441.497543,0.000000,-8808.450710,-766.095498
3441.497871,1776.494261,-9770.718434,-612.876398
3441.498199,1406.391290,-10140.821405,306.438199
3441.498526,0.000000,-8438.347739,0.000000
3441.498854,-1850.514855,-7994.224174,1072.533697
3441.499181,148.041188,-10362.883188,-919.314598
3441.499509,-592.164754,-10214.842000,-919.314598
3441.499836,-1480.411884,-9770.718434,766.095498
3441.500164,0.000000,-8512.368333,0.000000
3441.500491,814.226536,-8808.450710,76.609550
3441.500819,-666.185348,-10510.924376,0.000000
3441.501147,-1924.535449,-10288.862594,-1149.143247
3441.501475,-1406.391290,-10584.944971,-1762.019645
3441.501802,1184.329507,-10214.842000,-3370.820191
3441.502130,1110.308913,-11695.253884,-1378.971896
3441.502458,518.144159,-12657.521608,1838.629195
3441.502785,1998.556043,-9030.512492,919.314598
3441.503113,2738.761985,-9696.697840,536.266849
3441.503441,1702.473667,-9474.636058,-536.266849
3441.503768,1628.453072,-8142.265362,-1149.143247
3441.504096,1332.370696,-8512.368333,76.609550
3441.504424,2812.782580,-10436.903782,153.219100
3441.504751,1406.391290,-11251.130318,536.266849
3441.505079,296.082377,-9252.574275,919.314598
3441.505407,0.000000,-8734.430116,76.609550
3441.505735,222.061783,-11029.068536,-459.657299
3441.506062,0.000000,-10066.800811,-689.485948
3441.506390,0.000000,-7402.059420,-766.095498
3441.506718,-740.205942,-7624.121203,-229.828649
3441.507045,962.267725,-8512.368333,-383.047749
3441.507373,1628.453072,-10881.027347,0.000000
3441.507701,1258.350101,-10436.903782,2374.896044
3441.508028,2516.700203,-9252.574275,995.924147
3441.508356,2072.576638,-10807.006753,536.266849
3441.508684,2072.576638,-10881.027347,76.609550
3441.509011,1554.432478,-8512.368333,306.438199
3441.509339,740.205942,-8438.347739,1225.752797
3441.509667,-518.144159,-9252.574275,459.657299
3441.509994,-666.185348,-10214.842000,-1608.800546
3441.510322,-2146.597232,-9770.718434,-306.438199
3441.510650,-1850.514855,-9400.615463,-306.438199
3441.510978,-1702.473667,-9252.574275,-306.438199
3441.511305,-222.061783,-10807.006753,229.828649
3441.511633,444.123565,-9992.780217,-383.047749
3441.511961,1406.391290,-9252.574275,383.047749
3441.512288,1776.494261,-9622.677246,-995.924147
3441.512616,1258.350101,-10584.944971,-1455.581446
3441.512944,-666.185348,-11103.089130,-383.047749
3441.513271,-1850.514855,-8956.491898,-383.047749
3441.513599,-2442.679609,-8512.368333,-153.219100
3441.513927,-1480.411884,-9770.718434,-1608.800546
3441.514254,1036.288319,-10881.027347,-1685.410096
3441.514582,2590.720797,-12287.418637,-766.095498
3441.514910,3478.967927,-11769.274478,536.266849
3441.515237,2146.597232,-9326.594869,306.438199
3441.515565,-1332.370696,-9030.512492,1302.362347
3441.515893,-2516.700203,-7179.997637,0.000000
3441.516221,-2738.761985,-8068.244768,-306.438199
3441.516548,-1480.411884,-10140.821405,-459.657299
3441.516876,0.000000,-10140.821405,-1302.362347
3441.517204,296.082377,-9770.718434,-383.047749
3441.517531,888.247130,-8956.491898,-536.266849
3441.517859,222.061783,-9474.636058,-842.705048
3441.518187,-1554.432478,-9992.780217,383.047749
3441.518514,-2368.659014,-10510.924376,-229.828649
3441.518842,-1184.329507,-10214.842000,-1532.190996
3441.519170,1480.411884,-9326.594869,-1608.800546
3441.519497,2442.679609,-8808.450710,766.095498
3441.519825,2368.659014,-11251.130318,4060.306139
3441.520153,2146.597232,-9104.533087,2451.505594
3441.520481,2516.700203,-7624.121203,-1838.629195
3441.520808,1406.391290,-8438.347739,-2451.505594
3441.521136,592.164754,-10881.027347,-1608.800546
3441.521464,-296.082377,-9178.553681,0.000000
3441.521791,-222.061783,-8808.450710,1149.143247
3441.522119,0.000000,-11325.150913,76.609550
3441.522447,0.000000,-11695.253884,0.000000
3441.522774,1258.350101,-9622.677246,-1302.362347
3441.523102,2146.597232,-8808.450710,-306.438199
3441.523430,3552.988522,-9400.615463,-1225.752797
3441.523757,962.267725,-7772.162391,-842.705048
3441.524085,-2812.782580,-8438.347739,536.266849
3441.524413,-1628.453072,-9030.512492,1072.533697
3441.524740,962.267725,-10807.006753,-306.438199
3441.525068,1924.535449,-11769.274478,0.000000
3441.525396,2220.617826,-11251.130318,0.000000
3441.525724,2812.782580,-11399.171507,-1762.019645
3441.526051,3330.926739,-12139.377449,-1762.019645
3441.526379,814.226536,-9844.739029,76.609550
3441.526707,-2590.720797,-6513.812290,383.047749
3441.527034,-4589.276840,-6735.874072,919.314598
3441.527362,-1702.473667,-9178.553681,-1685.410096
3441.527690,0.000000,-10288.862594,-383.047749
3441.528017,0.000000,-9548.656652,1302.362347
3441.528345,1406.391290,-9844.739029,1302.362347
3441.528673,2516.700203,-11325.150913,-153.219100
3441.529000,1480.411884,-11029.068536,-1532.190996
3441.529328,-1628.453072,-7550.100608,-1378.971896
3441.529656,-1480.411884,-7328.038826,-1149.143247
3441.529984,-1184.329507,-9548.656652,-306.438199
3441.530311,-592.164754,-11177.109724,2298.286494
3441.530639,814.226536,-11399.171507,2374.896044
3441.530967,2738.761985,-10732.986159,1072.533697
3441.531294,3330.926739,-11621.233289,-919.314598
3441.531622,222.061783,-9474.636058,-1915.238745
3441.531950,-2072.576638,-6069.688724,-1915.238745
3441.532277,-2294.638420,-6883.915261,-1302.362347
3441.532605,-1998.556043,-8882.471304,766.095498
3441.532933,-1924.535449,-10807.006753,919.314598
3441.533260,0.000000,-11251.130318,536.266849
3441.533588,1850.514855,-10140.821405,-842.705048
3441.533916,2368.659014,-9474.636058,-919.314598
3441.534243,222.061783,-9030.512492,-1378.971896
3441.534571,-444.123565,-7920.203579,-1608.800546
3441.534899,888.247130,-9178.553681,-995.924147
3441.535227,2294.638420,-11621.233289,459.657299
3441.535554,740.205942,-11399.171507,2451.505594
3441.535882,444.123565,-11103.089130,1455.581446
3441.536210,1036.288319,-10658.965565,-995.924147
3441.536537,1332.370696,-10362.883188,-2987.772442
3441.536865,0.000000,-8142.265362,-2681.334243
3441.537193,-370.102971,-8512.368333,-1072.533697
3441.537520,1924.535449,-11621.233289,1991.848295
3441.537848,4145.153275,-12953.603985,1302.362347
3441.538176,2072.576638,-10288.862594,919.314598
3441.538503,444.123565,-7772.162391,612.876398
3441.538831,-370.102971,-8290.306550,-995.924147
3441.539159,-1110.308913,-9030.512492,-1915.238745
3441.539486,-2146.597232,-7920.203579,-1302.362347
3441.539814,-1554.432478,-8142.265362,0.000000
3441.540142,444.123565,-8734.430116,0.000000
3441.540470,2072.576638,-10436.903782,766.095498
3441.540797,1850.514855,-10732.986159,1378.971896
3441.541125,2590.720797,-9178.553681,1608.800546
3441.541453,1850.514855,-8290.306550,0.000000
3441.541780,444.123565,-9844.739029,-306.438199
3441.542108,-666.185348,-11325.150913,-306.438199
3441.542436,222.061783,-8956.491898,536.266849
3441.542763,444.123565,-9400.615463,766.095498
3441.543091,-444.123565,-10732.986159,459.657299
3441.543419,-962.267725,-10214.842000,-1149.143247
3441.543746,-1258.350101,-9992.780217,-1302.362347
3441.544074,-296.082377,-9474.636058,-1608.800546
3441.544402,-666.185348,-9770.718434,-612.876398
3441.544730,-1554.432478,-10288.862594,459.657299
3441.545057,-1258.350101,-8660.409521,919.314598
3441.545385,518.144159,-9326.594869,0.000000
3441.545713,74.020594,-9844.739029,-306.438199
3441.546040,1184.329507,-11177.109724,-229.828649
3441.546368,592.164754,-9918.759623,153.219100
3441.546696,592.164754,-9252.574275,-689.485948
3441.547023,-962.267725,-10436.903782,-766.095498
3441.547351,222.061783,-11399.171507,-2068.457845
3441.547679,-444.123565,-9622.677246,-919.314598
3441.548006,-518.144159,-9474.636058,383.047749
3441.548334,1036.288319,-9992.780217,-306.438199
3441.548662,666.185348,-9400.615463,0.000000
3441.548989,-666.185348,-8956.491898,383.047749
3441.549317,-888.247130,-9400.615463,306.438199
3441.549645,-814.226536,-8586.388927,-306.438199
3441.549973,666.185348,-8512.368333,-1225.752797
3441.550300,-740.205942,-8438.347739,-536.266849
3441.550628,-592.164754,-8956.491898,-383.047749
3441.550956,-518.144159,-9030.512492,-689.485948
3441.551283,592.164754,-11473.192101,-306.438199
3441.551611,1110.308913,-11399.171507,-306.438199
3441.551939,2886.803174,-11325.150913,0.000000
3441.552266,2368.659014,-9474.636058,229.828649
3441.552594,1702.473667,-9844.739029,842.705048
3441.552922,222.061783,-10140.821405,383.047749
3441.553249,0.000000,-7994.224174,0.000000
3441.553577,-518.144159,-6143.709319,-766.095498
3441.553905,444.123565,-9252.574275,-766.095498
3441.554232,1184.329507,-13841.851115,689.485948
3441.554560,2590.720797,-12731.542202,-153.219100
3441.554888,1554.432478,-9474.636058,-383.047749
3441.555216,0.000000,-10584.944971,-995.924147
3441.555543,-1480.411884,-10066.800811,-2145.067394
3441.555871,-3627.009116,-7846.182985,-689.485948
3441.556199,-3330.926739,-6957.935855,-612.876398
3441.556526,-962.267725,-9030.512492,0.000000
3441.556854,1628.453072,-9992.780217,153.219100
3441.557182,3849.070898,-9992.780217,1072.533697
3441.557509,3182.885551,-9548.656652,1915.238745
3441.557837,2886.803174,-9548.656652,1685.410096
3441.558165,1332.370696,-9252.574275,-1685.410096
3441.558492,-1776.494261,-8512.368333,-1302.362347
3441.558820,-370.102971,-8956.491898,-1378.971896
3441.559148,1776.494261,-9696.697840,-459.657299
3441.559476,3404.947333,-12953.603985,1532.190996
3441.559803,2368.659014,-11917.315666,2757.943793
3441.560131,2146.597232,-9992.780217,-536.266849
3441.560459,1628.453072,-9104.533087,-766.095498
3441.560786,-296.082377,-7994.224174,-1608.800546
3441.561114,-2960.823768,-6291.750507,-536.266849
3441.561442,-2294.638420,-8660.409521,612.876398
3441.561769,740.205942,-10584.944971,612.876398
3441.562097,1924.535449,-12213.398043,1608.800546
3441.562425,592.164754,-10436.903782,383.047749
3441.562752,444.123565,-8438.347739,-1455.581446
3441.563080,0.000000,-9622.677246,-1608.800546
3441.563408,-1036.288319,-9770.718434,-2221.676944
3441.563735,-3627.009116,-9474.636058,0.000000
3441.564063,-740.205942,-9400.615463,306.438199
3441.564391,2146.597232,-10214.842000,306.438199
3441.564719,1702.473667,-11917.315666,306.438199
3441.565046,444.123565,-9844.739029,306.438199
3441.565374,-740.205942,-8882.471304,0.000000
3441.565702,-740.205942,-9474.636058,-1762.019645
3441.566029,-1110.308913,-9696.697840,-2757.943793
3441.566357,-3256.906145,-7846.182985,0.000000
3441.566685,-2368.659014,-7994.224174,1378.971896
3441.567012,-1332.370696,-9918.759623,459.657299
3441.567340,74.020594,-10658.965565,-383.047749
3441.567668,-148.041188,-9696.697840,-1302.362347
3441.567995,0.000000,-9992.780217,-1149.143247
3441.568323,1110.308913,-10732.986159,-536.266849
3441.568651,2442.679609,-11251.130318,-919.314598
3441.568978,74.020594,-10214.842000,919.314598
3441.569306,-1406.391290,-9400.615463,1302.362347
3441.569634,-1554.432478,-9030.512492,0.000000
3441.569962,518.144159,-9178.553681,-1762.019645
3441.570289,1406.391290,-8438.347739,-2987.772442
3441.570617,444.123565,-9844.739029,-383.047749
3441.570945,814.226536,-13027.624579,1608.800546
3441.571272,3923.091493,-11399.171507,-919.314598
3441.571600,2368.659014,-8364.327145,-1072.533697
3441.571928,-1628.453072,-8734.430116,459.657299
3441.572255,-2368.659014,-8438.347739,-766.095498
3441.572583,-1998.556043,-8068.244768,-229.828649
3441.572911,-518.144159,-9474.636058,-1072.533697
3441.573238,814.226536,-9548.656652,-306.438199
3441.573566,1184.329507,-9770.718434,153.219100
3441.573894,4071.132681,-9400.615463,0.000000
3441.574222,3182.885551,-9696.697840,-383.047749
3441.574549,740.205942,-9992.780217,1225.752797
3441.574877,666.185348,-7476.080014,0.000000
3441.575205,1332.370696,-9030.512492,766.095498
3441.575532,3256.906145,-10436.903782,0.000000
3441.575860,3775.050304,-11251.130318,689.485948
3441.576188,1258.350101,-11177.109724,2528.115143
3441.576515,814.226536,-9474.636058,229.828649
3441.576843,1258.350101,-10436.903782,-2604.724693
3441.577171,-370.102971,-8734.430116,-2451.505594
3441.577498,-1628.453072,-6809.894666,-612.876398
3441.577826,-444.123565,-9474.636058,1532.190996
3441.578154,3034.844362,-11399.171507,1378.971896
3441.578481,1998.556043,-11843.295072,2451.505594
3441.578809,1776.494261,-10214.842000,2298.286494
3441.579137,2146.597232,-8808.450710,-919.314598
3441.579465,1110.308913,-9326.594869,-1532.190996
3441.579792,-962.267725,-8142.265362,-536.266849
3441.580120,-3552.988522,-7328.038826,383.047749
3441.580448,-2812.782580,-8734.430116,1072.533697
3441.580775,1110.308913,-11103.089130,-919.314598
3441.581103,962.267725,-12805.562797,0.000000
3441.581431,1258.350101,-12361.439231,766.095498
3441.581758,1332.370696,-9030.512492,-459.657299
3441.582086,444.123565,-8142.265362,-1072.533697
3441.582414,-2220.617826,-8438.347739,0.000000
3441.582741,-3923.091493,-7698.141797,1225.752797
3441.583069,-2738.761985,-7550.100608,1302.362347
3441.583397,-1406.391290,-10066.800811,995.924147
3441.583725,-1702.473667,-10658.965565,-459.657299
3441.584052,-1036.288319,-10807.006753,-1149.143247
3441.584380,-1554.432478,-8660.409521,-1762.019645
3441.584708,-962.267725,-10807.006753,-1225.752797
3441.585035,-962.267725,-10436.903782,-2068.457845
3441.585363,0.000000,-9844.739029,-459.657299
3441.585691,-1110.308913,-9474.636058,1149.143247
3441.586018,-740.205942,-11177.109724,1302.362347
3441.586346,-1702.473667,-10436.903782,1302.362347
3441.586674,222.061783,-8142.265362,-536.266849
3441.587001,444.123565,-7550.100608,-1991.848295
3441.587329,1036.288319,-11177.109724,-689.485948
3441.587657,1036.288319,-11251.130318,-1302.362347
3441.587984,814.226536,-10288.862594,-1072.533697
3441.588312,-1628.453072,-8216.285956,-766.095498
3441.588640,-1998.556043,-9770.718434,-1149.143247
3441.588968,-2294.638420,-10510.924376,-919.314598
3441.589295,0.000000,-10436.903782,-229.828649
3441.589623,740.205942,-7994.224174,-306.438199
3441.589951,3775.050304,-9770.718434,-383.047749
3441.590278,2738.761985,-9400.615463,766.095498
3441.590606,2886.803174,-9474.636058,1532.190996
3441.590934,1332.370696,-7772.162391,1685.410096
3441.591261,1702.473667,-8216.285956,229.828649
3441.591589,1554.432478,-9548.656652,-1149.143247
3441.591917,3034.844362,-10732.986159,-459.657299
3441.592244,3775.050304,-11103.089130,229.828649
3441.592572,4663.297435,-11769.274478,459.657299
3441.592900,2590.720797,-10732.986159,0.000000
3441.593227,1332.370696,-8364.327145,-919.314598
3441.593555,1406.391290,-7772.162391,-1455.581446
3441.593883,1998.556043,-9104.533087,306.438199
3441.594211,1998.556043,-9770.718434,1072.533697
3441.594538,2072.576638,-9474.636058,3524.039291
3441.594866,2368.659014,-9548.656652,1915.238745
3441.595194,3108.864956,-11695.253884,229.828649
3441.595521,1332.370696,-10436.903782,-1302.362347
3441.595849,-888.247130,-7254.018232,-1915.238745
3441.596177,-1332.370696,-7254.018232,-1072.533697
3441.596504,-1332.370696,-9474.636058,0.000000
3441.596832,444.123565,-11325.150913,919.314598
3441.597160,0.000000,-10510.924376,2374.896044
3441.597487,1480.411884,-10584.944971,995.924147
3441.597815,2442.679609,-11769.274478,-689.485948
3441.598143,888.247130,-11473.192101,-919.314598
3441.598471,-1480.411884,-7402.059420,-536.266849
3441.598798,-1554.432478,-6809.894666,-766.095498
3441.599126,-1628.453072,-9400.615463,-536.266849
3441.599454,-1850.514855,-10881.027347,76.609550
3441.599781,-3182.885551,-10066.800811,1149.143247
3441.600109,-1850.514855,-9918.759623,-536.266849
3441.600437,-666.185348,-11103.089130,-2298.286494
3441.600764,-1776.494261,-10436.903782,-1608.800546
3441.601092,-3627.009116,-7550.100608,0.000000
3441.601420,-1406.391290,-8142.265362,-919.314598
3441.601748,0.000000,-9770.718434,-919.314598
3441.602075,-1184.329507,-12287.418637,1685.410096
3441.602403,-2664.741391,-11029.068536,1991.848295
3441.602731,-592.164754,-9696.697840,-536.266849
3441.603058,0.000000,-8660.409521,-2298.286494
3441.603386,-222.061783,-9474.636058,-1762.019645
3441.603714,-2368.659014,-8808.450710,1378.971896
3441.604042,0.000000,-9474.636058,459.657299
3441.604369,962.267725,-10140.821405,-689.485948
3441.604697,740.205942,-11991.336260,-995.924147
3441.605025,-1554.432478,-9622.677246,-306.438199
3441.605352,-1776.494261,-8956.491898,383.047749
3441.605680,-1554.432478,-8068.244768,-842.705048
3441.606008,-740.205942,-10140.821405,-2374.896044
3441.606336,-666.185348,-8956.491898,-1378.971896
3441.606663,222.061783,-8216.285956,-229.828649
3441.606991,888.247130,-8142.265362,0.000000
3441.607319,2812.782580,-10584.944971,689.485948
3441.607646,1480.411884,-10288.862594,766.095498
3441.607974,1702.473667,-9178.553681,919.314598
3441.608302,2664.741391,-10288.862594,-1915.238745
3441.608630,4441.235652,-11917.315666,-1302.362347
3441.608957,3923.091493,-9548.656652,-383.047749
3441.609285,2664.741391,-8438.347739,1072.533697
3441.609613,962.267725,-8882.471304,1455.581446
3441.609940,1924.535449,-10732.986159,459.657299
3441.610268,1258.350101,-8438.347739,0.000000
3441.610596,592.164754,-8586.388927,-1378.971896
3441.610923,444.123565,-9474.636058,-459.657299
3441.611251,3330.926739,-10658.965565,-1302.362347
3441.611579,2368.659014,-10955.047942,229.828649
3441.611907,2516.700203,-10288.862594,766.095498
3441.612234,2294.638420,-8808.450710,153.219100
3441.612562,2590.720797,-9400.615463,766.095498
3441.612890,1702.473667,-8660.409521,76.609550
3441.613217,-370.102971,-9400.615463,1225.752797
3441.613545,-370.102971,-9252.574275,383.047749
3441.613873,814.226536,-9474.636058,-1608.800546
3441.614201,518.144159,-11103.089130,-919.314598
3441.614528,1184.329507,-10881.027347,76.609550
3441.614856,1406.391290,-9548.656652,76.609550
3441.615184,1332.370696,-10362.883188,153.219100
3441.615511,1036.288319,-10510.924376,-1302.362347
3441.615839,222.061783,-8660.409521,459.657299
3441.616167,-222.061783,-7402.059420,2374.896044
3441.616495,-962.267725,-8956.491898,1685.410096
3441.616822,-1554.432478,-10510.924376,536.266849
3441.617150,-2220.617826,-9326.594869,-1302.362347
3441.617478,-3034.844362,-7846.182985,-1532.190996
3441.617805,-3627.009116,-8586.388927,-2451.505594
3441.618133,-2886.803174,-9770.718434,-1532.190996
3441.618461,-2590.720797,-10584.944971,-536.266849
3441.618788,-1258.350101,-12435.459826,0.000000
3441.619116,0.000000,-12657.521608,-612.876398
3441.619444,888.247130,-9696.697840,-306.438199
3441.619772,592.164754,-7846.182985,0.000000
3441.620099,-518.144159,-8512.368333,536.266849
3441.620427,-962.267725,-9474.636058,1685.410096
3441.620755,-592.164754,-9326.594869,-153.219100
3441.621082,0.000000,-9622.677246,-1685.410096
3441.621410,0.000000,-13027.624579,-1149.143247
3441.621738,296.082377,-12139.377449,-1378.971896
3441.622066,-666.185348,-9326.594869,-995.924147
3441.622393,-2294.638420,-8882.471304,-306.438199
3441.622721,-2664.741391,-8512.368333,-919.314598
3441.623049,-1702.473667,-9178.553681,0.000000
3441.623376,1184.329507,-9104.533087,-306.438199
3441.623704,1258.350101,-9252.574275,-153.219100
3441.624032,0.000000,-10288.862594,1532.190996
3441.624360,222.061783,-8734.430116,76.609550
3441.624687,740.205942,-9326.594869,-1149.143247
3441.625015,592.164754,-8882.471304,-1532.190996
3441.625343,1036.288319,-8512.368333,-612.876398
3441.625670,666.185348,-10362.883188,766.095498
3441.625998,1776.494261,-12435.459826,459.657299
3441.626326,2812.782580,-9992.780217,-1149.143247
3441.626654,2146.597232,-8364.327145,766.095498
3441.626981,1850.514855,-9104.533087,536.266849
3441.627309,1628.453072,-10066.800811,306.438199
3441.627637,1406.391290,-8068.244768,-306.438199
3441.627964,814.226536,-8734.430116,0.000000
3441.628292,1036.288319,-10658.965565,459.657299
3441.628620,3034.844362,-9770.718434,0.000000
3441.628947,1554.432478,-8586.388927,612.876398
3441.629275,1332.370696,-9326.594869,0.000000
3441.629603,1924.535449,-11029.068536,-1532.190996
3441.629931,2442.679609,-11473.192101,-2298.286494
3441.630258,1850.514855,-8512.368333,-1455.581446
3441.630586,-148.041188,-8882.471304,1685.410096
3441.630914,1110.308913,-9844.739029,2221.676944
3441.631241,2368.659014,-10436.903782,842.705048
3441.631569,1332.370696,-9400.615463,-536.266849
3441.631897,1480.411884,-9030.512492,-995.924147
3441.632225,1850.514855,-9992.780217,-612.876398
3441.632552,3034.844362,-11769.274478,-612.876398
3441.632880,444.123565,-10510.924376,-229.828649
3441.633208,-888.247130,-8660.409521,306.438199
3441.633535,-296.082377,-8068.244768,-229.828649
3441.633863,-370.102971,-10362.883188,-459.657299
3441.634191,-1258.350101,-10584.944971,153.219100
3441.634519,-1406.391290,-9178.553681,0.000000
3441.634846,-1332.370696,-9400.615463,-919.314598
3441.635174,-1628.453072,-9770.718434,-1685.410096
3441.635502,-3034.844362,-9770.718434,-1915.238745
3441.635829,-3627.009116,-7328.038826,-995.924147
3441.636157,0.000000,-8660.409521,-842.705048
3441.636485,814.226536,-11325.150913,306.438199
3441.636812,0.000000,-11177.109724,2068.457845
3441.637140,148.041188,-9178.553681,1685.410096
3441.637468,1110.308913,-9474.636058,-459.657299
3441.637796,444.123565,-10362.883188,-1455.581446
3441.638123,0.000000,-8586.388927,-1149.143247
3441.638451,-1554.432478,-7402.059420,229.828649
3441.638779,-1702.473667,-9548.656652,1532.190996
3441.639106,148.041188,-11251.130318,919.314598
3441.639434,-370.102971,-10140.821405,153.219100
3441.639762,-1850.514855,-9252.574275,76.609550
3441.640090,-1850.514855,-9474.636058,-1302.362347
3441.640417,-1628.453072,-10658.965565,-2681.334243
3441.640745,-1850.514855,-8734.430116,-2604.724693
3441.641073,-1036.288319,-8882.471304,-1838.629195
3441.641400,-518.144159,-9104.533087,919.314598
3441.641728,962.267725,-8956.491898,2374.896044
3441.642056,1628.453072,-10510.924376,2068.457845
3441.642384,1036.288319,-10140.821405,612.876398
3441.642711,1998.556043,-9992.780217,-1072.533697
3441.643039,2442.679609,-9844.739029,-1455.581446
3441.643367,1850.514855,-10288.862594,-766.095498
3441.643694,-296.082377,-10066.800811,459.657299
3441.644022,-148.041188,-8882.471304,153.219100
3441.644350,-666.185348,-8956.491898,-612.876398
3441.644677,1332.370696,-11325.150913,-995.924147
3441.645005,1850.514855,-10066.800811,153.219100
3441.645333,1776.494261,-9918.759623,995.924147
3441.645661,2886.803174,-10066.800811,-383.047749
3441.645988,2960.823768,-10436.903782,-842.705048
3441.646316,962.267725,-9326.594869,0.000000
3441.646644,0.000000,-7105.977043,229.828649
3441.646971,-296.082377,-7476.080014,-612.876398
3441.647299,1924.535449,-10955.047942,-1378.971896
3441.647627,2072.576638,-10066.800811,-306.438199
3441.647955,1850.514855,-11103.089130,919.314598
3441.648282,2072.576638,-10436.903782,-383.047749
3441.648610,2960.823768,-10066.800811,-1072.533697
3441.648938,2220.617826,-9548.656652,-536.266849
3441.649265,1258.350101,-8290.306550,459.657299
3441.649593,1036.288319,-8438.347739,1532.190996
3441.649921,3478.967927,-9400.615463,1915.238745
3441.650249,2664.741391,-8660.409521,1532.190996
3441.650576,740.205942,-10436.903782,2451.505594
3441.650904,-740.205942,-9474.636058,0.000000
3441.651232,-2368.659014,-9474.636058,-1915.238745
3441.651559,-4219.173869,-9770.718434,-3140.991542
3441.651887,-4959.379811,-9326.594869,-3753.867940
3441.652215,-3923.091493,-8512.368333,-2451.505594
3441.652543,74.020594,-9400.615463,-1225.752797
3441.652870,1776.494261,-11547.212695,842.705048
3441.653198,2294.638420,-12361.439231,3907.087040
3441.653526,2220.617826,-9696.697840,2221.676944
3441.653853,2220.617826,-9104.533087,0.000000
3441.654181,666.185348,-8734.430116,-1302.362347
3441.654509,-666.185348,-7846.182985,-842.705048
3441.654836,-2072.576638,-8438.347739,842.705048
3441.655164,0.000000,-9696.697840,306.438199
3441.655492,0.000000,-11251.130318,0.000000
3441.655820,148.041188,-13027.624579,689.485948
3441.656147,1110.308913,-11103.089130,-919.314598
3441.656475,666.185348,-9474.636058,-1302.362347
3441.656803,-2146.597232,-8660.409521,-1532.190996
3441.657130,-4071.132681,-8734.430116,-1302.362347
3441.657458,-3923.091493,-7846.182985,-1532.190996
3441.657786,-2072.576638,-8290.306550,-995.924147
3441.658114,-1110.308913,-9474.636058,0.000000
3441.658441,-296.082377,-10510.924376,1072.533697
3441.658769,370.102971,-10214.842000,612.876398
3441.659097,1628.453072,-10362.883188,-919.314598
3441.659424,814.226536,-11917.315666,-1072.533697
3441.659752,-370.102971,-8660.409521,-612.876398
3441.660080,0.000000,-6513.812290,306.438199
3441.660408,1110.308913,-8586.388927,1072.533697
3441.660735,962.267725,-11695.253884,2068.457845
3441.661063,1184.329507,-9918.759623,919.314598
3441.661391,518.144159,-8660.409521,459.657299
3441.661718,592.164754,-10140.821405,-842.705048
3441.662046,1776.494261,-10140.821405,-1532.190996
3441.662374,-814.226536,-9548.656652,-689.485948
3441.662701,-2072.576638,-9400.615463,-306.438199
3441.663029,148.041188,-9770.718434,-1608.800546
3441.663357,518.144159,-9770.718434,-1532.190996
3441.663685,1702.473667,-9918.759623,919.314598
3441.664012,2294.638420,-10066.800811,2145.067394
3441.664340,3404.947333,-11177.109724,842.705048
3441.664668,2886.803174,-10288.862594,-612.876398
3441.664995,1406.391290,-8216.285956,-1685.410096
3441.665323,-370.102971,-6883.915261,-383.047749
3441.665651,-296.082377,-7846.182985,1762.019645
3441.665979,1702.473667,-11103.089130,306.438199
3441.666306,3034.844362,-11399.171507,-306.438199
3441.666634,3627.009116,-11991.336260,76.609550
3441.666962,4737.318029,-12139.377449,306.438199
3441.667289,2886.803174,-9770.718434,536.266849
3441.667617,-296.082377,-7402.059420,536.266849
3441.667945,-2738.761985,-6883.915261,536.266849
3441.668273,-2516.700203,-8142.265362,-1532.190996
3441.668600,-666.185348,-9918.759623,-1685.410096
3441.668928,-1110.308913,-8142.265362,0.000000
3441.669256,-2664.741391,-9548.656652,2068.457845
3441.669583,-1406.391290,-11547.212695,-229.828649
3441.669911,1110.308913,-11325.150913,-3677.258390
3441.670239,1850.514855,-9104.533087,-4903.011187
3441.670567,666.185348,-9104.533087,-919.314598
3441.670894,1036.288319,-11399.171507,2834.553343
3441.671222,3330.926739,-9696.697840,1532.190996
3441.671550,2960.823768,-9992.780217,766.095498
3441.671877,1036.288319,-10362.883188,1608.800546
3441.672205,814.226536,-9474.636058,-229.828649
3441.672533,1628.453072,-8586.388927,0.000000
3441.672860,-444.123565,-9992.780217,-1225.752797
3441.673188,-2886.803174,-10362.883188,-842.705048
3441.673516,-2590.720797,-9770.718434,0.000000
3441.673844,-1554.432478,-9252.574275,-1378.971896
3441.674171,-888.247130,-10732.986159,-1608.800546
3441.674499,-1184.329507,-10436.903782,153.219100
3441.674827,-814.226536,-6883.915261,-229.828649
3441.675154,-592.164754,-8586.388927,0.000000
3441.675482,-1776.494261,-9030.512492,229.828649
3441.675810,-2072.576638,-7772.162391,536.266849
3441.676138,0.000000,-9030.512492,536.266849
3441.676465,1480.411884,-10214.842000,-383.047749
3441.676793,1110.308913,-11695.253884,-229.828649
3441.677121,0.000000,-10510.924376,459.657299
3441.677448,1184.329507,-9770.718434,-229.828649
3441.677776,518.144159,-9474.636058,-1072.533697
3441.678104,-296.082377,-9622.677246,-612.876398
3441.678432,-2368.659014,-8808.450710,459.657299
3441.678759,-1332.370696,-8438.347739,153.219100
3441.679087,296.082377,-10214.842000,-383.047749
3441.679415,592.164754,-10881.027347,-153.219100
3441.679742,1036.288319,-8956.491898,306.438199
3441.680070,1036.288319,-10140.821405,842.705048
3441.680398,1258.350101,-10732.986159,0.000000
3441.680725,1776.494261,-9474.636058,-1532.190996
3441.681053,74.020594,-8216.285956,-1915.238745
3441.681381,-1406.391290,-8808.450710,-536.266849
3441.681709,518.144159,-9696.697840,612.876398
3441.682036,1036.288319,-8882.471304,229.828649
3441.682364,888.247130,-10214.842000,919.314598
3441.682692,3256.906145,-10658.965565,-995.924147
3441.683019,4515.256246,-11843.295072,-766.095498
3441.683347,5181.441594,-13323.706956,383.047749
3441.683675,2294.638420,-9474.636058,1072.533697
3441.684003,0.000000,-6809.894666,1455.581446
3441.684330,-1480.411884,-8364.327145,0.000000
3441.684658,-962.267725,-9918.759623,-689.485948
3441.684986,-1776.494261,-9844.739029,-536.266849
3441.685313,-1998.556043,-9474.636058,-766.095498
3441.685641,222.061783,-9992.780217,-1532.190996
3441.685969,1628.453072,-9918.759623,-1762.019645
3441.686297,-814.226536,-9400.615463,1072.533697
3441.686624,-740.205942,-9548.656652,1991.848295
3441.686952,296.082377,-9400.615463,-612.876398
3441.687280,1776.494261,-9474.636058,-1838.629195
3441.687607,1850.514855,-9474.636058,-766.095498
3441.687935,2368.659014,-9548.656652,1915.238745
3441.688263,2368.659014,-12139.377449,3447.429741
3441.688591,2960.823768,-11325.150913,689.485948
3441.688918,1554.432478,-7772.162391,-2298.286494
3441.689246,0.000000,-7994.224174,-1685.410096
3441.689574,-2146.597232,-10362.883188,0.000000
3441.689901,-370.102971,-11399.171507,-612.876398
3441.690229,-1036.288319,-8660.409521,-995.924147
3441.690557,-2146.597232,-8512.368333,-383.047749
3441.690884,-1628.453072,-9844.739029,-689.485948
3441.691212,444.123565,-10807.006753,-1455.581446
3441.691540,-814.226536,-8364.327145,-842.705048
3441.691868,-1406.391290,-7920.203579,0.000000
3441.692195,-2294.638420,-6513.812290,-383.047749
3441.692523,-1554.432478,-9104.533087,612.876398
3441.692851,-814.226536,-11103.089130,919.314598
3441.693178,814.226536,-11251.130318,612.876398
3441.693506,1998.556043,-11251.130318,-383.047749
3441.693834,2886.803174,-11251.130318,-1532.190996
3441.694162,0.000000,-10288.862594,-153.219100
3441.694489,-1628.453072,-8808.450710,1762.019645
3441.694817,-1702.473667,-8068.244768,1072.533697
3441.695145,-1110.308913,-9178.553681,-153.219100
3441.695472,-1480.411884,-8808.450710,-1991.848295
3441.695800,-1184.329507,-9326.594869,-1072.533697
3441.696128,-740.205942,-9844.739029,-1225.752797
3441.696456,1184.329507,-11843.295072,-1225.752797
3441.696783,2812.782580,-10881.027347,-1762.019645
3441.697111,1702.473667,-8882.471304,-229.828649
3441.697439,444.123565,-10955.047942,1608.800546
3441.697766,888.247130,-10510.924376,1225.752797
3441.698094,1036.288319,-8734.430116,-383.047749
3441.698422,-222.061783,-7624.121203,-1302.362347
3441.698749,-814.226536,-8956.491898,689.485948
3441.699077,0.000000,-9622.677246,612.876398
3441.699405,2812.782580,-9474.636058,-1762.019645
3441.699733,2960.823768,-12731.542202,-1991.848295
3441.700060,2368.659014,-12065.356855,-1532.190996
3441.700388,2294.638420,-8586.388927,995.924147
3441.700716,1554.432478,-7624.121203,2068.457845
3441.701044,518.144159,-9844.739029,2374.896044
3441.701371,-592.164754,-9770.718434,1838.629195
3441.701699,0.000000,-9400.615463,-1149.143247
3441.702027,518.144159,-9548.656652,-3294.210641
3441.702355,-888.247130,-9548.656652,-1915.238745
3441.702682,-1776.494261,-9252.574275,-536.266849
3441.703010,-518.144159,-8364.327145,-536.266849
3441.703338,2220.617826,-9696.697840,-919.314598
3441.703666,1924.535449,-11029.068536,459.657299
3441.703993,666.185348,-12361.439231,2298.286494
3441.704321,2220.617826,-11473.192101,76.609550
3441.704649,4367.215058,-8808.450710,-2451.505594
3441.704977,1628.453072,-9104.533087,0.000000
3441.705304,-592.164754,-9474.636058,3217.601092
3441.705632,888.247130,-7994.224174,1762.019645
3441.705960,1998.556043,-9030.512492,-689.485948
3441.706287,518.144159,-12805.562797,-612.876398
3441.706615,-592.164754,-12435.459826,153.219100
3441.706943,-518.144159,-7920.203579,-766.095498
3441.707271,-1776.494261,-7476.080014,-1915.238745
3441.707598,-3552.988522,-9474.636058,-2451.505594
3441.707926,-4515.256246,-8956.491898,-612.876398
3441.708254,-2220.617826,-8216.285956,-383.047749
3441.708582,1628.453072,-9400.615463,-383.047749
3441.708909,1480.411884,-9474.636058,1225.752797
3441.709237,1036.288319,-8068.244768,2604.724693
3441.709565,2368.659014,-9474.636058,1225.752797
3441.709893,1480.411884,-10881.027347,-766.095498
3441.710220,-370.102971,-11029.068536,-995.924147
3441.710548,-1406.391290,-9844.739029,229.828649
3441.710876,666.185348,-9474.636058,-1149.143247
3441.711204,0.000000,-9474.636058,842.705048
3441.711531,-740.205942,-10881.027347,1608.800546
3441.711859,-666.185348,-9622.677246,919.314598
3441.712187,1110.308913,-9474.636058,-1072.533697
3441.712515,-1110.308913,-8808.450710,-2298.286494
3441.712842,-2812.782580,-9252.574275,-919.314598
3441.713170,-2220.617826,-8438.347739,76.609550
3441.713498,-814.226536,-9474.636058,0.000000
3441.713826,296.082377,-10658.965565,-153.219100
3441.714153,1184.329507,-10807.006753,0.000000
3441.714481,2516.700203,-10362.883188,536.266849
3441.714809,2516.700203,-11103.089130,-153.219100
3441.715137,1184.329507,-10362.883188,-612.876398
3441.715464,-296.082377,-9030.512492,-919.314598
3441.715792,-444.123565,-8216.285956,-1072.533697
3441.716120,666.185348,-8882.471304,76.609550
3441.716448,592.164754,-10881.027347,995.924147
3441.716775,2738.761985,-12657.521608,1455.581446
3441.717103,3997.112087,-10214.842000,0.000000
3441.717431,2368.659014,-8956.491898,383.047749
3441.717758,888.247130,-8586.388927,612.876398
3441.718086,-222.061783,-8364.327145,306.438199
3441.718414,-2294.638420,-8068.244768,-612.876398
3441.718742,-2072.576638,-8808.450710,-1302.362347
3441.719069,-1998.556043,-9400.615463,-2451.505594
3441.719397,-1332.370696,-9770.718434,0.000000
3441.719725,1406.391290,-9400.615463,0.000000
3441.720053,2960.823768,-10658.965565,0.000000
3441.720380,2220.617826,-11103.089130,0.000000
3441.720708,1776.494261,-11177.109724,0.000000
3441.721036,370.102971,-9326.594869,-1991.848295
3441.721364,-296.082377,-6661.853478,-1608.800546
3441.721691,74.020594,-8660.409521,689.485948
3441.722019,666.185348,-10955.047942,2145.067394
3441.722347,1776.494261,-10955.047942,1225.752797
3441.722675,2368.659014,-11399.171507,229.828649
3441.723002,2368.659014,-12953.603985,-766.095498
3441.723330,2516.700203,-10807.006753,-1532.190996
3441.723658,-592.164754,-6439.791695,-1378.971896
3441.723986,-3478.967927,-6809.894666,459.657299
3441.724313,-3923.091493,-8512.368333,-459.657299
3441.724641,-2220.617826,-10510.924376,-612.876398
3441.724969,-962.267725,-10214.842000,-1149.143247
3441.725297,-518.144159,-10066.800811,459.657299
3441.725624,592.164754,-9622.677246,1225.752797
3441.725952,2368.659014,-8512.368333,-1302.362347
3441.726280,0.000000,-9030.512492,-1225.752797
3441.726608,-1554.432478,-9252.574275,-536.266849
3441.726935,-666.185348,-8364.327145,76.609550
3441.727263,222.061783,-10510.924376,1072.533697
3441.727591,2442.679609,-11325.150913,766.095498
3441.727919,1406.391290,-10510.924376,919.314598
3441.728246,222.061783,-9030.512492,2604.724693
3441.728574,1258.350101,-10140.821405,-842.705048
3441.728902,-1110.308913,-8956.491898,-1608.800546
3441.729230,-2886.803174,-7476.080014,-1378.971896
3441.729557,-3182.885551,-7476.080014,-1608.800546
3441.729885,-1850.514855,-9622.677246,-1149.143247
3441.730213,592.164754,-12731.542202,306.438199
3441.730540,518.144159,-10140.821405,2451.505594
3441.730868,3034.844362,-9474.636058,1915.238745
3441.731196,3478.967927,-10732.986159,-459.657299
3441.731524,370.102971,-10362.883188,-995.924147
3441.731851,-1628.453072,-6957.935855,-383.047749
3441.732179,-1036.288319,-6143.709319,-1762.019645
3441.732507,-666.185348,-9844.739029,-842.705048
3441.732835,2072.576638,-11621.233289,-689.485948
3441.733162,1998.556043,-11103.089130,919.314598
3441.733490,2738.761985,-11399.171507,1072.533697
3441.733818,4663.297435,-12509.480420,-1225.752797
3441.734146,1924.535449,-9474.636058,-766.095498
3441.734473,-1480.411884,-6809.894666,689.485948
3441.734801,-2442.679609,-7105.977043,1225.752797
3441.735129,-740.205942,-9622.677246,-536.266849
3441.735457,0.000000,-10066.800811,-612.876398
3441.735784,148.041188,-9696.697840,76.609550
3441.736112,148.041188,-8956.491898,689.485948
3441.736440,1702.473667,-10436.903782,-153.219100
3441.736768,1998.556043,-10881.027347,-995.924147
3441.737095,1332.370696,-9918.759623,-1225.752797
3441.737423,-740.205942,-8290.306550,536.266849
3441.737751,222.061783,-9992.780217,1072.533697
3441.738079,296.082377,-10584.944971,0.000000
3441.738406,1110.308913,-9400.615463,-459.657299
3441.738734,2368.659014,-8734.430116,-306.438199
3441.739062,1184.329507,-9918.759623,0.000000
3441.739390,1554.432478,-12139.377449,1378.971896
3441.739717,1628.453072,-10807.006753,689.485948
3441.740045,296.082377,-8142.265362,-1302.362347
3441.740373,-2294.638420,-7328.038826,-383.047749
3441.740701,-2590.720797,-9104.533087,-536.266849
3441.741028,-2146.597232,-8956.491898,-229.828649
3441.741356,-962.267725,-9326.594869,-766.095498
3441.741684,518.144159,-11251.130318,-459.657299
3441.742011,444.123565,-11103.089130,-383.047749
3441.742339,370.102971,-7994.224174,76.609550
3441.742667,296.082377,-8586.388927,1225.752797
3441.742995,0.000000,-8438.347739,1225.752797
3441.743322,1406.391290,-8956.491898,0.000000
3441.743650,-222.061783,-9326.594869,-153.219100
3441.743978,148.041188,-9474.636058,0.000000
3441.744306,296.082377,-9992.780217,-689.485948
3441.744633,1110.308913,-10807.006753,-689.485948
3441.744961,0.000000,-9696.697840,-1149.143247
3441.745289,-1480.411884,-9400.615463,-1149.143247
3441.745617,-1702.473667,-9326.594869,-612.876398
3441.745944,592.164754,-10807.006753,76.609550
3441.746272,1480.411884,-9918.759623,-995.924147
3441.746600,-370.102971,-8586.388927,689.485948
3441.746928,-592.164754,-10140.821405,1225.752797
3441.747255,518.144159,-10362.883188,-536.266849
3441.747583,962.267725,-10214.842000,-1532.190996
3441.747911,370.102971,-9474.636058,-1838.629195
3441.748239,-1184.329507,-9252.574275,0.000000
3441.748566,-814.226536,-10881.027347,229.828649
3441.748894,962.267725,-10140.821405,-919.314598
3441.749222,1702.473667,-10214.842000,-995.924147
3441.749550,1924.535449,-10807.006753,-1149.143247
3441.749877,2294.638420,-9992.780217,-536.266849
3441.750205,1924.535449,-9844.739029,459.657299
3441.750533,2442.679609,-9918.759623,536.266849
3441.750861,592.164754,-7772.162391,842.705048
3441.751188,-1110.308913,-8438.347739,842.705048
3441.751516,-1258.350101,-9400.615463,0.000000
3441.751844,296.082377,-9992.780217,-842.705048
3441.752172,-370.102971,-9622.677246,-1302.362347
3441.752499,74.020594,-9770.718434,-1302.362347
3441.752827,-370.102971,-9030.512492,153.219100
3441.753155,-444.123565,-8512.368333,306.438199
3441.753483,0.000000,-7624.121203,0.000000
3441.753810,1406.391290,-9622.677246,306.438199
3441.754138,2220.617826,-10732.986159,-612.876398
3441.754466,1554.432478,-10807.006753,842.705048
3441.754793,1258.350101,-9770.718434,1072.533697
3441.755121,1998.556043,-9178.553681,-383.047749
3441.755449,1184.329507,-9474.636058,-1072.533697
3441.755777,0.000000,-9696.697840,-1455.581446
3441.756104,-592.164754,-9918.759623,-919.314598
3441.756432,592.164754,-12139.377449,536.266849
3441.756760,2664.741391,-11843.295072,0.000000
3441.757088,1258.350101,-10066.800811,-306.438199
3441.757415,-296.082377,-9474.636058,689.485948
3441.757743,-148.041188,-9548.656652,153.219100
3441.758071,370.102971,-9696.697840,-2068.457845
3441.758399,-2368.659014,-8364.327145,-1838.629195
3441.758726,-2812.782580,-8660.409521,-306.438199
3441.759054,-1110.308913,-9770.718434,153.219100
3441.759382,2294.638420,-11991.336260,0.000000
3441.759710,1776.494261,-10807.006753,536.266849
3441.760037,962.267725,-9770.718434,1072.533697
3441.760365,0.000000,-9770.718434,153.219100
3441.760693,74.020594,-9030.512492,-1302.362347
3441.761021,-666.185348,-7402.059420,0.000000
3441.761348,-1184.329507,-8586.388927,1378.971896
3441.761676,-814.226536,-9252.574275,1532.190996
3441.762004,-444.123565,-9400.615463,766.095498
3441.762332,-962.267725,-8956.491898,76.609550
3441.762659,-592.164754,-10066.800811,306.438199
3441.762987,0.000000,-10066.800811,-536.266849
3441.763315,592.164754,-9622.677246,-1302.362347
3441.763643,-740.205942,-8882.471304,-306.438199
3441.763970,-222.061783,-9030.512492,1225.752797
3441.764298,74.020594,-8216.285956,1149.143247
3441.764626,2146.597232,-10658.965565,1685.410096
3441.764954,370.102971,-8808.450710,0.000000
3441.765281,-222.061783,-9252.574275,0.000000
3441.765609,518.144159,-10288.862594,-995.924147
3441.765937,1776.494261,-10510.924376,-2374.896044
3441.766264,0.000000,-9992.780217,-1378.971896
3441.766592,148.041188,-10436.903782,383.047749
3441.766920,1850.514855,-8660.409521,-842.705048
3441.767248,2590.720797,-11177.109724,-153.219100
3441.767575,2368.659014,-11843.295072,0.000000
3441.767903,2294.638420,-9844.739029,689.485948
3441.768231,1406.391290,-9252.574275,919.314598
3441.768559,1776.494261,-10436.903782,76.609550
3441.768886,74.020594,-9252.574275,-919.314598
3441.769214,-740.205942,-9030.512492,0.000000
3441.769542,-1036.288319,-7994.224174,-995.924147
3441.769870,0.000000,-9400.615463,-1762.019645
3441.770197,-222.061783,-9992.780217,-1532.190996
3441.770525,814.226536,-10140.821405,-306.438199
3441.770853,2072.576638,-11103.089130,-459.657299
3441.771181,1480.411884,-11843.295072,1149.143247
3441.771508,1406.391290,-11621.233289,459.657299
3441.771836,1332.370696,-7920.203579,-1072.533697
3441.772164,74.020594,-7328.038826,-1302.362347
3441.772492,592.164754,-10214.842000,995.924147
3441.772819,2072.576638,-9992.780217,1302.362347
3441.773147,1924.535449,-9400.615463,2068.457845
3441.773475,2146.597232,-10955.047942,1072.533697
3441.773803,2294.638420,-10955.047942,-1838.629195
3441.774130,-1184.329507,-9400.615463,-1149.143247
3441.774458,-2738.761985,-8364.327145,-536.266849
3441.774786,-2442.679609,-7698.141797,-1915.238745
3441.775114,-2146.597232,-8660.409521,-1072.533697
3441.775441,0.000000,-9918.759623,-383.047749
3441.775769,1184.329507,-10140.821405,1225.752797
3441.776097,1480.411884,-10436.903782,1072.533697
3441.776425,1184.329507,-9770.718434,919.314598
3441.776752,592.164754,-9474.636058,-229.828649
3441.777080,-2072.576638,-8882.471304,-153.219100
3441.777408,-3108.864956,-7254.018232,-536.266849
3441.777736,-888.247130,-8956.491898,-612.876398
3441.778063,1110.308913,-11103.089130,-689.485948
3441.778391,962.267725,-10955.047942,766.095498
3441.778719,1258.350101,-9474.636058,459.657299
3441.779046,148.041188,-9622.677246,-459.657299
3441.779374,0.000000,-11399.171507,-459.657299
3441.779702,-1850.514855,-9548.656652,-383.047749
3441.780030,-2812.782580,-8660.409521,0.000000
3441.780357,-1702.473667,-8142.265362,-1072.533697
3441.780685,0.000000,-10362.883188,-689.485948
3441.781013,1110.308913,-11325.150913,0.000000
3441.781341,1258.350101,-10140.821405,153.219100
3441.781668,1258.350101,-10362.883188,-689.485948
3441.781996,0.000000,-10214.842000,-1455.581446
3441.782324,-1036.288319,-9104.533087,-1378.971896
3441.782652,-1332.370696,-8364.327145,153.219100
3441.782979,0.000000,-9030.512492,-306.438199
3441.783307,1850.514855,-11029.068536,612.876398
3441.783635,3256.906145,-9548.656652,0.000000
3441.783963,2960.823768,-9548.656652,1149.143247
3441.784290,1776.494261,-10584.944971,1225.752797
3441.784618,1776.494261,-11029.068536,-306.438199
3441.784946,-1184.329507,-8438.347739,-306.438199
3441.785274,-1850.514855,-8808.450710,459.657299
3441.785601,-1406.391290,-8660.409521,229.828649
3441.785929,-370.102971,-10732.986159,76.609550
3441.786257,0.000000,-9326.594869,-306.438199
3441.786585,518.144159,-9030.512492,-612.876398
3441.786912,74.020594,-8586.388927,-766.095498
3441.787240,1702.473667,-9474.636058,-995.924147
3441.787568,1184.329507,-9918.759623,-842.705048
3441.787896,-370.102971,-10362.883188,2145.067394
3441.788223,148.041188,-9104.533087,1225.752797
3441.788551,2294.638420,-9400.615463,0.000000
3441.788879,3034.844362,-8882.471304,-1072.533697
3441.789207,1998.556043,-10140.821405,689.485948
3441.789534,1258.350101,-10584.944971,842.705048
3441.789862,2442.679609,-10807.006753,-306.438199
3441.790190,1776.494261,-11769.274478,-1455.581446
3441.790517,-666.185348,-10807.006753,229.828649
3441.790845,-1628.453072,-8956.491898,459.657299
3441.791173,-592.164754,-9030.512492,0.000000
3441.791501,222.061783,-9326.594869,-1991.848295
3441.791828,-1110.308913,-8438.347739,-1991.848295
3441.792156,-888.247130,-9178.553681,-842.705048
3441.792484,0.000000,-10214.842000,-383.047749
3441.792812,222.061783,-10436.903782,0.000000
3441.793139,-592.164754,-9030.512492,612.876398
3441.793467,-1110.308913,-8290.306550,1225.752797
3441.793795,-296.082377,-10066.800811,842.705048
3441.794123,888.247130,-10732.986159,-766.095498
3441.794450,1036.288319,-10066.800811,-153.219100
3441.794778,1406.391290,-8586.388927,383.047749
3441.795106,1702.473667,-9104.533087,0.000000
3441.795434,-518.144159,-10066.800811,689.485948
3441.795761,-2220.617826,-9992.780217,919.314598
3441.796089,-2146.597232,-9178.553681,-842.705048
3441.796417,-1110.308913,-9474.636058,-1072.533697
3441.796745,-370.102971,-10436.903782,-2221.676944
3441.797072,-1184.329507,-10140.821405,459.657299
3441.797400,370.102971,-9474.636058,766.095498
3441.797728,2368.659014,-10362.883188,153.219100
3441.798056,1184.329507,-10436.903782,229.828649
3441.798383,-1480.411884,-8364.327145,995.924147
3441.798711,-2220.617826,-7179.997637,1455.581446
3441.799039,0.000000,-8882.471304,76.609550
3441.799367,888.247130,-10066.800811,-1532.190996
3441.799694,-222.061783,-9326.594869,-459.657299
3441.800022,592.164754,-9918.759623,-306.438199
3441.800350,2886.803174,-11769.274478,-919.314598
3441.800678,3330.926739,-12731.542202,-995.924147
3441.801005,1184.329507,-10881.027347,-612.876398
3441.801333,-296.082377,-8216.285956,-383.047749
3441.801661,148.041188,-8882.471304,689.485948
3441.801988,2368.659014,-9548.656652,689.485948
3441.802316,888.247130,-9252.574275,919.314598
3441.802644,-740.205942,-8734.430116,919.314598
3441.802971,444.123565,-8512.368333,-919.314598
3441.803299,296.082377,-9400.615463,-1991.848295
3441.803626,-1184.329507,-9474.636058,-995.924147
3441.803954,-1036.288319,-8364.327145,-153.219100
3441.804282,0.000000,-10732.986159,153.219100
3441.804609,1628.453072,-13323.706956,-1302.362347
3441.804937,962.267725,-10732.986159,-1455.581446
3441.805264,1628.453072,-8068.244768,-306.438199
3441.805592,2960.823768,-8586.388927,229.828649
3441.805920,2812.782580,-12139.377449,766.095498
3441.806247,814.226536,-9548.656652,842.705048
3441.806575,0.000000,-8586.388927,-383.047749
3441.806903,74.020594,-10288.862594,-919.314598
3441.807230,1554.432478,-10955.047942,-1532.190996
3441.807558,-370.102971,-7994.224174,-383.047749
3441.807885,-1036.288319,-8956.491898,536.266849
3441.808213,-518.144159,-10066.800811,-919.314598
3441.808541,1036.288319,-11251.130318,-1225.752797
3441.808868,0.000000,-9030.512492,-1455.581446
3441.809196,-666.185348,-8364.327145,689.485948
3441.809524,518.144159,-7402.059420,1455.581446
3441.809851,1184.329507,-9178.553681,766.095498
3441.810179,148.041188,-10732.986159,153.219100
3441.810506,-962.267725,-9104.533087,-229.828649
3441.810834,444.123565,-9400.615463,-1302.362347
3441.811162,1036.288319,-11917.315666,-612.876398
3441.811489,962.267725,-10658.965565,-1149.143247
3441.811817,-740.205942,-9104.533087,153.219100
3441.812144,-814.226536,-8734.430116,459.657299
3441.812472,1258.350101,-10066.800811,76.609550
3441.812800,592.164754,-9474.636058,1149.143247
3441.813127,-1110.308913,-7846.182985,1762.019645
3441.813455,-444.123565,-8882.471304,919.314598
3441.813783,296.082377,-9252.574275,-612.876398
3441.814110,740.205942,-10510.924376,-1149.143247
3441.814438,-222.061783,-9474.636058,459.657299
3441.814765,-1332.370696,-8808.450710,995.924147
3441.815093,-1110.308913,-9918.759623,-459.657299
3441.815421,-518.144159,-10510.924376,-1532.190996
3441.815748,-444.123565,-10140.821405,-1915.238745
3441.816076,-814.226536,-10140.821405,-689.485948
3441.816404,-296.082377,-10140.821405,-383.047749
3441.816731,2442.679609,-10658.965565,-306.438199
3441.817059,2442.679609,-9178.553681,919.314598
3441.817386,1110.308913,-10584.944971,3524.039291
3441.817714,888.247130,-9696.697840,1225.752797
3441.818042,518.144159,-8438.347739,76.609550
3441.818369,0.000000,-8808.450710,-383.047749
3441.818697,-666.185348,-8808.450710,0.000000
3441.819024,-1924.535449,-9844.739029,536.266849
3441.819352,-1184.329507,-10955.047942,-689.485948
3441.819680,-1258.350101,-9844.739029,-3217.601092
3441.820007,-1776.494261,-8956.491898,-1838.629195
3441.820335,-814.226536,-7550.100608,-995.924147
3441.820663,-814.226536,-9770.718434,1149.143247
3441.820990,592.164754,-12509.480420,1072.533697
3441.821318,1554.432478,-11695.253884,-689.485948
3441.821645,2072.576638,-8512.368333,-1991.848295
3441.821973,2442.679609,-7772.162391,-1149.143247
3441.822301,1628.453072,-10362.883188,1991.848295
3441.822628,888.247130,-11177.109724,3600.648841
3441.822956,2368.659014,-8808.450710,229.828649
3441.823284,2738.761985,-10584.944971,-2221.676944
3441.823611,1480.411884,-11695.253884,-1072.533697
3441.823939,1406.391290,-9252.574275,766.095498
3441.824266,444.123565,-7994.224174,536.266849
3441.824594,-1554.432478,-9400.615463,-1072.533697
3441.824922,-1850.514855,-10214.842000,-2987.772442
3441.825249,-1332.370696,-9326.594869,-1915.238745
3441.825577,740.205942,-9030.512492,-919.314598
3441.825904,1776.494261,-9770.718434,536.266849
3441.826232,1628.453072,-8438.347739,1838.629195
3441.826560,296.082377,-7698.141797,919.314598
3441.826887,-222.061783,-10140.821405,0.000000
3441.827215,1184.329507,-10881.027347,-1838.629195
3441.827543,1702.473667,-10362.883188,-1532.190996
3441.827870,1406.391290,-10732.986159,842.705048
3441.828198,2590.720797,-9474.636058,842.705048
3441.828525,2516.700203,-9252.574275,76.609550
3441.828853,1554.432478,-9992.780217,306.438199
3441.829181,444.123565,-9770.718434,-306.438199
3441.829508,-1406.391290,-9474.636058,-1455.581446
3441.829836,-1554.432478,-9622.677246,-2451.505594
3441.830164,-1702.473667,-9770.718434,-2298.286494
3441.830491,-1702.473667,-9548.656652,-1149.143247
3441.830819,-370.102971,-11029.068536,689.485948
3441.831146,1776.494261,-10066.800811,1149.143247
3441.831474,2146.597232,-9178.553681,842.705048
3441.831802,296.082377,-9696.697840,229.828649
3441.832129,74.020594,-9992.780217,76.609550
3441.832457,-370.102971,-9474.636058,-1225.752797
3441.832784,-2220.617826,-8882.471304,-1762.019645
3441.833112,-3552.988522,-8882.471304,0.000000
3441.833440,-222.061783,-10362.883188,0.000000
3441.833767,2146.597232,-10436.903782,0.000000
3441.834095,3034.844362,-13471.748144,0.000000
3441.834423,1258.350101,-11103.089130,306.438199
3441.834750,222.061783,-8290.306550,689.485948
3441.835078,0.000000,-9030.512492,306.438199
3441.835405,-1628.453072,-8956.491898,459.657299
3441.835733,-4515.256246,-7402.059420,1455.581446
3441.836061,-2886.803174,-8216.285956,1685.410096
3441.836388,0.000000,-9178.553681,-1225.752797
3441.836716,740.205942,-10214.842000,-1302.362347
3441.837044,-1036.288319,-9400.615463,229.828649
3441.837371,-2368.659014,-9104.533087,1455.581446
3441.837699,-814.226536,-10955.047942,-919.314598
3441.838026,-518.144159,-11991.336260,-4366.744339
3441.838354,-1776.494261,-8660.409521,-2068.457845
