#time,accel_x,accel_y,accel_z
3281.542556,444.123565,-9326.594869,-612.876398
3281.542883,-222.061783,-9844.739029,-612.876398
3281.543211,74.020594,-9844.739029,-766.095498
3281.543539,0.000000,-9992.780217,-995.924147
3281.543866,148.041188,-10288.862594,-689.485948
3281.544194,444.123565,-9992.780217,-383.047749
3281.544521,370.102971,-9474.636058,-383.047749
3281.544849,740.205942,-9992.780217,0.000000
3281.545177,518.144159,-9326.594869,76.609550
3281.545504,0.000000,-9474.636058,153.219100
3281.545832,0.000000,-9622.677246,76.609550
3281.546159,0.000000,-9326.594869,0.000000
3281.546487,-666.185348,-9178.553681,0.000000
3281.546815,-148.041188,-9400.615463,-459.657299
3281.547142,0.000000,-9030.512492,153.219100
3281.547470,0.000000,-9474.636058,0.000000
3281.547797,296.082377,-9770.718434,383.047749
3281.548125,518.144159,-9548.656652,0.000000
3281.548452,666.185348,-9770.718434,0.000000
3281.548780,814.226536,-9548.656652,919.314598
3281.549108,592.164754,-9178.553681,76.609550
3281.549435,370.102971,-9178.553681,0.000000
3281.549763,222.061783,-9178.553681,459.657299
3281.550090,74.020594,-9252.574275,0.000000
3281.550418,0.000000,-9474.636058,-612.876398
3281.550746,74.020594,-9474.636058,-536.266849
3281.551073,222.061783,-9622.677246,-306.438199
3281.551401,518.144159,-9696.697840,0.000000
3281.551728,444.123565,-10214.842000,76.609550
3281.552056,1110.308913,-10066.800811,-459.657299
3281.552384,740.205942,-10288.862594,-153.219100
3281.552711,518.144159,-10066.800811,-306.438199
3281.553039,518.144159,-9770.718434,-229.828649
3281.553366,-296.082377,-9474.636058,-383.047749
3281.553694,518.144159,-9548.656652,-229.828649
3281.554022,148.041188,-9770.718434,-1302.362347
3281.554349,0.000000,-9474.636058,-919.314598
3281.554677,0.000000,-9992.780217,-1072.533697
3281.555004,222.061783,-10288.862594,-995.924147
3281.555332,444.123565,-10362.883188,-536.266849
3281.555659,518.144159,-10066.800811,-459.657299
3281.555987,888.247130,-10140.821405,459.657299
3281.556315,888.247130,-9326.594869,76.609550
3281.556642,1406.391290,-9474.636058,383.047749
3281.556970,1702.473667,-9400.615463,306.438199
3281.557297,2294.638420,-8512.368333,0.000000
3281.557625,2738.761985,-8142.265362,0.000000
3281.557953,3627.009116,-8290.306550,-536.266849
3281.558280,4811.338623,-9400.615463,0.000000
3281.558608,6143.709319,-9548.656652,0.000000
3281.558935,7254.018232,-9770.718434,76.609550
3281.559263,7550.100608,-9770.718434,76.609550
3281.559591,8660.409521,-10066.800811,0.000000
3281.559918,8512.368333,-10584.944971,612.876398
3281.560246,8216.285956,-9770.718434,1532.190996
3281.560573,9252.574275,-9326.594869,919.314598
3281.560901,9400.615463,-8586.388927,0.000000
3281.561228,9548.656652,-8586.388927,-153.219100
3281.561556,9770.718434,-8734.430116,306.438199
3281.561884,10584.944971,-9030.512492,0.000000
3281.562211,11029.068536,-9622.677246,-229.828649
3281.562539,11251.130318,-9770.718434,-306.438199
3281.562866,10732.986159,-9622.677246,153.219100
3281.563194,12139.377449,-9548.656652,0.000000
3281.563522,12731.542202,-10214.842000,229.828649
3281.563849,13693.809927,-10807.006753,-306.438199
3281.564177,13915.871710,-10881.027347,306.438199
3281.564504,14656.077652,-9918.759623,919.314598
3281.564832,14508.036463,-8216.285956,536.266849
3281.565160,12953.603985,-9178.553681,919.314598
3281.565487,13471.748144,-10066.800811,306.438199
3281.565815,13619.789333,-9770.718434,-919.314598
3281.566142,12509.480420,-10140.821405,-459.657299
3281.566470,13249.686362,-10807.006753,306.438199
3281.566798,12879.583391,-9474.636058,1072.533697
3281.567125,12361.439231,-8956.491898,1532.190996
3281.567453,12657.521608,-8364.327145,1608.800546
3281.567780,11843.295072,-9622.677246,536.266849
3281.568108,11029.068536,-9770.718434,1072.533697
3281.568435,9918.759623,-9844.739029,306.438199
3281.568763,8142.265362,-8586.388927,306.438199
3281.569091,7328.038826,-8290.306550,0.000000
3281.569418,7550.100608,-7846.182985,-153.219100
3281.569746,9474.636058,-9844.739029,0.000000
3281.570073,10510.924376,-10732.986159,306.438199
3281.570401,10214.842000,-11843.295072,766.095498
3281.570729,9548.656652,-10436.903782,919.314598
3281.571056,8882.471304,-8142.265362,153.219100
3281.571384,7994.224174,-7624.121203,229.828649
3281.571711,8882.471304,-7920.203579,842.705048
3281.572039,9770.718434,-9696.697840,612.876398
3281.572367,9474.636058,-11843.295072,229.828649
3281.572694,8364.327145,-8956.491898,0.000000
3281.573022,7698.141797,-7994.224174,-766.095498
3281.573349,5551.544565,-10288.862594,-229.828649
3281.573677,5403.503377,-11547.212695,-766.095498
3281.574005,6439.791695,-9178.553681,-2451.505594
3281.574332,9104.533087,-8586.388927,-2757.943793
3281.574660,10510.924376,-9918.759623,-766.095498
3281.574987,9178.553681,-8956.491898,1915.238745
3281.575315,6809.894666,-7254.018232,3677.258390
3281.575642,8512.368333,-8364.327145,1455.581446
3281.575970,11695.253884,-10658.965565,-2145.067394
3281.576298,11621.233289,-11325.150913,-2221.676944
3281.576625,10140.821405,-9178.553681,0.000000
3281.576953,10362.883188,-9622.677246,766.095498
3281.577280,10214.842000,-11399.171507,229.828649
3281.577608,8586.388927,-11029.068536,76.609550
3281.577936,7254.018232,-8586.388927,-536.266849
3281.578263,8290.306550,-8068.244768,-1532.190996
3281.578591,10510.924376,-8808.450710,-306.438199
3281.578918,10584.944971,-9622.677246,995.924147
3281.579246,9400.615463,-9326.594869,2298.286494
3281.579574,9400.615463,-6661.853478,1608.800546
3281.579901,8956.491898,-7772.162391,0.000000
3281.580229,8660.409521,-10214.842000,-842.705048
3281.580556,9696.697840,-10658.965565,-1225.752797
3281.580884,10881.027347,-10140.821405,-153.219100
3281.581211,8142.265362,-12287.418637,229.828649
3281.581539,6883.915261,-12657.521608,1225.752797
3281.581867,7698.141797,-9918.759623,919.314598
3281.582194,6587.832884,-9474.636058,-459.657299
3281.582522,5921.647536,-10584.944971,-842.705048
3281.582849,5625.565159,-8142.265362,-689.485948
3281.583177,3775.050304,-7624.121203,2068.457845
3281.583505,2072.576638,-8216.285956,2528.115143
3281.583832,1776.494261,-7328.038826,0.000000
3281.584160,518.144159,-7476.080014,-919.314598
3281.584487,2738.761985,-9178.553681,-1608.800546
3281.584815,5329.482782,-11547.212695,-1685.410096
3281.585143,5033.400406,-12731.542202,76.609550
3281.585470,5921.647536,-11399.171507,1532.190996
3281.585798,7254.018232,-11029.068536,0.000000
3281.586125,4515.256246,-11917.315666,689.485948
3281.586453,2664.741391,-11843.295072,919.314598
3281.586781,1776.494261,-10658.965565,-459.657299
3281.587108,-444.123565,-9030.512492,-1608.800546
3281.587436,-1628.453072,-8660.409521,0.000000
3281.587763,-2146.597232,-9104.533087,1838.629195
3281.588091,-3182.885551,-8216.285956,3677.258390
3281.588418,-3997.112087,-7846.182985,1915.238745
3281.588746,-6143.709319,-7624.121203,-766.095498
3281.589074,-6291.750507,-7624.121203,-2451.505594
3281.589401,-4367.215058,-8660.409521,-2528.115143
3281.589729,-3182.885551,-9030.512492,-383.047749
3281.590056,-1998.556043,-9104.533087,1072.533697
3281.590384,-518.144159,-10732.986159,1149.143247
3281.590712,148.041188,-11251.130318,536.266849
3281.591039,-148.041188,-10658.965565,-995.924147
3281.591367,-1628.453072,-11325.150913,-1149.143247
3281.591694,-2072.576638,-10362.883188,-1302.362347
3281.592022,-2590.720797,-9918.759623,-1225.752797
3281.592350,-2072.576638,-8364.327145,-306.438199
3281.592677,-1184.329507,-7105.977043,76.609550
3281.593005,-148.041188,-7772.162391,1455.581446
3281.593332,1480.411884,-8512.368333,1915.238745
3281.593660,1036.288319,-9548.656652,536.266849
3281.593988,0.000000,-7402.059420,-689.485948
3281.594315,1258.350101,-7402.059420,-2145.067394
3281.594643,518.144159,-10658.965565,-2221.676944
3281.594970,1702.473667,-12139.377449,-612.876398
3281.595298,2886.803174,-12435.459826,76.609550
3281.595625,3701.029710,-12139.377449,-1149.143247
3281.595953,2442.679609,-12731.542202,-842.705048
3281.596281,0.000000,-12065.356855,-229.828649
3281.596608,0.000000,-10214.842000,-1532.190996
3281.596936,-1998.556043,-9104.533087,-1455.581446
3281.597263,-2738.761985,-7402.059420,-2451.505594
3281.597591,-740.205942,-5921.647536,-1838.629195
3281.597919,888.247130,-8290.306550,536.266849
3281.598246,2664.741391,-8586.388927,1532.190996
3281.598574,3701.029710,-10362.883188,1991.848295
3281.598901,4663.297435,-11695.253884,612.876398
3281.599229,4515.256246,-11621.233289,-383.047749
3281.599557,3627.009116,-12435.459826,-842.705048
3281.599884,3182.885551,-11325.150913,-995.924147
3281.600212,2516.700203,-13027.624579,0.000000
3281.600539,2294.638420,-11769.274478,459.657299
3281.600867,2442.679609,-9178.553681,306.438199
3281.601194,1332.370696,-9030.512492,1455.581446
3281.601522,592.164754,-8216.285956,1608.800546
3281.601850,-666.185348,-8142.265362,1378.971896
3281.602177,-296.082377,-7031.956449,536.266849
3281.602505,0.000000,-4589.276840,76.609550
3281.602832,-666.185348,-6809.894666,1072.533697
3281.603160,-296.082377,-8956.491898,1608.800546
3281.603488,1406.391290,-10288.862594,459.657299
3281.603815,2072.576638,-11029.068536,229.828649
3281.604143,2294.638420,-11547.212695,-383.047749
3281.604470,814.226536,-12361.439231,-1225.752797
3281.604798,-666.185348,-11473.192101,842.705048
3281.605126,-2294.638420,-10807.006753,-229.828649
3281.605453,-2738.761985,-11103.089130,-1608.800546
3281.605781,-2590.720797,-8068.244768,-2528.115143
3281.606108,-2442.679609,-7476.080014,-1072.533697
3281.606436,-2664.741391,-6735.874072,0.000000
3281.606763,-2368.659014,-9326.594869,1378.971896
3281.607091,-1924.535449,-7846.182985,1685.410096
3281.607418,222.061783,-6809.894666,-1225.752797
3281.607746,-518.144159,-9474.636058,-2298.286494
3281.608073,-740.205942,-10362.883188,-1762.019645
3281.608401,-444.123565,-10881.027347,-1072.533697
3281.608728,-222.061783,-11769.274478,-153.219100
3281.609056,814.226536,-11399.171507,-1762.019645
3281.609383,-296.082377,-13471.748144,229.828649
3281.609711,-888.247130,-12583.501014,0.000000
3281.610038,-962.267725,-10658.965565,-1378.971896
3281.610366,-1480.411884,-9252.574275,-1608.800546
3281.610694,-1702.473667,-7105.977043,-2145.067394
3281.611021,-1480.411884,-8216.285956,383.047749
3281.611349,0.000000,-7105.977043,2604.724693
3281.611676,2368.659014,-6883.915261,2145.067394
3281.612004,3256.906145,-8586.388927,1608.800546
3281.612331,1850.514855,-8290.306550,842.705048
3281.612659,-518.144159,-9770.718434,766.095498
3281.612986,148.041188,-10732.986159,-689.485948
3281.613314,518.144159,-10881.027347,-2528.115143
3281.613641,-296.082377,-11917.315666,-1685.410096
3281.613969,962.267725,-11251.130318,-1762.019645
3281.614296,1184.329507,-11177.109724,-689.485948
3281.614624,1184.329507,-10955.047942,612.876398
3281.614951,1406.391290,-9104.533087,0.000000
3281.615279,296.082377,-9474.636058,459.657299
3281.615606,2072.576638,-6513.812290,995.924147
3281.615934,3034.844362,-5403.503377,612.876398
3281.616261,1110.308913,-7254.018232,3524.039291
3281.616589,666.185348,-7994.224174,3830.477490
3281.616916,1036.288319,-9474.636058,1455.581446
3281.617244,1332.370696,-9548.656652,-2068.457845
3281.617572,0.000000,-11399.171507,-2834.553343
3281.617899,-1184.329507,-12139.377449,-2221.676944
3281.618227,74.020594,-13175.665768,-2298.286494
3281.618554,1110.308913,-12731.542202,-3447.429741
3281.618882,2516.700203,-10066.800811,-2757.943793
3281.619209,2368.659014,-10140.821405,842.705048
3281.619537,1332.370696,-10955.047942,3524.039291
3281.619864,666.185348,-8068.244768,2068.457845
3281.620192,518.144159,-6957.935855,0.000000
3281.620519,0.000000,-7031.956449,76.609550
3281.620847,592.164754,-8142.265362,0.000000
3281.621174,962.267725,-9400.615463,306.438199
3281.621502,444.123565,-9770.718434,1225.752797
3281.621829,74.020594,-10362.883188,-995.924147
3281.622157,1406.391290,-12065.356855,-2221.676944
3281.622484,1554.432478,-11991.336260,-1302.362347
3281.622812,0.000000,-12953.603985,-229.828649
3281.623139,148.041188,-11843.295072,153.219100
3281.623467,296.082377,-10140.821405,306.438199
3281.623795,-1554.432478,-7105.977043,-1225.752797
3281.624122,-2812.782580,-7698.141797,0.000000
3281.624450,-3849.070898,-7772.162391,1455.581446
3281.624777,-2960.823768,-7772.162391,306.438199
3281.625105,-962.267725,-8216.285956,-1532.190996
3281.625432,-666.185348,-5773.606348,-1072.533697
3281.625760,-1998.556043,-7624.121203,1762.019645
3281.626087,-1332.370696,-11251.130318,2145.067394
3281.626415,-740.205942,-11547.212695,0.000000
3281.626742,370.102971,-11029.068536,-1302.362347
3281.627070,2220.617826,-10658.965565,-1991.848295
3281.627397,814.226536,-11325.150913,-306.438199
3281.627725,370.102971,-12583.501014,1915.238745
3281.628052,148.041188,-10214.842000,1072.533697
3281.628380,-518.144159,-9474.636058,-1378.971896
3281.628707,-2812.782580,-8512.368333,-1838.629195
3281.629035,-2664.741391,-7105.977043,-1149.143247
3281.629362,-2072.576638,-7105.977043,0.000000
3281.629690,-222.061783,-7772.162391,306.438199
3281.630018,296.082377,-10288.862594,995.924147
3281.630345,1258.350101,-9992.780217,1378.971896
3281.630673,2516.700203,-9178.553681,306.438199
3281.631000,2072.576638,-12287.418637,995.924147
3281.631328,2072.576638,-11991.336260,0.000000
3281.631655,1110.308913,-10807.006753,-1915.238745
3281.631983,1184.329507,-9992.780217,-1838.629195
3281.632310,1776.494261,-9992.780217,-1455.581446
3281.632638,740.205942,-9844.739029,1225.752797
3281.632965,1258.350101,-7846.182985,1532.190996
3281.633293,592.164754,-8660.409521,-153.219100
3281.633620,-1480.411884,-10584.944971,-1532.190996
3281.633948,-592.164754,-8660.409521,-1838.629195
3281.634275,1110.308913,-9178.553681,-842.705048
3281.634603,2738.761985,-8512.368333,0.000000
3281.634930,2516.700203,-10436.903782,919.314598
3281.635258,2516.700203,-10288.862594,1149.143247
3281.635585,3182.885551,-8882.471304,0.000000
3281.635913,1628.453072,-10584.944971,-612.876398
3281.636241,666.185348,-12139.377449,0.000000
3281.636568,518.144159,-10510.924376,0.000000
3281.636896,296.082377,-8882.471304,-612.876398
3281.637223,0.000000,-8290.306550,-1302.362347
3281.637551,-444.123565,-9992.780217,689.485948
3281.637878,-222.061783,-9474.636058,1685.410096
3281.638206,0.000000,-9104.533087,-153.219100
3281.638533,222.061783,-8068.244768,-1991.848295
3281.638861,-592.164754,-7476.080014,-995.924147
3281.639188,-814.226536,-9178.553681,-536.266849
3281.639516,74.020594,-7624.121203,459.657299
3281.639843,888.247130,-8808.450710,842.705048
3281.640171,740.205942,-11695.253884,689.485948
3281.640498,1924.535449,-11695.253884,-612.876398
3281.640826,1776.494261,-11917.315666,-1225.752797
3281.641153,-518.144159,-10807.006753,-995.924147
3281.641481,-666.185348,-10807.006753,-612.876398
3281.641808,-370.102971,-9474.636058,-842.705048
3281.642136,-444.123565,-7476.080014,-1072.533697
3281.642464,-370.102971,-7920.203579,0.000000
3281.642791,-370.102971,-8438.347739,919.314598
3281.643119,0.000000,-8808.450710,1762.019645
3281.643446,814.226536,-8660.409521,919.314598
3281.643774,1110.308913,-8660.409521,-459.657299
3281.644101,-592.164754,-12065.356855,229.828649
3281.644429,-740.205942,-11547.212695,-1149.143247
3281.644756,0.000000,-10955.047942,-3140.991542
3281.645084,-1036.288319,-12435.459826,-2221.676944
3281.645411,-1628.453072,-10658.965565,-689.485948
3281.645739,-740.205942,-9474.636058,689.485948
3281.646066,-740.205942,-7846.182985,-383.047749
3281.646394,-1998.556043,-7698.141797,689.485948
3281.646721,-3256.906145,-9474.636058,1072.533697
3281.647049,-1998.556043,-7476.080014,-1149.143247
3281.647376,-962.267725,-7328.038826,-919.314598
3281.647704,1258.350101,-9474.636058,0.000000
3281.648031,2072.576638,-10510.924376,1455.581446
3281.648359,2072.576638,-12435.459826,3524.039291
3281.648687,3775.050304,-9548.656652,-306.438199
3281.649014,2886.803174,-9992.780217,-1762.019645
3281.649342,-740.205942,-11695.253884,-995.924147
3281.649669,-1850.514855,-10066.800811,-995.924147
3281.649997,-1110.308913,-8808.450710,-1149.143247
3281.650324,-296.082377,-6143.709319,-1072.533697
3281.650652,0.000000,-8364.327145,0.000000
3281.650979,1110.308913,-10732.986159,2451.505594
3281.651307,2960.823768,-9326.594869,1608.800546
3281.651634,3478.967927,-9844.739029,0.000000
3281.651962,2294.638420,-8882.471304,-995.924147
3281.652289,888.247130,-9104.533087,-842.705048
3281.652617,1110.308913,-9252.574275,612.876398
3281.652944,3404.947333,-9474.636058,0.000000
3281.653272,2516.700203,-10658.965565,1991.848295
3281.653599,3478.967927,-9992.780217,1072.533697
3281.653927,2664.741391,-10436.903782,-919.314598
3281.654254,-1184.329507,-12731.542202,-1838.629195
3281.654582,-1776.494261,-11843.295072,-2604.724693
3281.654909,-444.123565,-9548.656652,-2757.943793
3281.655237,370.102971,-8068.244768,-1685.410096
3281.655565,1258.350101,-8142.265362,229.828649
3281.655892,1628.453072,-9696.697840,2374.896044
3281.656220,2442.679609,-10140.821405,2221.676944
3281.656547,2220.617826,-10140.821405,536.266849
3281.656875,1480.411884,-7402.059420,-842.705048
3281.657202,-296.082377,-7624.121203,-306.438199
3281.657530,-814.226536,-11473.192101,1225.752797
3281.657857,1850.514855,-10658.965565,-689.485948
3281.658185,1036.288319,-9696.697840,-919.314598
3281.658512,0.000000,-10214.842000,459.657299
3281.658840,-666.185348,-9474.636058,0.000000
3281.659167,-2516.700203,-11399.171507,0.000000
3281.659495,-3775.050304,-9696.697840,-1072.533697
3281.659822,-2812.782580,-8068.244768,-3753.867940
3281.660150,-1406.391290,-6217.729913,-2987.772442
3281.660477,0.000000,-7772.162391,766.095498
3281.660805,740.205942,-9992.780217,3370.820191
3281.661132,1998.556043,-10288.862594,2604.724693
3281.661460,2146.597232,-10955.047942,919.314598
3281.661788,1850.514855,-10584.944971,-306.438199
3281.662115,74.020594,-9030.512492,-1838.629195
3281.662443,-1924.535449,-11399.171507,0.000000
3281.662770,-1702.473667,-11029.068536,-1072.533697
3281.663098,-888.247130,-10510.924376,-2604.724693
3281.663425,-740.205942,-9474.636058,-1685.410096
3281.663753,-370.102971,-8734.430116,383.047749
3281.664080,370.102971,-9918.759623,2068.457845
3281.664408,1628.453072,-9622.677246,1378.971896
3281.664735,1776.494261,-10214.842000,0.000000
3281.665063,1480.411884,-9548.656652,-689.485948
3281.665390,296.082377,-8956.491898,0.000000
3281.665718,-814.226536,-9400.615463,536.266849
3281.666045,-740.205942,-9992.780217,-1072.533697
3281.666373,-814.226536,-11325.150913,-1685.410096
3281.666700,-1110.308913,-10214.842000,-1225.752797
3281.667028,-1110.308913,-8586.388927,-536.266849
3281.667355,-1924.535449,-10214.842000,-1532.190996
3281.667683,-2368.659014,-9696.697840,-2221.676944
3281.668011,-740.205942,-7994.224174,-1532.190996
3281.668338,1554.432478,-7550.100608,-1149.143247
3281.668666,2886.803174,-9104.533087,2145.067394
3281.668993,3775.050304,-11473.192101,3524.039291
3281.669321,3108.864956,-8660.409521,2451.505594
3281.669648,1702.473667,-9770.718434,689.485948
3281.669976,-518.144159,-9104.533087,-1378.971896
3281.670303,-1258.350101,-7698.141797,-2834.553343
3281.670631,-2294.638420,-9696.697840,-1225.752797
3281.670958,-296.082377,-9918.759623,-995.924147
3281.671286,1554.432478,-10288.862594,-383.047749
3281.671613,3330.926739,-11325.150913,1225.752797
3281.671941,3701.029710,-10436.903782,919.314598
3281.672268,1850.514855,-10436.903782,1838.629195
3281.672596,814.226536,-8956.491898,842.705048
3281.672923,888.247130,-9178.553681,-1685.410096
3281.673251,1110.308913,-9474.636058,-1149.143247
3281.673578,1184.329507,-8142.265362,-383.047749
3281.673906,2516.700203,-9400.615463,2145.067394
3281.674234,2664.741391,-9400.615463,1685.410096
3281.674561,-370.102971,-10214.842000,306.438199
3281.674889,-1924.535449,-12287.418637,-1838.629195
3281.675216,-888.247130,-10214.842000,-4290.134789
3281.675544,518.144159,-10732.986159,-2681.334243
3281.675871,888.247130,-10288.862594,842.705048
3281.676199,888.247130,-9474.636058,1685.410096
3281.676526,1258.350101,-9770.718434,2145.067394
3281.676854,1998.556043,-9178.553681,459.657299
3281.677181,-222.061783,-9030.512492,306.438199
3281.677509,-1776.494261,-8216.285956,-383.047749
3281.677836,-1258.350101,-7624.121203,-1532.190996
3281.678164,-592.164754,-10288.862594,-919.314598
3281.678491,370.102971,-10066.800811,-1455.581446
3281.678819,1480.411884,-11029.068536,612.876398
3281.679146,1036.288319,-11177.109724,1991.848295
3281.679474,666.185348,-10140.821405,306.438199
3281.679801,-1332.370696,-11029.068536,-612.876398
3281.680129,-2516.700203,-9770.718434,-1302.362347
3281.680457,-1998.556043,-8956.491898,-2528.115143
3281.680784,-1776.494261,-8142.265362,-1378.971896
3281.681112,-1924.535449,-8216.285956,0.000000
3281.681439,0.000000,-10362.883188,1302.362347
3281.681767,1628.453072,-8586.388927,689.485948
3281.682094,1628.453072,-9400.615463,0.000000
3281.682422,1258.350101,-11177.109724,153.219100
3281.682749,444.123565,-11399.171507,459.657299
3281.683077,222.061783,-11251.130318,459.657299
3281.683404,444.123565,-8808.450710,-995.924147
3281.683732,0.000000,-9548.656652,-1225.752797
3281.684059,-518.144159,-10584.944971,-306.438199
3281.684387,296.082377,-9770.718434,0.000000
3281.684714,740.205942,-9918.759623,76.609550
3281.685042,740.205942,-9548.656652,-459.657299
3281.685369,1110.308913,-9992.780217,-1072.533697
3281.685697,888.247130,-9622.677246,-766.095498
3281.686024,888.247130,-10436.903782,0.000000
3281.686352,444.123565,-12213.398043,1455.581446
3281.686679,666.185348,-9178.553681,-383.047749
3281.687007,1258.350101,-8808.450710,-1225.752797
3281.687335,-444.123565,-10510.924376,-153.219100
3281.687662,-2220.617826,-8956.491898,1302.362347
3281.687990,-2738.761985,-9622.677246,0.000000
3281.688317,-1702.473667,-7402.059420,-3064.381992
3281.688645,-962.267725,-7624.121203,-3217.601092
3281.688972,-592.164754,-9400.615463,0.000000
3281.689300,1554.432478,-10436.903782,2451.505594
3281.689627,2516.700203,-11547.212695,3753.867940
3281.689955,4663.297435,-9844.739029,383.047749
3281.690282,2960.823768,-9474.636058,-383.047749
3281.690610,0.000000,-10362.883188,842.705048
3281.690937,-518.144159,-8734.430116,306.438199
3281.691265,-962.267725,-9104.533087,-689.485948
3281.691592,-740.205942,-7031.956449,-689.485948
3281.691920,-740.205942,-6513.812290,-459.657299
3281.692247,370.102971,-10436.903782,76.609550
3281.692575,888.247130,-10214.842000,689.485948
3281.692902,296.082377,-10584.944971,229.828649
3281.693230,296.082377,-8882.471304,-1225.752797
3281.693558,518.144159,-9326.594869,-1762.019645
3281.693885,444.123565,-11029.068536,-459.657299
3281.694213,1258.350101,-9992.780217,229.828649
3281.694540,2516.700203,-9252.574275,1225.752797
3281.694868,3330.926739,-9844.739029,0.000000
3281.695195,592.164754,-10510.924376,-383.047749
3281.695523,-1702.473667,-11029.068536,153.219100
3281.695850,-962.267725,-9178.553681,-1302.362347
3281.696178,0.000000,-10584.944971,-2451.505594
3281.696505,0.000000,-10658.965565,-1302.362347
3281.696833,370.102971,-9030.512492,-153.219100
3281.697160,592.164754,-9326.594869,1072.533697
3281.697488,1554.432478,-11029.068536,536.266849
3281.697815,592.164754,-11547.212695,459.657299
3281.698143,222.061783,-8586.388927,0.000000
3281.698470,518.144159,-7105.977043,-306.438199
3281.698798,-962.267725,-9770.718434,153.219100
3281.699125,-1332.370696,-10732.986159,689.485948
3281.699453,-962.267725,-9992.780217,-229.828649
3281.699781,1036.288319,-9326.594869,-1455.581446
3281.700108,1258.350101,-9326.594869,-995.924147
3281.700436,0.000000,-12287.418637,1378.971896
3281.700763,370.102971,-9474.636058,612.876398
3281.701091,-370.102971,-7920.203579,-919.314598
3281.701418,-740.205942,-7254.018232,-1149.143247
3281.701746,-1110.308913,-7772.162391,459.657299
3281.702073,-1258.350101,-10436.903782,2374.896044
3281.702401,0.000000,-8956.491898,536.266849
3281.702728,-666.185348,-7994.224174,-612.876398
3281.703056,-666.185348,-9548.656652,-612.876398
3281.703383,-222.061783,-10214.842000,-536.266849
3281.703711,296.082377,-10955.047942,-459.657299
3281.704038,666.185348,-10807.006753,-766.095498
3281.704366,814.226536,-12583.501014,-2145.067394
3281.704693,1776.494261,-12509.480420,-1915.238745
3281.705021,2072.576638,-8956.491898,-842.705048
3281.705348,1480.411884,-9844.739029,1455.581446
3281.705676,740.205942,-9844.739029,995.924147
3281.706004,1036.288319,-10510.924376,-459.657299
3281.706331,592.164754,-8512.368333,-919.314598
3281.706659,148.041188,-6809.894666,-229.828649
3281.706986,-296.082377,-9252.574275,842.705048
3281.707314,518.144159,-11843.295072,0.000000
3281.707641,1628.453072,-11029.068536,-1991.848295
3281.707969,740.205942,-11621.233289,-1302.362347
3281.708296,-222.061783,-9992.780217,-842.705048
3281.708624,-518.144159,-10510.924376,-1532.190996
3281.708951,-888.247130,-10214.842000,-1378.971896
3281.709279,-444.123565,-8882.471304,-1302.362347
3281.709606,-666.185348,-8734.430116,0.000000
3281.709934,-222.061783,-7994.224174,1991.848295
3281.710261,1036.288319,-7846.182985,842.705048
3281.710589,1480.411884,-8956.491898,689.485948
3281.710916,962.267725,-10362.883188,459.657299
3281.711244,666.185348,-9992.780217,0.000000
3281.711572,1036.288319,-7624.121203,-995.924147
3281.711899,0.000000,-8956.491898,-459.657299
3281.712227,-444.123565,-9622.677246,1302.362347
3281.712554,962.267725,-9474.636058,1608.800546
3281.712882,2442.679609,-9770.718434,842.705048
3281.713209,1702.473667,-9622.677246,76.609550
3281.713537,-444.123565,-9178.553681,1302.362347
3281.713864,-666.185348,-8586.388927,76.609550
3281.714192,-666.185348,-9030.512492,-1225.752797
3281.714519,148.041188,-10584.944971,-1378.971896
3281.714847,1184.329507,-8216.285956,0.000000
3281.715174,2220.617826,-8438.347739,1455.581446
3281.715502,1702.473667,-10436.903782,612.876398
3281.715829,-296.082377,-11695.253884,0.000000
3281.716157,-518.144159,-11177.109724,-536.266849
3281.716484,1184.329507,-9400.615463,-2145.067394
3281.716812,1406.391290,-10584.944971,-1532.190996
3281.717140,666.185348,-10955.047942,842.705048
3281.717467,740.205942,-10066.800811,995.924147
3281.717795,666.185348,-10066.800811,0.000000
3281.718122,222.061783,-8956.491898,-1225.752797
3281.718450,-1332.370696,-9548.656652,-612.876398
3281.718777,-2220.617826,-9030.512492,-995.924147
3281.719105,-1332.370696,-9178.553681,-1608.800546
3281.719432,-962.267725,-10658.965565,-1455.581446
3281.719760,-518.144159,-8660.409521,-919.314598
3281.720087,592.164754,-9696.697840,306.438199
3281.720415,962.267725,-10807.006753,842.705048
3281.720742,1480.411884,-11103.089130,0.000000
3281.721070,1480.411884,-12731.542202,0.000000
3281.721397,962.267725,-8734.430116,-1608.800546
3281.721725,-518.144159,-7179.997637,-995.924147
3281.722052,-1850.514855,-8142.265362,612.876398
3281.722380,-2294.638420,-8438.347739,1378.971896
3281.722708,-2072.576638,-10140.821405,689.485948
3281.723035,0.000000,-8660.409521,-2145.067394
3281.723363,0.000000,-8142.265362,-1915.238745
3281.723690,222.061783,-9474.636058,919.314598
3281.724018,962.267725,-9400.615463,1302.362347
3281.724345,1332.370696,-9696.697840,229.828649
3281.724673,1776.494261,-8660.409521,383.047749
3281.725000,1628.453072,-10140.821405,-306.438199
3281.725328,888.247130,-10510.924376,229.828649
3281.725655,1110.308913,-9992.780217,0.000000
3281.725983,370.102971,-11177.109724,-612.876398
3281.726310,222.061783,-9918.759623,-1302.362347
3281.726638,814.226536,-9400.615463,-1302.362347
3281.726965,444.123565,-10066.800811,153.219100
3281.727293,888.247130,-9474.636058,612.876398
3281.727620,1850.514855,-10140.821405,0.000000
3281.727948,2368.659014,-9622.677246,-153.219100
3281.728276,2442.679609,-10288.862594,612.876398
3281.728603,1480.411884,-9770.718434,1762.019645
3281.728931,296.082377,-9400.615463,1532.190996
3281.729258,-1850.514855,-10362.883188,-1225.752797
3281.729586,-2220.617826,-10140.821405,-3140.991542
3281.729913,-1332.370696,-8290.306550,-3064.381992
3281.730241,-370.102971,-10288.862594,-1455.581446
3281.730568,-296.082377,-11251.130318,842.705048
3281.730896,962.267725,-11547.212695,1455.581446
3281.731223,2886.803174,-9104.533087,-536.266849
3281.731551,2960.823768,-9918.759623,-612.876398
3281.731878,222.061783,-10288.862594,919.314598
3281.732206,-148.041188,-7402.059420,1072.533697
3281.732533,0.000000,-7179.997637,1149.143247
3281.732861,814.226536,-7402.059420,766.095498
3281.733188,888.247130,-8364.327145,689.485948
3281.733516,148.041188,-11325.150913,1378.971896
3281.733844,814.226536,-10658.965565,612.876398
3281.734171,74.020594,-11029.068536,-1608.800546
3281.734499,-222.061783,-9992.780217,-2834.553343
3281.734826,-814.226536,-9326.594869,-1991.848295
3281.735154,-222.061783,-10584.944971,536.266849
3281.735481,888.247130,-8808.450710,919.314598
3281.735809,1850.514855,-9844.739029,995.924147
3281.736136,962.267725,-8882.471304,536.266849
3281.736464,-962.267725,-8660.409521,-459.657299
3281.736791,-2220.617826,-10066.800811,0.000000
3281.737119,-518.144159,-10214.842000,-1225.752797
3281.737446,1184.329507,-11695.253884,-919.314598
3281.737774,1776.494261,-10436.903782,-919.314598
3281.738101,1776.494261,-9548.656652,306.438199
3281.738429,1850.514855,-11251.130318,842.705048
3281.738756,592.164754,-11399.171507,459.657299
3281.739084,-1110.308913,-10436.903782,153.219100
3281.739412,-888.247130,-7994.224174,-1378.971896
3281.739739,-666.185348,-7031.956449,-1455.581446
3281.740067,-962.267725,-9474.636058,0.000000
3281.740394,-814.226536,-9696.697840,1072.533697
3281.740722,0.000000,-10807.006753,612.876398
3281.741049,1628.453072,-9474.636058,-995.924147
3281.741377,1480.411884,-9548.656652,-1225.752797
3281.741704,962.267725,-11473.192101,229.828649
3281.742032,888.247130,-9622.677246,229.828649
3281.742359,-148.041188,-9104.533087,-612.876398
3281.742687,-888.247130,-8290.306550,383.047749
3281.743014,-1110.308913,-8068.244768,306.438199
3281.743342,-370.102971,-10584.944971,1149.143247
3281.743669,-222.061783,-9104.533087,0.000000
3281.743997,-296.082377,-9474.636058,-383.047749
3281.744324,666.185348,-9770.718434,-919.314598
3281.744652,1184.329507,-7698.141797,-1302.362347
3281.744980,444.123565,-8734.430116,612.876398
3281.745307,-296.082377,-9252.574275,306.438199
3281.745635,1036.288319,-11399.171507,-306.438199
3281.745962,1628.453072,-11251.130318,-766.095498
3281.746290,1554.432478,-9400.615463,-1072.533697
3281.746617,370.102971,-10436.903782,612.876398
3281.746945,888.247130,-10214.842000,995.924147
3281.747272,814.226536,-10510.924376,-1149.143247
3281.747600,0.000000,-10140.821405,-229.828649
3281.747927,518.144159,-8068.244768,-612.876398
3281.748255,296.082377,-9252.574275,153.219100
3281.748582,814.226536,-10584.944971,536.266849
3281.748910,1110.308913,-12213.398043,-153.219100
3281.749237,296.082377,-9918.759623,612.876398
3281.749565,-296.082377,-7476.080014,0.000000
3281.749892,-1036.288319,-10658.965565,-1302.362347
3281.750220,-1406.391290,-10658.965565,-1455.581446
3281.750548,148.041188,-9326.594869,-1072.533697
3281.750875,1110.308913,-9548.656652,-536.266849
3281.751203,1776.494261,-9178.553681,612.876398
3281.751530,1036.288319,-10066.800811,1685.410096
3281.751858,1554.432478,-9844.739029,459.657299
3281.752185,518.144159,-9548.656652,-383.047749
3281.752513,-962.267725,-10362.883188,-689.485948
3281.752840,-296.082377,-7254.018232,-1532.190996
3281.753168,-592.164754,-7698.141797,0.000000
3281.753495,296.082377,-9030.512492,1302.362347
3281.753823,444.123565,-9030.512492,2604.724693
3281.754150,1776.494261,-10362.883188,2068.457845
3281.754478,1776.494261,-9030.512492,0.000000
3281.754805,-444.123565,-10584.944971,306.438199
3281.755133,-740.205942,-9548.656652,0.000000
3281.755460,-444.123565,-8512.368333,-1302.362347
3281.755788,-444.123565,-10584.944971,-995.924147
3281.756116,370.102971,-9770.718434,-459.657299
3281.756443,1036.288319,-8956.491898,612.876398
3281.756771,1406.391290,-8512.368333,995.924147
3281.757098,-222.061783,-10584.944971,-459.657299
3281.757426,-1776.494261,-11325.150913,-919.314598
3281.757753,-296.082377,-8438.347739,-1838.629195
3281.758081,888.247130,-9622.677246,-1532.190996
3281.758408,962.267725,-11029.068536,612.876398
3281.758736,518.144159,-9252.574275,1149.143247
3281.759063,518.144159,-10658.965565,229.828649
3281.759391,148.041188,-10658.965565,-919.314598
3281.759718,-592.164754,-10214.842000,-1608.800546
3281.760046,-1406.391290,-9474.636058,-1532.190996
3281.760373,-1554.432478,-9770.718434,-766.095498
3281.760701,0.000000,-10955.047942,-1072.533697
3281.761029,1480.411884,-9178.553681,-1762.019645
3281.761356,1702.473667,-10732.986159,919.314598
3281.761684,1184.329507,-10955.047942,1838.629195
3281.762011,1258.350101,-9400.615463,459.657299
3281.762339,-222.061783,-9918.759623,306.438199
3281.762666,-222.061783,-9770.718434,-919.314598
3281.762994,0.000000,-7698.141797,-1838.629195
3281.763321,0.000000,-8290.306550,0.000000
3281.763649,-148.041188,-9104.533087,1225.752797
3281.763976,-740.205942,-10362.883188,1762.019645
3281.764304,0.000000,-9326.594869,-459.657299
3281.764631,814.226536,-8586.388927,-1991.848295
3281.764959,0.000000,-9178.553681,-842.705048
3281.765286,222.061783,-9474.636058,1608.800546
3281.765614,1036.288319,-9992.780217,995.924147
3281.765941,814.226536,-8882.471304,383.047749
3281.766269,1480.411884,-9104.533087,-919.314598
3281.766597,814.226536,-9992.780217,76.609550
3281.766924,1110.308913,-11177.109724,383.047749
3281.767252,1406.391290,-11251.130318,0.000000
3281.767579,1332.370696,-8882.471304,-1685.410096
3281.767907,814.226536,-9252.574275,-1991.848295
3281.768234,518.144159,-10436.903782,536.266849
3281.768562,-444.123565,-8882.471304,842.705048
3281.768889,0.000000,-9844.739029,689.485948
3281.769217,962.267725,-10436.903782,-842.705048
3281.769544,2368.659014,-11325.150913,-1302.362347
3281.769872,592.164754,-10510.924376,536.266849
3281.770199,-370.102971,-9770.718434,1072.533697
3281.770527,-814.226536,-10214.842000,-306.438199
3281.770854,-888.247130,-9400.615463,-3753.867940
3281.771182,-740.205942,-9474.636058,-2987.772442
3281.771509,0.000000,-10955.047942,-229.828649
3281.771837,740.205942,-10362.883188,1225.752797
3281.772165,1258.350101,-11103.089130,2145.067394
3281.772492,888.247130,-9030.512492,383.047749
3281.772820,518.144159,-8438.347739,-919.314598
3281.773147,-814.226536,-9696.697840,0.000000
3281.773475,-888.247130,-8364.327145,-153.219100
3281.773802,-1110.308913,-8512.368333,-229.828649
3281.774130,222.061783,-7698.141797,-306.438199
3281.774457,666.185348,-6735.874072,995.924147
3281.774785,962.267725,-10955.047942,2681.334243
3281.775112,518.144159,-10881.027347,2221.676944
3281.775440,0.000000,-9770.718434,-612.876398
3281.775767,0.000000,-9178.553681,-2221.676944
3281.776095,-296.082377,-8882.471304,-1838.629195
3281.776422,0.000000,-9918.759623,229.828649
3281.776750,444.123565,-9474.636058,2221.676944
3281.777077,1036.288319,-9844.739029,2451.505594
3281.777405,2146.597232,-8956.491898,76.609550
3281.777733,370.102971,-8512.368333,-1915.238745
3281.778060,-2368.659014,-10732.986159,0.000000
3281.778388,-1628.453072,-10066.800811,-766.095498
3281.778715,-962.267725,-9770.718434,-1378.971896
3281.779043,0.000000,-10584.944971,-919.314598
3281.779370,740.205942,-9400.615463,-383.047749
3281.779698,1998.556043,-11399.171507,306.438199
3281.780025,1406.391290,-10436.903782,76.609550
3281.780353,0.000000,-11473.192101,-842.705048
3281.780680,-888.247130,-9918.759623,-1915.238745
3281.781008,0.000000,-7550.100608,-2221.676944
3281.781335,0.000000,-9400.615463,76.609550
3281.781663,0.000000,-10214.842000,689.485948
3281.781990,592.164754,-11251.130318,766.095498
3281.782318,1998.556043,-11325.150913,0.000000
3281.782645,1850.514855,-9030.512492,-1991.848295
3281.782973,518.144159,-10807.006753,-842.705048
3281.783301,-222.061783,-9548.656652,0.000000
3281.783628,74.020594,-9104.533087,-612.876398
3281.783956,1554.432478,-8956.491898,0.000000
3281.784283,2442.679609,-7550.100608,-459.657299
3281.784611,740.205942,-9252.574275,2298.286494
3281.784938,-518.144159,-9844.739029,2987.772442
3281.785266,-888.247130,-9474.636058,995.924147
3281.785593,-962.267725,-9844.739029,-1072.533697
3281.785921,0.000000,-7031.956449,-3064.381992
3281.786248,-1110.308913,-7772.162391,-1072.533697
3281.786576,-444.123565,-10584.944971,1072.533697
3281.786903,1110.308913,-9992.780217,536.266849
3281.787231,2812.782580,-10881.027347,-612.876398
3281.787558,2294.638420,-9474.636058,-612.876398
3281.787886,1184.329507,-10807.006753,1378.971896
3281.788213,1776.494261,-10362.883188,1225.752797
3281.788541,814.226536,-9178.553681,-536.266849
3281.788869,-370.102971,-9622.677246,-383.047749
3281.789196,-370.102971,-8216.285956,-536.266849
3281.789524,592.164754,-9104.533087,-153.219100
3281.789851,888.247130,-10288.862594,153.219100
3281.790179,444.123565,-11843.295072,-306.438199
3281.790506,1332.370696,-11621.233289,-1225.752797
3281.790834,1036.288319,-8216.285956,-612.876398
3281.791161,-222.061783,-9326.594869,0.000000
3281.791489,-1998.556043,-10955.047942,306.438199
3281.791816,-2220.617826,-9844.739029,-1072.533697
3281.792144,74.020594,-9992.780217,-1915.238745
3281.792471,1628.453072,-8956.491898,-2221.676944
3281.792799,518.144159,-10436.903782,689.485948
3281.793126,-296.082377,-11325.150913,3217.601092
3281.793454,1110.308913,-9622.677246,0.000000
3281.793781,370.102971,-9622.677246,-2681.334243
3281.794109,-370.102971,-8586.388927,-2528.115143
3281.794437,-1184.329507,-8216.285956,229.828649
3281.794764,0.000000,-8364.327145,1762.019645
3281.795092,592.164754,-8660.409521,1685.410096
3281.795419,518.144159,-9622.677246,2451.505594
3281.795747,1036.288319,-8660.409521,919.314598
3281.796074,1258.350101,-9326.594869,306.438199
3281.796402,-296.082377,-9770.718434,0.000000
3281.796729,-1776.494261,-8512.368333,-1685.410096
3281.797057,-1184.329507,-9844.739029,-2451.505594
3281.797384,518.144159,-10140.821405,-1762.019645
3281.797712,1332.370696,-9252.574275,689.485948
3281.798039,1776.494261,-9326.594869,2987.772442
3281.798367,2220.617826,-8956.491898,1302.362347
3281.798694,370.102971,-10807.006753,0.000000
3281.799022,-1036.288319,-10510.924376,-1838.629195
3281.799349,-1110.308913,-9178.553681,-1915.238745
3281.799677,148.041188,-9326.594869,0.000000
3281.800005,1850.514855,-8956.491898,-306.438199
3281.800332,2072.576638,-11621.233289,1149.143247
3281.800660,814.226536,-10732.986159,919.314598
3281.800987,1110.308913,-9844.739029,-919.314598
3281.801315,518.144159,-11177.109724,-1455.581446
3281.801642,-888.247130,-9400.615463,-2221.676944
3281.801970,-2220.617826,-9104.533087,-689.485948
3281.802297,-518.144159,-8438.347739,-306.438199
3281.802625,1480.411884,-9474.636058,0.000000
3281.802952,2146.597232,-12657.521608,919.314598
3281.803280,1258.350101,-11177.109724,1762.019645
3281.803607,1036.288319,-9992.780217,0.000000
3281.803935,1332.370696,-9326.594869,-2451.505594
3281.804262,814.226536,-9918.759623,-2911.162892
3281.804590,74.020594,-10288.862594,0.000000
3281.804917,518.144159,-7994.224174,766.095498
3281.805245,296.082377,-7772.162391,1149.143247
3281.805573,444.123565,-9474.636058,1455.581446
3281.805900,74.020594,-9770.718434,1378.971896
3281.806228,-888.247130,-9770.718434,919.314598
3281.806555,-1258.350101,-8586.388927,-842.705048
3281.806883,0.000000,-9696.697840,-2528.115143
3281.807210,518.144159,-9252.574275,-2374.896044
3281.807538,222.061783,-8438.347739,-229.828649
3281.807865,962.267725,-9326.594869,1302.362347
3281.808193,1776.494261,-9770.718434,842.705048
3281.808520,1258.350101,-11029.068536,612.876398
3281.808848,1258.350101,-10658.965565,-229.828649
3281.809175,1406.391290,-9918.759623,-1072.533697
3281.809503,518.144159,-10066.800811,0.000000
3281.809830,-296.082377,-10362.883188,0.000000
3281.810158,-370.102971,-10436.903782,-612.876398
3281.810485,370.102971,-9400.615463,-1532.190996
3281.810813,888.247130,-9474.636058,-1072.533697
3281.811140,740.205942,-10288.862594,-306.438199
3281.811468,148.041188,-10214.842000,459.657299
3281.811795,370.102971,-10584.944971,229.828649
3281.812123,370.102971,-9252.574275,-1378.971896
3281.812450,-1036.288319,-7624.121203,-995.924147
3281.812778,-2368.659014,-10807.006753,919.314598
3281.813105,-2368.659014,-11843.295072,-689.485948
3281.813433,-1110.308913,-10584.944971,-2145.067394
3281.813760,1406.391290,-9474.636058,-3677.258390
3281.814088,2220.617826,-10510.924376,-1991.848295
3281.814415,1258.350101,-12509.480420,2145.067394
3281.814743,1110.308913,-9400.615463,2451.505594
3281.815070,1036.288319,-7920.203579,612.876398
3281.815398,444.123565,-8956.491898,-919.314598
3281.815725,-370.102971,-7254.018232,-995.924147
3281.816053,-1184.329507,-7994.224174,842.705048
3281.816380,-518.144159,-8512.368333,1762.019645
3281.816708,518.144159,-9622.677246,459.657299
3281.817035,1554.432478,-10510.924376,306.438199
3281.817363,1924.535449,-9326.594869,-536.266849
3281.817690,1184.329507,-9918.759623,0.000000
3281.818018,74.020594,-10881.027347,0.000000
3281.818345,0.000000,-10510.924376,-459.657299
3281.818673,518.144159,-9474.636058,-1378.971896
3281.819001,1036.288319,-6735.874072,-689.485948
3281.819328,1184.329507,-9326.594869,2298.286494
3281.819656,1776.494261,-11029.068536,3370.820191
3281.819983,1776.494261,-9400.615463,612.876398
3281.820311,74.020594,-9622.677246,-2145.067394
3281.820638,-1702.473667,-10436.903782,-2604.724693
3281.820966,-592.164754,-11473.192101,-1608.800546
3281.821293,370.102971,-10214.842000,-842.705048
3281.821621,888.247130,-9992.780217,0.000000
3281.821948,814.226536,-11251.130318,1302.362347
3281.822276,2146.597232,-10214.842000,153.219100
3281.822603,1406.391290,-9844.739029,76.609550
3281.822931,-814.226536,-9918.759623,0.000000
3281.823258,-2368.659014,-8068.244768,-1302.362347
3281.823586,-1184.329507,-8882.471304,-1608.800546
3281.823913,814.226536,-8882.471304,-2221.676944
3281.824241,962.267725,-10362.883188,0.000000
3281.824568,518.144159,-12139.377449,2145.067394
3281.824896,1850.514855,-11917.315666,689.485948
3281.825223,2960.823768,-11029.068536,-995.924147
3281.825551,1332.370696,-8512.368333,-1455.581446
3281.825878,-814.226536,-7846.182985,-229.828649
3281.826206,-1702.473667,-7920.203579,1072.533697
3281.826533,-1406.391290,-7550.100608,76.609550
3281.826861,-370.102971,-9178.553681,306.438199
3281.827188,-814.226536,-9104.533087,459.657299
3281.827516,-740.205942,-10584.944971,153.219100
3281.827843,-814.226536,-11177.109724,-689.485948
3281.828171,0.000000,-10066.800811,-2298.286494
3281.828498,1184.329507,-9622.677246,-2068.457845
3281.828826,1776.494261,-8956.491898,-459.657299
3281.829153,1184.329507,-9622.677246,2068.457845
3281.829481,814.226536,-10140.821405,2374.896044
3281.829808,1184.329507,-10066.800811,689.485948
3281.830136,370.102971,-9992.780217,-536.266849
3281.830463,444.123565,-9030.512492,-1378.971896
3281.830791,-592.164754,-9474.636058,-995.924147
3281.831118,-962.267725,-10955.047942,-995.924147
3281.831446,-888.247130,-10066.800811,-1225.752797
3281.831773,222.061783,-9474.636058,-995.924147
3281.832101,1554.432478,-9548.656652,-306.438199
3281.832428,962.267725,-10288.862594,1072.533697
3281.832756,1480.411884,-9770.718434,766.095498
3281.833083,444.123565,-8512.368333,459.657299
3281.833411,-592.164754,-10658.965565,0.000000
3281.833738,-1184.329507,-9918.759623,-1685.410096
3281.834066,-1628.453072,-8882.471304,-1685.410096
3281.834393,-666.185348,-9770.718434,-1225.752797
3281.834721,444.123565,-10732.986159,-2068.457845
3281.835048,1258.350101,-12213.398043,153.219100
3281.835376,2368.659014,-10510.924376,1149.143247
3281.835703,2590.720797,-9400.615463,919.314598
3281.836031,1998.556043,-10214.842000,842.705048
3281.836358,0.000000,-8956.491898,-536.266849
3281.836686,-370.102971,-8808.450710,-153.219100
3281.837013,0.000000,-7328.038826,0.000000
3281.837341,0.000000,-6661.853478,919.314598
3281.837668,-592.164754,-9400.615463,2528.115143
3281.837996,74.020594,-9252.574275,1149.143247
3281.838323,518.144159,-10066.800811,-383.047749
3281.838651,814.226536,-10658.965565,-1762.019645
3281.838978,-370.102971,-9770.718434,-1225.752797
3281.839306,-666.185348,-9622.677246,-612.876398
3281.839633,0.000000,-8882.471304,-766.095498
3281.839961,1924.535449,-9918.759623,612.876398
3281.840288,2516.700203,-8808.450710,2298.286494
3281.840616,1702.473667,-7772.162391,2451.505594
3281.840943,148.041188,-9400.615463,1072.533697
3281.841271,-1924.535449,-10214.842000,-1302.362347
3281.841598,-2590.720797,-10658.965565,-2145.067394
3281.841926,-2146.597232,-8586.388927,-2451.505594
3281.842253,-666.185348,-8438.347739,-1455.581446
3281.842581,518.144159,-11325.150913,229.828649
3281.842909,1406.391290,-12139.377449,306.438199
3281.843236,1110.308913,-11621.233289,536.266849
3281.843564,962.267725,-10288.862594,-842.705048
3281.843891,-370.102971,-8438.347739,-995.924147
3281.844219,-740.205942,-9622.677246,0.000000
3281.844546,-1332.370696,-8882.471304,0.000000
3281.844874,-222.061783,-9696.697840,0.000000
3281.845201,814.226536,-10881.027347,-229.828649
3281.845529,1406.391290,-11695.253884,153.219100
3281.845856,222.061783,-11251.130318,766.095498
3281.846184,740.205942,-9992.780217,-689.485948
3281.846511,-740.205942,-8956.491898,-1225.752797
3281.846839,-370.102971,-8660.409521,-1762.019645
3281.847166,-740.205942,-7328.038826,-306.438199
3281.847494,-444.123565,-8290.306550,1838.629195
3281.847821,-370.102971,-8216.285956,2298.286494
3281.848149,-740.205942,-9326.594869,2068.457845
3281.848476,-148.041188,-10362.883188,153.219100
3281.848804,0.000000,-8660.409521,-1915.238745
3281.849131,962.267725,-9696.697840,-1378.971896
3281.849459,444.123565,-9252.574275,-612.876398
3281.849786,444.123565,-10140.821405,0.000000
3281.850114,962.267725,-10288.862594,689.485948
3281.850441,1628.453072,-8142.265362,-383.047749
3281.850769,518.144159,-8882.471304,842.705048
3281.851096,888.247130,-10140.821405,1072.533697
3281.851424,0.000000,-10066.800811,1149.143247
3281.851751,0.000000,-9844.739029,-995.924147
3281.852079,0.000000,-8216.285956,-2757.943793
3281.852406,-296.082377,-10362.883188,-1455.581446
3281.852734,666.185348,-11177.109724,0.000000
3281.853061,814.226536,-11399.171507,0.000000
3281.853389,1258.350101,-11177.109724,-1378.971896
3281.853716,2146.597232,-9770.718434,-2451.505594
3281.854044,370.102971,-11177.109724,229.828649
3281.854371,-1406.391290,-10584.944971,1072.533697
3281.854699,-1924.535449,-8882.471304,0.000000
3281.855026,-814.226536,-9326.594869,-2145.067394
3281.855354,1110.308913,-8512.368333,-3064.381992
3281.855681,1184.329507,-9770.718434,459.657299
3281.856009,1110.308913,-10732.986159,2757.943793
3281.856336,2294.638420,-10214.842000,1991.848295
3281.856664,2368.659014,-10140.821405,-995.924147
3281.856991,814.226536,-8734.430116,-2221.676944
3281.857319,-1184.329507,-9178.553681,0.000000
3281.857646,0.000000,-8882.471304,383.047749
3281.857974,0.000000,-7846.182985,229.828649
3281.858301,0.000000,-9992.780217,1455.581446
3281.858629,518.144159,-8438.347739,919.314598
3281.858956,814.226536,-8586.388927,1532.190996
3281.859284,444.123565,-10066.800811,1225.752797
3281.859611,-296.082377,-11103.089130,-766.095498
3281.859939,-296.082377,-9844.739029,-1685.410096
3281.860266,962.267725,-7772.162391,-2068.457845
3281.860594,592.164754,-8956.491898,536.266849
3281.860921,1406.391290,-9548.656652,2987.772442
3281.861249,2220.617826,-8438.347739,3370.820191
3281.861576,2590.720797,-8586.388927,995.924147
3281.861904,-222.061783,-10436.903782,-1915.238745
3281.862231,-1998.556043,-11399.171507,-1838.629195
3281.862559,-592.164754,-9992.780217,-2451.505594
3281.862886,444.123565,-9474.636058,-1991.848295
3281.863214,1480.411884,-10436.903782,-612.876398
3281.863541,1480.411884,-10140.821405,383.047749
3281.863869,1332.370696,-10658.965565,1072.533697
3281.864196,1036.288319,-10807.006753,-536.266849
3281.864524,-962.267725,-8956.491898,-1225.752797
3281.864851,-2294.638420,-8364.327145,-995.924147
3281.865179,-1776.494261,-7550.100608,-1608.800546
3281.865506,-666.185348,-9548.656652,-612.876398
3281.865834,222.061783,-11843.295072,612.876398
3281.866161,1332.370696,-12139.377449,995.924147
3281.866489,2738.761985,-12287.418637,459.657299
3281.866817,1480.411884,-10658.965565,-1532.190996
3281.867144,-1258.350101,-8364.327145,-612.876398
3281.867472,-2590.720797,-7550.100608,-306.438199
3281.867799,-2220.617826,-8068.244768,-919.314598
3281.868127,-2146.597232,-9252.574275,0.000000
3281.868454,-1110.308913,-8364.327145,0.000000
3281.868782,-962.267725,-8808.450710,919.314598
3281.869109,-148.041188,-11769.274478,919.314598
3281.869437,814.226536,-11547.212695,-1455.581446
3281.869764,518.144159,-10362.883188,-1991.848295
3281.870092,1036.288319,-8142.265362,-919.314598
3281.870419,2072.576638,-9178.553681,0.000000
3281.870747,1480.411884,-10436.903782,2374.896044
3281.871074,74.020594,-7846.182985,2681.334243
3281.871402,1110.308913,-9844.739029,1378.971896
3281.871729,592.164754,-9474.636058,153.219100
3281.872057,0.000000,-8512.368333,-766.095498
3281.872384,-1184.329507,-9622.677246,-306.438199
3281.872712,-1036.288319,-9474.636058,-1532.190996
3281.873039,1110.308913,-10214.842000,-1608.800546
3281.873367,2220.617826,-10732.986159,-1072.533697
3281.873694,1184.329507,-10066.800811,1149.143247
3281.874022,1332.370696,-9918.759623,1455.581446
3281.874349,1628.453072,-9326.594869,-153.219100
3281.874677,222.061783,-11177.109724,-459.657299
3281.875004,0.000000,-9844.739029,-1378.971896
3281.875332,0.000000,-8364.327145,-1302.362347
3281.875659,-1184.329507,-8956.491898,536.266849
3281.875987,-1110.308913,-9770.718434,612.876398
3281.876314,-222.061783,-12139.377449,-1378.971896
3281.876642,1480.411884,-10807.006753,-2528.115143
3281.876969,2442.679609,-9252.574275,-2068.457845
3281.877297,2442.679609,-10066.800811,76.609550
3281.877624,1776.494261,-10732.986159,3217.601092
3281.877952,814.226536,-10066.800811,3370.820191
3281.878279,1628.453072,-8438.347739,76.609550
3281.878607,74.020594,-8364.327145,-1762.019645
3281.878934,-740.205942,-11103.089130,0.000000
3281.879262,-814.226536,-8290.306550,-842.705048
3281.879589,0.000000,-8142.265362,-1149.143247
3281.879917,0.000000,-9548.656652,-995.924147
3281.880244,666.185348,-9770.718434,-229.828649
3281.880572,962.267725,-10584.944971,-459.657299
3281.880899,1258.350101,-9474.636058,-536.266849
3281.881227,518.144159,-9696.697840,0.000000
3281.881554,1110.308913,-9178.553681,306.438199
3281.881882,814.226536,-7179.997637,919.314598
3281.882209,1480.411884,-9178.553681,2374.896044
3281.882537,444.123565,-9474.636058,2298.286494
3281.882864,962.267725,-9548.656652,766.095498
3281.883192,0.000000,-8660.409521,-1915.238745
3281.883519,-1924.535449,-10732.986159,-2451.505594
3281.883847,-2812.782580,-11029.068536,-1838.629195
3281.884174,-1036.288319,-9326.594869,-2451.505594
3281.884502,-148.041188,-10214.842000,0.000000
3281.884829,1406.391290,-11103.089130,689.485948
3281.885157,518.144159,-9918.759623,919.314598
3281.885484,888.247130,-9770.718434,995.924147
3281.885812,148.041188,-9770.718434,-383.047749
3281.886139,-296.082377,-10066.800811,-1225.752797
3281.886467,-962.267725,-9474.636058,-1149.143247
3281.886794,-222.061783,-8808.450710,-689.485948
3281.887122,444.123565,-10584.944971,0.000000
3281.887449,888.247130,-11399.171507,-766.095498
3281.887777,-222.061783,-10881.027347,1149.143247
3281.888104,296.082377,-10288.862594,0.000000
3281.888432,-444.123565,-8438.347739,-919.314598
3281.888759,-1184.329507,-9622.677246,0.000000
3281.889087,-1406.391290,-8068.244768,-306.438199
3281.889414,-1332.370696,-7179.997637,-919.314598
3281.889742,0.000000,-8586.388927,-383.047749
3281.890069,148.041188,-9770.718434,76.609550
3281.890397,518.144159,-10807.006753,689.485948
3281.890724,740.205942,-10584.944971,-153.219100
3281.891052,666.185348,-9622.677246,-1608.800546
3281.891380,1776.494261,-9992.780217,-1915.238745
3281.891707,1480.411884,-8438.347739,-919.314598
3281.892035,1554.432478,-10066.800811,919.314598
3281.892362,814.226536,-9844.739029,2451.505594
3281.892690,1036.288319,-9474.636058,842.705048
3281.893017,888.247130,-9474.636058,-383.047749
3281.893345,592.164754,-8290.306550,-1608.800546
3281.893672,444.123565,-10066.800811,-306.438199
3281.894000,296.082377,-11399.171507,76.609550
3281.894327,370.102971,-9474.636058,-995.924147
3281.894655,222.061783,-9770.718434,-1149.143247
3281.894982,888.247130,-9474.636058,-766.095498
3281.895310,222.061783,-11029.068536,459.657299
3281.895637,-296.082377,-11399.171507,995.924147
3281.895965,0.000000,-8882.471304,-995.924147
3281.896292,-222.061783,-8882.471304,-1378.971896
3281.896620,-296.082377,-9844.739029,-306.438199
3281.896947,-592.164754,-9622.677246,-229.828649
3281.897275,296.082377,-10510.924376,0.000000
3281.897602,1184.329507,-9326.594869,-842.705048
3281.897930,1184.329507,-9622.677246,-383.047749
3281.898257,1036.288319,-8808.450710,612.876398
3281.898585,444.123565,-9844.739029,1608.800546
3281.898912,1110.308913,-10881.027347,995.924147
3281.899240,74.020594,-10140.821405,-689.485948
3281.899567,-222.061783,-10510.924376,-1455.581446
3281.899895,-296.082377,-7920.203579,-1072.533697
3281.900222,0.000000,-7846.182985,306.438199
3281.900550,148.041188,-9918.759623,1532.190996
3281.900877,222.061783,-9252.574275,1302.362347
3281.901205,888.247130,-9622.677246,153.219100
3281.901532,666.185348,-9844.739029,-612.876398
3281.901860,0.000000,-9104.533087,-459.657299
3281.902187,-296.082377,-9474.636058,-306.438199
3281.902515,0.000000,-9770.718434,-383.047749
3281.902842,1702.473667,-10288.862594,0.000000
3281.903170,2960.823768,-8660.409521,383.047749
3281.903497,1406.391290,-9030.512492,1685.410096
3281.903825,-888.247130,-11177.109724,1838.629195
3281.904152,-1184.329507,-10510.924376,-995.924147
3281.904480,-814.226536,-9326.594869,-2528.115143
3281.904807,-518.144159,-8438.347739,-2221.676944
3281.905135,-222.061783,-9770.718434,306.438199
3281.905462,0.000000,-11399.171507,2145.067394
3281.905790,1110.308913,-9252.574275,459.657299
3281.906117,1258.350101,-10066.800811,-1149.143247
3281.906445,-444.123565,-10510.924376,-1072.533697
3281.906772,-814.226536,-9104.533087,-459.657299
3281.907100,148.041188,-9326.594869,-612.876398
3281.907428,1110.308913,-9400.615463,-383.047749
3281.907755,1776.494261,-11843.295072,766.095498
3281.908083,1702.473667,-10214.842000,842.705048
3281.908411,444.123565,-8956.491898,459.657299
3281.908738,-962.267725,-10955.047942,76.609550
3281.909066,-1554.432478,-10214.842000,-1149.143247
3281.909394,-1110.308913,-9104.533087,-1915.238745
3281.909721,-592.164754,-7550.100608,-2221.676944
3281.910049,0.000000,-8882.471304,229.828649
3281.910377,370.102971,-10288.862594,1302.362347
3281.910704,1110.308913,-9918.759623,1532.190996
3281.911032,666.185348,-9622.677246,76.609550
3281.911360,1406.391290,-9252.574275,-1455.581446
3281.911687,592.164754,-8882.471304,-229.828649
3281.912015,148.041188,-10066.800811,842.705048
3281.912343,592.164754,-9326.594869,689.485948
3281.912670,814.226536,-9178.553681,-229.828649
3281.912998,1258.350101,-9178.553681,-1149.143247
3281.913326,296.082377,-9918.759623,-383.047749
3281.913653,74.020594,-10066.800811,229.828649
3281.913981,666.185348,-8956.491898,-995.924147
3281.914309,518.144159,-10658.965565,-383.047749
3281.914636,888.247130,-10288.862594,-306.438199
3281.914964,0.000000,-8660.409521,612.876398
3281.915292,0.000000,-9474.636058,383.047749
3281.915619,0.000000,-9548.656652,-995.924147
3281.915947,0.000000,-11177.109724,-1608.800546
3281.916275,370.102971,-10584.944971,-1149.143247
3281.916602,-222.061783,-8364.327145,-459.657299
3281.916930,-666.185348,-10214.842000,689.485948
3281.917258,-1184.329507,-10288.862594,-1378.971896
3281.917585,-814.226536,-10732.986159,-1991.848295
3281.917913,814.226536,-9992.780217,-1838.629195
3281.918241,2072.576638,-8216.285956,-1072.533697
3281.918568,1702.473667,-11029.068536,2681.334243
3281.918896,1776.494261,-10955.047942,3140.991542
3281.919224,1628.453072,-9992.780217,919.314598
3281.919551,1110.308913,-9548.656652,-1378.971896
3281.919879,-370.102971,-7698.141797,-2374.896044
3281.920207,-1702.473667,-9252.574275,-612.876398
3281.920534,-1702.473667,-7624.121203,76.609550
3281.920862,-222.061783,-8660.409521,383.047749
3281.921190,1110.308913,-10362.883188,229.828649
3281.921517,1924.535449,-9770.718434,612.876398
3281.921845,1036.288319,-10288.862594,842.705048
3281.922173,888.247130,-8438.347739,229.828649
3281.922500,370.102971,-8660.409521,-766.095498
3281.922828,962.267725,-9992.780217,-689.485948
3281.923156,1110.308913,-7624.121203,536.266849
3281.923483,2220.617826,-7920.203579,2604.724693
3281.923811,1924.535449,-8956.491898,2298.286494
3281.924139,-370.102971,-12065.356855,689.485948
3281.924466,-1924.535449,-11103.089130,-919.314598
3281.924794,-1110.308913,-8808.450710,-4290.134789
3281.925122,-1110.308913,-9474.636058,-2451.505594
3281.925449,0.000000,-10140.821405,-689.485948
3281.925777,148.041188,-10807.006753,1685.410096
3281.926105,2072.576638,-9844.739029,1455.581446
3281.926432,2294.638420,-9326.594869,-995.924147
3281.926760,518.144159,-10955.047942,76.609550
3281.927088,-1776.494261,-9696.697840,306.438199
3281.927415,-1776.494261,-7476.080014,-766.095498
3281.927743,148.041188,-9252.574275,-1991.848295
3281.928071,74.020594,-10955.047942,-1455.581446
3281.928398,222.061783,-12139.377449,459.657299
3281.928726,1628.453072,-10881.027347,-536.266849
3281.929054,1110.308913,-9696.697840,-459.657299
3281.929381,0.000000,-10955.047942,-536.266849
3281.929709,0.000000,-8734.430116,-459.657299
3281.930037,-666.185348,-8216.285956,383.047749
3281.930364,-296.082377,-7920.203579,306.438199
3281.930692,-666.185348,-7846.182985,689.485948
3281.931020,0.000000,-9622.677246,766.095498
3281.931347,-518.144159,-9474.636058,76.609550
3281.931675,0.000000,-10288.862594,-459.657299
3281.932002,370.102971,-9770.718434,-842.705048
3281.932330,888.247130,-10140.821405,-919.314598
3281.932658,962.267725,-10955.047942,-306.438199
3281.932985,2220.617826,-8660.409521,-689.485948
3281.933313,962.267725,-9104.533087,1225.752797
3281.933641,592.164754,-9770.718434,1991.848295
3281.933968,296.082377,-9326.594869,536.266849
3281.934296,222.061783,-9474.636058,0.000000
3281.934624,148.041188,-8068.244768,-689.485948
3281.934951,592.164754,-9622.677246,-612.876398
3281.935279,222.061783,-10658.965565,-153.219100
3281.935607,0.000000,-9622.677246,-536.266849
3281.935934,74.020594,-10066.800811,-1225.752797
3281.936262,592.164754,-9770.718434,-2221.676944
3281.936590,888.247130,-10881.027347,-229.828649
3281.936917,740.205942,-10140.821405,842.705048
3281.937245,-1110.308913,-8068.244768,1532.190996
3281.937573,-1332.370696,-9770.718434,459.657299
3281.937900,-1332.370696,-10140.821405,-1608.800546
3281.938228,-1110.308913,-9030.512492,-1225.752797
3281.938556,592.164754,-9474.636058,-2221.676944
3281.938883,1184.329507,-10436.903782,-766.095498
3281.939211,1258.350101,-11991.336260,1378.971896
3281.939539,2220.617826,-9474.636058,0.000000
3281.939866,1850.514855,-10288.862594,0.000000
3281.940194,0.000000,-11843.295072,306.438199
3281.940522,-296.082377,-8586.388927,-229.828649
3281.940849,-666.185348,-7920.203579,-153.219100
3281.941177,148.041188,-7550.100608,0.000000
3281.941505,0.000000,-8586.388927,919.314598
3281.941832,-222.061783,-10436.903782,2757.943793
3281.942160,592.164754,-9548.656652,459.657299
3281.942488,1628.453072,-10881.027347,-2681.334243
3281.942815,1480.411884,-9474.636058,-2451.505594
3281.943143,370.102971,-8512.368333,-1072.533697
3281.943471,-444.123565,-9474.636058,1149.143247
3281.943798,592.164754,-9178.553681,1608.800546
3281.944126,2294.638420,-9178.553681,2145.067394
3281.944454,2960.823768,-8586.388927,1532.190996
3281.944781,1184.329507,-8660.409521,1149.143247
3281.945109,-740.205942,-11991.336260,995.924147
3281.945437,-1110.308913,-9474.636058,-2145.067394
3281.945764,370.102971,-9178.553681,-3983.696590
3281.946092,222.061783,-9400.615463,-2604.724693
3281.946420,74.020594,-9474.636058,689.485948
3281.946747,1110.308913,-10658.965565,2298.286494
3281.947075,2590.720797,-10807.006753,-383.047749
3281.947403,1924.535449,-11325.150913,-459.657299
3281.947730,740.205942,-9770.718434,-689.485948
3281.948058,-1036.288319,-7476.080014,76.609550
3281.948386,-740.205942,-9918.759623,0.000000
3281.948713,-518.144159,-9770.718434,-1762.019645
3281.949041,0.000000,-10140.821405,-2374.896044
3281.949369,518.144159,-11251.130318,-919.314598
3281.949696,1850.514855,-10436.903782,-689.485948
3281.950024,296.082377,-11029.068536,995.924147
3281.950352,-222.061783,-9918.759623,536.266849
3281.950679,-1406.391290,-9030.512492,0.000000
3281.951007,-1850.514855,-9104.533087,0.000000
3281.951335,-962.267725,-7550.100608,0.000000
3281.951662,-444.123565,-9178.553681,766.095498
3281.951990,-296.082377,-9992.780217,0.000000
3281.952318,444.123565,-10732.986159,-919.314598
3281.952645,1258.350101,-9992.780217,-1149.143247
3281.952973,814.226536,-8068.244768,-919.314598
3281.953301,222.061783,-9696.697840,612.876398
3281.953628,148.041188,-9104.533087,842.705048
3281.953956,-444.123565,-8882.471304,919.314598
3281.954284,222.061783,-9474.636058,1532.190996
3281.954611,444.123565,-8068.244768,-383.047749
3281.954939,-222.061783,-10288.862594,766.095498
3281.955267,-296.082377,-10807.006753,306.438199
3281.955594,296.082377,-9770.718434,-1532.190996
3281.955922,1258.350101,-10140.821405,-2451.505594
3281.956250,1258.350101,-9474.636058,-1532.190996
3281.956577,1036.288319,-11103.089130,153.219100
3281.956905,370.102971,-9622.677246,842.705048
3281.957233,370.102971,-9622.677246,842.705048
3281.957560,222.061783,-10214.842000,0.000000
3281.957888,444.123565,-9992.780217,-995.924147
3281.958215,-1110.308913,-9844.739029,306.438199
3281.958543,-1628.453072,-8882.471304,0.000000
3281.958871,-1036.288319,-9918.759623,-1455.581446
3281.959198,0.000000,-11843.295072,-2451.505594
3281.959526,592.164754,-9178.553681,-1838.629195
3281.959854,2368.659014,-8956.491898,0.000000
3281.960181,2294.638420,-9992.780217,1149.143247
3281.960509,518.144159,-11547.212695,2145.067394
3281.960837,592.164754,-9548.656652,1455.581446
3281.961164,0.000000,-7402.059420,-306.438199
3281.961492,-1184.329507,-10362.883188,229.828649
3281.961820,-1480.411884,-9178.553681,-1378.971896
3281.962147,-222.061783,-7846.182985,-1532.190996
3281.962475,962.267725,-9622.677246,-1225.752797
3281.962803,1036.288319,-9548.656652,153.219100
3281.963130,1258.350101,-10066.800811,1225.752797
3281.963458,1480.411884,-9992.780217,153.219100
3281.963786,1184.329507,-9992.780217,0.000000
3281.964113,1480.411884,-9770.718434,-153.219100
3281.964441,296.082377,-7254.018232,-383.047749
3281.964769,74.020594,-9474.636058,1455.581446
3281.965096,518.144159,-9474.636058,1762.019645
3281.965424,888.247130,-8290.306550,995.924147
3281.965752,148.041188,-9770.718434,-459.657299
3281.966079,-888.247130,-9030.512492,-2834.553343
3281.966407,-814.226536,-10584.944971,-2451.505594
3281.966735,740.205942,-11769.274478,-842.705048
3281.967062,1406.391290,-10584.944971,459.657299
3281.967390,1924.535449,-9622.677246,1302.362347
3281.967718,1998.556043,-9548.656652,1455.581446
3281.968045,1554.432478,-11621.233289,1378.971896
3281.968373,74.020594,-10955.047942,383.047749
3281.968701,-1110.308913,-8734.430116,-1302.362347
3281.969028,-1406.391290,-9178.553681,-2221.676944
3281.969356,-962.267725,-8882.471304,-2451.505594
3281.969684,296.082377,-9548.656652,-842.705048
3281.970011,222.061783,-10732.986159,1302.362347
3281.970339,592.164754,-11177.109724,766.095498
3281.970667,740.205942,-10436.903782,-383.047749
3281.970994,1184.329507,-9696.697840,-689.485948
3281.971322,814.226536,-9400.615463,1149.143247
3281.971650,0.000000,-9844.739029,1685.410096
3281.971977,-1332.370696,-8290.306550,1685.410096
3281.972305,0.000000,-9474.636058,-1149.143247
3281.972633,-518.144159,-9400.615463,-2451.505594
3281.972960,-1554.432478,-9844.739029,-766.095498
3281.973288,-444.123565,-10881.027347,-612.876398
3281.973616,0.000000,-9400.615463,-1455.581446
3281.973943,-148.041188,-9844.739029,306.438199
3281.974271,814.226536,-8734.430116,459.657299
3281.974599,814.226536,-8290.306550,1302.362347
3281.974926,222.061783,-9992.780217,3217.601092
3281.975254,0.000000,-9696.697840,0.000000
3281.975582,518.144159,-10140.821405,-1072.533697
3281.975909,962.267725,-8882.471304,-1915.238745
3281.976237,962.267725,-8956.491898,-766.095498
3281.976565,962.267725,-9548.656652,612.876398
3281.976892,444.123565,-10140.821405,229.828649
3281.977220,-444.123565,-10436.903782,0.000000
3281.977548,444.123565,-7772.162391,-1532.190996
3281.977875,148.041188,-8290.306550,-689.485948
3281.978203,962.267725,-12583.501014,1455.581446
3281.978531,666.185348,-10140.821405,1378.971896
3281.978858,74.020594,-9474.636058,459.657299
3281.979186,-962.267725,-9178.553681,-2681.334243
3281.979514,-962.267725,-9844.739029,-3370.820191
3281.979841,-592.164754,-9622.677246,-2451.505594
3281.980169,370.102971,-8956.491898,-842.705048
3281.980497,740.205942,-10214.842000,1838.629195
3281.980824,1924.535449,-10732.986159,2374.896044
3281.981152,2516.700203,-10362.883188,1378.971896
3281.981480,1184.329507,-10362.883188,0.000000
3281.981807,74.020594,-10510.924376,-1072.533697
3281.982135,0.000000,-9326.594869,-2681.334243
3281.982463,0.000000,-8438.347739,-2604.724693
3281.982790,74.020594,-7698.141797,-459.657299
3281.983118,740.205942,-8586.388927,2374.896044
3281.983446,1110.308913,-9178.553681,3064.381992
3281.983773,2072.576638,-11251.130318,1608.800546
3281.984101,1628.453072,-10658.965565,-995.924147
3281.984428,-296.082377,-8068.244768,0.000000
3281.984756,-1184.329507,-8882.471304,-689.485948
3281.985084,-222.061783,-10288.862594,-1378.971896
3281.985411,888.247130,-11251.130318,-383.047749
3281.985739,2738.761985,-8586.388927,995.924147
3281.986067,2590.720797,-7476.080014,689.485948
3281.986394,592.164754,-9770.718434,1532.190996
3281.986722,-962.267725,-10140.821405,-306.438199
3281.987050,-888.247130,-8956.491898,-1302.362347
3281.987377,222.061783,-7772.162391,-2145.067394
3281.987705,-444.123565,-8438.347739,-689.485948
3281.988033,-444.123565,-11177.109724,1685.410096
3281.988360,0.000000,-11547.212695,919.314598
3281.988688,1110.308913,-11251.130318,-1378.971896
3281.989016,1184.329507,-11103.089130,-2068.457845
3281.989343,0.000000,-8586.388927,-1225.752797
3281.989671,-222.061783,-8438.347739,0.000000
3281.989999,0.000000,-9474.636058,0.000000
3281.990326,-148.041188,-9918.759623,76.609550
3281.990654,222.061783,-9474.636058,-153.219100
3281.990982,0.000000,-9178.553681,-612.876398
3281.991309,666.185348,-11399.171507,76.609550
3281.991637,370.102971,-11917.315666,-306.438199
3281.991965,148.041188,-10807.006753,-1149.143247
3281.992292,518.144159,-8882.471304,-2145.067394
3281.992620,148.041188,-7846.182985,-689.485948
3281.992948,-518.144159,-8956.491898,1915.238745
3281.993275,-740.205942,-10066.800811,1762.019645
3281.993603,-1110.308913,-9178.553681,383.047749
3281.993931,222.061783,-9400.615463,-2068.457845
3281.994258,-444.123565,-9030.512492,-1072.533697
3281.994586,0.000000,-10288.862594,689.485948
3281.994914,222.061783,-9326.594869,689.485948
3281.995241,148.041188,-9844.739029,306.438199
3281.995569,1480.411884,-10288.862594,-1762.019645
3281.995897,1110.308913,-9548.656652,-689.485948
3281.996224,666.185348,-9326.594869,1225.752797
3281.996552,814.226536,-8956.491898,1532.190996
3281.996880,222.061783,-10066.800811,842.705048
3281.997207,1258.350101,-10214.842000,0.000000
3281.997535,666.185348,-8660.409521,-1302.362347
3281.997863,-592.164754,-9030.512492,459.657299
3281.998190,-1554.432478,-8290.306550,919.314598
3281.998518,518.144159,-9696.697840,-1608.800546
3281.998846,740.205942,-10288.862594,-1762.019645
3281.999173,0.000000,-9918.759623,-995.924147
3281.999501,-1406.391290,-10658.965565,0.000000
3281.999829,0.000000,-11251.130318,-919.314598
3282.000156,1258.350101,-11177.109724,-2298.286494
3282.000484,1406.391290,-9770.718434,-1378.971896
3282.000812,1110.308913,-8734.430116,1072.533697
3282.001139,1850.514855,-10214.842000,2681.334243
3282.001467,2442.679609,-10362.883188,1302.362347
3282.001795,1628.453072,-9474.636058,-383.047749
3282.002122,222.061783,-9992.780217,-1608.800546
3282.002450,-666.185348,-8956.491898,-1991.848295
3282.002778,-1036.288319,-7772.162391,-1072.533697
3282.003105,-666.185348,-8586.388927,-612.876398
3282.003433,-518.144159,-9770.718434,995.924147
3282.003761,1776.494261,-11769.274478,1455.581446
3282.004088,3034.844362,-9918.759623,612.876398
3282.004416,1776.494261,-9992.780217,306.438199
3282.004744,592.164754,-8808.450710,995.924147
3282.005071,148.041188,-7698.141797,-766.095498
3282.005399,74.020594,-8734.430116,-1149.143247
3282.005727,0.000000,-8882.471304,-383.047749
3282.006054,370.102971,-9474.636058,1532.190996
3282.006382,1110.308913,-9030.512492,2298.286494
3282.006710,-592.164754,-10807.006753,612.876398
3282.007037,-1406.391290,-11325.150913,-1302.362347
3282.007365,-1702.473667,-8142.265362,-2834.553343
3282.007693,-518.144159,-8364.327145,-1532.190996
3282.008020,1184.329507,-10584.944971,0.000000
3282.008348,1332.370696,-10436.903782,1608.800546
3282.008676,1924.535449,-9770.718434,1991.848295
3282.009003,1850.514855,-9770.718434,-459.657299
3282.009331,518.144159,-10362.883188,0.000000
3282.009659,-1776.494261,-8660.409521,0.000000
3282.009987,-2590.720797,-8216.285956,-995.924147
3282.010314,-592.164754,-10066.800811,-1838.629195
3282.010642,222.061783,-10807.006753,-1685.410096
3282.010970,666.185348,-10732.986159,842.705048
3282.011298,814.226536,-10362.883188,1072.533697
3282.011625,888.247130,-10658.965565,76.609550
3282.011953,592.164754,-10955.047942,-1455.581446
3282.012281,296.082377,-9252.574275,-2451.505594
3282.012609,-296.082377,-8586.388927,-842.705048
3282.012936,0.000000,-8364.327145,612.876398
3282.013264,-814.226536,-9474.636058,2221.676944
3282.013592,-740.205942,-10955.047942,1072.533697
3282.013920,-888.247130,-9992.780217,0.000000
3282.014247,0.000000,-9104.533087,-2298.286494
3282.014575,0.000000,-10066.800811,-2145.067394
3282.014903,-592.164754,-9326.594869,-1455.581446
3282.015231,0.000000,-10214.842000,-995.924147
3282.015558,740.205942,-9104.533087,-689.485948
3282.015886,1998.556043,-8808.450710,536.266849
3282.016214,1998.556043,-10140.821405,2757.943793
3282.016542,1036.288319,-9622.677246,2834.553343
3282.016869,1036.288319,-10140.821405,1302.362347
3282.017197,814.226536,-9622.677246,-1149.143247
3282.017525,74.020594,-8882.471304,-1991.848295
3282.017852,-296.082377,-9548.656652,-459.657299
3282.018180,-222.061783,-9178.553681,-766.095498
3282.018508,-518.144159,-9326.594869,-229.828649
3282.018836,1480.411884,-10658.965565,-1608.800546
3282.019163,2368.659014,-10066.800811,-536.266849
3282.019491,1332.370696,-10658.965565,2911.162892
3282.019819,-222.061783,-8882.471304,2451.505594
3282.020147,-814.226536,-10066.800811,0.000000
3282.020474,0.000000,-9622.677246,-3140.991542
3282.020802,518.144159,-8586.388927,-3600.648841
3282.021130,74.020594,-10584.944971,-306.438199
3282.021458,1258.350101,-11325.150913,1915.238745
3282.021785,2146.597232,-10955.047942,536.266849
3282.022113,1406.391290,-10955.047942,-995.924147
3282.022441,370.102971,-9622.677246,-2145.067394
3282.022769,-888.247130,-9474.636058,-536.266849
3282.023096,-962.267725,-8068.244768,995.924147
3282.023424,-740.205942,-6735.874072,612.876398
3282.023752,-370.102971,-9178.553681,1149.143247
3282.024080,1110.308913,-9548.656652,1685.410096
3282.024407,1776.494261,-10288.862594,842.705048
3282.024735,814.226536,-11325.150913,383.047749
3282.025063,814.226536,-10288.862594,-1225.752797
3282.025391,296.082377,-9696.697840,-2834.553343
3282.025718,-1332.370696,-7550.100608,-1762.019645
3282.026046,-296.082377,-10066.800811,919.314598
3282.026374,1184.329507,-10362.883188,2451.505594
3282.026702,1776.494261,-8290.306550,2451.505594
3282.027029,-370.102971,-9770.718434,1378.971896
3282.027357,-1998.556043,-11177.109724,-1149.143247
3282.027685,-518.144159,-10584.944971,-1608.800546
3282.028013,-814.226536,-8290.306550,-1685.410096
3282.028340,-444.123565,-8142.265362,-842.705048
3282.028668,0.000000,-9918.759623,153.219100
3282.028996,814.226536,-9696.697840,536.266849
3282.029324,1554.432478,-10955.047942,842.705048
3282.029651,296.082377,-10955.047942,459.657299
3282.029979,-666.185348,-8142.265362,-612.876398
3282.030307,-1332.370696,-8438.347739,306.438199
3282.030634,0.000000,-8882.471304,-689.485948
3282.030962,74.020594,-11325.150913,-229.828649
3282.031290,148.041188,-11843.295072,842.705048
3282.031618,888.247130,-9252.574275,-383.047749
3282.031945,1924.535449,-11029.068536,-1838.629195
3282.032273,814.226536,-9548.656652,-1915.238745
3282.032601,0.000000,-8438.347739,-1149.143247
3282.032929,-1924.535449,-8586.388927,-459.657299
3282.033256,0.000000,-9030.512492,-536.266849
3282.033584,1776.494261,-10066.800811,536.266849
3282.033912,2220.617826,-10214.842000,1762.019645
3282.034240,1406.391290,-10510.924376,2068.457845
3282.034567,518.144159,-11251.130318,306.438199
3282.034895,592.164754,-8882.471304,-2528.115143
3282.035223,1406.391290,-9770.718434,-2987.772442
3282.035551,-296.082377,-9178.553681,-1072.533697
3282.035878,0.000000,-8882.471304,306.438199
3282.036206,0.000000,-9918.759623,0.000000
3282.036534,0.000000,-9770.718434,0.000000
3282.036862,666.185348,-9548.656652,-153.219100
3282.037189,518.144159,-9326.594869,229.828649
3282.037517,296.082377,-10510.924376,1302.362347
3282.037845,370.102971,-11695.253884,612.876398
3282.038173,1480.411884,-10066.800811,-1915.238745
3282.038500,1406.391290,-9178.553681,-1532.190996
3282.038828,0.000000,-7920.203579,0.000000
3282.039156,222.061783,-8512.368333,612.876398
3282.039484,1554.432478,-10214.842000,229.828649
3282.039811,1036.288319,-8142.265362,0.000000
3282.040139,-740.205942,-8586.388927,1225.752797
3282.040467,-1554.432478,-10436.903782,689.485948
3282.040795,-1702.473667,-11843.295072,-229.828649
3282.041122,-814.226536,-11547.212695,-1685.410096
3282.041450,-148.041188,-9178.553681,-3907.087040
3282.041778,1184.329507,-10214.842000,-2068.457845
3282.042105,2738.761985,-11325.150913,153.219100
3282.042433,2294.638420,-11177.109724,2374.896044
3282.042761,444.123565,-10288.862594,1915.238745
3282.043089,-1332.370696,-8364.327145,-383.047749
3282.043416,-2146.597232,-8586.388927,-1991.848295
3282.043744,-2516.700203,-6883.915261,-995.924147
3282.044072,-1554.432478,-8512.368333,-612.876398
3282.044400,-592.164754,-10288.862594,1072.533697
3282.044727,1480.411884,-10658.965565,919.314598
3282.045055,2664.741391,-12065.356855,76.609550
3282.045383,2664.741391,-10140.821405,-306.438199
3282.045711,592.164754,-7624.121203,-306.438199
3282.046038,962.267725,-9030.512492,-995.924147
3282.046366,-814.226536,-9622.677246,0.000000
3282.046694,-740.205942,-8512.368333,995.924147
3282.047022,-296.082377,-7846.182985,1455.581446
3282.047349,148.041188,-10214.842000,2757.943793
3282.047677,222.061783,-10881.027347,919.314598
3282.048005,-2442.679609,-10288.862594,-1838.629195
3282.048333,-2072.576638,-9770.718434,-3370.820191
3282.048660,518.144159,-9696.697840,-4519.963438
3282.048988,888.247130,-9104.533087,-1225.752797
3282.049316,1850.514855,-9400.615463,2451.505594
3282.049644,1184.329507,-9622.677246,3907.087040
3282.049971,2368.659014,-10658.965565,2681.334243
3282.050299,1628.453072,-9326.594869,0.000000
3282.050627,0.000000,-9474.636058,-383.047749
3282.050955,-2220.617826,-9474.636058,-689.485948
3282.051282,-666.185348,-9252.574275,-2374.896044
3282.051610,0.000000,-9992.780217,-2528.115143
3282.051938,222.061783,-10510.924376,-1302.362347
3282.052266,1702.473667,-9918.759623,0.000000
3282.052593,2220.617826,-11473.192101,1225.752797
3282.052921,1406.391290,-11103.089130,995.924147
3282.053249,1406.391290,-8512.368333,-689.485948
3282.053577,0.000000,-7994.224174,-1225.752797
3282.053904,-296.082377,-9030.512492,-229.828649
3282.054232,-666.185348,-10066.800811,689.485948
3282.054560,370.102971,-9622.677246,766.095498
3282.054887,2590.720797,-9918.759623,-995.924147
3282.055215,1406.391290,-11843.295072,-1072.533697
3282.055543,1406.391290,-9918.759623,-2068.457845
3282.055871,222.061783,-9474.636058,-995.924147
3282.056198,-592.164754,-8586.388927,76.609550
3282.056526,-592.164754,-8734.430116,536.266849
3282.056854,-814.226536,-9622.677246,766.095498
3282.057182,-296.082377,-8142.265362,459.657299
3282.057509,-370.102971,-9992.780217,766.095498
3282.057837,-148.041188,-10066.800811,0.000000
3282.058165,666.185348,-10214.842000,-689.485948
3282.058493,370.102971,-10658.965565,-1378.971896
3282.058820,222.061783,-9030.512492,-1225.752797
3282.059148,0.000000,-9548.656652,-536.266849
3282.059476,0.000000,-10807.006753,-153.219100
3282.059804,148.041188,-10288.862594,306.438199
3282.060131,0.000000,-8438.347739,689.485948
3282.060459,296.082377,-8290.306550,919.314598
3282.060787,1332.370696,-9474.636058,612.876398
3282.061115,222.061783,-9622.677246,842.705048
3282.061442,-1036.288319,-9548.656652,536.266849
3282.061770,-1554.432478,-8956.491898,-1685.410096
3282.062098,-296.082377,-8216.285956,-3064.381992
3282.062426,1406.391290,-10362.883188,-2374.896044
3282.062753,222.061783,-11843.295072,229.828649
3282.063081,814.226536,-11473.192101,2374.896044
3282.063409,2590.720797,-10436.903782,0.000000
3282.063737,1036.288319,-10881.027347,-995.924147
3282.064064,-444.123565,-10955.047942,229.828649
3282.064392,-1702.473667,-9474.636058,-536.266849
3282.064720,-1924.535449,-7476.080014,-842.705048
3282.065048,0.000000,-7846.182985,-1608.800546
3282.065375,-370.102971,-7624.121203,-306.438199
3282.065703,592.164754,-9252.574275,2068.457845
3282.066031,2072.576638,-11251.130318,1915.238745
3282.066358,1850.514855,-10140.821405,459.657299
3282.066686,888.247130,-9622.677246,-1225.752797
3282.067014,0.000000,-9178.553681,-1225.752797
3282.067342,-592.164754,-10140.821405,229.828649
3282.067669,814.226536,-10732.986159,76.609550
3282.067997,1406.391290,-10288.862594,459.657299
3282.068325,2368.659014,-10658.965565,1378.971896
3282.068653,1628.453072,-7402.059420,383.047749
3282.068980,-666.185348,-8808.450710,229.828649
3282.069308,-3034.844362,-10066.800811,0.000000
3282.069636,-2220.617826,-9030.512492,-2374.896044
3282.069964,0.000000,-8438.347739,-1838.629195
3282.070291,1258.350101,-8512.368333,-612.876398
3282.070619,148.041188,-11473.192101,2451.505594
3282.070947,1332.370696,-11769.274478,2987.772442
3282.071275,3034.844362,-9770.718434,0.000000
3282.071602,1702.473667,-9770.718434,-1072.533697
3282.071930,-444.123565,-7476.080014,-306.438199
3282.072258,-592.164754,-7254.018232,-842.705048
3282.072586,-1110.308913,-9474.636058,0.000000
3282.072913,0.000000,-10584.944971,-459.657299
3282.073241,592.164754,-11251.130318,-229.828649
3282.073569,296.082377,-11251.130318,919.314598
3282.073897,0.000000,-11843.295072,-306.438199
3282.074224,0.000000,-10510.924376,-2221.676944
3282.074552,-962.267725,-8364.327145,-2911.162892
3282.074880,0.000000,-8586.388927,-1915.238745
3282.075208,518.144159,-9104.533087,229.828649
3282.075535,888.247130,-9252.574275,2298.286494
3282.075863,740.205942,-10955.047942,2145.067394
3282.076191,1480.411884,-11621.233289,76.609550
3282.076519,1110.308913,-9770.718434,-1991.848295
3282.076846,0.000000,-8808.450710,-2298.286494
3282.077174,-1036.288319,-9400.615463,-306.438199
3282.077502,-370.102971,-9992.780217,-1072.533697
3282.077830,-1258.350101,-8882.471304,-1378.971896
3282.078157,296.082377,-9474.636058,383.047749
3282.078485,0.000000,-9252.574275,0.000000
3282.078813,518.144159,-8956.491898,229.828649
3282.079140,592.164754,-10214.842000,612.876398
3282.079468,1036.288319,-10658.965565,0.000000
3282.079796,1406.391290,-10214.842000,-306.438199
3282.080124,2072.576638,-9622.677246,-229.828649
3282.080451,148.041188,-8364.327145,612.876398
3282.080779,370.102971,-10066.800811,1455.581446
3282.081107,0.000000,-9178.553681,-1302.362347
3282.081435,0.000000,-10066.800811,-612.876398
3282.081762,592.164754,-9252.574275,-689.485948
3282.082090,1406.391290,-9770.718434,459.657299
3282.082418,1184.329507,-9918.759623,1762.019645
3282.082746,1258.350101,-8512.368333,1838.629195
3282.083073,1036.288319,-9622.677246,306.438199
3282.083401,0.000000,-11325.150913,-842.705048
3282.083729,-666.185348,-10214.842000,-1072.533697
3282.084057,222.061783,-9252.574275,-1685.410096
3282.084384,370.102971,-9474.636058,-1225.752797
3282.084712,0.000000,-11473.192101,383.047749
3282.085040,0.000000,-10658.965565,306.438199
3282.085368,-518.144159,-9474.636058,-459.657299
3282.085695,-296.082377,-9252.574275,-1378.971896
3282.086023,0.000000,-8512.368333,-1838.629195
3282.086351,74.020594,-9030.512492,-153.219100
3282.086679,518.144159,-8290.306550,766.095498
3282.087006,444.123565,-9104.533087,1532.190996
3282.087334,888.247130,-10807.006753,1685.410096
3282.087662,1184.329507,-9844.739029,842.705048
3282.087990,1776.494261,-10214.842000,-306.438199
3282.088317,1628.453072,-10288.862594,-1455.581446
3282.088645,0.000000,-10510.924376,-1225.752797
3282.088973,-666.185348,-9474.636058,-459.657299
3282.089301,-888.247130,-7254.018232,-995.924147
3282.089628,1702.473667,-9326.594869,229.828649
3282.089956,814.226536,-10214.842000,1838.629195
3282.090284,1184.329507,-9622.677246,1302.362347
3282.090611,-740.205942,-9918.759623,0.000000
3282.090939,-1776.494261,-9770.718434,-1762.019645
3282.091267,-296.082377,-10436.903782,-2145.067394
3282.091595,222.061783,-8660.409521,-1302.362347
3282.091922,2072.576638,-8734.430116,229.828649
3282.092250,2516.700203,-11029.068536,2374.896044
3282.092578,962.267725,-11843.295072,2451.505594
3282.092906,1184.329507,-10066.800811,306.438199
3282.093233,-592.164754,-7994.224174,-1149.143247
3282.093561,-2146.597232,-8068.244768,-995.924147
3282.093889,-1776.494261,-9918.759623,-919.314598
3282.094217,-1406.391290,-9326.594869,-1072.533697
3282.094544,370.102971,-9622.677246,-842.705048
3282.094872,1406.391290,-10881.027347,76.609550
3282.095200,1554.432478,-9918.759623,1072.533697
3282.095528,814.226536,-8956.491898,1225.752797
3282.095855,-666.185348,-8068.244768,0.000000
3282.096183,-296.082377,-8068.244768,-1455.581446
3282.096511,-518.144159,-9844.739029,-1608.800546
3282.096839,518.144159,-9622.677246,-459.657299
3282.097166,1406.391290,-11325.150913,995.924147
3282.097494,1406.391290,-12139.377449,1225.752797
3282.097822,518.144159,-10881.027347,-229.828649
3282.098150,0.000000,-9770.718434,-1838.629195
3282.098477,74.020594,-7550.100608,-2528.115143
3282.098805,0.000000,-7994.224174,-459.657299
3282.099133,-1258.350101,-8290.306550,1225.752797
3282.099461,-296.082377,-10584.944971,1838.629195
3282.099788,444.123565,-10807.006753,0.000000
3282.100116,1332.370696,-9992.780217,-1302.362347
3282.100444,1258.350101,-11399.171507,-689.485948
3282.100772,1110.308913,-11399.171507,-153.219100
3282.101099,962.267725,-10436.903782,-1455.581446
3282.101427,1480.411884,-10066.800811,-1532.190996
3282.101755,0.000000,-8068.244768,-919.314598
3282.102083,-296.082377,-8660.409521,1072.533697
3282.102410,370.102971,-8808.450710,1455.581446
3282.102738,0.000000,-9622.677246,1455.581446
3282.103066,666.185348,-8734.430116,0.000000
3282.103393,1258.350101,-7550.100608,-1455.581446
3282.103721,814.226536,-10288.862594,1455.581446
3282.104049,518.144159,-12287.418637,383.047749
3282.104377,-222.061783,-9992.780217,-1378.971896
3282.104704,962.267725,-7772.162391,-3447.429741
3282.105032,444.123565,-8882.471304,-2604.724693
3282.105360,1258.350101,-12065.356855,1302.362347
3282.105688,888.247130,-10214.842000,2681.334243
3282.106015,370.102971,-8808.450710,1685.410096
3282.106343,740.205942,-9400.615463,-1532.190996
3282.106671,222.061783,-7994.224174,-2451.505594
3282.106999,-592.164754,-9030.512492,-383.047749
3282.107326,-666.185348,-7920.203579,536.266849
3282.107654,-740.205942,-7772.162391,-459.657299
3282.107982,666.185348,-10214.842000,-919.314598
3282.108310,2516.700203,-10955.047942,0.000000
3282.108637,2664.741391,-11325.150913,919.314598
3282.108965,1776.494261,-10955.047942,1608.800546
3282.109293,1036.288319,-10510.924376,0.000000
3282.109621,0.000000,-9622.677246,-1532.190996
3282.109948,-962.267725,-7105.977043,-1378.971896
3282.110276,-1110.308913,-8068.244768,1455.581446
3282.110603,-1554.432478,-9622.677246,1762.019645
3282.110931,-518.144159,-10510.924376,459.657299
3282.111259,-814.226536,-10732.986159,-2604.724693
3282.111586,-1184.329507,-9696.697840,-3294.210641
3282.111914,0.000000,-10362.883188,-1378.971896
3282.112242,518.144159,-9696.697840,306.438199
3282.112569,518.144159,-8734.430116,1838.629195
3282.112897,1480.411884,-10807.006753,1608.800546
3282.113224,1776.494261,-9622.677246,1225.752797
3282.113552,962.267725,-9992.780217,1608.800546
3282.113880,-296.082377,-10732.986159,459.657299
3282.114207,-1406.391290,-9030.512492,-1532.190996
3282.114535,-888.247130,-8438.347739,-3217.601092
3282.114862,-740.205942,-8216.285956,-3370.820191
3282.115190,-592.164754,-9474.636058,-689.485948
3282.115518,-296.082377,-10658.965565,1378.971896
3282.115845,814.226536,-10066.800811,1455.581446
3282.116173,1184.329507,-9474.636058,1149.143247
3282.116501,1702.473667,-7920.203579,306.438199
3282.116828,1258.350101,-9178.553681,1302.362347
3282.117156,814.226536,-10955.047942,842.705048
3282.117483,148.041188,-9104.533087,-612.876398
3282.117811,740.205942,-9474.636058,-1762.019645
3282.118139,296.082377,-9770.718434,-1991.848295
3282.118466,-370.102971,-11325.150913,-229.828649
3282.118794,-1332.370696,-10807.006753,0.000000
3282.119122,-1184.329507,-8586.388927,-1149.143247
3282.119449,-592.164754,-9104.533087,-612.876398
3282.119777,0.000000,-8364.327145,306.438199
3282.120104,0.000000,-8956.491898,1762.019645
3282.120432,370.102971,-10955.047942,2145.067394
3282.120760,1776.494261,-9992.780217,-995.924147
3282.121087,2812.782580,-10732.986159,-2068.457845
3282.121415,1332.370696,-9770.718434,-1225.752797
3282.121742,1480.411884,-9400.615463,76.609550
3282.122070,814.226536,-11103.089130,1302.362347
3282.122398,0.000000,-9770.718434,306.438199
3282.122725,0.000000,-9252.574275,-1149.143247
3282.123053,370.102971,-8660.409521,-766.095498
3282.123381,-222.061783,-9918.759623,1149.143247
3282.123708,444.123565,-11029.068536,2145.067394
3282.124036,2146.597232,-9252.574275,-995.924147
3282.124363,3478.967927,-9104.533087,-1302.362347
3282.124691,2294.638420,-10288.862594,-1302.362347
3282.125019,518.144159,-10510.924376,919.314598
3282.125346,-222.061783,-9474.636058,0.000000
3282.125674,0.000000,-8660.409521,-1838.629195
3282.126002,0.000000,-11399.171507,-1149.143247
3282.126329,-592.164754,-9770.718434,689.485948
3282.126657,0.000000,-9030.512492,1455.581446
3282.126984,592.164754,-11473.192101,0.000000
3282.127312,666.185348,-10140.821405,-2221.676944
3282.127640,296.082377,-9178.553681,-1762.019645
3282.127967,0.000000,-7105.977043,-383.047749
3282.128295,814.226536,-7402.059420,536.266849
3282.128622,592.164754,-8586.388927,1762.019645
3282.128950,0.000000,-8586.388927,1685.410096
3282.129278,518.144159,-10140.821405,1991.848295
3282.129605,1480.411884,-10658.965565,0.000000
3282.129933,296.082377,-10140.821405,-536.266849
3282.130261,-666.185348,-11029.068536,-383.047749
3282.130588,-1850.514855,-7846.182985,-1532.190996
3282.130916,-1258.350101,-8956.491898,-2451.505594
3282.131243,-370.102971,-8956.491898,-1149.143247
3282.131571,-296.082377,-9030.512492,-229.828649
3282.131899,-740.205942,-10732.986159,536.266849
3282.132226,-740.205942,-10658.965565,0.000000
3282.132554,-148.041188,-10807.006753,-459.657299
3282.132881,666.185348,-8216.285956,-536.266849
3282.133209,444.123565,-7994.224174,76.609550
3282.133537,370.102971,-11399.171507,1378.971896
3282.133864,592.164754,-10510.924376,-383.047749
3282.134192,296.082377,-10362.883188,-842.705048
3282.134520,0.000000,-10732.986159,-2068.457845
3282.134847,-592.164754,-10066.800811,-2221.676944
3282.135175,-296.082377,-9918.759623,-1225.752797
3282.135502,370.102971,-9474.636058,-459.657299
3282.135830,74.020594,-10288.862594,153.219100
3282.136158,296.082377,-9992.780217,1149.143247
3282.136485,222.061783,-8438.347739,1378.971896
3282.136813,1036.288319,-9622.677246,1455.581446
3282.137141,888.247130,-9030.512492,383.047749
3282.137468,444.123565,-9474.636058,-536.266849
3282.137796,296.082377,-10510.924376,-1532.190996
3282.138123,1628.453072,-9252.574275,-2451.505594
3282.138451,666.185348,-10584.944971,0.000000
3282.138779,1480.411884,-10362.883188,306.438199
3282.139106,-592.164754,-9474.636058,1225.752797
3282.139434,-222.061783,-10436.903782,536.266849
3282.139761,-370.102971,-7105.977043,-612.876398
3282.140089,-740.205942,-7920.203579,536.266849
3282.140417,-1554.432478,-7994.224174,1149.143247
3282.140744,-740.205942,-9622.677246,-306.438199
3282.141072,296.082377,-10955.047942,-1225.752797
3282.141400,2590.720797,-9252.574275,-2681.334243
3282.141727,2516.700203,-10881.027347,-1225.752797
3282.142055,2812.782580,-11547.212695,536.266849
3282.142382,2146.597232,-10807.006753,1225.752797
3282.142710,740.205942,-10140.821405,919.314598
3282.143038,222.061783,-7328.038826,689.485948
3282.143365,148.041188,-9104.533087,-536.266849
3282.143693,-296.082377,-9770.718434,153.219100
3282.144021,-296.082377,-10584.944971,0.000000
3282.144348,518.144159,-9918.759623,-1762.019645
3282.144676,2368.659014,-8586.388927,-3140.991542
3282.145003,2516.700203,-11399.171507,-1225.752797
3282.145331,2812.782580,-12657.521608,1149.143247
3282.145659,1480.411884,-11251.130318,2221.676944
3282.145986,1332.370696,-8956.491898,766.095498
3282.146314,1998.556043,-8660.409521,-1149.143247
3282.146641,-592.164754,-9696.697840,1072.533697
3282.146969,-2664.741391,-9178.553681,1685.410096
3282.147297,-3478.967927,-8734.430116,459.657299
3282.147624,-1480.411884,-10066.800811,-4290.134789
3282.147952,-296.082377,-8882.471304,-6358.592633
3282.148280,-444.123565,-9252.574275,-2451.505594
3282.148607,-518.144159,-9992.780217,2145.067394
3282.148935,1554.432478,-9696.697840,3370.820191
3282.149262,2738.761985,-10214.842000,1991.848295
3282.149590,2220.617826,-8808.450710,383.047749
3282.149918,-518.144159,-9104.533087,1991.848295
3282.150245,0.000000,-9992.780217,1608.800546
3282.150573,0.000000,-7846.182985,-306.438199
3282.150900,0.000000,-9548.656652,-1532.190996
3282.151228,-1332.370696,-8586.388927,-1072.533697
3282.151556,0.000000,-9696.697840,0.000000
3282.151883,0.000000,-10732.986159,612.876398
3282.152211,0.000000,-10807.006753,0.000000
3282.152539,-222.061783,-9474.636058,-766.095498
3282.152866,-666.185348,-7624.121203,-612.876398
3282.153194,-518.144159,-9622.677246,1149.143247
3282.153521,518.144159,-10288.862594,1838.629195
3282.153849,1776.494261,-8586.388927,1225.752797
3282.154177,1702.473667,-10510.924376,0.000000
3282.154504,518.144159,-9770.718434,-842.705048
3282.154832,-296.082377,-10288.862594,-1378.971896
3282.155160,-370.102971,-11251.130318,-1149.143247
3282.155487,74.020594,-10807.006753,-1762.019645
3282.155815,-296.082377,-10658.965565,-1072.533697
3282.156142,0.000000,-9548.656652,-1072.533697
3282.156470,444.123565,-9844.739029,842.705048
3282.156798,0.000000,-10732.986159,612.876398
3282.157125,-666.185348,-9104.533087,-229.828649
3282.157453,222.061783,-8586.388927,-995.924147
3282.157780,1406.391290,-7994.224174,-995.924147
3282.158108,1554.432478,-9252.574275,766.095498
3282.158436,1998.556043,-11843.295072,1838.629195
3282.158763,2368.659014,-11251.130318,76.609550
3282.159091,1702.473667,-10510.924376,-842.705048
3282.159419,-222.061783,-9548.656652,-919.314598
3282.159746,-1924.535449,-9104.533087,0.000000
3282.160074,-962.267725,-9918.759623,-919.314598
3282.160401,0.000000,-9178.553681,-2374.896044
3282.160729,-814.226536,-8882.471304,-1302.362347
3282.161057,-888.247130,-7624.121203,459.657299
3282.161384,1110.308913,-9030.512492,842.705048
3282.161712,2812.782580,-10807.006753,1072.533697
3282.162039,2146.597232,-9178.553681,536.266849
3282.162367,1776.494261,-9918.759623,995.924147
3282.162695,2368.659014,-9992.780217,766.095498
3282.163022,1776.494261,-10066.800811,0.000000
3282.163350,296.082377,-10881.027347,1072.533697
3282.163678,-444.123565,-8586.388927,-995.924147
3282.164005,-1110.308913,-9326.594869,-1991.848295
3282.164333,-518.144159,-9844.739029,-1991.848295
3282.164660,74.020594,-9992.780217,-766.095498
3282.164988,1036.288319,-11325.150913,-306.438199
3282.165316,1406.391290,-8808.450710,536.266849
3282.165643,2146.597232,-10807.006753,306.438199
3282.165971,888.247130,-11325.150913,-306.438199
3282.166299,1258.350101,-9770.718434,-229.828649
3282.166626,888.247130,-8956.491898,0.000000
3282.166954,0.000000,-8808.450710,-766.095498
3282.167281,-444.123565,-10658.965565,229.828649
3282.167609,-1184.329507,-9992.780217,-153.219100
3282.167937,-2294.638420,-10066.800811,-612.876398
3282.168264,-1184.329507,-10436.903782,-1762.019645
3282.168592,-1332.370696,-8586.388927,-2681.334243
3282.168919,-1110.308913,-9474.636058,-842.705048
3282.169247,-444.123565,-9474.636058,689.485948
3282.169575,1998.556043,-8956.491898,1762.019645
3282.169902,2072.576638,-9622.677246,1455.581446
3282.170230,296.082377,-9030.512492,1455.581446
3282.170558,-296.082377,-9474.636058,153.219100
3282.170885,74.020594,-8734.430116,-1455.581446
3282.171213,-1184.329507,-8808.450710,-1302.362347
3282.171540,-1924.535449,-10140.821405,153.219100
3282.171868,-1850.514855,-8586.388927,0.000000
3282.172196,-296.082377,-10658.965565,612.876398
3282.172523,1258.350101,-11695.253884,76.609550
3282.172851,962.267725,-10584.944971,153.219100
3282.173179,-518.144159,-8216.285956,459.657299
3282.173506,-666.185348,-7254.018232,-689.485948
3282.173834,-296.082377,-9030.512492,-153.219100
3282.174161,592.164754,-9326.594869,-383.047749
3282.174489,1776.494261,-8734.430116,919.314598
3282.174817,2516.700203,-10955.047942,1225.752797
3282.175144,1998.556043,-11621.233289,0.000000
3282.175472,814.226536,-11843.295072,-306.438199
3282.175799,148.041188,-9474.636058,-1838.629195
3282.176127,1036.288319,-9474.636058,-2528.115143
3282.176455,518.144159,-10955.047942,-383.047749
3282.176782,740.205942,-10362.883188,995.924147
3282.177110,1480.411884,-9326.594869,536.266849
3282.177438,1998.556043,-9696.697840,76.609550
3282.177765,1110.308913,-9474.636058,-766.095498
3282.178093,666.185348,-8660.409521,229.828649
3282.178420,888.247130,-7920.203579,153.219100
3282.178748,666.185348,-10436.903782,689.485948
3282.179076,814.226536,-12213.398043,153.219100
3282.179403,2368.659014,-9548.656652,-383.047749
3282.179731,1702.473667,-8364.327145,0.000000
3282.180058,296.082377,-10140.821405,612.876398
3282.180386,-740.205942,-10362.883188,383.047749
3282.180714,-1184.329507,-9252.574275,-1072.533697
3282.181041,-1184.329507,-6809.894666,-2374.896044
3282.181369,-1850.514855,-7994.224174,-919.314598
3282.181697,-1628.453072,-9178.553681,1762.019645
3282.182024,-888.247130,-8734.430116,536.266849
3282.182352,-148.041188,-10584.944971,76.609550
3282.182679,1776.494261,-9844.739029,-995.924147
3282.183007,2294.638420,-10584.944971,0.000000
3282.183335,1998.556043,-10732.986159,842.705048
3282.183662,1036.288319,-9918.759623,229.828649
3282.183990,370.102971,-10658.965565,-536.266849
3282.184318,-444.123565,-7994.224174,-766.095498
3282.184645,-370.102971,-9252.574275,-612.876398
3282.184973,-370.102971,-9770.718434,612.876398
3282.185300,-888.247130,-10288.862594,1302.362347
3282.185628,-1332.370696,-11399.171507,459.657299
3282.185956,0.000000,-9030.512492,-1915.238745
3282.186283,1258.350101,-9474.636058,-2298.286494
3282.186611,1554.432478,-12509.480420,-153.219100
3282.186938,296.082377,-10807.006753,612.876398
3282.187266,518.144159,-9770.718434,-229.828649
3282.187594,888.247130,-8438.347739,-1532.190996
3282.187921,444.123565,-9400.615463,-536.266849
3282.188249,-2368.659014,-8734.430116,2221.676944
3282.188577,-2960.823768,-9770.718434,1991.848295
3282.188904,-2368.659014,-10214.842000,-1378.971896
3282.189232,-518.144159,-7772.162391,-4673.182538
3282.189559,-962.267725,-8660.409521,-2834.553343
3282.189887,-592.164754,-10955.047942,995.924147
3282.190215,888.247130,-10214.842000,1455.581446
3282.190542,2220.617826,-10732.986159,76.609550
3282.190870,2220.617826,-9474.636058,-1149.143247
3282.191197,1258.350101,-9474.636058,76.609550
3282.191525,1258.350101,-8734.430116,2298.286494
3282.191853,-962.267725,-7698.141797,2528.115143
3282.192180,-1480.411884,-8882.471304,842.705048
3282.192508,-1480.411884,-8290.306550,-1608.800546
3282.192836,-370.102971,-9474.636058,-1149.143247
3282.193163,0.000000,-11103.089130,-383.047749
3282.193491,296.082377,-10288.862594,-459.657299
3282.193818,1480.411884,-9770.718434,-1762.019645
3282.194146,1406.391290,-9770.718434,-1991.848295
3282.194474,444.123565,-9622.677246,229.828649
3282.194801,1406.391290,-8438.347739,1685.410096
3282.195129,1776.494261,-8586.388927,2451.505594
3282.195457,1480.411884,-10584.944971,1991.848295
3282.195784,888.247130,-9326.594869,-459.657299
3282.196112,518.144159,-9622.677246,-459.657299
3282.196439,444.123565,-11547.212695,76.609550
3282.196767,1850.514855,-11473.192101,-1915.238745
3282.197095,592.164754,-10214.842000,-2451.505594
3282.197422,444.123565,-9548.656652,-2757.943793
3282.197750,0.000000,-9252.574275,-1149.143247
3282.198077,1184.329507,-11177.109724,1072.533697
3282.198405,444.123565,-9770.718434,1455.581446
3282.198733,592.164754,-8956.491898,1762.019645
3282.199060,1406.391290,-7624.121203,306.438199
3282.199388,1554.432478,-9474.636058,689.485948
3282.199716,962.267725,-12361.439231,919.314598
3282.200043,518.144159,-9548.656652,-842.705048
3282.200371,74.020594,-8734.430116,-1072.533697
3282.200698,296.082377,-9474.636058,-1991.848295
3282.201026,-1184.329507,-10288.862594,-766.095498
3282.201354,-1702.473667,-9918.759623,229.828649
3282.201681,-888.247130,-8586.388927,-383.047749
3282.202009,-1258.350101,-9326.594869,0.000000
3282.202337,0.000000,-8660.409521,76.609550
3282.202664,296.082377,-8660.409521,459.657299
3282.202992,888.247130,-10732.986159,1685.410096
3282.203319,2294.638420,-10436.903782,766.095498
3282.203647,2664.741391,-9770.718434,-536.266849
3282.203975,2146.597232,-9400.615463,-842.705048
3282.204302,1036.288319,-9252.574275,-153.219100
3282.204630,0.000000,-9992.780217,-842.705048
3282.204957,-1258.350101,-9400.615463,0.000000
3282.205285,-1184.329507,-9474.636058,-1149.143247
3282.205613,-962.267725,-9252.574275,-766.095498
3282.205940,-962.267725,-10214.842000,0.000000
3282.206268,-962.267725,-11547.212695,153.219100
3282.206596,962.267725,-10510.924376,-1302.362347
3282.206923,2072.576638,-9548.656652,-2451.505594
3282.207251,1332.370696,-10732.986159,-1302.362347
3282.207578,518.144159,-9770.718434,76.609550
3282.207906,518.144159,-9252.574275,153.219100
3282.208234,-888.247130,-9474.636058,153.219100
3282.208561,-1406.391290,-10584.944971,153.219100
3282.208889,-2072.576638,-9696.697840,153.219100
3282.209216,-2294.638420,-10658.965565,-306.438199
3282.209544,-1924.535449,-11473.192101,-1225.752797
3282.209871,0.000000,-10436.903782,-2987.772442
3282.210199,518.144159,-7772.162391,-2604.724693
3282.210526,1406.391290,-8808.450710,-689.485948
3282.210854,1702.473667,-9474.636058,1608.800546
3282.211181,2220.617826,-8660.409521,1838.629195
3282.211509,444.123565,-8364.327145,1149.143247
3282.211836,0.000000,-9696.697840,306.438199
3282.212164,1036.288319,-9918.759623,0.000000
3282.212492,74.020594,-9178.553681,76.609550
3282.212819,-1110.308913,-8956.491898,153.219100
3282.213147,-666.185348,-9622.677246,-1378.971896
3282.213474,296.082377,-10732.986159,-2221.676944
3282.213802,1110.308913,-10658.965565,-1378.971896
3282.214129,1036.288319,-7550.100608,-383.047749
3282.214457,1998.556043,-8660.409521,229.828649
3282.214784,1702.473667,-9030.512492,1072.533697
3282.215112,-148.041188,-9178.553681,1915.238745
3282.215439,0.000000,-8438.347739,1149.143247
3282.215767,370.102971,-9474.636058,0.000000
3282.216094,814.226536,-11695.253884,-383.047749
3282.216422,1184.329507,-11325.150913,-612.876398
3282.216750,888.247130,-10881.027347,-1608.800546
3282.217077,2664.741391,-11473.192101,-2451.505594
3282.217405,2960.823768,-10510.924376,-1838.629195
3282.217732,1924.535449,-10066.800811,0.000000
3282.218060,148.041188,-9252.574275,459.657299
3282.218387,-296.082377,-8586.388927,459.657299
3282.218715,518.144159,-9844.739029,383.047749
3282.219042,0.000000,-9548.656652,306.438199
3282.219370,296.082377,-10214.842000,1225.752797
3282.219697,148.041188,-9474.636058,383.047749
3282.220025,444.123565,-10807.006753,-766.095498
3282.220352,1406.391290,-11325.150913,-2451.505594
3282.220680,1702.473667,-9030.512492,-2374.896044
3282.221008,148.041188,-7328.038826,459.657299
3282.221335,-888.247130,-7920.203579,1149.143247
3282.221663,-2368.659014,-9696.697840,1532.190996
3282.221990,-1332.370696,-9622.677246,383.047749
3282.222318,-1184.329507,-7550.100608,-1455.581446
3282.222645,-2664.741391,-8956.491898,-383.047749
3282.222973,-2516.700203,-10436.903782,306.438199
3282.223300,-888.247130,-8660.409521,-2068.457845
3282.223628,1258.350101,-9770.718434,-1608.800546
3282.223955,1702.473667,-10510.924376,-153.219100
3282.224283,1850.514855,-10436.903782,1378.971896
3282.224610,1924.535449,-9104.533087,1532.190996
3282.224938,666.185348,-8734.430116,919.314598
3282.225266,-370.102971,-9326.594869,76.609550
3282.225593,-370.102971,-9326.594869,536.266849
3282.225921,-962.267725,-9918.759623,919.314598
3282.226248,-814.226536,-11103.089130,-229.828649
3282.226576,-962.267725,-10807.006753,-1378.971896
3282.226903,0.000000,-10807.006753,-2681.334243
3282.227231,740.205942,-10066.800811,-3140.991542
3282.227558,888.247130,-11473.192101,-995.924147
3282.227886,2220.617826,-10658.965565,-306.438199
3282.228213,1406.391290,-8660.409521,-306.438199
3282.228541,0.000000,-9104.533087,1455.581446
3282.228868,222.061783,-9178.553681,1072.533697
3282.229196,-962.267725,-9104.533087,1532.190996
3282.229524,-1776.494261,-10807.006753,842.705048
3282.229851,-2368.659014,-10955.047942,-2451.505594
3282.230179,-296.082377,-10288.862594,-4903.011187
3282.230506,888.247130,-8660.409521,-5515.887586
3282.230834,518.144159,-9844.739029,-383.047749
3282.231161,962.267725,-10807.006753,3217.601092
3282.231489,1554.432478,-9326.594869,2987.772442
3282.231816,1406.391290,-8808.450710,995.924147
3282.232144,1406.391290,-9252.574275,-536.266849
3282.232471,370.102971,-9474.636058,1608.800546
3282.232799,222.061783,-8438.347739,1608.800546
3282.233126,296.082377,-8216.285956,0.000000
3282.233454,0.000000,-10066.800811,-766.095498
3282.233782,222.061783,-10362.883188,-1072.533697
3282.234109,888.247130,-9770.718434,-1072.533697
3282.234437,1110.308913,-8512.368333,-1072.533697
3282.234764,814.226536,-9474.636058,612.876398
3282.235092,962.267725,-9400.615463,1608.800546
3282.235419,1110.308913,-8660.409521,995.924147
3282.235747,1036.288319,-9030.512492,1149.143247
3282.236074,1110.308913,-9474.636058,536.266849
3282.236402,-592.164754,-9696.697840,0.000000
3282.236729,518.144159,-9844.739029,-1532.190996
3282.237057,740.205942,-10288.862594,-2068.457845
3282.237384,592.164754,-10362.883188,-689.485948
3282.237712,1998.556043,-11103.089130,-766.095498
3282.238040,1184.329507,-10288.862594,-459.657299
3282.238367,0.000000,-9992.780217,-153.219100
3282.238695,-592.164754,-10140.821405,-383.047749
3282.239022,-1480.411884,-9918.759623,76.609550
3282.239350,-296.082377,-11251.130318,-842.705048
3282.239677,444.123565,-10658.965565,-689.485948
3282.240005,814.226536,-9992.780217,-153.219100
3282.240332,296.082377,-9770.718434,383.047749
3282.240660,296.082377,-9474.636058,0.000000
3282.240987,0.000000,-9474.636058,-1072.533697
3282.241315,-740.205942,-8956.491898,-1302.362347
3282.241642,-2146.597232,-10140.821405,-536.266849
3282.241970,592.164754,-9992.780217,-153.219100
3282.242298,0.000000,-9252.574275,919.314598
3282.242625,148.041188,-11251.130318,1685.410096
3282.242953,-296.082377,-10955.047942,689.485948
3282.243280,-518.144159,-9548.656652,-306.438199
3282.243608,0.000000,-7328.038826,-2451.505594
3282.243935,-1406.391290,-7402.059420,-1608.800546
3282.244263,-1406.391290,-7772.162391,1072.533697
3282.244590,0.000000,-9030.512492,1072.533697
3282.244918,592.164754,-10807.006753,1072.533697
3282.245245,2220.617826,-10362.883188,-383.047749
3282.245573,740.205942,-9770.718434,76.609550
3282.245900,666.185348,-10584.944971,689.485948
3282.246228,666.185348,-9770.718434,-229.828649
3282.246556,148.041188,-9400.615463,-306.438199
3282.246883,444.123565,-9030.512492,-536.266849
3282.247211,962.267725,-8956.491898,-689.485948
3282.247538,1480.411884,-9474.636058,0.000000
3282.247866,888.247130,-10140.821405,766.095498
3282.248193,-296.082377,-10362.883188,995.924147
3282.248521,1480.411884,-10288.862594,-1072.533697
3282.248848,1110.308913,-10881.027347,-1762.019645
3282.249176,1258.350101,-11917.315666,-1225.752797
3282.249503,1702.473667,-11473.192101,-689.485948
3282.249831,1406.391290,-10066.800811,76.609550
3282.250158,1036.288319,-10807.006753,0.000000
3282.250486,-518.144159,-9844.739029,-1991.848295
3282.250814,-814.226536,-8142.265362,-919.314598
3282.251141,370.102971,-8142.265362,-1378.971896
3282.251469,-666.185348,-9474.636058,0.000000
3282.251796,888.247130,-10436.903782,1608.800546
3282.252124,2072.576638,-9400.615463,612.876398
3282.252451,1776.494261,-9918.759623,0.000000
3282.252779,1776.494261,-10584.944971,-766.095498
3282.253106,0.000000,-9030.512492,-995.924147
3282.253434,0.000000,-8808.450710,0.000000
3282.253761,-518.144159,-8216.285956,-306.438199
3282.254089,518.144159,-9400.615463,1072.533697
3282.254416,518.144159,-9696.697840,2298.286494
3282.254744,518.144159,-8586.388927,1991.848295
3282.255072,148.041188,-8586.388927,1072.533697
3282.255399,370.102971,-9622.677246,612.876398
3282.255727,0.000000,-9844.739029,-689.485948
3282.256054,-1332.370696,-7624.121203,-536.266849
3282.256382,-962.267725,-8142.265362,-1608.800546
3282.256709,-370.102971,-10584.944971,-383.047749
3282.257037,-370.102971,-9326.594869,0.000000
3282.257364,148.041188,-9474.636058,153.219100
3282.257692,1332.370696,-10955.047942,0.000000
3282.258019,1184.329507,-10362.883188,-612.876398
3282.258347,444.123565,-9252.574275,536.266849
3282.258674,-962.267725,-8734.430116,383.047749
3282.259002,-296.082377,-10140.821405,-383.047749
3282.259330,0.000000,-12139.377449,-995.924147
3282.259657,-740.205942,-11251.130318,-1608.800546
3282.259985,0.000000,-10140.821405,-2145.067394
3282.260312,444.123565,-9548.656652,-1762.019645
3282.260640,296.082377,-9474.636058,229.828649
3282.260967,0.000000,-10362.883188,1149.143247
3282.261295,-296.082377,-10288.862594,842.705048
3282.261622,222.061783,-9548.656652,0.000000
3282.261950,0.000000,-9030.512492,-1685.410096
3282.262277,0.000000,-10288.862594,-1225.752797
3282.262605,0.000000,-10807.006753,-536.266849
3282.262933,0.000000,-9252.574275,-229.828649
3282.263260,962.267725,-10807.006753,-995.924147
3282.263588,1924.535449,-11251.130318,-995.924147
3282.263915,1184.329507,-8734.430116,0.000000
3282.264243,0.000000,-8068.244768,1532.190996
3282.264570,-2368.659014,-7698.141797,2221.676944
3282.264898,-1406.391290,-8512.368333,536.266849
3282.265225,-1702.473667,-7624.121203,-612.876398
3282.265553,-740.205942,-8512.368333,-919.314598
3282.265880,-518.144159,-10140.821405,-1072.533697
3282.266208,0.000000,-10658.965565,-1149.143247
3282.266535,1850.514855,-9548.656652,-1532.190996
3282.266863,2738.761985,-8882.471304,-1455.581446
3282.267191,1850.514855,-8734.430116,1225.752797
3282.267518,2072.576638,-10140.821405,2374.896044
3282.267846,1036.288319,-10288.862594,1532.190996
3282.268173,1184.329507,-10510.924376,689.485948
3282.268501,1628.453072,-9326.594869,-919.314598
3282.268828,1554.432478,-9326.594869,-689.485948
3282.269156,1036.288319,-10362.883188,-766.095498
3282.269483,592.164754,-10140.821405,-1378.971896
3282.269811,1258.350101,-10288.862594,-1762.019645
3282.270138,2072.576638,-9622.677246,-1838.629195
3282.270466,1554.432478,-10140.821405,383.047749
3282.270793,814.226536,-12361.439231,1838.629195
3282.271121,0.000000,-12065.356855,536.266849
3282.271449,518.144159,-9178.553681,-1532.190996
3282.271776,444.123565,-7698.141797,-2681.334243
3282.272104,-962.267725,-9622.677246,-459.657299
3282.272431,-518.144159,-11103.089130,842.705048
3282.272759,148.041188,-10584.944971,-689.485948
3282.273086,518.144159,-9918.759623,-2374.896044
3282.273414,518.144159,-9326.594869,-2451.505594
3282.273741,296.082377,-8512.368333,0.000000
3282.274069,888.247130,-8512.368333,1762.019645
3282.274396,592.164754,-9548.656652,2145.067394
3282.274724,444.123565,-10658.965565,1455.581446
3282.275051,1036.288319,-8290.306550,0.000000
3282.275379,1036.288319,-7624.121203,-229.828649
3282.275707,0.000000,-10807.006753,153.219100
3282.276034,0.000000,-11103.089130,153.219100
3282.276362,0.000000,-8956.491898,-766.095498
3282.276689,888.247130,-8068.244768,-1762.019645
3282.277017,-592.164754,-8142.265362,153.219100
3282.277344,-518.144159,-9474.636058,1762.019645
3282.277672,-1406.391290,-10140.821405,2145.067394
3282.277999,-592.164754,-10140.821405,536.266849
3282.278327,518.144159,-8068.244768,-1149.143247
3282.278654,-1628.453072,-8216.285956,76.609550
3282.278982,-814.226536,-10510.924376,842.705048
3282.279309,-814.226536,-10214.842000,-612.876398
3282.279637,-222.061783,-10436.903782,-1532.190996
3282.279965,444.123565,-9104.533087,-2987.772442
3282.280292,-592.164754,-9104.533087,-1915.238745
3282.280620,-740.205942,-10510.924376,1149.143247
3282.280947,74.020594,-11843.295072,1378.971896
3282.281275,1036.288319,-11325.150913,153.219100
3282.281602,1036.288319,-9474.636058,-689.485948
3282.281930,-888.247130,-9474.636058,-383.047749
3282.282257,-1258.350101,-10658.965565,76.609550
3282.282585,-740.205942,-10288.862594,-1762.019645
3282.282912,0.000000,-10362.883188,-2451.505594
3282.283240,444.123565,-10140.821405,-2528.115143
3282.283567,222.061783,-8808.450710,-612.876398
3282.283895,2072.576638,-9474.636058,1072.533697
3282.284223,2590.720797,-12287.418637,1302.362347
3282.284550,1554.432478,-11399.171507,1302.362347
3282.284878,1702.473667,-8142.265362,1149.143247
3282.285205,74.020594,-7476.080014,1149.143247
3282.285533,-740.205942,-9030.512492,536.266849
3282.285860,-1332.370696,-10066.800811,689.485948
3282.286188,-1036.288319,-8512.368333,-2221.676944
3282.286515,148.041188,-8956.491898,-3830.477490
3282.286843,-444.123565,-9548.656652,-1991.848295
3282.287170,444.123565,-9918.759623,766.095498
3282.287498,2294.638420,-9992.780217,689.485948
3282.287825,1850.514855,-9474.636058,1149.143247
3282.288153,2294.638420,-8882.471304,842.705048
3282.288481,1702.473667,-8734.430116,1302.362347
3282.288808,1332.370696,-9400.615463,1072.533697
3282.289136,1554.432478,-10066.800811,-536.266849
3282.289463,592.164754,-9474.636058,-1762.019645
3282.289791,1184.329507,-8882.471304,-1302.362347
3282.290118,370.102971,-8882.471304,-1149.143247
3282.290446,1036.288319,-8808.450710,-306.438199
3282.290773,444.123565,-10510.924376,689.485948
3282.291101,-666.185348,-11843.295072,612.876398
3282.291428,814.226536,-12065.356855,-689.485948
3282.291756,1184.329507,-10881.027347,-1608.800546
3282.292083,1406.391290,-9696.697840,-612.876398
3282.292411,1406.391290,-10807.006753,0.000000
3282.292739,740.205942,-10362.883188,0.000000
3282.293066,1924.535449,-9474.636058,-1225.752797
3282.293394,518.144159,-8216.285956,-1838.629195
3282.293721,-370.102971,-8660.409521,-1072.533697
3282.294049,-1184.329507,-9474.636058,-306.438199
3282.294376,-1850.514855,-8512.368333,842.705048
3282.294704,-222.061783,-9474.636058,229.828649
3282.295031,0.000000,-11251.130318,-153.219100
3282.295359,1184.329507,-11399.171507,842.705048
3282.295686,1776.494261,-10510.924376,306.438199
3282.296014,592.164754,-9548.656652,0.000000
3282.296341,518.144159,-9918.759623,459.657299
3282.296669,-148.041188,-7624.121203,-306.438199
3282.296997,-518.144159,-6069.688724,-536.266849
3282.297324,-518.144159,-8068.244768,1378.971896
3282.297652,-1998.556043,-9992.780217,1608.800546
3282.297979,-1924.535449,-9770.718434,1302.362347
3282.298307,-2516.700203,-10214.842000,-842.705048
3282.298634,-1776.494261,-10584.944971,-1532.190996
3282.298962,518.144159,-10140.821405,-1608.800546
3282.299289,0.000000,-10214.842000,-1072.533697
3282.299617,296.082377,-10214.842000,919.314598
3282.299944,1332.370696,-8882.471304,0.000000
3282.300272,888.247130,-8586.388927,-306.438199
3282.300599,0.000000,-8882.471304,306.438199
3282.300927,-2294.638420,-8808.450710,1225.752797
3282.301255,-444.123565,-9104.533087,459.657299
3282.301582,814.226536,-10510.924376,-1378.971896
3282.301910,296.082377,-11695.253884,-1302.362347
3282.302237,74.020594,-11547.212695,-689.485948
3282.302565,444.123565,-11103.089130,-536.266849
3282.302892,1628.453072,-11029.068536,-1455.581446
3282.303220,1184.329507,-9474.636058,-2068.457845
3282.303547,148.041188,-8216.285956,-306.438199
3282.303875,1554.432478,-8956.491898,229.828649
3282.304202,518.144159,-10214.842000,689.485948
3282.304530,444.123565,-10214.842000,919.314598
3282.304857,740.205942,-8808.450710,-229.828649
3282.305185,518.144159,-9770.718434,0.000000
3282.305513,1480.411884,-11177.109724,0.000000
3282.305840,2146.597232,-11103.089130,-306.438199
3282.306168,2368.659014,-9548.656652,-766.095498
3282.306495,2368.659014,-9104.533087,-306.438199
3282.306823,444.123565,-8882.471304,689.485948
3282.307150,-1036.288319,-7476.080014,1455.581446
3282.307478,-1628.453072,-8364.327145,383.047749
3282.307805,-1258.350101,-7920.203579,-766.095498
3282.308133,-1332.370696,-7772.162391,-1608.800546
3282.308460,-1924.535449,-8956.491898,459.657299
3282.308788,592.164754,-10510.924376,229.828649
3282.309115,1258.350101,-12139.377449,-459.657299
3282.309443,2368.659014,-11251.130318,-1378.971896
3282.309774,2590.720797,-9474.636058,-1762.019645
3282.310101,1332.370696,-8216.285956,383.047749
3282.310429,3108.864956,-8882.471304,1608.800546
3282.310757,2738.761985,-9474.636058,2528.115143
3282.311084,2146.597232,-8364.327145,2298.286494
3282.311412,1258.350101,-8512.368333,1685.410096
3282.311740,-1628.453072,-9622.677246,1072.533697
3282.312067,-2368.659014,-12065.356855,-766.095498
3282.312395,-2516.700203,-11621.233289,-3064.381992
3282.312722,-370.102971,-10732.986159,-5515.887586
3282.313050,0.000000,-11769.274478,-3524.039291
3282.313378,1554.432478,-12879.583391,-153.219100
3282.313705,2368.659014,-9844.739029,919.314598
3282.314033,666.185348,-9252.574275,689.485948
3282.314361,-1258.350101,-9252.574275,459.657299
3282.314688,-1554.432478,-6883.915261,-383.047749
3282.315016,-2294.638420,-6809.894666,0.000000
3282.315344,-2220.617826,-7846.182985,842.705048
3282.315671,-1184.329507,-11547.212695,-459.657299
3282.315999,518.144159,-11843.295072,-1072.533697
3282.316327,2812.782580,-10807.006753,-2374.896044
3282.316654,2516.700203,-9622.677246,-1378.971896
3282.316982,1036.288319,-9622.677246,766.095498
3282.317310,-222.061783,-9474.636058,1608.800546
3282.317637,-444.123565,-7328.038826,1149.143247
3282.317965,666.185348,-6809.894666,153.219100
3282.318292,222.061783,-8364.327145,2451.505594
3282.318620,518.144159,-9400.615463,2681.334243
3282.318948,-1258.350101,-11177.109724,919.314598
3282.319275,-1110.308913,-9992.780217,-1378.971896
3282.319603,740.205942,-7920.203579,-3907.087040
3282.319931,814.226536,-8882.471304,-2451.505594
3282.320258,0.000000,-9474.636058,1225.752797
3282.320586,74.020594,-10510.924376,1072.533697
3282.320914,222.061783,-10066.800811,842.705048
3282.321241,2516.700203,-9474.636058,-1378.971896
3282.321569,592.164754,-9252.574275,153.219100
3282.321897,0.000000,-9474.636058,1455.581446
3282.322224,296.082377,-10584.944971,1378.971896
3282.322552,1258.350101,-11695.253884,-1225.752797
3282.322879,888.247130,-9696.697840,-2911.162892
3282.323207,-888.247130,-8956.491898,-612.876398
3282.323535,370.102971,-9992.780217,459.657299
3282.323862,888.247130,-10658.965565,-229.828649
3282.324190,-296.082377,-10955.047942,-536.266849
3282.324518,74.020594,-9030.512492,-1302.362347
3282.324845,222.061783,-9030.512492,0.000000
3282.325173,888.247130,-10807.006753,919.314598
3282.325501,814.226536,-11029.068536,919.314598
3282.325828,814.226536,-9548.656652,0.000000
3282.326156,3034.844362,-9104.533087,-1532.190996
3282.326484,2368.659014,-10140.821405,-766.095498
3282.326811,370.102971,-9326.594869,1915.238745
3282.327139,666.185348,-9104.533087,2298.286494
3282.327467,-1036.288319,-9252.574275,306.438199
3282.327794,-1776.494261,-8216.285956,-1378.971896
3282.328122,-2368.659014,-9104.533087,-1991.848295
3282.328449,-1554.432478,-9474.636058,-995.924147
3282.328777,-1110.308913,-9400.615463,-995.924147
3282.329105,-814.226536,-10288.862594,-229.828649
3282.329432,1110.308913,-10066.800811,-919.314598
3282.329760,1850.514855,-10807.006753,0.000000
3282.330088,1554.432478,-10140.821405,1302.362347
3282.330415,1628.453072,-9178.553681,229.828649
3282.330743,888.247130,-9474.636058,76.609550
3282.331071,1850.514855,-9622.677246,306.438199
3282.331398,666.185348,-7920.203579,536.266849
3282.331726,-814.226536,-8956.491898,1149.143247
3282.332054,-666.185348,-10066.800811,536.266849
3282.332381,-296.082377,-11029.068536,-1225.752797
3282.332709,0.000000,-10066.800811,-1991.848295
3282.333036,-1480.411884,-10288.862594,-536.266849
3282.333364,-518.144159,-10732.986159,0.000000
3282.333692,1776.494261,-10066.800811,-2068.457845
3282.334019,1554.432478,-11399.171507,-995.924147
3282.334347,592.164754,-10214.842000,0.000000
3282.334675,0.000000,-9178.553681,1072.533697
3282.335002,-1184.329507,-9030.512492,459.657299
3282.335330,-592.164754,-9474.636058,-1762.019645
3282.335658,-2368.659014,-9030.512492,-1838.629195
3282.335985,-2664.741391,-9252.574275,-689.485948
3282.336313,-1776.494261,-8438.347739,-383.047749
3282.336641,444.123565,-8364.327145,0.000000
3282.336968,1702.473667,-9548.656652,459.657299
3282.337296,2294.638420,-10288.862594,2068.457845
3282.337624,2442.679609,-9770.718434,1608.800546
3282.337951,2220.617826,-9252.574275,1455.581446
3282.338279,0.000000,-9252.574275,1455.581446
3282.338606,0.000000,-9104.533087,0.000000
3282.338934,-518.144159,-9770.718434,-459.657299
3282.339262,74.020594,-10658.965565,-383.047749
3282.339589,444.123565,-9696.697840,-919.314598
3282.339917,0.000000,-9252.574275,-306.438199
3282.340245,740.205942,-9326.594869,-459.657299
3282.340572,-518.144159,-10584.944971,76.609550
3282.340900,-1480.411884,-9474.636058,1378.971896
3282.341228,0.000000,-8142.265362,-383.047749
3282.341555,1110.308913,-8512.368333,-689.485948
3282.341883,1332.370696,-9918.759623,0.000000
3282.342211,296.082377,-11621.233289,1072.533697
3282.342538,2294.638420,-10436.903782,0.000000
3282.342866,2886.803174,-9326.594869,-1915.238745
3282.343193,296.082377,-9474.636058,-229.828649
3282.343521,-518.144159,-9030.512492,-229.828649
3282.343849,-888.247130,-9622.677246,383.047749
3282.344176,518.144159,-11399.171507,-229.828649
3282.344504,962.267725,-10658.965565,-995.924147
3282.344832,74.020594,-9770.718434,-229.828649
3282.345159,814.226536,-10362.883188,306.438199
3282.345487,74.020594,-10436.903782,76.609550
3282.345815,-518.144159,-9474.636058,-1225.752797
3282.346142,0.000000,-7179.997637,-2681.334243
3282.346470,0.000000,-6957.935855,-1302.362347
3282.346798,1628.453072,-11177.109724,536.266849
3282.347125,1850.514855,-12953.603985,1608.800546
3282.347453,518.144159,-10955.047942,2068.457845
3282.347781,-148.041188,-8364.327145,-766.095498
3282.348108,-666.185348,-9030.512492,-536.266849
3282.348436,-1554.432478,-9844.739029,0.000000
3282.348763,-2516.700203,-9474.636058,-383.047749
3282.349091,-2664.741391,-9178.553681,-1608.800546
3282.349419,-444.123565,-6883.915261,-3600.648841
3282.349746,-222.061783,-8364.327145,-1762.019645
3282.350074,0.000000,-9992.780217,919.314598
