#time,accel_x,accel_y,accel_z
3101.970192,0.000000,-10140.821405,-995.924147
3101.970520,0.000000,-10288.862594,-995.924147
3101.970847,296.082377,-10066.800811,-383.047749
3101.971175,592.164754,-9770.718434,-229.828649
3101.971502,666.185348,-9622.677246,-229.828649
3101.971830,592.164754,-9918.759623,0.000000
3101.972157,370.102971,-9326.594869,229.828649
3101.972485,370.102971,-9252.574275,153.219100
3101.972812,0.000000,-8882.471304,306.438199
3101.973140,0.000000,-8956.491898,76.609550
3101.973468,0.000000,-9326.594869,-689.485948
3101.973795,-148.041188,-9104.533087,153.219100
3101.974123,-148.041188,-9400.615463,0.000000
3101.974450,222.061783,-9622.677246,0.000000
3101.974778,518.144159,-9770.718434,0.000000
3101.975105,444.123565,-9622.677246,0.000000
3101.975433,888.247130,-9474.636058,306.438199
3101.975760,518.144159,-9030.512492,536.266849
3101.976088,444.123565,-9104.533087,229.828649
3101.976415,222.061783,-9252.574275,229.828649
3101.976743,148.041188,-9104.533087,-306.438199
3101.977070,0.000000,-9474.636058,-536.266849
3101.977398,0.000000,-9770.718434,-536.266849
3101.977725,0.000000,-9696.697840,-766.095498
3101.978053,518.144159,-10288.862594,-383.047749
3101.978380,518.144159,-10214.842000,-1302.362347
3101.978708,518.144159,-10584.944971,-536.266849
3101.979035,592.164754,-10584.944971,-306.438199
3101.979363,518.144159,-10362.883188,-306.438199
3101.979690,592.164754,-10140.821405,-306.438199
3101.980018,148.041188,-9696.697840,459.657299
3101.980346,296.082377,-9918.759623,612.876398
3101.980673,-222.061783,-9696.697840,0.000000
3101.981001,-148.041188,-10214.842000,-306.438199
3101.981328,0.000000,-10288.862594,-612.876398
3101.981656,222.061783,-10510.924376,-536.266849
3101.981983,444.123565,-10436.903782,-306.438199
3101.982311,592.164754,-9844.739029,-306.438199
3101.982638,1258.350101,-9548.656652,-459.657299
3101.982966,1702.473667,-9178.553681,689.485948
3101.983293,2442.679609,-9030.512492,536.266849
3101.983621,3108.864956,-8068.244768,536.266849
3101.983948,3552.988522,-7994.224174,153.219100
3101.984276,4219.173869,-8660.409521,-536.266849
3101.984603,5181.441594,-8956.491898,0.000000
3101.984931,6069.688724,-8586.388927,0.000000
3101.985258,7105.977043,-9474.636058,153.219100
3101.985586,8290.306550,-9770.718434,0.000000
3101.985913,8808.450710,-10288.862594,153.219100
3101.986241,8438.347739,-10140.821405,1149.143247
3101.986568,9104.533087,-9474.636058,919.314598
3101.986896,10066.800811,-8660.409521,-459.657299
3101.987223,9918.759623,-8808.450710,536.266849
3101.987551,10140.821405,-8734.430116,612.876398
3101.987879,10732.986159,-8586.388927,76.609550
3101.988206,10955.047942,-9474.636058,-459.657299
3101.988534,10881.027347,-9992.780217,-459.657299
3101.988861,10584.944971,-9918.759623,-842.705048
3101.989189,10955.047942,-9474.636058,-612.876398
3101.989516,11843.295072,-9696.697840,-536.266849
3101.989844,13101.645173,-11251.130318,0.000000
3101.990171,13693.809927,-11103.089130,0.000000
3101.990499,14359.995275,-9844.739029,689.485948
3101.990826,14434.015869,-9104.533087,229.828649
3101.991154,13767.830521,-9696.697840,0.000000
3101.991481,12805.562797,-8956.491898,612.876398
3101.991809,12583.501014,-9474.636058,-306.438199
3101.992136,11843.295072,-10140.821405,-383.047749
3101.992464,12213.398043,-10955.047942,-383.047749
3101.992791,12065.356855,-10362.883188,0.000000
3101.993119,11917.315666,-10436.903782,689.485948
3101.993446,12065.356855,-9696.697840,995.924147
3101.993774,11843.295072,-9178.553681,76.609550
3101.994101,10807.006753,-9474.636058,1149.143247
3101.994429,10510.924376,-10140.821405,1072.533697
3101.994756,8882.471304,-9030.512492,689.485948
3101.995084,7179.997637,-7920.203579,0.000000
3101.995412,7179.997637,-7179.997637,-842.705048
3101.995739,8586.388927,-7920.203579,-842.705048
3101.996067,9696.697840,-9400.615463,229.828649
3101.996394,10584.944971,-11103.089130,1455.581446
3101.996722,10584.944971,-10881.027347,1225.752797
3101.997049,10362.883188,-8586.388927,1072.533697
3101.997377,9474.636058,-7105.977043,1149.143247
3101.997704,9548.656652,-8142.265362,689.485948
3101.998032,9696.697840,-10066.800811,766.095498
3101.998359,9696.697840,-11399.171507,919.314598
3101.998687,8586.388927,-9844.739029,-306.438199
3101.999014,7846.182985,-9252.574275,-229.828649
3101.999342,5181.441594,-9696.697840,-612.876398
3101.999669,4071.132681,-10807.006753,-766.095498
3101.999997,5107.421000,-10807.006753,-2221.676944
3102.000324,6809.894666,-10584.944971,-2451.505594
3102.000652,8216.285956,-9770.718434,-1149.143247
3102.000979,6809.894666,-9474.636058,1072.533697
3102.001307,4589.276840,-9548.656652,2145.067394
3102.001634,3552.988522,-8882.471304,1072.533697
3102.001962,5551.544565,-9400.615463,-1532.190996
3102.002289,5625.565159,-11325.150913,-2681.334243
3102.002617,3923.091493,-11621.233289,-1455.581446
3102.002945,3108.864956,-9474.636058,0.000000
3102.003272,2590.720797,-9622.677246,-306.438199
3102.003600,2516.700203,-10881.027347,0.000000
3102.003927,1258.350101,-9400.615463,-612.876398
3102.004255,1850.514855,-8142.265362,-1072.533697
3102.004582,4293.194464,-9770.718434,-919.314598
3102.004910,5921.647536,-10881.027347,76.609550
3102.005237,4737.318029,-9474.636058,2145.067394
3102.005565,3404.947333,-7698.141797,2987.772442
3102.005892,3108.864956,-7402.059420,995.924147
3102.006220,3997.112087,-9178.553681,-1608.800546
3102.006547,3256.906145,-9474.636058,-766.095498
3102.006875,3997.112087,-9474.636058,0.000000
3102.007202,3775.050304,-9548.656652,0.000000
3102.007530,1554.432478,-10140.821405,76.609550
3102.007857,1554.432478,-11399.171507,919.314598
3102.008185,2886.803174,-10658.965565,536.266849
3102.008512,2072.576638,-8734.430116,-766.095498
3102.008840,592.164754,-9030.512492,0.000000
3102.009167,222.061783,-8734.430116,766.095498
3102.009495,1110.308913,-7476.080014,842.705048
3102.009822,0.000000,-7476.080014,2068.457845
3102.010150,-1480.411884,-8586.388927,995.924147
3102.010478,-1258.350101,-7624.121203,-306.438199
3102.010805,296.082377,-8882.471304,-1378.971896
3102.011133,148.041188,-11621.233289,-1532.190996
3102.011460,666.185348,-12953.603985,-1685.410096
3102.011788,2220.617826,-12583.501014,-919.314598
3102.012115,1258.350101,-11991.336260,536.266849
3102.012443,1998.556043,-13027.624579,0.000000
3102.012770,2368.659014,-10140.821405,-1302.362347
3102.013098,0.000000,-10510.924376,306.438199
3102.013425,-814.226536,-9992.780217,536.266849
3102.013753,0.000000,-6513.812290,-1455.581446
3102.014080,-296.082377,-6809.894666,0.000000
3102.014408,-592.164754,-9548.656652,2145.067394
3102.014735,296.082377,-9104.533087,459.657299
3102.015063,0.000000,-8290.306550,-306.438199
3102.015390,-370.102971,-10584.944971,-612.876398
3102.015718,592.164754,-11547.212695,-1072.533697
3102.016045,592.164754,-11103.089130,-766.095498
3102.016373,-1628.453072,-11177.109724,1455.581446
3102.016700,-1924.535449,-10584.944971,842.705048
3102.017028,-1036.288319,-9178.553681,-1608.800546
3102.017355,-3627.009116,-9474.636058,-306.438199
3102.017683,-3552.988522,-8660.409521,0.000000
3102.018011,-1258.350101,-6513.812290,-1608.800546
3102.018338,-1776.494261,-6809.894666,-842.705048
3102.018666,-962.267725,-9548.656652,766.095498
3102.018993,592.164754,-7994.224174,919.314598
3102.019321,814.226536,-6809.894666,-459.657299
3102.019648,370.102971,-9918.759623,1149.143247
3102.019976,1406.391290,-11251.130318,0.000000
3102.020303,2442.679609,-10732.986159,-1225.752797
3102.020631,888.247130,-12361.439231,842.705048
3102.020958,222.061783,-12583.501014,536.266849
3102.021286,74.020594,-9104.533087,-1762.019645
3102.021613,-1332.370696,-10584.944971,-995.924147
3102.021941,-1480.411884,-10510.924376,-536.266849
3102.022268,0.000000,-7624.121203,-1991.848295
3102.022596,148.041188,-7550.100608,-995.924147
3102.022923,222.061783,-9844.739029,1915.238745
3102.023251,2146.597232,-8216.285956,1149.143247
3102.023578,1036.288319,-6883.915261,306.438199
3102.023906,-888.247130,-10510.924376,689.485948
3102.024233,74.020594,-12509.480420,-1915.238745
3102.024561,1406.391290,-11547.212695,-3677.258390
3102.024888,1480.411884,-12805.562797,-2374.896044
3102.025216,2368.659014,-14434.015869,-536.266849
3102.025544,1998.556043,-12361.439231,76.609550
3102.025871,148.041188,-10510.924376,1532.190996
3102.026199,0.000000,-10732.986159,689.485948
3102.026526,444.123565,-7179.997637,-1991.848295
3102.026854,222.061783,-4515.256246,-612.876398
3102.027181,444.123565,-7031.956449,2298.286494
3102.027509,1628.453072,-5625.565159,2528.115143
3102.027836,1776.494261,-4737.318029,2298.286494
3102.028164,1036.288319,-7698.141797,2451.505594
3102.028491,2442.679609,-10584.944971,1302.362347
3102.028819,3552.988522,-9548.656652,-1762.019645
3102.029146,2220.617826,-13841.851115,-306.438199
3102.029474,444.123565,-15026.180623,0.000000
3102.029801,0.000000,-11251.130318,-2068.457845
3102.030129,-1184.329507,-10510.924376,-2221.676944
3102.030456,-2590.720797,-11103.089130,153.219100
3102.030784,-592.164754,-8512.368333,-842.705048
3102.031111,296.082377,-5921.647536,383.047749
3102.031439,-518.144159,-7846.182985,1685.410096
3102.031767,1406.391290,-6439.791695,153.219100
3102.032094,740.205942,-5329.482782,-612.876398
3102.032422,-1406.391290,-8660.409521,1762.019645
3102.032749,296.082377,-8882.471304,383.047749
3102.033077,3404.947333,-8142.265362,-2834.553343
3102.033405,1554.432478,-13545.768739,-1608.800546
3102.033732,0.000000,-17542.880825,306.438199
3102.034060,1258.350101,-13545.768739,-1608.800546
3102.034388,444.123565,-12287.418637,-2451.505594
3102.034715,-1998.556043,-14211.954086,-842.705048
3102.035043,-2516.700203,-9844.739029,-1838.629195
3102.035371,-3034.844362,-6587.832884,-1225.752797
3102.035698,-2442.679609,-6661.853478,459.657299
3102.036026,666.185348,-5921.647536,-459.657299
3102.036353,-444.123565,-4811.338623,766.095498
3102.036681,-2442.679609,-6735.874072,4136.915689
3102.037009,0.000000,-7994.224174,1302.362347
3102.037336,2294.638420,-10436.903782,-2681.334243
3102.037664,888.247130,-14211.954086,-919.314598
3102.037992,1850.514855,-14285.974681,76.609550
3102.038319,2220.617826,-10807.006753,-995.924147
3102.038647,-814.226536,-10881.027347,0.000000
3102.038975,-2886.803174,-13397.727550,1302.362347
3102.039302,-1406.391290,-9474.636058,-1072.533697
3102.039630,-1998.556043,-5625.565159,-1532.190996
3102.039957,-3034.844362,-7254.018232,1225.752797
3102.040285,-814.226536,-5773.606348,536.266849
3102.040613,0.000000,-4145.153275,0.000000
3102.040940,-370.102971,-7179.997637,2221.676944
3102.041268,1776.494261,-9104.533087,919.314598
3102.041596,4663.297435,-10510.924376,0.000000
3102.041923,5625.565159,-13249.686362,1455.581446
3102.042251,4293.194464,-13915.871710,536.266849
3102.042579,2960.823768,-11843.295072,-1072.533697
3102.042906,-814.226536,-11621.233289,0.000000
3102.043234,-2368.659014,-11991.336260,689.485948
3102.043561,-1628.453072,-9104.533087,-2604.724693
3102.043889,-1406.391290,-8438.347739,-2221.676944
3102.044217,-1110.308913,-8956.491898,0.000000
3102.044544,1110.308913,-7105.977043,-1838.629195
3102.044872,1184.329507,-6883.915261,-1225.752797
3102.045200,0.000000,-9104.533087,1838.629195
3102.045527,1554.432478,-7846.182985,1608.800546
3102.045855,4663.297435,-9104.533087,0.000000
3102.046183,4367.215058,-12953.603985,153.219100
3102.046510,4441.235652,-14285.974681,0.000000
3102.046838,2886.803174,-11473.192101,-612.876398
3102.047165,148.041188,-11991.336260,-383.047749
3102.047493,-1924.535449,-12953.603985,459.657299
3102.047821,-1998.556043,-9696.697840,-1838.629195
3102.048148,-2294.638420,-7550.100608,-1455.581446
3102.048476,-1554.432478,-8068.244768,76.609550
3102.048804,814.226536,-6217.729913,-383.047749
3102.049131,-1184.329507,-5107.421000,1685.410096
3102.049459,-2368.659014,-6883.915261,4596.572988
3102.049787,666.185348,-6661.853478,1915.238745
3102.050114,1702.473667,-7624.121203,-1762.019645
3102.050442,1480.411884,-12139.377449,-689.485948
3102.050769,888.247130,-12731.542202,0.000000
3102.051097,1110.308913,-10436.903782,-306.438199
3102.051425,-1480.411884,-11695.253884,-536.266849
3102.051752,-3034.844362,-13767.830521,-459.657299
3102.052080,-1258.350101,-10214.842000,-2987.772442
3102.052408,-1258.350101,-8956.491898,-2145.067394
3102.052735,-1850.514855,-11029.068536,766.095498
3102.053063,-592.164754,-9030.512492,1302.362347
3102.053391,-888.247130,-5255.462188,842.705048
3102.053718,-1480.411884,-5847.626942,1915.238745
3102.054046,1406.391290,-7550.100608,229.828649
3102.054373,2072.576638,-7476.080014,-1608.800546
3102.054701,1110.308913,-11769.274478,536.266849
3102.055029,1998.556043,-11991.336260,-536.266849
3102.055356,2368.659014,-10881.027347,-2911.162892
3102.055684,-962.267725,-13323.706956,-1149.143247
3102.056012,-1332.370696,-14508.036463,536.266849
3102.056339,-444.123565,-9548.656652,-1225.752797
3102.056667,-592.164754,-9178.553681,-1302.362347
3102.056995,-1628.453072,-11177.109724,766.095498
3102.057322,0.000000,-8808.450710,459.657299
3102.057650,-222.061783,-6291.750507,383.047749
3102.057977,-1628.453072,-7550.100608,3140.991542
3102.058305,370.102971,-7402.059420,612.876398
3102.058633,1776.494261,-6439.791695,-842.705048
3102.058960,888.247130,-11325.150913,229.828649
3102.059288,1776.494261,-11991.336260,-459.657299
3102.059616,2664.741391,-8956.491898,-2221.676944
3102.059943,1406.391290,-10658.965565,-536.266849
3102.060271,518.144159,-12065.356855,995.924147
3102.060599,592.164754,-8734.430116,-1149.143247
3102.060926,-518.144159,-8216.285956,229.828649
3102.061254,0.000000,-11177.109724,919.314598
3102.061581,888.247130,-8512.368333,0.000000
3102.061909,0.000000,-6587.832884,1149.143247
3102.062237,-1554.432478,-8586.388927,3217.601092
3102.062564,370.102971,-8586.388927,0.000000
3102.062892,1776.494261,-8290.306550,-2987.772442
3102.063220,444.123565,-10510.924376,-1072.533697
3102.063547,74.020594,-10362.883188,-536.266849
3102.063875,2516.700203,-8660.409521,-2298.286494
3102.064203,1998.556043,-10732.986159,-766.095498
3102.064530,1702.473667,-13471.748144,536.266849
3102.064858,1332.370696,-10214.842000,153.219100
3102.065185,592.164754,-9400.615463,612.876398
3102.065513,-444.123565,-10066.800811,919.314598
3102.065841,0.000000,-9844.739029,-842.705048
3102.066168,-2220.617826,-8586.388927,-995.924147
3102.066496,-2960.823768,-9326.594869,842.705048
3102.066824,370.102971,-10066.800811,0.000000
3102.067151,2146.597232,-10732.986159,-1608.800546
3102.067479,740.205942,-11547.212695,-842.705048
3102.067807,888.247130,-11177.109724,-536.266849
3102.068134,1184.329507,-9252.574275,-2604.724693
3102.068462,296.082377,-10955.047942,-766.095498
3102.068789,0.000000,-10881.027347,1225.752797
3102.069117,1184.329507,-7772.162391,536.266849
3102.069445,370.102971,-7772.162391,1149.143247
3102.069772,-1036.288319,-10510.924376,2145.067394
3102.070100,-1258.350101,-9178.553681,689.485948
3102.070428,-2442.679609,-7846.182985,-1225.752797
3102.070755,-2960.823768,-9252.574275,153.219100
3102.071083,-814.226536,-9696.697840,-612.876398
3102.071411,1036.288319,-9252.574275,-1302.362347
3102.071738,592.164754,-10510.924376,76.609550
3102.072066,1184.329507,-11325.150913,-306.438199
3102.072393,2442.679609,-8808.450710,-2221.676944
3102.072721,1332.370696,-9622.677246,-995.924147
3102.073049,148.041188,-10732.986159,1532.190996
3102.073376,1110.308913,-7254.018232,0.000000
3102.073704,592.164754,-7179.997637,-536.266849
3102.074032,-296.082377,-10955.047942,1302.362347
3102.074359,518.144159,-10732.986159,153.219100
3102.074687,-370.102971,-9104.533087,-383.047749
3102.075015,-1184.329507,-9474.636058,919.314598
3102.075342,518.144159,-11177.109724,-689.485948
3102.075670,1628.453072,-11177.109724,-2451.505594
3102.075997,1110.308913,-11029.068536,0.000000
3102.076325,1480.411884,-10288.862594,306.438199
3102.076653,2664.741391,-9474.636058,-2221.676944
3102.076980,888.247130,-11177.109724,-1455.581446
3102.077308,-370.102971,-11029.068536,-153.219100
3102.077636,0.000000,-6957.935855,-1838.629195
3102.077963,-1184.329507,-8068.244768,-995.924147
3102.078291,-2590.720797,-11473.192101,919.314598
3102.078619,0.000000,-9474.636058,-306.438199
3102.078946,1628.453072,-8068.244768,-1608.800546
3102.079274,740.205942,-11769.274478,2298.286494
3102.079601,1184.329507,-11843.295072,2451.505594
3102.079929,1776.494261,-9474.636058,76.609550
3102.080257,-148.041188,-10214.842000,612.876398
3102.080584,296.082377,-11177.109724,-842.705048
3102.080912,1850.514855,-7994.224174,-3753.867940
3102.081240,444.123565,-7550.100608,-1149.143247
3102.081567,0.000000,-8660.409521,1149.143247
3102.081895,1776.494261,-6661.853478,153.219100
3102.082223,1110.308913,-7772.162391,1378.971896
3102.082550,666.185348,-10140.821405,3370.820191
3102.082878,2368.659014,-8808.450710,1302.362347
3102.083205,1776.494261,-7994.224174,0.000000
3102.083533,-888.247130,-10584.944971,2145.067394
3102.083861,-370.102971,-9622.677246,1532.190996
3102.084188,814.226536,-9178.553681,-919.314598
3102.084516,-444.123565,-12213.398043,-459.657299
3102.084844,740.205942,-13323.706956,-1608.800546
3102.085171,1480.411884,-10140.821405,-4136.915689
3102.085499,0.000000,-9252.574275,-3370.820191
3102.085827,-814.226536,-9918.759623,-1149.143247
3102.086154,1184.329507,-7624.121203,-1225.752797
3102.086482,1184.329507,-7476.080014,76.609550
3102.086809,592.164754,-8586.388927,2911.162892
3102.087137,1036.288319,-7105.977043,1685.410096
3102.087465,-1110.308913,-7920.203579,306.438199
3102.087792,-2516.700203,-12509.480420,1225.752797
3102.088120,-296.082377,-12657.521608,-689.485948
3102.088448,518.144159,-11621.233289,-2528.115143
3102.088775,-888.247130,-13545.768739,-1072.533697
3102.089103,74.020594,-13989.892304,-1532.190996
3102.089431,1110.308913,-10066.800811,-4366.744339
3102.089758,-1110.308913,-9474.636058,-2451.505594
3102.090086,-1850.514855,-9474.636058,-306.438199
3102.090413,-592.164754,-5477.523971,383.047749
3102.090741,518.144159,-5329.482782,2145.067394
3102.091069,296.082377,-8068.244768,2681.334243
3102.091396,1480.411884,-7994.224174,2145.067394
3102.091724,888.247130,-8364.327145,2068.457845
3102.092052,-962.267725,-10510.924376,2528.115143
3102.092379,-592.164754,-10066.800811,0.000000
3102.092707,-296.082377,-10584.944971,-2145.067394
3102.093035,-666.185348,-13175.665768,-919.314598
3102.093362,296.082377,-13767.830521,-1685.410096
3102.093690,814.226536,-10362.883188,-3064.381992
3102.094017,-1406.391290,-9252.574275,-1149.143247
3102.094345,-1036.288319,-8808.450710,0.000000
3102.094673,1110.308913,-6217.729913,-1225.752797
3102.095000,1480.411884,-6365.771101,0.000000
3102.095328,1776.494261,-7550.100608,2911.162892
3102.095656,2590.720797,-6513.812290,1532.190996
3102.095983,1702.473667,-7402.059420,1685.410096
3102.096311,0.000000,-11621.233289,2451.505594
3102.096639,1184.329507,-11547.212695,536.266849
3102.096966,1554.432478,-11029.068536,-1532.190996
3102.097294,296.082377,-14508.036463,-1532.190996
3102.097621,888.247130,-14878.139434,-1991.848295
3102.097949,444.123565,-11029.068536,-3830.477490
3102.098277,-962.267725,-10066.800811,-2604.724693
3102.098604,-962.267725,-10658.965565,-919.314598
3102.098932,1554.432478,-7031.956449,-2145.067394
3102.099260,2368.659014,-6513.812290,-306.438199
3102.099587,1258.350101,-8808.450710,2298.286494
3102.099915,1998.556043,-7698.141797,2374.896044
3102.100243,1702.473667,-8290.306550,1608.800546
3102.100570,296.082377,-10584.944971,2068.457845
3102.100898,740.205942,-10510.924376,229.828649
3102.101225,1184.329507,-10658.965565,-1532.190996
3102.101553,740.205942,-13175.665768,0.000000
3102.101881,888.247130,-13767.830521,0.000000
3102.102208,740.205942,-9992.780217,-2068.457845
3102.102536,-1850.514855,-9400.615463,-1302.362347
3102.102864,-2072.576638,-8956.491898,-612.876398
3102.103191,-370.102971,-6069.688724,-1915.238745
3102.103519,74.020594,-6661.853478,-689.485948
3102.103847,-740.205942,-7328.038826,1532.190996
3102.104174,74.020594,-6069.688724,1302.362347
3102.104502,-592.164754,-8068.244768,1149.143247
3102.104829,-1406.391290,-11029.068536,1532.190996
3102.105157,666.185348,-10510.924376,-383.047749
3102.105485,2812.782580,-10066.800811,-2145.067394
3102.105812,1702.473667,-14137.933492,153.219100
3102.106140,518.144159,-15766.386565,1685.410096
3102.106468,-592.164754,-9770.718434,-766.095498
3102.106795,-1998.556043,-8956.491898,-3140.991542
3102.107123,-2590.720797,-10658.965565,-3217.601092
3102.107451,-740.205942,-7994.224174,-3677.258390
3102.107778,0.000000,-6069.688724,-1838.629195
3102.108106,0.000000,-7698.141797,1455.581446
3102.108433,1702.473667,-7994.224174,1225.752797
3102.108761,2072.576638,-7994.224174,1762.019645
3102.109089,666.185348,-10066.800811,2298.286494
3102.109416,1258.350101,-11325.150913,842.705048
3102.109744,1924.535449,-11621.233289,-2374.896044
3102.110072,444.123565,-13841.851115,-536.266849
3102.110399,-296.082377,-13619.789333,0.000000
3102.110727,0.000000,-10214.842000,-842.705048
3102.111055,-1702.473667,-11103.089130,0.000000
3102.111382,-1554.432478,-11547.212695,-306.438199
3102.111710,1776.494261,-8512.368333,-3677.258390
3102.112037,1480.411884,-6883.915261,-1991.848295
3102.112365,296.082377,-7402.059420,1149.143247
3102.112693,296.082377,-5773.606348,2068.457845
3102.113020,0.000000,-4589.276840,2911.162892
3102.113348,444.123565,-7328.038826,3677.258390
3102.113676,2294.638420,-8142.265362,383.047749
3102.114003,1554.432478,-8660.409521,229.828649
3102.114331,0.000000,-14434.015869,612.876398
3102.114659,-1258.350101,-15248.242405,-306.438199
3102.114986,74.020594,-10584.944971,-3907.087040
3102.115314,-1702.473667,-11473.192101,-2604.724693
3102.115641,-1998.556043,-13175.665768,-1072.533697
3102.115969,1776.494261,-8364.327145,-2528.115143
3102.116297,2294.638420,-5477.523971,-1225.752797
3102.116624,592.164754,-8068.244768,2451.505594
3102.116952,518.144159,-5847.626942,2298.286494
3102.117280,-888.247130,-3701.029710,1838.629195
3102.117607,-296.082377,-7179.997637,1149.143247
3102.117935,1924.535449,-10362.883188,-995.924147
3102.118263,1776.494261,-11103.089130,-2145.067394
3102.118590,1702.473667,-14285.974681,0.000000
3102.118918,1776.494261,-15766.386565,0.000000
3102.119245,370.102971,-12805.562797,-2834.553343
3102.119573,-1776.494261,-14063.912898,-2604.724693
3102.119901,-1554.432478,-14285.974681,-2834.553343
3102.120228,0.000000,-8734.430116,-3830.477490
3102.120556,-666.185348,-5699.585753,-1532.190996
3102.120884,0.000000,-7550.100608,2145.067394
3102.121211,222.061783,-6587.832884,2757.943793
3102.121539,-148.041188,-5255.462188,1915.238745
3102.121867,-518.144159,-8068.244768,1685.410096
3102.122194,814.226536,-9844.739029,153.219100
3102.122522,1332.370696,-8660.409521,-1225.752797
3102.122849,814.226536,-11473.192101,153.219100
3102.123177,0.000000,-13249.686362,1378.971896
3102.123505,0.000000,-11695.253884,0.000000
3102.123832,-1406.391290,-11029.068536,459.657299
3102.124160,-1850.514855,-10732.986159,-153.219100
3102.124488,74.020594,-8142.265362,-2528.115143
3102.124815,-962.267725,-7254.018232,-1072.533697
3102.125143,-1628.453072,-8216.285956,1149.143247
3102.125471,222.061783,-4885.359217,76.609550
3102.125798,0.000000,-5181.441594,536.266849
3102.126126,-1036.288319,-7772.162391,2528.115143
3102.126453,1998.556043,-8586.388927,1378.971896
3102.126781,2516.700203,-9326.594869,-995.924147
3102.127109,1702.473667,-13545.768739,0.000000
3102.127436,1776.494261,-15322.262999,229.828649
3102.127764,962.267725,-10584.944971,-689.485948
3102.128092,-962.267725,-11325.150913,-919.314598
3102.128419,-1184.329507,-12213.398043,-919.314598
3102.128747,222.061783,-9474.636058,-3294.210641
3102.129075,0.000000,-8142.265362,-1915.238745
3102.129402,518.144159,-9918.759623,842.705048
3102.129730,1776.494261,-8364.327145,229.828649
3102.130057,1554.432478,-7179.997637,-306.438199
3102.130385,814.226536,-8734.430116,766.095498
3102.130713,1702.473667,-9474.636058,459.657299
3102.131040,1702.473667,-9474.636058,0.000000
3102.131368,0.000000,-13323.706956,1149.143247
3102.131696,-666.185348,-13471.748144,-459.657299
3102.132023,-814.226536,-10362.883188,-2757.943793
3102.132351,-1628.453072,-11251.130318,-2681.334243
3102.132679,-2220.617826,-13027.624579,-383.047749
3102.133006,-666.185348,-8808.450710,-1302.362347
3102.133331,370.102971,-7772.162391,-1072.533697
3102.133658,962.267725,-9474.636058,1149.143247
3102.133986,2368.659014,-7476.080014,689.485948
3102.134313,1332.370696,-5625.565159,1608.800546
3102.134641,-296.082377,-7105.977043,3447.429741
3102.134968,1258.350101,-7105.977043,766.095498
3102.135296,2368.659014,-8364.327145,-1225.752797
3102.135623,1776.494261,-11399.171507,1149.143247
3102.135951,2590.720797,-12583.501014,1378.971896
3102.136278,1998.556043,-10881.027347,-306.438199
3102.136606,-1184.329507,-10140.821405,-229.828649
3102.136933,-3256.906145,-11251.130318,-689.485948
3102.137261,-1702.473667,-8734.430116,-3140.991542
3102.137588,-1702.473667,-7550.100608,-1915.238745
3102.137916,-814.226536,-10214.842000,459.657299
3102.138243,962.267725,-8586.388927,459.657299
3102.138571,740.205942,-7254.018232,229.828649
3102.138898,518.144159,-9104.533087,1455.581446
3102.139226,2368.659014,-9252.574275,0.000000
3102.139553,3552.988522,-9992.780217,-1838.629195
3102.139881,3256.906145,-14063.912898,-229.828649
3102.140208,2960.823768,-12583.501014,0.000000
3102.140536,1036.288319,-8216.285956,-919.314598
3102.140863,-2442.679609,-11325.150913,229.828649
3102.141191,-5181.441594,-12657.521608,689.485948
3102.141518,-2960.823768,-8586.388927,-3064.381992
3102.141846,-1554.432478,-9030.512492,-3064.381992
3102.142173,-1184.329507,-11621.233289,-842.705048
3102.142501,888.247130,-9474.636058,-536.266849
3102.142828,1258.350101,-7179.997637,1072.533697
3102.143155,0.000000,-8438.347739,3524.039291
3102.143483,444.123565,-7179.997637,1149.143247
3102.143810,1406.391290,-6439.791695,-1378.971896
3102.144138,666.185348,-10732.986159,-153.219100
3102.144465,1554.432478,-12731.542202,0.000000
3102.144793,1924.535449,-9992.780217,-995.924147
3102.145120,-1184.329507,-11029.068536,1532.190996
3102.145448,-1406.391290,-11547.212695,1455.581446
3102.145775,-222.061783,-7254.018232,-1762.019645
3102.146103,-1554.432478,-8068.244768,-612.876398
3102.146430,-888.247130,-9770.718434,1225.752797
3102.146758,1480.411884,-7772.162391,76.609550
3102.147085,370.102971,-6883.915261,1302.362347
3102.147413,-1776.494261,-8586.388927,3524.039291
3102.147740,-444.123565,-8290.306550,459.657299
3102.148068,592.164754,-8660.409521,-3294.210641
3102.148395,444.123565,-12657.521608,-2528.115143
3102.148723,962.267725,-12731.542202,-3064.381992
3102.149050,1258.350101,-9844.739029,-3140.991542
3102.149378,518.144159,-11029.068536,-306.438199
3102.149705,74.020594,-12435.459826,1762.019645
3102.150033,592.164754,-8734.430116,-306.438199
3102.150360,518.144159,-8808.450710,306.438199
3102.150688,814.226536,-10955.047942,536.266849
3102.151015,1628.453072,-8956.491898,-536.266849
3102.151343,148.041188,-7846.182985,383.047749
3102.151670,-740.205942,-10066.800811,2221.676944
3102.151998,518.144159,-10066.800811,-612.876398
3102.152325,1998.556043,-9548.656652,-3370.820191
3102.152652,1036.288319,-12583.501014,-1608.800546
3102.152980,1702.473667,-12361.439231,-995.924147
3102.153307,2072.576638,-9178.553681,-2068.457845
3102.153635,888.247130,-10214.842000,306.438199
3102.153962,0.000000,-11029.068536,2145.067394
3102.154290,518.144159,-7179.997637,1072.533697
3102.154617,-370.102971,-7254.018232,842.705048
3102.154945,-592.164754,-10584.944971,1838.629195
3102.155272,222.061783,-8364.327145,689.485948
3102.155600,74.020594,-6587.832884,383.047749
3102.155927,-740.205942,-9400.615463,2145.067394
3102.156255,814.226536,-9844.739029,689.485948
3102.156582,1702.473667,-7624.121203,-1149.143247
3102.156910,2146.597232,-11621.233289,-1225.752797
3102.157237,1554.432478,-11621.233289,0.000000
3102.157565,1480.411884,-6661.853478,-229.828649
3102.157892,-888.247130,-7994.224174,919.314598
3102.158220,-1924.535449,-11029.068536,1455.581446
3102.158547,74.020594,-8364.327145,-842.705048
3102.158875,-666.185348,-7994.224174,-1378.971896
3102.159202,-2812.782580,-11251.130318,995.924147
3102.159530,-1702.473667,-9770.718434,-612.876398
3102.159857,-1184.329507,-8142.265362,-1838.629195
3102.160185,-1702.473667,-10807.006753,0.000000
3102.160512,518.144159,-11177.109724,-612.876398
3102.160840,2664.741391,-9474.636058,-1991.848295
3102.161167,2368.659014,-12287.418637,-919.314598
3102.161495,1850.514855,-12287.418637,-536.266849
3102.161822,2368.659014,-9400.615463,-1608.800546
3102.162149,1406.391290,-10362.883188,-229.828649
3102.162477,1036.288319,-12065.356855,766.095498
3102.162804,1998.556043,-8438.347739,-842.705048
3102.163132,370.102971,-8142.265362,0.000000
3102.163459,-1480.411884,-11251.130318,2451.505594
3102.163787,-296.082377,-9696.697840,383.047749
3102.164114,-1258.350101,-7698.141797,306.438199
3102.164442,-2368.659014,-9548.656652,2068.457845
3102.164769,0.000000,-10584.944971,-153.219100
3102.165097,1480.411884,-9400.615463,-2987.772442
3102.165424,74.020594,-11029.068536,-1302.362347
3102.165752,740.205942,-10214.842000,-689.485948
3102.166079,2294.638420,-7105.977043,-1762.019645
3102.166407,2664.741391,-9770.718434,689.485948
3102.166734,1998.556043,-9992.780217,2451.505594
3102.167062,2590.720797,-5995.668130,842.705048
3102.167389,814.226536,-8142.265362,612.876398
3102.167717,-1258.350101,-11547.212695,1915.238745
3102.168044,-370.102971,-9548.656652,459.657299
3102.168372,-1258.350101,-7698.141797,0.000000
3102.168699,-1924.535449,-9992.780217,1838.629195
3102.169027,-222.061783,-10732.986159,-1072.533697
3102.169354,296.082377,-8956.491898,-2604.724693
3102.169682,-370.102971,-10807.006753,-1532.190996
3102.170009,-740.205942,-10732.986159,-1149.143247
3102.170337,0.000000,-7031.956449,-2528.115143
3102.170664,296.082377,-8512.368333,-1455.581446
3102.170992,1332.370696,-9992.780217,0.000000
3102.171319,2738.761985,-8660.409521,0.000000
3102.171646,2220.617826,-9326.594869,1915.238745
3102.171974,1332.370696,-12139.377449,2374.896044
3102.172301,1406.391290,-10881.027347,-229.828649
3102.172629,-370.102971,-9252.574275,-1225.752797
3102.172956,-2442.679609,-11547.212695,842.705048
3102.173284,-962.267725,-11621.233289,0.000000
3102.173611,74.020594,-9844.739029,-1991.848295
3102.173939,-888.247130,-11325.150913,-1378.971896
3102.174266,-888.247130,-11103.089130,-1532.190996
3102.174594,222.061783,-8586.388927,-2604.724693
3102.174921,0.000000,-9030.512492,-1455.581446
3102.175249,-296.082377,-9104.533087,995.924147
3102.175576,1406.391290,-5699.585753,842.705048
3102.175904,1406.391290,-6661.853478,1838.629195
3102.176231,518.144159,-10436.903782,3140.991542
3102.176559,814.226536,-9030.512492,2451.505594
3102.176886,296.082377,-8660.409521,1149.143247
3102.177214,-1554.432478,-11843.295072,1608.800546
3102.177541,-888.247130,-11621.233289,-995.924147
3102.177869,0.000000,-10066.800811,-3294.210641
3102.178196,-1332.370696,-11399.171507,-1608.800546
3102.178524,-592.164754,-10955.047942,-1455.581446
3102.178851,1258.350101,-7254.018232,-2834.553343
3102.179179,888.247130,-7994.224174,-766.095498
3102.179506,666.185348,-8660.409521,1915.238745
3102.179834,1924.535449,-5921.647536,689.485948
3102.180161,1628.453072,-6661.853478,919.314598
3102.180489,370.102971,-10066.800811,2911.162892
3102.180816,888.247130,-9992.780217,842.705048
3102.181143,370.102971,-9178.553681,-306.438199
3102.181471,-1184.329507,-12731.542202,459.657299
3102.181798,-296.082377,-13693.809927,-1225.752797
3102.182126,296.082377,-12139.377449,-3370.820191
3102.182453,296.082377,-13471.748144,-1762.019645
3102.182781,666.185348,-13175.665768,-1762.019645
3102.183108,1776.494261,-8216.285956,-3140.991542
3102.183436,1406.391290,-8068.244768,-1072.533697
3102.183763,962.267725,-9030.512492,1532.190996
3102.184091,1628.453072,-5403.503377,1302.362347
3102.184418,888.247130,-5847.626942,1762.019645
3102.184746,0.000000,-10140.821405,2298.286494
3102.185073,1480.411884,-10140.821405,536.266849
3102.185401,296.082377,-9400.615463,229.828649
3102.185728,-2294.638420,-12139.377449,766.095498
3102.186056,-1702.473667,-13323.706956,-536.266849
3102.186383,0.000000,-11473.192101,-2834.553343
3102.186711,74.020594,-12361.439231,-2451.505594
3102.187038,-518.144159,-11991.336260,-1149.143247
3102.187366,444.123565,-7402.059420,-1991.848295
3102.187693,0.000000,-6735.874072,-995.924147
3102.188021,-444.123565,-7476.080014,612.876398
3102.188348,666.185348,-5107.421000,995.924147
3102.188676,1924.535449,-5477.523971,1532.190996
3102.189003,2220.617826,-9104.533087,2451.505594
3102.189331,1628.453072,-9326.594869,2298.286494
3102.189658,222.061783,-8882.471304,919.314598
3102.189986,-1480.411884,-12213.398043,1072.533697
3102.190313,-1036.288319,-13249.686362,0.000000
3102.190640,-370.102971,-11843.295072,-2145.067394
3102.190968,-1406.391290,-13397.727550,-1378.971896
3102.191295,-1110.308913,-12953.603985,-2681.334243
3102.191623,148.041188,-9622.677246,-2834.553343
3102.191950,0.000000,-9252.574275,-3064.381992
3102.192278,-814.226536,-7772.162391,-229.828649
3102.192605,1554.432478,-5477.523971,-536.266849
3102.192933,3404.947333,-6365.771101,689.485948
3102.193260,3552.988522,-9474.636058,3294.210641
3102.193588,3034.844362,-8142.265362,2987.772442
3102.193915,1332.370696,-7624.121203,1302.362347
3102.194243,-2442.679609,-12065.356855,1455.581446
3102.194570,-1036.288319,-13397.727550,-766.095498
3102.194898,-370.102971,-12361.439231,-3217.601092
3102.195225,-962.267725,-13989.892304,-2451.505594
3102.195553,-666.185348,-13619.789333,-1991.848295
3102.195880,0.000000,-9474.636058,-2911.162892
3102.196208,-962.267725,-7994.224174,-1225.752797
3102.196535,-1258.350101,-7624.121203,459.657299
3102.196863,-740.205942,-3552.988522,0.000000
3102.197190,592.164754,-3997.112087,229.828649
3102.197518,1776.494261,-8068.244768,2451.505594
3102.197845,2960.823768,-7920.203579,3140.991542
3102.198173,1628.453072,-8068.244768,3600.648841
3102.198500,666.185348,-11695.253884,3064.381992
3102.198828,222.061783,-12953.603985,0.000000
3102.199155,222.061783,-12583.501014,-3140.991542
3102.199483,-1036.288319,-14063.912898,-2528.115143
3102.199810,-888.247130,-13841.851115,-2145.067394
3102.200137,-666.185348,-8956.491898,-2987.772442
3102.200465,-1850.514855,-8068.244768,-1762.019645
3102.200792,-1554.432478,-9326.594869,-689.485948
3102.201120,370.102971,-6439.791695,-919.314598
3102.201447,1332.370696,-5551.544565,-766.095498
3102.201775,1036.288319,-7328.038826,1991.848295
3102.202102,1998.556043,-6957.935855,1762.019645
3102.202430,1998.556043,-7624.121203,1685.410096
3102.202757,0.000000,-11325.150913,2604.724693
3102.203085,740.205942,-12509.480420,1302.362347
3102.203412,1924.535449,-13619.789333,-2604.724693
3102.203740,222.061783,-15692.365970,-2451.505594
3102.204067,-1036.288319,-14582.057057,-2221.676944
3102.204395,-370.102971,-9770.718434,-3600.648841
3102.204722,-1554.432478,-10214.842000,-2451.505594
3102.205050,-962.267725,-9400.615463,-689.485948
3102.205377,1406.391290,-4737.318029,-766.095498
3102.205705,2220.617826,-5329.482782,919.314598
3102.206032,1776.494261,-7402.059420,3370.820191
3102.206360,1924.535449,-6069.688724,2834.553343
3102.206687,1184.329507,-6587.832884,1608.800546
3102.207015,-740.205942,-10436.903782,2451.505594
3102.207342,1406.391290,-12657.521608,-459.657299
3102.207670,2072.576638,-11695.253884,-2834.553343
3102.207997,74.020594,-13915.871710,-612.876398
3102.208325,-740.205942,-14508.036463,-995.924147
3102.208652,-814.226536,-10214.842000,-2528.115143
3102.208980,-1702.473667,-9992.780217,-1532.190996
3102.209307,-962.267725,-9178.553681,-306.438199
3102.209634,1332.370696,-4663.297435,-1302.362347
3102.209962,1258.350101,-4959.379811,919.314598
3102.210289,74.020594,-7179.997637,3217.601092
3102.210617,1184.329507,-6069.688724,2911.162892
3102.210944,444.123565,-6883.915261,1455.581446
3102.211272,-666.185348,-10658.965565,1149.143247
3102.211599,444.123565,-12213.398043,-919.314598
3102.211927,1628.453072,-12731.542202,-3140.991542
3102.212254,-592.164754,-15840.407159,-1225.752797
3102.212582,-1036.288319,-15174.221811,-766.095498
3102.212909,0.000000,-10658.965565,-2681.334243
3102.213237,-814.226536,-10584.944971,-1915.238745
3102.213564,-1332.370696,-10510.924376,-919.314598
3102.213892,74.020594,-5625.565159,-2068.457845
3102.214219,740.205942,-4515.256246,-766.095498
3102.214547,592.164754,-7031.956449,1149.143247
3102.214874,1332.370696,-7698.141797,1685.410096
3102.215202,1924.535449,-7476.080014,2068.457845
3102.215529,1924.535449,-10732.986159,2068.457845
3102.215857,2442.679609,-13471.748144,0.000000
3102.216184,2368.659014,-12435.459826,-2068.457845
3102.216512,-222.061783,-13841.851115,-536.266849
3102.216839,-962.267725,-13989.892304,766.095498
3102.217167,-666.185348,-9918.759623,-1149.143247
3102.217494,-2590.720797,-9844.739029,-383.047749
3102.217822,-3256.906145,-8660.409521,0.000000
3102.218149,-444.123565,-5699.585753,-2451.505594
3102.218477,0.000000,-5847.626942,-1685.410096
3102.218804,0.000000,-7550.100608,1762.019645
3102.219131,2220.617826,-6513.812290,1915.238745
3102.219459,3552.988522,-5773.606348,2068.457845
3102.219786,2664.741391,-9844.739029,3524.039291
3102.220114,3034.844362,-10436.903782,2221.676944
3102.220441,3627.009116,-10881.027347,0.000000
3102.220769,0.000000,-15026.180623,383.047749
3102.221096,-1776.494261,-15100.201217,-306.438199
3102.221424,-814.226536,-9696.697840,-2911.162892
3102.221751,-3330.926739,-9844.739029,-1762.019645
3102.222079,-3552.988522,-10955.047942,-1838.629195
3102.222406,-740.205942,-6883.915261,-3447.429741
3102.222734,0.000000,-6957.935855,-2681.334243
3102.223061,-444.123565,-7994.224174,995.924147
3102.223389,1332.370696,-6513.812290,1455.581446
3102.223716,2072.576638,-5551.544565,459.657299
3102.224044,962.267725,-10066.800811,2068.457845
3102.224371,3182.885551,-12213.398043,229.828649
3102.224699,4071.132681,-12361.439231,-1378.971896
3102.225026,2886.803174,-16728.654289,0.000000
3102.225354,1036.288319,-15692.365970,0.000000
3102.225681,-888.247130,-10214.842000,-2911.162892
3102.226009,-3552.988522,-11103.089130,-2987.772442
3102.226336,-3627.009116,-11769.274478,-1915.238745
3102.226664,-1998.556043,-6143.709319,-3370.820191
3102.226991,-962.267725,-5403.503377,-1608.800546
3102.227319,296.082377,-8734.430116,2068.457845
3102.227646,2886.803174,-7402.059420,2451.505594
3102.227974,2294.638420,-5329.482782,2528.115143
3102.228301,666.185348,-8882.471304,2221.676944
3102.228628,1998.556043,-8734.430116,689.485948
3102.228956,4071.132681,-9548.656652,-1225.752797
3102.229283,888.247130,-15026.180623,1072.533697
3102.229611,888.247130,-14804.118840,1608.800546
3102.229938,888.247130,-9992.780217,-1149.143247
3102.230266,-3182.885551,-10066.800811,76.609550
3102.230593,-3701.029710,-11621.233289,306.438199
3102.230921,-1702.473667,-5551.544565,-3064.381992
3102.231248,-1702.473667,-4441.235652,-2221.676944
3102.231576,0.000000,-8512.368333,612.876398
3102.231904,2442.679609,-6513.812290,1838.629195
3102.232231,2886.803174,-4737.318029,2221.676944
3102.232559,1776.494261,-9030.512492,4290.134789
3102.232886,2368.659014,-11325.150913,842.705048
3102.233214,2664.741391,-11251.130318,-2681.334243
3102.233541,1036.288319,-14952.160028,-1302.362347
3102.233869,518.144159,-14434.015869,-1225.752797
3102.234197,148.041188,-11399.171507,-2298.286494
3102.234524,-1480.411884,-12879.583391,-306.438199
3102.234852,-1776.494261,-12583.501014,0.000000
3102.235179,-888.247130,-7328.038826,-2068.457845
3102.235507,-740.205942,-6809.894666,-995.924147
3102.235834,74.020594,-8364.327145,383.047749
3102.236162,1628.453072,-6439.791695,229.828649
3102.236490,1036.288319,-5625.565159,766.095498
3102.236817,-296.082377,-8586.388927,2068.457845
3102.237145,1036.288319,-10140.821405,919.314598
3102.237472,2442.679609,-11177.109724,-1532.190996
3102.237800,1850.514855,-16136.489536,-995.924147
3102.238127,888.247130,-15100.201217,-1072.533697
3102.238455,1998.556043,-11399.171507,-2145.067394
3102.238783,-888.247130,-12139.377449,76.609550
3102.239110,-3182.885551,-11695.253884,2528.115143
3102.239438,-2886.803174,-5477.523971,612.876398
3102.239765,-1998.556043,-4663.297435,-995.924147
3102.240093,-2664.741391,-6883.915261,0.000000
3102.240420,-666.185348,-5403.503377,0.000000
3102.240748,-296.082377,-3701.029710,229.828649
3102.241076,74.020594,-7402.059420,1915.238745
3102.241403,2368.659014,-10288.862594,536.266849
3102.241731,3775.050304,-11325.150913,-842.705048
3102.242058,3182.885551,-14359.995275,995.924147
3102.242386,3182.885551,-15026.180623,-229.828649
3102.242713,2590.720797,-12213.398043,-1838.629195
3102.243041,-1110.308913,-11843.295072,76.609550
3102.243369,-2812.782580,-10584.944971,842.705048
3102.243696,-2146.597232,-6365.771101,-1838.629195
3102.244024,-2738.761985,-6217.729913,-1302.362347
3102.244351,-2738.761985,-8438.347739,-153.219100
3102.244679,0.000000,-6291.750507,-689.485948
3102.245006,518.144159,-5773.606348,-1532.190996
3102.245334,148.041188,-9770.718434,612.876398
3102.245662,2738.761985,-10214.842000,-153.219100
3102.245989,5699.585753,-10732.986159,-1532.190996
3102.246317,5107.421000,-15100.201217,153.219100
3102.246644,4737.318029,-14952.160028,1225.752797
3102.246972,4441.235652,-10955.047942,76.609550
3102.247300,74.020594,-12065.356855,536.266849
3102.247627,-3552.988522,-11917.315666,229.828649
3102.247955,-3182.885551,-7550.100608,-2604.724693
3102.248282,-3182.885551,-7920.203579,-2604.724693
3102.248610,-2664.741391,-9474.636058,-459.657299
3102.248937,-370.102971,-6587.832884,-1378.971896
3102.249265,-148.041188,-5033.400406,0.000000
3102.249593,-666.185348,-8364.327145,2681.334243
3102.249920,2072.576638,-8142.265362,1378.971896
3102.250248,3108.864956,-8364.327145,-766.095498
3102.250575,2886.803174,-12657.521608,995.924147
3102.250903,2886.803174,-13101.645173,766.095498
3102.251230,2960.823768,-11103.089130,0.000000
3102.251558,74.020594,-12879.583391,1378.971896
3102.251886,-1702.473667,-11843.295072,1685.410096
3102.252213,-1702.473667,-8068.244768,-2221.676944
3102.252541,-2812.782580,-8438.347739,-2451.505594
3102.252868,-3478.967927,-9844.739029,-766.095498
3102.253196,-1776.494261,-5995.668130,-1532.190996
3102.253523,-962.267725,-3923.091493,0.000000
3102.253851,-370.102971,-7994.224174,3140.991542
3102.254179,2442.679609,-9696.697840,2068.457845
3102.254506,3404.947333,-9770.718434,-153.219100
3102.254834,2368.659014,-12731.542202,-766.095498
3102.255161,2368.659014,-13027.624579,-1991.848295
3102.255489,2220.617826,-10658.965565,-2911.162892
3102.255816,-1332.370696,-12361.439231,-459.657299
3102.256144,-2072.576638,-12583.501014,766.095498
3102.256472,-740.205942,-8586.388927,-2604.724693
3102.256799,-2146.597232,-9770.718434,-1685.410096
3102.257127,-2146.597232,-10807.006753,459.657299
3102.257454,0.000000,-7105.977043,-612.876398
3102.257782,-814.226536,-5995.668130,0.000000
3102.258109,-888.247130,-7846.182985,2221.676944
3102.258437,2442.679609,-9178.553681,689.485948
3102.258765,4145.153275,-9400.615463,-1149.143247
3102.259092,2146.597232,-11621.233289,383.047749
3102.259420,2368.659014,-12509.480420,306.438199
3102.259747,2220.617826,-10881.027347,-1685.410096
3102.260075,-962.267725,-11843.295072,-995.924147
3102.260402,-1406.391290,-11621.233289,0.000000
3102.260730,-740.205942,-7772.162391,-1762.019645
3102.261058,-962.267725,-8660.409521,459.657299
3102.261385,-1110.308913,-10436.903782,2145.067394
3102.261713,-296.082377,-6883.915261,1225.752797
3102.262040,-962.267725,-5477.523971,1991.848295
3102.262368,-592.164754,-7994.224174,1838.629195
3102.262696,1184.329507,-8068.244768,0.000000
3102.263023,2812.782580,-7698.141797,-1532.190996
3102.263351,2368.659014,-10955.047942,0.000000
3102.263678,1628.453072,-12509.480420,306.438199
3102.264006,1036.288319,-9992.780217,-1072.533697
3102.264333,-740.205942,-11399.171507,-995.924147
3102.264661,-1776.494261,-11547.212695,-842.705048
3102.264989,1036.288319,-9548.656652,-2528.115143
3102.265316,1184.329507,-10584.944971,-1072.533697
3102.265644,-814.226536,-11547.212695,2987.772442
3102.265971,-888.247130,-7476.080014,1991.848295
3102.266299,-1258.350101,-6883.915261,229.828649
3102.266626,-2146.597232,-9104.533087,-536.266849
3102.266954,-1184.329507,-9104.533087,-2145.067394
3102.267282,666.185348,-7550.100608,-3983.696590
3102.267609,2294.638420,-11621.233289,-3600.648841
3102.267937,2590.720797,-13545.768739,-2528.115143
3102.268264,3775.050304,-11399.171507,-383.047749
3102.268592,2590.720797,-12213.398043,1838.629195
3102.268919,1332.370696,-12657.521608,2068.457845
3102.269247,1036.288319,-8956.491898,-1225.752797
3102.269575,222.061783,-8290.306550,-995.924147
3102.269902,-1554.432478,-9918.759623,1149.143247
3102.270230,-666.185348,-6291.750507,1991.848295
3102.270557,-1554.432478,-5403.503377,1762.019645
3102.270885,-2146.597232,-8956.491898,2221.676944
3102.271212,-222.061783,-9770.718434,-766.095498
3102.271540,1332.370696,-9030.512492,-3370.820191
3102.271868,1036.288319,-11251.130318,-2987.772442
3102.272195,1110.308913,-11917.315666,-2221.676944
3102.272523,2368.659014,-8956.491898,-1532.190996
3102.272850,1406.391290,-9400.615463,1072.533697
3102.273178,1480.411884,-11177.109724,3524.039291
3102.273505,2072.576638,-7254.018232,1685.410096
3102.273833,148.041188,-7846.182985,842.705048
3102.274161,-2442.679609,-10807.006753,1149.143247
3102.274488,-1776.494261,-8290.306550,229.828649
3102.274816,-1184.329507,-7624.121203,-842.705048
3102.275143,-1850.514855,-10807.006753,459.657299
3102.275471,74.020594,-10658.965565,-459.657299
3102.275798,1998.556043,-9474.636058,-2528.115143
3102.276126,1480.411884,-11695.253884,-1762.019645
3102.276454,0.000000,-11325.150913,-842.705048
3102.276781,370.102971,-7698.141797,-2834.553343
3102.277109,222.061783,-9252.574275,-1149.143247
3102.277436,74.020594,-11251.130318,383.047749
3102.277764,1184.329507,-8956.491898,153.219100
3102.278092,740.205942,-9252.574275,842.705048
3102.278419,0.000000,-12065.356855,1762.019645
3102.278747,148.041188,-9178.553681,-229.828649
3102.279074,-740.205942,-9400.615463,-536.266849
3102.279402,-1184.329507,-11547.212695,1072.533697
3102.279729,296.082377,-9622.677246,-766.095498
3102.280057,1480.411884,-9326.594869,-2757.943793
3102.280385,740.205942,-11621.233289,-766.095498
3102.280712,666.185348,-11399.171507,-689.485948
3102.281040,1184.329507,-7698.141797,-1685.410096
3102.281367,370.102971,-9844.739029,-995.924147
3102.281695,-888.247130,-10362.883188,229.828649
3102.282022,518.144159,-6883.915261,-689.485948
3102.282350,74.020594,-6809.894666,153.219100
3102.282678,-666.185348,-10436.903782,2528.115143
3102.283005,-222.061783,-9252.574275,1838.629195
3102.283333,0.000000,-9400.615463,1378.971896
3102.283660,-740.205942,-11399.171507,2528.115143
3102.283988,1110.308913,-10214.842000,0.000000
3102.284315,888.247130,-8438.347739,-1532.190996
3102.284643,0.000000,-11177.109724,-536.266849
3102.284971,296.082377,-10658.965565,-1762.019645
3102.285298,1776.494261,-7846.182985,-3907.087040
3102.285626,296.082377,-9400.615463,-1608.800546
3102.285953,0.000000,-10066.800811,229.828649
3102.286281,1406.391290,-7105.977043,0.000000
3102.286608,1184.329507,-7698.141797,153.219100
3102.286936,0.000000,-11029.068536,1455.581446
3102.287264,296.082377,-9400.615463,1149.143247
3102.287591,148.041188,-8882.471304,1225.752797
3102.287919,0.000000,-11843.295072,2068.457845
3102.288246,1036.288319,-11621.233289,76.609550
3102.288574,740.205942,-10362.883188,-1915.238745
3102.288901,592.164754,-12879.583391,-2068.457845
3102.289229,888.247130,-12805.562797,-2911.162892
3102.289557,888.247130,-8956.491898,-3907.087040
3102.289884,370.102971,-9030.512492,-2221.676944
3102.290212,222.061783,-10732.986159,536.266849
3102.290539,-222.061783,-7031.956449,689.485948
3102.290867,-814.226536,-7846.182985,459.657299
3102.291195,-1702.473667,-9474.636058,1608.800546
3102.291522,518.144159,-8512.368333,0.000000
3102.291850,1258.350101,-9770.718434,919.314598
3102.292177,370.102971,-12583.501014,3524.039291
3102.292505,888.247130,-10807.006753,2451.505594
3102.292832,1702.473667,-9548.656652,-1532.190996
3102.293160,-592.164754,-13249.686362,-1915.238745
3102.293488,-2220.617826,-11473.192101,-2298.286494
3102.293815,-518.144159,-7105.977043,-4673.182538
3102.294143,-1184.329507,-8068.244768,-3217.601092
3102.294470,-1184.329507,-8956.491898,-229.828649
3102.294798,1406.391290,-5699.585753,842.705048
3102.295125,1850.514855,-7031.956449,2987.772442
3102.295453,1850.514855,-9844.739029,4519.963438
3102.295781,2220.617826,-8586.388927,1149.143247
3102.296108,814.226536,-8142.265362,153.219100
3102.296436,-740.205942,-11103.089130,1762.019645
3102.296763,666.185348,-11399.171507,1302.362347
3102.297091,1480.411884,-10584.944971,0.000000
3102.297418,740.205942,-13767.830521,0.000000
3102.297746,666.185348,-13249.686362,-2911.162892
3102.298074,740.205942,-9696.697840,-5898.935335
3102.298401,-814.226536,-10214.842000,-3753.867940
3102.298729,-518.144159,-9696.697840,-1685.410096
3102.299056,1110.308913,-5477.523971,-1072.533697
3102.299384,1850.514855,-5995.668130,1455.581446
3102.299711,1628.453072,-8586.388927,4213.525239
3102.300039,2072.576638,-7994.224174,2374.896044
3102.300367,1258.350101,-7698.141797,1378.971896
3102.300694,-444.123565,-11991.336260,1532.190996
3102.301022,0.000000,-13619.789333,-459.657299
3102.301349,1184.329507,-13175.665768,-2374.896044
3102.301677,666.185348,-13841.851115,-1915.238745
3102.302004,888.247130,-12805.562797,-2757.943793
3102.302332,1036.288319,-9770.718434,-3524.039291
3102.302660,-1554.432478,-9918.759623,-1532.190996
3102.302987,-1628.453072,-7994.224174,0.000000
3102.303315,-518.144159,-3775.050304,-689.485948
3102.303642,-1628.453072,-4737.318029,919.314598
3102.303970,-1554.432478,-7920.203579,3064.381992
3102.304297,666.185348,-6957.935855,1685.410096
3102.304625,296.082377,-7179.997637,1378.971896
3102.304953,148.041188,-12435.459826,3064.381992
3102.305280,2220.617826,-13915.871710,1149.143247
3102.305608,2960.823768,-12361.439231,-1302.362347
3102.305935,1184.329507,-14285.974681,-612.876398
3102.306263,444.123565,-13101.645173,-1072.533697
3102.306591,-518.144159,-8586.388927,-3677.258390
3102.306918,-2072.576638,-8586.388927,-2298.286494
3102.307246,-2146.597232,-7846.182985,-919.314598
3102.307573,0.000000,-5699.585753,-1149.143247
3102.307901,-370.102971,-6883.915261,766.095498
3102.308228,-962.267725,-8956.491898,2145.067394
3102.308556,888.247130,-6217.729913,229.828649
3102.308884,592.164754,-7105.977043,-229.828649
3102.309211,0.000000,-12213.398043,2298.286494
3102.309539,1776.494261,-12509.480420,1608.800546
3102.309866,3256.906145,-12213.398043,-689.485948
3102.310194,1332.370696,-15100.201217,-383.047749
3102.310521,814.226536,-14804.118840,-1455.581446
3102.310849,-222.061783,-9252.574275,-2604.724693
3102.311177,-2442.679609,-9252.574275,-2374.896044
3102.311504,-1850.514855,-9918.759623,-1915.238745
3102.311832,370.102971,-7105.977043,-2834.553343
3102.312159,296.082377,-5921.647536,-536.266849
3102.312487,370.102971,-8956.491898,2987.772442
3102.312814,1110.308913,-7698.141797,2757.943793
3102.313142,296.082377,-7105.977043,2145.067394
3102.313470,-148.041188,-9918.759623,2298.286494
3102.313797,2590.720797,-10732.986159,229.828649
3102.314125,3330.926739,-11399.171507,-1149.143247
3102.314452,1036.288319,-13841.851115,1762.019645
3102.314780,592.164754,-13175.665768,383.047749
3102.315107,148.041188,-9918.759623,-3294.210641
3102.315435,-2220.617826,-10140.821405,-2987.772442
3102.315763,-2664.741391,-8956.491898,-1838.629195
3102.316090,370.102971,-7179.997637,-2911.162892
3102.316418,518.144159,-7698.141797,-842.705048
3102.316745,444.123565,-9030.512492,2221.676944
3102.317073,740.205942,-5107.421000,2374.896044
3102.317400,0.000000,-5551.544565,2987.772442
3102.317728,-1554.432478,-9844.739029,3217.601092
3102.318056,518.144159,-11325.150913,0.000000
3102.318383,2368.659014,-11029.068536,-2451.505594
3102.318711,2294.638420,-14434.015869,-689.485948
3102.319038,2146.597232,-14656.077652,0.000000
3102.319366,74.020594,-11325.150913,-1149.143247
3102.319693,-1850.514855,-11843.295072,-1378.971896
3102.320021,-888.247130,-11029.068536,-2987.772442
3102.320349,-814.226536,-7550.100608,-4903.011187
3102.320676,-1332.370696,-6883.915261,-1915.238745
3102.321004,-1110.308913,-6883.915261,1455.581446
3102.321331,518.144159,-5329.482782,1762.019645
3102.321659,1258.350101,-6439.791695,2528.115143
3102.321987,1406.391290,-10955.047942,3524.039291
3102.322314,2960.823768,-10510.924376,1762.019645
3102.322642,3701.029710,-11621.233289,-383.047749
3102.322969,2590.720797,-15322.262999,-766.095498
3102.323297,814.226536,-12953.603985,-536.266849
3102.323624,0.000000,-9474.636058,-1991.848295
3102.323952,-1554.432478,-10807.006753,-612.876398
3102.324280,-1702.473667,-10066.800811,-995.924147
3102.324607,296.082377,-6143.709319,-2911.162892
3102.324935,-888.247130,-6735.874072,-1762.019645
3102.325262,-962.267725,-8808.450710,689.485948
3102.325590,0.000000,-5625.565159,1072.533697
3102.325917,222.061783,-5329.482782,1225.752797
3102.326245,592.164754,-9474.636058,2681.334243
3102.326573,2960.823768,-9844.739029,766.095498
3102.326900,4589.276840,-9844.739029,459.657299
3102.327228,3330.926739,-13693.809927,2528.115143
3102.327555,1924.535449,-13767.830521,1685.410096
3102.327883,0.000000,-11399.171507,-1225.752797
3102.328210,-1924.535449,-11991.336260,-2374.896044
3102.328538,-1850.514855,-9844.739029,-4136.915689
3102.328866,-592.164754,-7031.956449,-4673.182538
3102.329193,-962.267725,-8290.306550,-1149.143247
3102.329521,-518.144159,-8882.471304,1762.019645
3102.329848,74.020594,-5033.400406,1455.581446
3102.330176,-740.205942,-5477.523971,842.705048
3102.330503,-1110.308913,-9400.615463,1685.410096
3102.330831,1184.329507,-9326.594869,-842.705048
3102.331159,2886.803174,-10436.903782,-1608.800546
3102.331486,2812.782580,-15026.180623,612.876398
3102.331814,2590.720797,-15914.427753,1838.629195
3102.332141,1998.556043,-11695.253884,0.000000
3102.332469,-592.164754,-12361.439231,-306.438199
3102.332796,-1332.370696,-12065.356855,-2451.505594
3102.333124,-1554.432478,-7994.224174,-4213.525239
3102.333452,-2516.700203,-7179.997637,-2374.896044
3102.333779,-2294.638420,-7402.059420,689.485948
3102.334107,-740.205942,-5403.503377,1685.410096
3102.334435,-518.144159,-6069.688724,2987.772442
3102.334762,-1110.308913,-10362.883188,3140.991542
3102.335090,1406.391290,-9104.533087,-306.438199
3102.335418,2886.803174,-8882.471304,-1762.019645
3102.335745,1776.494261,-13841.851115,229.828649
3102.336073,2072.576638,-14211.954086,1762.019645
3102.336400,1702.473667,-10140.821405,1608.800546
3102.336728,-814.226536,-9474.636058,612.876398
3102.337056,-1776.494261,-11621.233289,-1225.752797
3102.337383,-1406.391290,-9326.594869,-3600.648841
3102.337711,-2146.597232,-6883.915261,-1991.848295
3102.338039,-1998.556043,-7698.141797,-383.047749
3102.338366,-370.102971,-6661.853478,-153.219100
3102.338694,-814.226536,-6513.812290,919.314598
3102.339022,0.000000,-8808.450710,2528.115143
3102.339349,1184.329507,-7846.182985,1072.533697
3102.339677,2368.659014,-9696.697840,-536.266849
3102.340004,2368.659014,-14434.015869,229.828649
3102.340332,1850.514855,-13471.748144,76.609550
3102.340660,740.205942,-10214.842000,-229.828649
3102.340987,-592.164754,-11399.171507,-1378.971896
3102.341315,-1924.535449,-11621.233289,-2298.286494
3102.341643,-814.226536,-8660.409521,-4060.306139
3102.341970,-518.144159,-9252.574275,-2911.162892
3102.342298,-370.102971,-9844.739029,-306.438199
3102.342626,1332.370696,-7105.977043,383.047749
3102.342953,1850.514855,-7105.977043,1455.581446
3102.343281,1776.494261,-9844.739029,1838.629195
3102.343608,2294.638420,-7920.203579,1225.752797
3102.343936,3404.947333,-8882.471304,-1225.752797
3102.344264,1628.453072,-13693.809927,153.219100
3102.344591,888.247130,-13249.686362,153.219100
3102.344919,1036.288319,-9104.533087,-1685.410096
3102.345247,148.041188,-11325.150913,0.000000
3102.345574,74.020594,-12435.459826,306.438199
3102.345902,1036.288319,-8068.244768,-612.876398
3102.346230,74.020594,-8512.368333,-306.438199
3102.346557,-518.144159,-9474.636058,383.047749
3102.346885,-444.123565,-6735.874072,-229.828649
3102.347212,-888.247130,-5181.441594,229.828649
3102.347540,-1258.350101,-6883.915261,1991.848295
3102.347868,222.061783,-7624.121203,459.657299
3102.348195,1628.453072,-7328.038826,-842.705048
3102.348523,1850.514855,-13471.748144,612.876398
3102.348851,2368.659014,-14359.995275,612.876398
3102.349178,2442.679609,-11177.109724,-995.924147
3102.349506,-592.164754,-11843.295072,0.000000
3102.349834,-1924.535449,-10732.986159,229.828649
3102.350161,-296.082377,-8660.409521,-1991.848295
3102.350489,-1258.350101,-9252.574275,0.000000
3102.350816,-1036.288319,-9918.759623,1608.800546
3102.351144,-296.082377,-6957.935855,229.828649
3102.351472,-666.185348,-7105.977043,-229.828649
3102.351799,-1702.473667,-9474.636058,306.438199
3102.352127,0.000000,-9400.615463,-2068.457845
3102.352455,1406.391290,-8734.430116,-2451.505594
3102.352782,2146.597232,-12879.583391,-919.314598
3102.353110,2442.679609,-12583.501014,0.000000
3102.353438,2590.720797,-9474.636058,766.095498
3102.353765,1036.288319,-10658.965565,2451.505594
3102.354093,-148.041188,-11991.336260,1225.752797
3102.354420,-1258.350101,-9326.594869,-1455.581446
3102.354748,-1110.308913,-9474.636058,-1915.238745
3102.355076,-296.082377,-10362.883188,-995.924147
3102.355403,148.041188,-8364.327145,-76.609550
3102.355731,-1184.329507,-7476.080014,995.924147
3102.356059,-962.267725,-9326.594869,1302.362347
3102.356386,222.061783,-7772.162391,-612.876398
3102.356714,296.082377,-6957.935855,-1838.629195
3102.357042,-740.205942,-11473.192101,-153.219100
3102.357369,-222.061783,-10807.006753,-1225.752797
3102.357697,1554.432478,-8660.409521,-1072.533697
3102.358024,962.267725,-11103.089130,1149.143247
3102.358352,296.082377,-11325.150913,2145.067394
3102.358680,1554.432478,-9326.594869,689.485948
3102.359007,1628.453072,-10140.821405,0.000000
3102.359335,74.020594,-11251.130318,0.000000
3102.359663,-666.185348,-7698.141797,-995.924147
3102.359990,-1110.308913,-6365.771101,-1225.752797
3102.360318,-2146.597232,-9178.553681,995.924147
3102.360646,-740.205942,-9844.739029,76.609550
3102.360973,1924.535449,-8956.491898,-2528.115143
3102.361301,1110.308913,-12509.480420,-995.924147
3102.361628,1850.514855,-11621.233289,-1378.971896
3102.361956,1850.514855,-9030.512492,-1532.190996
3102.362284,444.123565,-10658.965565,459.657299
3102.362611,0.000000,-10140.821405,383.047749
3102.362939,222.061783,-9178.553681,-612.876398
3102.363267,0.000000,-9622.677246,842.705048
3102.363594,-370.102971,-10881.027347,2145.067394
3102.363922,1628.453072,-9326.594869,-229.828649
3102.364249,1184.329507,-9918.759623,-383.047749
3102.364577,148.041188,-11695.253884,306.438199
3102.364905,1702.473667,-9030.512492,-1455.581446
3102.365232,2072.576638,-7624.121203,-2374.896044
3102.365560,888.247130,-11695.253884,0.000000
3102.365888,666.185348,-10214.842000,306.438199
3102.366215,1554.432478,-7179.997637,153.219100
3102.366543,1110.308913,-9326.594869,995.924147
3102.366871,888.247130,-10658.965565,1225.752797
3102.367198,592.164754,-8512.368333,0.000000
3102.367526,-740.205942,-9104.533087,76.609550
3102.367853,-1184.329507,-10807.006753,229.828649
3102.368181,-370.102971,-8808.450710,-689.485948
3102.368509,-1850.514855,-8660.409521,76.609550
3102.368836,-666.185348,-11103.089130,1685.410096
3102.369164,1998.556043,-9622.677246,-153.219100
3102.369492,2960.823768,-9918.759623,-1378.971896
3102.369819,222.061783,-12213.398043,306.438199
3102.370147,-740.205942,-9918.759623,-995.924147
3102.370475,518.144159,-6143.709319,-2834.553343
3102.370802,-592.164754,-9770.718434,-383.047749
3102.371130,-962.267725,-10732.986159,919.314598
3102.371457,148.041188,-7846.182985,229.828649
3102.371785,1628.453072,-10140.821405,1072.533697
3102.372113,0.000000,-12509.480420,1838.629195
3102.372440,-1258.350101,-10066.800811,995.924147
3102.372768,-2886.803174,-9252.574275,0.000000
3102.373096,-3330.926739,-10881.027347,-995.924147
3102.373423,-592.164754,-9178.553681,-3217.601092
3102.373751,1036.288319,-8512.368333,-3447.429741
3102.374079,-296.082377,-12065.356855,0.000000
3102.374406,962.267725,-11103.089130,459.657299
3102.374734,1924.535449,-8068.244768,-1915.238745
3102.375061,888.247130,-10584.944971,-995.924147
3102.375389,-592.164754,-10955.047942,76.609550
3102.375717,444.123565,-7105.977043,0.000000
3102.376044,0.000000,-7624.121203,1378.971896
3102.376372,-296.082377,-10510.924376,2987.772442
3102.376700,1110.308913,-8438.347739,2298.286494
3102.377027,370.102971,-9104.533087,2068.457845
3102.377355,-222.061783,-11177.109724,1991.848295
3102.377683,1110.308913,-9400.615463,-1685.410096
3102.378010,1406.391290,-8290.306550,-3064.381992
3102.378338,-1110.308913,-11843.295072,-1762.019645
3102.378665,-814.226536,-9474.636058,-1762.019645
3102.378993,888.247130,-6217.729913,-2757.943793
3102.379321,296.082377,-9622.677246,-229.828649
3102.379648,1258.350101,-11399.171507,842.705048
3102.379976,2960.823768,-8068.244768,229.828649
3102.380304,1702.473667,-9252.574275,1685.410096
3102.380631,1480.411884,-11473.192101,2451.505594
3102.380959,2368.659014,-9178.553681,1149.143247
3102.381287,592.164754,-7476.080014,1762.019645
3102.381614,-222.061783,-9696.697840,2145.067394
3102.381942,1628.453072,-10214.842000,-689.485948
3102.382269,814.226536,-9770.718434,-2681.334243
3102.382597,-2220.617826,-12213.398043,-1455.581446
3102.382925,-2516.700203,-11251.130318,-3524.039291
3102.383252,-592.164754,-7846.182985,-4673.182538
3102.383580,-370.102971,-10510.924376,-2221.676944
3102.383908,1258.350101,-10732.986159,-459.657299
3102.384235,2294.638420,-7402.059420,1685.410096
3102.384563,2812.782580,-9030.512492,2987.772442
3102.384891,1702.473667,-10066.800811,3907.087040
3102.385218,444.123565,-8956.491898,1915.238745
3102.385546,-1110.308913,-9104.533087,1455.581446
3102.385873,-1776.494261,-11917.315666,536.266849
3102.386201,74.020594,-11547.212695,-2451.505594
3102.386529,222.061783,-10140.821405,-3064.381992
3102.386856,-1184.329507,-12731.542202,-383.047749
3102.387184,0.000000,-10807.006753,-612.876398
3102.387512,1110.308913,-7624.121203,-2987.772442
3102.387839,-740.205942,-8956.491898,-919.314598
3102.388167,-1110.308913,-7328.038826,229.828649
3102.388495,0.000000,-3849.070898,612.876398
3102.388822,-814.226536,-6661.853478,2834.553343
3102.389150,-740.205942,-10214.842000,4136.915689
3102.389477,370.102971,-9326.594869,2145.067394
3102.389805,-296.082377,-10584.944971,1149.143247
3102.390133,-962.267725,-12509.480420,229.828649
3102.390460,814.226536,-11843.295072,-2604.724693
3102.390788,148.041188,-11177.109724,-3140.991542
3102.391116,-814.226536,-11843.295072,-1225.752797
3102.391443,0.000000,-9400.615463,-1455.581446
3102.391771,444.123565,-7402.059420,-2528.115143
3102.392099,-148.041188,-8586.388927,459.657299
3102.392426,-518.144159,-7772.162391,919.314598
3102.392754,0.000000,-5033.400406,0.000000
3102.393081,-222.061783,-7402.059420,229.828649
3102.393409,-74.020594,-10658.965565,1608.800546
3102.393737,1110.308913,-9252.574275,0.000000
3102.394064,1036.288319,-10658.965565,1532.190996
3102.394392,962.267725,-14730.098246,1762.019645
3102.394720,1480.411884,-13619.789333,-1302.362347
3102.395047,740.205942,-12287.418637,-2834.553343
3102.395375,-1332.370696,-12879.583391,-1991.848295
3102.395703,0.000000,-10658.965565,-3140.991542
3102.396030,1036.288319,-7550.100608,-3830.477490
3102.396358,370.102971,-8512.368333,-612.876398
3102.396685,370.102971,-7105.977043,1225.752797
3102.397013,1924.535449,-5255.462188,306.438199
3102.397341,1110.308913,-7402.059420,1915.238745
3102.397668,1406.391290,-9400.615463,2681.334243
3102.397996,1998.556043,-7698.141797,1532.190996
3102.398324,1776.494261,-10807.006753,1991.848295
3102.398651,1702.473667,-12805.562797,2451.505594
3102.398979,4071.132681,-11843.295072,383.047749
3102.399307,2812.782580,-11917.315666,0.000000
3102.399634,-370.102971,-13841.851115,459.657299
3102.399962,-1332.370696,-10955.047942,-2681.334243
3102.400289,-1554.432478,-7402.059420,-5669.106685
3102.400617,-2072.576638,-7846.182985,-3524.039291
3102.400945,-1332.370696,-7105.977043,-1532.190996
3102.401272,1184.329507,-5033.400406,383.047749
3102.401600,1850.514855,-7846.182985,3217.601092
3102.401928,2368.659014,-10362.883188,3600.648841
3102.402255,3108.864956,-9030.512492,2145.067394
3102.402583,1850.514855,-9474.636058,1608.800546
3102.402910,296.082377,-11991.336260,1991.848295
3102.403238,962.267725,-11251.130318,0.000000
3102.403566,444.123565,-11177.109724,-536.266849
3102.403893,-666.185348,-14063.912898,-229.828649
3102.404221,-888.247130,-12509.480420,-2528.115143
3102.404549,-1850.514855,-9474.636058,-4136.915689
3102.404876,-3404.947333,-10140.821405,-3294.210641
3102.405204,-2220.617826,-7920.203579,-3217.601092
3102.405532,-666.185348,-4071.132681,-2987.772442
3102.405859,0.000000,-6883.915261,1072.533697
3102.406187,1110.308913,-10362.883188,4136.915689
3102.406514,2664.741391,-8290.306550,3753.867940
3102.406842,2294.638420,-9178.553681,3064.381992
3102.407170,1184.329507,-14137.933492,2298.286494
3102.407497,1776.494261,-13545.768739,0.000000
3102.407825,888.247130,-10288.862594,-2374.896044
3102.408153,-1110.308913,-12361.439231,-1762.019645
3102.408480,-1850.514855,-12657.521608,-2451.505594
3102.408808,-1850.514855,-8734.430116,-3447.429741
3102.409136,-3849.070898,-6883.915261,-1685.410096
3102.409463,-3775.050304,-5995.668130,-1685.410096
3102.409791,-2072.576638,-5255.462188,-1915.238745
3102.410118,0.000000,-7994.224174,1608.800546
3102.410446,1036.288319,-8142.265362,3447.429741
3102.410774,2664.741391,-7031.956449,2451.505594
3102.411101,2294.638420,-9178.553681,3600.648841
3102.411429,1406.391290,-11843.295072,4290.134789
3102.411757,2812.782580,-12139.377449,536.266849
3102.412084,2590.720797,-12509.480420,-1762.019645
3102.412412,-1332.370696,-14211.954086,-1685.410096
3102.412740,-1332.370696,-12065.356855,-2374.896044
3102.413067,-1036.288319,-8956.491898,-4366.744339
3102.413395,-2442.679609,-9918.759623,-2451.505594
3102.413722,-1554.432478,-9104.533087,-995.924147
3102.414050,370.102971,-4885.359217,-1991.848295
3102.414378,888.247130,-5995.668130,0.000000
3102.414705,1110.308913,-8142.265362,2068.457845
3102.415033,1480.411884,-5921.647536,2145.067394
3102.415361,1406.391290,-7846.182985,2604.724693
3102.415688,1850.514855,-12805.562797,2451.505594
3102.416016,3256.906145,-13767.830521,-689.485948
3102.416344,3034.844362,-14285.974681,-1991.848295
3102.416671,518.144159,-16654.633695,-766.095498
3102.416999,296.082377,-12953.603985,-2528.115143
3102.417326,296.082377,-9104.533087,-4749.792088
3102.417654,-1332.370696,-9844.739029,-2451.505594
3102.417982,-1702.473667,-7698.141797,-536.266849
3102.418309,592.164754,-4441.235652,-766.095498
3102.418637,518.144159,-6439.791695,766.095498
3102.418965,0.000000,-7476.080014,3447.429741
3102.419292,740.205942,-4367.215058,1762.019645
3102.419620,1554.432478,-6957.935855,919.314598
3102.419948,1110.308913,-12139.377449,2298.286494
3102.420275,3330.926739,-12583.501014,-153.219100
3102.420603,3701.029710,-13027.624579,-306.438199
3102.420930,1036.288319,-15396.283594,1072.533697
3102.421258,740.205942,-12731.542202,-536.266849
3102.421586,-1184.329507,-8586.388927,-2451.505594
3102.421913,-3701.029710,-8956.491898,-2145.067394
3102.422241,-2516.700203,-7328.038826,-1762.019645
3102.422569,-370.102971,-4293.194464,-3064.381992
3102.422896,-1628.453072,-6661.853478,0.000000
3102.423224,-1258.350101,-8364.327145,2451.505594
3102.423552,592.164754,-4885.359217,1072.533697
3102.423879,666.185348,-7402.059420,1915.238745
3102.424207,814.226536,-11843.295072,2604.724693
3102.424534,3701.029710,-12065.356855,306.438199
3102.424862,3775.050304,-13693.809927,-229.828649
3102.425190,1776.494261,-16802.674883,1378.971896
3102.425517,-518.144159,-13027.624579,229.828649
3102.425845,-2664.741391,-7698.141797,-2298.286494
3102.426173,-4811.338623,-10584.944971,-2298.286494
3102.426500,-4959.379811,-9252.574275,-3600.648841
3102.426828,-2516.700203,-4811.338623,-5975.544884
3102.427156,-1776.494261,-7105.977043,-2681.334243
3102.427483,-296.082377,-9844.739029,1762.019645
3102.427811,2146.597232,-7328.038826,1608.800546
3102.428138,2368.659014,-7994.224174,2987.772442
3102.428466,2368.659014,-11843.295072,3447.429741
3102.428794,4663.297435,-11621.233289,0.000000
3102.429121,4219.173869,-13249.686362,-383.047749
3102.429449,888.247130,-14656.077652,2374.896044
3102.429777,0.000000,-10807.006753,1608.800546
3102.430104,-888.247130,-8290.306550,-1991.848295
3102.430432,-3330.926739,-11029.068536,-995.924147
3102.430760,-4145.153275,-9104.533087,-2451.505594
3102.431087,-2220.617826,-4071.132681,-4903.011187
3102.431415,-1702.473667,-6809.894666,-3294.210641
3102.431742,-814.226536,-9400.615463,153.219100
3102.432070,1480.411884,-5255.462188,1455.581446
3102.432398,2442.679609,-7031.956449,3140.991542
3102.432725,3849.070898,-11621.233289,4749.792088
3102.433053,6143.709319,-11547.212695,2451.505594
3102.433381,5033.400406,-13175.665768,1149.143247
3102.433708,3108.864956,-16062.468941,2068.457845
3102.434036,2146.597232,-12361.439231,-612.876398
3102.434364,-1406.391290,-7550.100608,-2451.505594
3102.434691,-3627.009116,-10288.862594,-2068.457845
3102.435019,-2886.803174,-8956.491898,-2757.943793
3102.435347,-2220.617826,-5107.421000,-4136.915689
3102.435674,-2812.782580,-7698.141797,-2145.067394
3102.436002,-1554.432478,-9622.677246,0.000000
3102.436330,1702.473667,-5181.441594,229.828649
3102.436657,3478.967927,-7402.059420,536.266849
3102.436985,2664.741391,-12435.459826,3447.429741
3102.437313,5107.421000,-12065.356855,1072.533697
3102.437640,6069.688724,-13101.645173,-612.876398
3102.437968,2220.617826,-15100.201217,2374.896044
3102.438296,740.205942,-12509.480420,0.000000
3102.438623,-592.164754,-10362.883188,-1608.800546
3102.438951,-3849.070898,-11251.130318,-1149.143247
3102.439279,-3256.906145,-9696.697840,-2987.772442
3102.439606,-1184.329507,-6069.688724,-4136.915689
3102.439934,-1628.453072,-7476.080014,-919.314598
3102.440262,-1110.308913,-8364.327145,2298.286494
3102.440589,1184.329507,-5329.482782,1455.581446
3102.440917,1036.288319,-5625.565159,995.924147
3102.441245,888.247130,-10066.800811,2451.505594
3102.441572,2442.679609,-9622.677246,536.266849
3102.441900,4367.215058,-12139.377449,76.609550
3102.442228,1406.391290,-16802.674883,2298.286494
3102.442555,148.041188,-13323.706956,689.485948
3102.442883,-592.164754,-10362.883188,-2451.505594
3102.443211,-3404.947333,-11029.068536,-1378.971896
3102.443538,-3034.844362,-8660.409521,-2221.676944
3102.443866,-1924.535449,-5773.606348,-2834.553343
3102.444194,-1998.556043,-7402.059420,-229.828649
3102.444521,-1554.432478,-7624.121203,766.095498
3102.444849,222.061783,-5625.565159,612.876398
3102.445177,592.164754,-6661.853478,1302.362347
3102.445504,518.144159,-10362.883188,1685.410096
3102.445832,2812.782580,-9548.656652,-689.485948
3102.446160,3775.050304,-13323.706956,-2221.676944
3102.446487,2590.720797,-17838.963202,919.314598
3102.446815,2072.576638,-13175.665768,0.000000
3102.447143,370.102971,-9326.594869,-995.924147
3102.447470,-2072.576638,-13027.624579,0.000000
3102.447798,-2368.659014,-10584.944971,-919.314598
3102.448126,-2368.659014,-5107.421000,-2604.724693
3102.448453,-2590.720797,-6661.853478,-842.705048
3102.448781,-1036.288319,-7772.162391,76.609550
3102.449109,518.144159,-5625.565159,0.000000
3102.449436,888.247130,-6439.791695,995.924147
3102.449764,1036.288319,-10510.924376,1455.581446
3102.450092,4071.132681,-11029.068536,-306.438199
3102.450419,5329.482782,-12139.377449,-1378.971896
3102.450747,2368.659014,-14804.118840,2145.067394
3102.451075,2886.803174,-12065.356855,2145.067394
3102.451402,2368.659014,-10436.903782,-153.219100
3102.451730,-1850.514855,-11177.109724,1302.362347
3102.452058,-4219.173869,-8216.285956,766.095498
3102.452385,-3552.988522,-4515.256246,-2298.286494
3102.452713,-4145.153275,-7402.059420,-1991.848295
3102.453041,-3182.885551,-9252.574275,-1225.752797
3102.453369,-296.082377,-4885.359217,-2298.286494
3102.453696,1480.411884,-6291.750507,306.438199
3102.454024,2960.823768,-11843.295072,1455.581446
3102.454352,5847.626942,-11325.150913,76.609550
3102.454679,6143.709319,-10732.986159,229.828649
3102.455007,3330.926739,-14508.036463,2068.457845
3102.455335,2590.720797,-12953.603985,536.266849
3102.455662,888.247130,-8808.450710,-766.095498
3102.455990,-2960.823768,-9548.656652,612.876398
3102.456318,-3256.906145,-9844.739029,-76.609550
3102.456645,-2146.597232,-7476.080014,-2145.067394
3102.456973,-2590.720797,-9030.512492,-1072.533697
3102.457301,-2368.659014,-9548.656652,-536.266849
3102.457628,-592.164754,-6957.935855,-1685.410096
3102.457956,592.164754,-6957.935855,-306.438199
3102.458284,1332.370696,-9474.636058,612.876398
3102.458611,4515.256246,-9844.739029,-919.314598
3102.458939,5181.441594,-11917.315666,229.828649
3102.459267,4219.173869,-15026.180623,2834.553343
3102.459594,3849.070898,-12953.603985,1608.800546
3102.459922,1776.494261,-10066.800811,-459.657299
3102.460250,-2146.597232,-12361.439231,0.000000
3102.460577,-3108.864956,-9622.677246,-2221.676944
3102.460905,-2590.720797,-4737.318029,-2604.724693
3102.461233,-3034.844362,-6957.935855,-689.485948
3102.461560,-3330.926739,-9252.574275,995.924147
3102.461888,-2294.638420,-6883.915261,76.609550
3102.462216,-1480.411884,-7254.018232,-306.438199
3102.462543,740.205942,-9474.636058,-689.485948
3102.462871,3627.009116,-9400.615463,-1149.143247
3102.463199,4663.297435,-11177.109724,-383.047749
3102.463526,2960.823768,-14211.954086,2221.676944
3102.463854,2738.761985,-11991.336260,995.924147
3102.464182,1184.329507,-9696.697840,-689.485948
3102.464509,-2812.782580,-11399.171507,842.705048
3102.464837,-3849.070898,-9400.615463,0.000000
3102.465165,-1850.514855,-6661.853478,-2528.115143
3102.465492,-2516.700203,-8956.491898,-995.924147
3102.465820,-2442.679609,-9400.615463,383.047749
3102.466148,-814.226536,-5995.668130,-76.609550
3102.466475,444.123565,-7698.141797,459.657299
3102.466803,1184.329507,-10288.862594,995.924147
3102.467131,2886.803174,-9474.636058,-919.314598
3102.467458,3330.926739,-11103.089130,-1608.800546
3102.467786,2294.638420,-13841.851115,-995.924147
3102.468114,2294.638420,-12879.583391,-383.047749
3102.468441,1924.535449,-11177.109724,-536.266849
3102.468769,-1258.350101,-13693.809927,919.314598
3102.469097,-2590.720797,-9992.780217,-229.828649
3102.469424,-444.123565,-6143.709319,-2911.162892
3102.469752,-1110.308913,-9252.574275,0.000000
3102.470080,-1406.391290,-8512.368333,1915.238745
3102.470407,-666.185348,-5107.421000,1838.629195
3102.470735,148.041188,-7031.956449,1455.581446
3102.471063,1258.350101,-9844.739029,306.438199
3102.471390,2516.700203,-9252.574275,-1532.190996
3102.471718,2368.659014,-10955.047942,-1685.410096
3102.472046,1406.391290,-13397.727550,-229.828649
3102.472373,2738.761985,-11621.233289,-2221.676944
3102.472701,1406.391290,-8512.368333,-1838.629195
3102.473029,-518.144159,-11991.336260,842.705048
3102.473357,0.000000,-9696.697840,1072.533697
3102.473684,222.061783,-6217.729913,-229.828649
3102.474012,-1110.308913,-9474.636058,1608.800546
3102.474340,-1924.535449,-9548.656652,1685.410096
3102.474667,-296.082377,-4367.215058,0.000000
3102.474995,-518.144159,-6143.709319,1149.143247
3102.475323,-222.061783,-10732.986159,1225.752797
3102.475650,2590.720797,-10658.965565,-2298.286494
3102.475978,3627.009116,-11251.130318,-3217.601092
3102.476306,2442.679609,-13989.892304,-842.705048
3102.476633,2442.679609,-11399.171507,-1378.971896
3102.476961,1702.473667,-8808.450710,-536.266849
3102.477289,-962.267725,-11103.089130,842.705048
3102.477616,-1258.350101,-10288.862594,383.047749
3102.477944,-592.164754,-7031.956449,-612.876398
3102.478272,-1776.494261,-9548.656652,1225.752797
3102.478599,-2368.659014,-10288.862594,2604.724693
3102.478927,0.000000,-6883.915261,-229.828649
3102.479255,370.102971,-8438.347739,-306.438199
3102.479582,-1184.329507,-10436.903782,1072.533697
3102.479910,740.205942,-9918.759623,-1838.629195
3102.480238,1702.473667,-11695.253884,-3524.039291
3102.480565,0.000000,-14063.912898,-2145.067394
3102.480893,962.267725,-10436.903782,-2068.457845
3102.481221,1850.514855,-8068.244768,-2987.772442
3102.481548,-222.061783,-11843.295072,1991.848295
3102.481876,-222.061783,-11029.068536,2374.896044
3102.482204,666.185348,-6883.915261,536.266849
3102.482531,-1776.494261,-9030.512492,1455.581446
3102.482859,-2146.597232,-9992.780217,1685.410096
3102.483187,-2146.597232,-5625.565159,229.828649
3102.483514,-1998.556043,-7179.997637,842.705048
3102.483842,-444.123565,-9844.739029,1225.752797
3102.484170,2738.761985,-9622.677246,-1455.581446
3102.484497,3701.029710,-10658.965565,-1762.019645
3102.484825,2368.659014,-12731.542202,-459.657299
3102.485153,2072.576638,-10362.883188,-1532.190996
3102.485480,1924.535449,-8512.368333,-2298.286494
3102.485808,-740.205942,-9992.780217,459.657299
3102.486136,-1480.411884,-8512.368333,229.828649
3102.486463,0.000000,-5699.585753,0.000000
3102.486791,-666.185348,-9844.739029,1991.848295
3102.487119,-962.267725,-11621.233289,3294.210641
3102.487446,814.226536,-8734.430116,1378.971896
3102.487774,518.144159,-9030.512492,1149.143247
3102.488102,740.205942,-11843.295072,306.438199
3102.488429,2146.597232,-9844.739029,-2681.334243
3102.488757,3034.844362,-9104.533087,-3140.991542
3102.489085,1702.473667,-11399.171507,-919.314598
3102.489412,1628.453072,-10140.821405,-1455.581446
3102.489740,0.000000,-9622.677246,-2221.676944
3102.490068,-1776.494261,-12065.356855,-306.438199
3102.490395,-740.205942,-9474.636058,-1915.238745
3102.490723,1554.432478,-7105.977043,-1762.019645
3102.491051,-370.102971,-10140.821405,1532.190996
3102.491378,-666.185348,-11769.274478,4290.134789
3102.491706,1628.453072,-7846.182985,2451.505594
3102.492034,1036.288319,-8882.471304,1838.629195
3102.492361,-370.102971,-11843.295072,2145.067394
3102.492689,592.164754,-9474.636058,-2145.067394
3102.493017,1628.453072,-10214.842000,-2834.553343
3102.493345,0.000000,-12361.439231,-1608.800546
3102.493672,888.247130,-9992.780217,-2757.943793
3102.494000,370.102971,-8512.368333,-1991.848295
3102.494328,-962.267725,-9548.656652,383.047749
3102.494655,-1480.411884,-7920.203579,-153.219100
3102.494983,-518.144159,-5699.585753,-536.266849
3102.495311,-962.267725,-8512.368333,842.705048
3102.495638,-1554.432478,-9104.533087,3677.258390
3102.495966,888.247130,-7402.059420,2834.553343
3102.496294,740.205942,-9696.697840,3294.210641
3102.496621,518.144159,-12953.603985,2757.943793
3102.496949,1776.494261,-10066.800811,-995.924147
3102.497277,1998.556043,-10362.883188,-3677.258390
3102.497604,518.144159,-12657.521608,-2528.115143
3102.497932,666.185348,-10584.944971,-3064.381992
3102.498260,666.185348,-8808.450710,-2911.162892
3102.498587,-1480.411884,-10066.800811,-383.047749
3102.498915,-1480.411884,-8808.450710,153.219100
3102.499243,592.164754,-5551.544565,-536.266849
3102.499570,74.020594,-8216.285956,1149.143247
3102.499898,0.000000,-9918.759623,3064.381992
3102.500226,592.164754,-7550.100608,2451.505594
3102.500553,888.247130,-9918.759623,2298.286494
3102.500881,148.041188,-11843.295072,1838.629195
3102.501209,1702.473667,-11325.150913,-1225.752797
3102.501536,2442.679609,-12213.398043,-2451.505594
3102.501864,666.185348,-14359.995275,-2681.334243
3102.502192,1406.391290,-11769.274478,-3753.867940
3102.502519,1628.453072,-9030.512492,-5286.058936
3102.502847,-1110.308913,-10658.965565,-1838.629195
3102.503175,-1702.473667,-8438.347739,153.219100
3102.503502,-592.164754,-4293.194464,-306.438199
3102.503830,-148.041188,-6883.915261,1149.143247
3102.504158,-222.061783,-9400.615463,3294.210641
3102.504485,666.185348,-6809.894666,3753.867940
3102.504813,592.164754,-8882.471304,3907.087040
3102.505141,518.144159,-11325.150913,2834.553343
3102.505468,2220.617826,-11177.109724,-1149.143247
3102.505796,1110.308913,-11843.295072,-1991.848295
3102.506124,0.000000,-13175.665768,-1455.581446
3102.506451,444.123565,-10658.965565,-3294.210641
3102.506779,148.041188,-9104.533087,-4519.963438
3102.507107,-1036.288319,-10658.965565,-2145.067394
3102.507434,-888.247130,-8660.409521,-306.438199
3102.507762,592.164754,-5181.441594,153.219100
3102.508090,0.000000,-7920.203579,1455.581446
3102.508417,-518.144159,-9474.636058,2757.943793
3102.508745,444.123565,-6365.771101,1455.581446
3102.509073,962.267725,-8068.244768,2987.772442
3102.509400,814.226536,-11843.295072,3217.601092
3102.509728,2220.617826,-11473.192101,689.485948
3102.510056,1776.494261,-12657.521608,-1072.533697
3102.510383,1036.288319,-14656.077652,-1378.971896
3102.510711,2368.659014,-11399.171507,-3753.867940
3102.511039,1258.350101,-8882.471304,-4979.620737
3102.511366,-1406.391290,-10732.986159,-1762.019645
3102.511694,-1480.411884,-8364.327145,-995.924147
3102.512022,-296.082377,-4589.276840,-2145.067394
3102.512349,-740.205942,-7179.997637,0.000000
3102.512677,-1850.514855,-9030.512492,2451.505594
3102.513005,-296.082377,-7105.977043,2451.505594
3102.513333,1184.329507,-10658.965565,3600.648841
3102.513660,1480.411884,-13915.871710,2987.772442
3102.513988,3256.906145,-12509.480420,-766.095498
3102.514316,2590.720797,-12139.377449,-995.924147
3102.514643,1628.453072,-12953.603985,76.609550
3102.514971,2072.576638,-9474.636058,-2681.334243
3102.515299,666.185348,-7105.977043,-3140.991542
3102.515626,-2886.803174,-9548.656652,-1378.971896
3102.515954,-3627.009116,-7994.224174,-1762.019645
3102.516282,-1628.453072,-3849.070898,-2451.505594
3102.516609,-1924.535449,-7254.018232,-459.657299
3102.516937,-1998.556043,-9030.512492,1991.848295
3102.517265,0.000000,-7179.997637,2221.676944
3102.517592,962.267725,-9326.594869,3600.648841
3102.517920,3034.844362,-12731.542202,3294.210641
3102.518248,4589.276840,-10732.986159,1225.752797
3102.518575,2738.761985,-11473.192101,1532.190996
3102.518903,518.144159,-14211.954086,1072.533697
3102.519231,1110.308913,-11251.130318,-2834.553343
3102.519558,-296.082377,-8586.388927,-5286.058936
3102.519886,-2664.741391,-10807.006753,-3064.381992
3102.520214,-1480.411884,-9548.656652,-2221.676944
3102.520541,74.020594,-6217.729913,-1838.629195
3102.520869,-1110.308913,-8438.347739,0.000000
3102.521197,-2220.617826,-8512.368333,1532.190996
3102.521524,-592.164754,-5847.626942,1378.971896
3102.521852,1036.288319,-8882.471304,2528.115143
3102.522180,1184.329507,-12213.398043,4519.963438
3102.522507,3330.926739,-11473.192101,1991.848295
3102.522835,3182.885551,-13323.706956,229.828649
3102.523163,1776.494261,-16210.510130,-383.047749
3102.523490,1258.350101,-11917.315666,-3064.381992
3102.523818,-888.247130,-8586.388927,-4519.963438
3102.524146,-2886.803174,-10955.047942,-2987.772442
3102.524473,-2368.659014,-8660.409521,-3294.210641
3102.524801,-592.164754,-5477.523971,-2987.772442
3102.525129,-1628.453072,-7920.203579,0.000000
3102.525456,-1406.391290,-8438.347739,2911.162892
3102.525784,666.185348,-5255.462188,2145.067394
3102.526112,962.267725,-7920.203579,2145.067394
3102.526439,1628.453072,-11769.274478,2374.896044
3102.526767,3627.009116,-10066.800811,76.609550
3102.527095,3034.844362,-11251.130318,919.314598
3102.527422,1406.391290,-14359.995275,1225.752797
3102.527750,1258.350101,-11029.068536,-1225.752797
3102.528078,-222.061783,-8882.471304,-3524.039291
3102.528405,-2442.679609,-11325.150913,-2681.334243
3102.528733,-1480.411884,-8956.491898,-3294.210641
3102.529061,962.267725,-5921.647536,-3524.039291
3102.529388,-444.123565,-8142.265362,612.876398
3102.529716,-962.267725,-7772.162391,2681.334243
3102.530044,0.000000,-3627.009116,1915.238745
3102.530371,370.102971,-7476.080014,1685.410096
3102.530699,1406.391290,-11843.295072,2145.067394
3102.531027,3330.926739,-11177.109724,842.705048
3102.531354,3775.050304,-12657.521608,919.314598
3102.531682,2664.741391,-15914.427753,1762.019645
3102.532010,2072.576638,-13027.624579,0.000000
3102.532337,-1406.391290,-8586.388927,-2068.457845
3102.532665,-4441.235652,-11177.109724,-3370.820191
3102.532993,-2072.576638,-9548.656652,-5439.278036
3102.533321,0.000000,-6513.812290,-5132.839837
3102.533648,-1480.411884,-8882.471304,536.266849
3102.533976,-1406.391290,-8956.491898,4979.620737
3102.534304,518.144159,-5255.462188,2145.067394
3102.534631,74.020594,-7179.997637,306.438199
3102.534959,-814.226536,-10658.965565,842.705048
3102.535287,2072.576638,-9252.574275,-995.924147
3102.535614,3997.112087,-11843.295072,0.000000
3102.535942,2294.638420,-15026.180623,2451.505594
3102.536269,1406.391290,-12805.562797,1685.410096
3102.536597,1924.535449,-9548.656652,536.266849
3102.536925,-148.041188,-10955.047942,-1072.533697
3102.537252,-1702.473667,-9252.574275,-3830.477490
3102.537580,-962.267725,-6735.874072,-4979.620737
3102.537907,-1998.556043,-7328.038826,-1838.629195
3102.538235,-1998.556043,-6365.771101,1225.752797
3102.538562,-370.102971,-4737.318029,1532.190996
3102.538890,222.061783,-8142.265362,2757.943793
3102.539218,1110.308913,-11325.150913,3294.210641
3102.539545,3701.029710,-10658.965565,153.219100
3102.539873,3997.112087,-13027.624579,-536.266849
3102.540200,2738.761985,-15322.262999,1302.362347
3102.540528,2590.720797,-11695.253884,766.095498
3102.540855,1406.391290,-8882.471304,-766.095498
3102.541183,-666.185348,-10807.006753,0.000000
3102.541510,-370.102971,-8290.306550,-1762.019645
3102.541838,-444.123565,-6365.771101,-3217.601092
3102.542166,-3997.112087,-8882.471304,-1991.848295
3102.542493,-3997.112087,-8216.285956,-766.095498
3102.542821,-1258.350101,-5847.626942,-1225.752797
3102.543148,222.061783,-8734.430116,76.609550
3102.543476,1554.432478,-11325.150913,1532.190996
3102.543803,3330.926739,-10288.862594,1149.143247
3102.544131,4293.194464,-12361.439231,842.705048
3102.544459,3701.029710,-15100.201217,2451.505594
3102.544786,1924.535449,-11251.130318,766.095498
3102.545114,-592.164754,-8660.409521,-459.657299
3102.545441,-2960.823768,-10066.800811,-995.924147
3102.545769,-2072.576638,-9252.574275,-2911.162892
3102.546096,-1258.350101,-8068.244768,-4519.963438
3102.546424,-2146.597232,-9918.759623,-766.095498
3102.546751,-1110.308913,-8956.491898,612.876398
3102.547079,74.020594,-5921.647536,229.828649
3102.547407,-814.226536,-7105.977043,919.314598
3102.547734,-370.102971,-8808.450710,1915.238745
3102.548062,2294.638420,-8290.306550,153.219100
3102.548389,3701.029710,-10732.986159,1072.533697
3102.548717,2146.597232,-15174.221811,3370.820191
3102.549044,1776.494261,-11917.315666,1762.019645
3102.549372,888.247130,-9918.759623,-1532.190996
3102.549700,-1702.473667,-11843.295072,-1991.848295
3102.550027,-1184.329507,-9696.697840,-4290.134789
3102.550355,-1554.432478,-7105.977043,-3524.039291
3102.550682,-2812.782580,-9326.594869,-153.219100
3102.551010,-1998.556043,-8512.368333,689.485948
3102.551337,370.102971,-5699.585753,383.047749
3102.551665,74.020594,-7254.018232,1991.848295
3102.551992,74.020594,-9474.636058,2451.505594
3102.552320,2886.803174,-8364.327145,383.047749
3102.552648,4589.276840,-10955.047942,-1991.848295
3102.552975,2516.700203,-13989.892304,306.438199
3102.553303,1406.391290,-12657.521608,-229.828649
3102.553630,666.185348,-11621.233289,-612.876398
3102.553958,-1184.329507,-12731.542202,-766.095498
3102.554285,-1406.391290,-10140.821405,-2681.334243
3102.554613,-592.164754,-8364.327145,-3600.648841
3102.554941,-1110.308913,-9622.677246,-536.266849
3102.555268,-444.123565,-9030.512492,153.219100
3102.555596,740.205942,-5699.585753,0.000000
3102.555923,0.000000,-6957.935855,919.314598
3102.556251,74.020594,-9474.636058,1685.410096
3102.556578,2294.638420,-7994.224174,0.000000
3102.556906,3182.885551,-10288.862594,229.828649
3102.557233,2368.659014,-13767.830521,1455.581446
3102.557561,2960.823768,-11917.315666,0.000000
3102.557889,1702.473667,-10066.800811,-459.657299
3102.558216,-1480.411884,-11547.212695,1532.190996
3102.558544,-2368.659014,-10214.842000,229.828649
3102.558871,-2294.638420,-7698.141797,-2528.115143
3102.559199,-2368.659014,-9696.697840,-1991.848295
3102.559526,-370.102971,-9030.512492,-1455.581446
3102.559854,0.000000,-5773.606348,919.314598
3102.560182,-148.041188,-8882.471304,3217.601092
3102.560509,1258.350101,-9992.780217,1991.848295
3102.560837,2442.679609,-8364.327145,-1455.581446
3102.561164,1480.411884,-9474.636058,-1838.629195
3102.561492,444.123565,-11473.192101,-536.266849
3102.561819,1184.329507,-9696.697840,76.609550
3102.562147,296.082377,-8734.430116,383.047749
3102.562474,-1776.494261,-11991.336260,1762.019645
3102.562802,-592.164754,-9474.636058,842.705048
3102.563130,1332.370696,-8216.285956,-1072.533697
3102.563457,148.041188,-11843.295072,0.000000
3102.563785,-666.185348,-9622.677246,536.266849
3102.564112,-666.185348,-6069.688724,-1225.752797
3102.564440,-1184.329507,-7476.080014,-383.047749
3102.564767,-666.185348,-9400.615463,-689.485948
3102.565095,1332.370696,-8290.306550,-1685.410096
3102.565423,1628.453072,-11103.089130,0.000000
3102.565750,1702.473667,-14804.118840,612.876398
3102.566078,2812.782580,-12583.501014,-995.924147
3102.566405,1480.411884,-10658.965565,-1608.800546
3102.566733,-814.226536,-10955.047942,229.828649
3102.567060,-666.185348,-8586.388927,-229.828649
3102.567388,814.226536,-7254.018232,-766.095498
3102.567715,-370.102971,-9622.677246,1838.629195
3102.568043,-814.226536,-9474.636058,1685.410096
3102.568371,-962.267725,-7846.182985,153.219100
3102.568698,-1480.411884,-9400.615463,-612.876398
3102.569026,-222.061783,-9400.615463,-1532.190996
3102.569353,1850.514855,-8290.306550,-2451.505594
3102.569681,1628.453072,-11769.274478,-1149.143247
3102.570008,962.267725,-13471.748144,459.657299
3102.570336,2294.638420,-9326.594869,-229.828649
3102.570664,962.267725,-7698.141797,0.000000
3102.570991,-1332.370696,-10658.965565,2145.067394
3102.571319,-1628.453072,-7624.121203,1455.581446
3102.571646,-740.205942,-6587.832884,-612.876398
3102.571974,-888.247130,-10584.944971,-229.828649
3102.572301,222.061783,-10140.821405,-306.438199
3102.572629,74.020594,-7846.182985,306.438199
3102.572956,-518.144159,-9104.533087,1608.800546
3102.573284,740.205942,-10955.047942,153.219100
3102.573612,2146.597232,-8586.388927,-2834.553343
3102.573939,1628.453072,-9030.512492,-2528.115143
3102.574267,0.000000,-11325.150913,-229.828649
3102.574594,962.267725,-9474.636058,-612.876398
3102.574922,666.185348,-9474.636058,-153.219100
3102.575249,-1406.391290,-11547.212695,229.828649
3102.575577,-814.226536,-9844.739029,-1455.581446
3102.575905,74.020594,-8438.347739,-2298.286494
3102.576232,0.000000,-10732.986159,0.000000
3102.576560,-518.144159,-10881.027347,1302.362347
3102.576887,518.144159,-8808.450710,153.219100
3102.577215,-444.123565,-9696.697840,612.876398
3102.577542,1110.308913,-10584.944971,612.876398
3102.577870,3478.967927,-9326.594869,-2221.676944
3102.578197,2368.659014,-10436.903782,-1532.190996
3102.578525,-370.102971,-11695.253884,153.219100
3102.578853,74.020594,-8512.368333,-1762.019645
3102.579180,148.041188,-8068.244768,-2451.505594
3102.579508,-888.247130,-11473.192101,0.000000
3102.579835,-740.205942,-8808.450710,689.485948
3102.580163,148.041188,-6735.874072,1149.143247
3102.580490,-296.082377,-10436.903782,1608.800546
3102.580818,370.102971,-10732.986159,1072.533697
3102.581146,666.185348,-7402.059420,536.266849
3102.581473,-592.164754,-8808.450710,1915.238745
3102.581801,740.205942,-10584.944971,919.314598
3102.582128,2664.741391,-9474.636058,-2298.286494
3102.582456,1628.453072,-10436.903782,-1915.238745
3102.582783,0.000000,-12213.398043,-842.705048
3102.583111,888.247130,-8734.430116,-2681.334243
3102.583438,296.082377,-8364.327145,-2528.115143
3102.583766,-1332.370696,-10955.047942,0.000000
3102.584094,296.082377,-8512.368333,0.000000
3102.584421,740.205942,-6291.750507,766.095498
3102.584749,-1184.329507,-10955.047942,2911.162892
3102.585076,-1332.370696,-11843.295072,2451.505594
3102.585404,-666.185348,-7550.100608,-153.219100
3102.585731,-296.082377,-8956.491898,-1378.971896
3102.586059,148.041188,-12435.459826,-1302.362347
3102.586387,2738.761985,-11695.253884,-1608.800546
3102.586714,3034.844362,-11843.295072,-995.924147
3102.587042,2146.597232,-13249.686362,-1608.800546
3102.587369,1628.453072,-9178.553681,-2987.772442
3102.587697,518.144159,-7920.203579,-2834.553343
3102.588024,-2442.679609,-9992.780217,1072.533697
3102.588352,-1850.514855,-7550.100608,1149.143247
3102.588679,-518.144159,-5625.565159,612.876398
3102.589007,-962.267725,-9622.677246,2834.553343
3102.589335,296.082377,-10362.883188,2451.505594
3102.589662,1110.308913,-8438.347739,1532.190996
3102.589990,222.061783,-9474.636058,1762.019645
3102.590317,888.247130,-11621.233289,-612.876398
3102.590645,1702.473667,-9844.739029,-2451.505594
3102.590972,666.185348,-10288.862594,-1991.848295
3102.591300,-148.041188,-11843.295072,-689.485948
3102.591628,444.123565,-9104.533087,-2451.505594
3102.591955,444.123565,-8586.388927,-2374.896044
3102.592283,-962.267725,-10881.027347,-536.266849
3102.592610,148.041188,-7994.224174,76.609550
3102.592938,1036.288319,-5477.523971,689.485948
3102.593265,222.061783,-9252.574275,2681.334243
3102.593593,962.267725,-9178.553681,3294.210641
3102.593920,1850.514855,-6883.915261,2451.505594
3102.594248,296.082377,-9622.677246,3064.381992
3102.594576,370.102971,-13101.645173,306.438199
3102.594903,148.041188,-12509.480420,-3524.039291
3102.595231,592.164754,-13027.624579,-4213.525239
3102.595558,518.144159,-13027.624579,-3600.648841
3102.595886,2294.638420,-9622.677246,-3524.039291
3102.596213,814.226536,-10436.903782,-1762.019645
3102.596541,-296.082377,-10955.047942,842.705048
3102.596869,-592.164754,-5921.647536,0.000000
3102.597196,-518.144159,-4959.379811,383.047749
3102.597524,-2146.597232,-8586.388927,2681.334243
3102.597851,-1554.432478,-9400.615463,1838.629195
3102.598179,-296.082377,-7920.203579,995.924147
3102.598506,888.247130,-11177.109724,76.609550
3102.598834,1628.453072,-12879.583391,0.000000
3102.599161,3552.988522,-12213.398043,-536.266849
3102.599489,2368.659014,-12805.562797,-1378.971896
3102.599817,962.267725,-12139.377449,-1838.629195
3102.600144,222.061783,-7179.997637,-3370.820191
3102.600472,-814.226536,-6735.874072,-2757.943793
3102.600799,-3108.864956,-9548.656652,-459.657299
3102.601127,-1998.556043,-6143.709319,1072.533697
3102.601454,-1480.411884,-4663.297435,76.609550
3102.601782,-1184.329507,-9770.718434,1225.752797
3102.602110,74.020594,-9474.636058,1302.362347
3102.602437,592.164754,-7772.162391,1532.190996
3102.602765,222.061783,-9178.553681,3294.210641
3102.603092,2442.679609,-11547.212695,2068.457845
3102.603420,3552.988522,-11991.336260,-459.657299
3102.603747,1480.411884,-12879.583391,-306.438199
3102.604075,296.082377,-12139.377449,-766.095498
3102.604402,888.247130,-8586.388927,-3677.258390
3102.604730,-296.082377,-8808.450710,-3753.867940
3102.605058,-2812.782580,-10510.924376,-1225.752797
3102.605385,-1998.556043,-6587.832884,-1608.800546
3102.605713,-1924.535449,-4441.235652,-1378.971896
3102.606040,-1184.329507,-9548.656652,842.705048
3102.606368,370.102971,-10955.047942,2757.943793
3102.606695,2442.679609,-8882.471304,2911.162892
3102.607023,1628.453072,-10807.006753,3294.210641
3102.607351,2664.741391,-13545.768739,1991.848295
3102.607678,4367.215058,-11473.192101,-919.314598
3102.608006,2590.720797,-12213.398043,-766.095498
3102.608333,1184.329507,-13175.665768,-689.485948
3102.608661,1110.308913,-9548.656652,-3294.210641
3102.608988,-888.247130,-8216.285956,-3983.696590
3102.609316,-3478.967927,-9696.697840,-2221.676944
3102.609643,-2590.720797,-6513.812290,-1991.848295
3102.609971,-1332.370696,-4515.256246,-1532.190996
3102.610299,-1110.308913,-8660.409521,1302.362347
3102.610626,1332.370696,-9844.739029,2911.162892
3102.610954,3330.926739,-7476.080014,2834.553343
3102.611281,1924.535449,-9400.615463,5209.449386
3102.611609,2072.576638,-11325.150913,4673.182538
3102.611936,2294.638420,-10732.986159,1225.752797
3102.612264,1184.329507,-12361.439231,-1532.190996
3102.612592,-222.061783,-12361.439231,-3370.820191
3102.612919,-962.267725,-9918.759623,-4826.401637
3102.613247,-1036.288319,-9326.594869,-4366.744339
3102.613574,-1554.432478,-11251.130318,-2451.505594
3102.613902,-1554.432478,-7550.100608,-2757.943793
3102.614229,-1036.288319,-5255.462188,-1608.800546
3102.614557,-1110.308913,-7550.100608,2068.457845
3102.614884,1110.308913,-7772.162391,2987.772442
3102.615212,1406.391290,-6809.894666,3830.477490
3102.615540,222.061783,-9178.553681,5286.058936
3102.615867,1332.370696,-11621.233289,3370.820191
3102.616195,4145.153275,-12657.521608,-229.828649
3102.616522,2886.803174,-14508.036463,-1072.533697
3102.616850,-296.082377,-14063.912898,-1915.238745
3102.617177,-666.185348,-9992.780217,-4673.182538
3102.617505,-1406.391290,-9474.636058,-5209.449386
3102.617833,-2886.803174,-10362.883188,-4060.306139
3102.618160,-2442.679609,-7105.977043,-2221.676944
3102.618488,-1110.308913,-5699.585753,0.000000
3102.618815,-592.164754,-8956.491898,2451.505594
3102.619143,1406.391290,-9030.512492,3064.381992
3102.619470,2294.638420,-7328.038826,2068.457845
3102.619798,888.247130,-8586.388927,3677.258390
3102.620125,2442.679609,-10288.862594,3370.820191
3102.620453,4959.379811,-11843.295072,766.095498
3102.620781,3330.926739,-14285.974681,536.266849
3102.621108,592.164754,-13249.686362,383.047749
3102.621436,-1258.350101,-8438.347739,-2987.772442
3102.621763,-3034.844362,-8586.388927,-4903.011187
3102.622091,-4515.256246,-10584.944971,-4290.134789
3102.622418,-3108.864956,-7179.997637,-3524.039291
3102.622746,-1776.494261,-5255.462188,-1991.848295
3102.623074,74.020594,-8290.306550,1225.752797
3102.623401,2072.576638,-8660.409521,2221.676944
3102.623729,2294.638420,-7179.997637,4366.744339
3102.624056,1554.432478,-9104.533087,4290.134789
3102.624384,2294.638420,-10362.883188,1608.800546
3102.624711,3627.009116,-11917.315666,-1378.971896
3102.625039,1998.556043,-14952.160028,-1685.410096
3102.625366,1480.411884,-14952.160028,-1149.143247
3102.625694,1628.453072,-9770.718434,-1915.238745
3102.626022,296.082377,-10140.821405,-1991.848295
3102.626349,-2516.700203,-10732.986159,-2374.896044
3102.626677,-1554.432478,-6291.750507,-4213.525239
3102.627004,-1554.432478,-3849.070898,-3447.429741
3102.627332,-1998.556043,-8512.368333,612.876398
3102.627659,-518.144159,-7624.121203,2451.505594
3102.627987,444.123565,-6439.791695,3907.087040
3102.628315,1480.411884,-10214.842000,4136.915689
3102.628642,3108.864956,-13101.645173,2298.286494
3102.628970,4959.379811,-12879.583391,-229.828649
3102.629297,3478.967927,-14211.954086,-459.657299
3102.629625,1406.391290,-12879.583391,-306.438199
3102.629952,518.144159,-9770.718434,-2221.676944
3102.630280,-1036.288319,-10362.883188,-1915.238745
3102.630607,-3701.029710,-9548.656652,-612.876398
3102.630935,-2812.782580,-5699.585753,-3064.381992
3102.631263,-1406.391290,-6143.709319,-3140.991542
3102.631590,-2368.659014,-8882.471304,-612.876398
3102.631918,-2146.597232,-7105.977043,1225.752797
3102.632245,0.000000,-5699.585753,1455.581446
3102.632573,740.205942,-9770.718434,3064.381992
3102.632900,3108.864956,-12287.418637,2221.676944
3102.633228,4515.256246,-10658.965565,1149.143247
3102.633556,3775.050304,-12953.603985,2451.505594
3102.633883,3034.844362,-14508.036463,1302.362347
3102.634211,444.123565,-10362.883188,-995.924147
3102.634538,-1998.556043,-8586.388927,-1991.848295
3102.634866,-3330.926739,-9400.615463,-2757.943793
3102.635193,-1406.391290,-7328.038826,-3983.696590
3102.635521,-2294.638420,-5403.503377,-3064.381992
3102.635849,-3404.947333,-8660.409521,-153.219100
3102.636176,-1258.350101,-7772.162391,612.876398
3102.636504,666.185348,-6809.894666,612.876398
3102.636831,1332.370696,-10955.047942,2987.772442
3102.637159,3478.967927,-11621.233289,2298.286494
3102.637487,5995.668130,-10732.986159,612.876398
3102.637814,3330.926739,-13693.809927,2604.724693
3102.638142,1110.308913,-13767.830521,2145.067394
3102.638469,-296.082377,-10436.903782,-1302.362347
3102.638797,-3182.885551,-9844.739029,-3064.381992
3102.639125,-3627.009116,-10510.924376,-4596.572988
3102.639452,-3034.844362,-7624.121203,-5745.716235
3102.639780,-1776.494261,-7402.059420,-3677.258390
3102.640107,-1702.473667,-9548.656652,0.000000
3102.640435,592.164754,-8216.285956,689.485948
3102.640763,1628.453072,-5921.647536,995.924147
3102.641090,1850.514855,-8882.471304,2298.286494
3102.641418,3034.844362,-10214.842000,2681.334243
3102.641745,5107.421000,-10510.924376,1915.238745
3102.642073,3256.906145,-13027.624579,4443.353888
3102.642401,1998.556043,-13027.624579,3064.381992
3102.642728,1554.432478,-9992.780217,76.609550
3102.643056,-1480.411884,-10658.965565,-1991.848295
3102.643383,-4589.276840,-10066.800811,-3064.381992
3102.643711,-3775.050304,-6661.853478,-5286.058936
3102.644039,-3330.926739,-4589.276840,-4673.182538
3102.644366,-2738.761985,-8438.347739,-1378.971896
3102.644694,-296.082377,-7846.182985,1532.190996
3102.645022,1850.514855,-5995.668130,2757.943793
3102.645349,3256.906145,-9104.533087,4519.963438
3102.645677,4589.276840,-11547.212695,2987.772442
3102.646004,5033.400406,-11251.130318,459.657299
3102.646332,4071.132681,-13027.624579,1685.410096
3102.646660,3108.864956,-13841.851115,1302.362347
3102.646987,1998.556043,-9252.574275,-1762.019645
3102.647315,-592.164754,-10066.800811,-1149.143247
3102.647642,-2368.659014,-10584.944971,-766.095498
3102.647970,-2590.720797,-7105.977043,-3524.039291
3102.648298,-3775.050304,-7254.018232,-4443.353888
3102.648625,-3404.947333,-10362.883188,-2911.162892
3102.648953,-1480.411884,-7402.059420,-1685.410096
3102.649280,2072.576638,-7254.018232,0.000000
3102.649608,1480.411884,-9548.656652,2528.115143
3102.649936,4293.194464,-11769.274478,2681.334243
3102.650263,5625.565159,-10436.903782,1685.410096
3102.650591,3627.009116,-13545.768739,1302.362347
3102.650918,3034.844362,-15396.283594,1149.143247
3102.651246,814.226536,-10510.924376,-919.314598
3102.651574,-1702.473667,-10288.862594,-1838.629195
3102.651901,-4293.194464,-10955.047942,-1455.581446
3102.652229,-2220.617826,-9326.594869,-3370.820191
3102.652556,-2146.597232,-6735.874072,-2221.676944
3102.652884,-3330.926739,-8734.430116,-536.266849
3102.653212,-888.247130,-7402.059420,-153.219100
3102.653539,-666.185348,-4663.297435,0.000000
3102.653867,0.000000,-6587.832884,1991.848295
3102.654194,1110.308913,-10066.800811,1378.971896
3102.654522,2960.823768,-10362.883188,919.314598
3102.654850,2442.679609,-13693.809927,2451.505594
3102.655177,3034.844362,-13989.892304,1915.238745
3102.655505,3108.864956,-10955.047942,-536.266849
3102.655832,-518.144159,-10807.006753,-306.438199
3102.656160,-2220.617826,-10881.027347,0.000000
3102.656488,-3256.906145,-5773.606348,-1991.848295
3102.656815,-3256.906145,-5329.482782,-3064.381992
3102.657143,-3552.988522,-8808.450710,-229.828649
3102.657470,-1924.535449,-7254.018232,-306.438199
3102.657798,-518.144159,-6217.729913,766.095498
3102.658126,0.000000,-9104.533087,1149.143247
3102.658453,1776.494261,-10510.924376,-766.095498
3102.658781,3478.967927,-10881.027347,-536.266849
3102.659108,3478.967927,-12509.480420,536.266849
3102.659436,3627.009116,-14582.057057,1149.143247
3102.659764,2590.720797,-12509.480420,306.438199
3102.660091,370.102971,-11473.192101,459.657299
3102.660419,-1850.514855,-10436.903782,-229.828649
3102.660746,-1850.514855,-7994.224174,-2528.115143
3102.661074,-2368.659014,-8586.388927,-3064.381992
3102.661402,-2442.679609,-9178.553681,-2221.676944
3102.661729,-666.185348,-7772.162391,-2298.286494
3102.662057,814.226536,-6365.771101,-689.485948
3102.662384,888.247130,-9622.677246,1455.581446
3102.662712,2590.720797,-10140.821405,1302.362347
3102.663040,4589.276840,-10436.903782,0.000000
3102.663367,4071.132681,-13101.645173,0.000000
3102.663695,3701.029710,-13323.706956,1455.581446
3102.664022,3182.885551,-10214.842000,995.924147
3102.664350,444.123565,-10436.903782,1762.019645
3102.664678,-1480.411884,-10066.800811,1225.752797
3102.665005,-1628.453072,-5773.606348,-1455.581446
3102.665333,-3404.947333,-5773.606348,-995.924147
3102.665660,-3997.112087,-9474.636058,-919.314598
3102.665988,-2220.617826,-7772.162391,-2374.896044
3102.666316,0.000000,-5995.668130,-2451.505594
3102.666643,222.061783,-8660.409521,229.828649
3102.666971,3997.112087,-10584.944971,995.924147
3102.667298,6439.791695,-11029.068536,536.266849
3102.667626,4811.338623,-13915.871710,1915.238745
3102.667954,3627.009116,-12731.542202,1762.019645
3102.668281,2886.803174,-8956.491898,306.438199
3102.668609,-1036.288319,-9918.759623,1455.581446
3102.668936,-4219.173869,-10658.965565,1532.190996
3102.669264,-4737.318029,-6883.915261,-1378.971896
3102.669592,-4219.173869,-8142.265362,-2451.505594
3102.669919,-3997.112087,-11473.192101,-1608.800546
3102.670247,-2738.761985,-8216.285956,-1608.800546
3102.670574,-1554.432478,-5033.400406,-766.095498
3102.670902,-518.144159,-8068.244768,0.000000
3102.671230,2294.638420,-10658.965565,-306.438199
3102.671557,4885.359217,-10510.924376,-153.219100
3102.671885,3923.091493,-12731.542202,1838.629195
3102.672212,2590.720797,-13027.624579,3370.820191
3102.672540,2220.617826,-10066.800811,229.828649
3102.672868,444.123565,-11547.212695,-536.266849
3102.673195,-2516.700203,-11769.274478,0.000000
3102.673523,-1702.473667,-7698.141797,-1685.410096
3102.673850,-1850.514855,-7105.977043,-1378.971896
3102.674178,-2294.638420,-9696.697840,536.266849
3102.674506,-444.123565,-8364.327145,76.609550
3102.674833,-370.102971,-5107.421000,383.047749
3102.675161,-518.144159,-7476.080014,919.314598
3102.675489,1924.535449,-10288.862594,-919.314598
3102.675816,3849.070898,-10955.047942,-1991.848295
3102.676144,3997.112087,-12583.501014,-919.314598
3102.676471,2664.741391,-12731.542202,1225.752797
3102.676799,3478.967927,-10510.924376,0.000000
3102.677127,2146.597232,-12139.377449,689.485948
3102.677454,-1184.329507,-11325.150913,1991.848295
3102.677782,-814.226536,-7105.977043,-1225.752797
3102.678109,-2072.576638,-7105.977043,-1225.752797
3102.678437,-3034.844362,-9770.718434,0.000000
3102.678765,-1924.535449,-7772.162391,-766.095498
3102.679092,-1480.411884,-5699.585753,-612.876398
3102.679420,74.020594,-8290.306550,0.000000
3102.679747,2886.803174,-10510.924376,-689.485948
3102.680075,3849.070898,-10436.903782,-1149.143247
3102.680403,2812.782580,-12361.439231,153.219100
3102.680730,2368.659014,-12065.356855,-612.876398
3102.681058,2294.638420,-9770.718434,-1378.971896
3102.681385,0.000000,-11843.295072,1225.752797
3102.681713,-962.267725,-12213.398043,1762.019645
3102.682041,-1258.350101,-7698.141797,0.000000
3102.682368,-1258.350101,-8438.347739,-612.876398
3102.682696,-1850.514855,-10732.986159,689.485948
3102.683023,-962.267725,-7402.059420,0.000000
3102.683351,-2294.638420,-3849.070898,383.047749
3102.683679,-888.247130,-8142.265362,1225.752797
3102.684006,1332.370696,-10881.027347,-1302.362347
3102.684334,2516.700203,-10881.027347,-2681.334243
3102.684661,1110.308913,-12731.542202,-612.876398
3102.684989,1554.432478,-12583.501014,229.828649
3102.685317,1776.494261,-9844.739029,-766.095498
3102.685644,74.020594,-11029.068536,-459.657299
3102.685972,-1184.329507,-11399.171507,612.876398
3102.686299,-1702.473667,-7105.977043,-612.876398
3102.686627,-1628.453072,-7402.059420,76.609550
3102.686955,-1702.473667,-10214.842000,2068.457845
3102.687282,-1036.288319,-8216.285956,1149.143247
3102.687610,-814.226536,-6957.935855,536.266849
3102.687937,-296.082377,-9548.656652,0.000000
3102.688265,2812.782580,-10510.924376,-1762.019645
3102.688593,4145.153275,-10732.986159,-3064.381992
3102.688920,1480.411884,-12805.562797,-306.438199
3102.689248,814.226536,-11399.171507,229.828649
3102.689575,1628.453072,-7846.182985,-1378.971896
3102.689903,74.020594,-10066.800811,-842.705048
3102.690231,-1406.391290,-11769.274478,995.924147
3102.690558,-518.144159,-8438.347739,459.657299
3102.690886,-1110.308913,-7402.059420,0.000000
3102.691213,-962.267725,-10955.047942,689.485948
3102.691541,-518.144159,-8438.347739,153.219100
3102.691869,-1110.308913,-5329.482782,1072.533697
3102.692196,-1258.350101,-9030.512492,1838.629195
3102.692524,1924.535449,-11177.109724,-1302.362347
3102.692851,3404.947333,-10658.965565,-3677.258390
3102.693179,2516.700203,-11399.171507,-1915.238745
3102.693507,2516.700203,-11991.336260,-1455.581446
3102.693834,3627.009116,-10658.965565,-1149.143247
3102.694162,1184.329507,-10584.944971,536.266849
3102.694489,-888.247130,-10436.903782,842.705048
3102.694817,-296.082377,-6883.915261,-1532.190996
3102.695145,-814.226536,-7476.080014,-306.438199
3102.695472,-2442.679609,-9474.636058,2681.334243
3102.695800,-1924.535449,-7105.977043,2681.334243
3102.696127,-1554.432478,-6957.935855,2681.334243
3102.696455,148.041188,-10362.883188,1685.410096
3102.696783,2664.741391,-10955.047942,-1532.190996
3102.697110,3478.967927,-9622.677246,-2911.162892
3102.697438,2886.803174,-12139.377449,-2451.505594
3102.697765,2516.700203,-11843.295072,-1532.190996
3102.698093,1998.556043,-8956.491898,-2374.896044
3102.698421,-370.102971,-10140.821405,0.000000
3102.698748,-1554.432478,-10658.965565,1991.848295
3102.699076,-666.185348,-7031.956449,229.828649
3102.699403,-592.164754,-8586.388927,0.000000
3102.699731,-1258.350101,-11325.150913,1455.581446
3102.700059,-296.082377,-8808.450710,1762.019645
3102.700386,296.082377,-6661.853478,1991.848295
3102.700714,888.247130,-8734.430116,2298.286494
3102.701041,2368.659014,-10214.842000,383.047749
3102.701369,2368.659014,-11325.150913,-1915.238745
3102.701697,222.061783,-12953.603985,-1608.800546
3102.702024,962.267725,-12287.418637,-2298.286494
3102.702352,1776.494261,-9770.718434,-4519.963438
3102.702679,-222.061783,-10584.944971,-2451.505594
3102.703007,-2516.700203,-10658.965565,153.219100
3102.703335,-296.082377,-7402.059420,-919.314598
3102.703662,-296.082377,-8290.306550,153.219100
3102.703990,-1406.391290,-11177.109724,2681.334243
3102.704317,-814.226536,-8512.368333,2911.162892
3102.704645,-518.144159,-7402.059420,3294.210641
3102.704973,592.164754,-9992.780217,2451.505594
3102.705300,2072.576638,-10807.006753,-1225.752797
3102.705628,1924.535449,-10140.821405,-2834.553343
3102.705956,666.185348,-11695.253884,-2757.943793
3102.706283,814.226536,-12509.480420,-2528.115143
3102.706611,592.164754,-9178.553681,-2451.505594
3102.706938,-2220.617826,-8808.450710,-995.924147
3102.707266,-4367.215058,-8734.430116,0.000000
3102.707594,-1850.514855,-6143.709319,-766.095498
3102.707921,-296.082377,-8068.244768,842.705048
3102.708249,-518.144159,-10658.965565,2911.162892
3102.708576,962.267725,-7550.100608,2757.943793
3102.708904,1110.308913,-6809.894666,3140.991542
3102.709232,1258.350101,-11177.109724,2221.676944
3102.709559,2442.679609,-11399.171507,306.438199
3102.709887,2738.761985,-9622.677246,-2221.676944
3102.710214,1480.411884,-12065.356855,-1915.238745
3102.710542,1332.370696,-13693.809927,-2298.286494
3102.710870,1702.473667,-9622.677246,-4596.572988
3102.711197,-962.267725,-9326.594869,-3217.601092
3102.711525,-2738.761985,-9844.739029,-1378.971896
3102.711852,-1554.432478,-7105.977043,-2145.067394
3102.712180,-1332.370696,-6365.771101,-383.047749
3102.712508,-1628.453072,-9474.636058,2298.286494
3102.712835,0.000000,-9252.574275,3370.820191
3102.713163,1036.288319,-8142.265362,3524.039291
3102.713490,1258.350101,-10288.862594,3370.820191
3102.713818,3478.967927,-11547.212695,1915.238745
3102.714146,5107.421000,-11991.336260,-1915.238745
3102.714473,3108.864956,-13693.809927,-1685.410096
3102.714801,2146.597232,-12805.562797,-2451.505594
3102.715128,2072.576638,-9474.636058,-4060.306139
3102.715456,-666.185348,-9474.636058,-2528.115143
3102.715784,-3478.967927,-9474.636058,919.314598
3102.716111,-2294.638420,-6439.791695,0.000000
3102.716439,-1110.308913,-7105.977043,-383.047749
3102.716766,-1850.514855,-9992.780217,1685.410096
3102.717094,-814.226536,-7105.977043,2451.505594
3102.717422,0.000000,-6661.853478,3140.991542
3102.717749,1628.453072,-10066.800811,3370.820191
3102.718077,3701.029710,-10807.006753,1302.362347
3102.718404,3775.050304,-10362.883188,-383.047749
3102.718732,2664.741391,-12583.501014,536.266849
3102.719060,2368.659014,-13101.645173,-459.657299
3102.719387,1702.473667,-9548.656652,-2911.162892
3102.719715,-1258.350101,-8586.388927,-3447.429741
3102.720042,-3108.864956,-9178.553681,-3064.381992
3102.720370,-962.267725,-7772.162391,-3140.991542
3102.720698,-740.205942,-7920.203579,-689.485948
3102.721025,-2220.617826,-9548.656652,2298.286494
3102.721353,-1554.432478,-8068.244768,2528.115143
3102.721680,-814.226536,-8438.347739,2834.553343
3102.722008,222.061783,-10658.965565,3294.210641
3102.722336,2442.679609,-10881.027347,1762.019645
3102.722663,3552.988522,-10955.047942,0.000000
3102.722991,2886.803174,-13175.665768,0.000000
3102.723318,1184.329507,-12731.542202,-1838.629195
3102.723646,222.061783,-9030.512492,-4290.134789
3102.723974,-2368.659014,-8882.471304,-4596.572988
3102.724301,-3923.091493,-9992.780217,-3830.477490
3102.724629,-2738.761985,-7254.018232,-3294.210641
3102.724956,-1702.473667,-8068.244768,-1072.533697
3102.725284,-1554.432478,-10732.986159,2068.457845
3102.725612,962.267725,-8364.327145,2757.943793
3102.725939,1258.350101,-7698.141797,3830.477490
3102.726267,1850.514855,-10658.965565,4903.011187
3102.726594,3997.112087,-9548.656652,2528.115143
3102.726922,4737.318029,-9474.636058,459.657299
3102.727250,2368.659014,-12065.356855,1149.143247
3102.727577,1628.453072,-13397.727550,0.000000
3102.727905,370.102971,-8882.471304,-2681.334243
3102.728232,-2368.659014,-8660.409521,-4519.963438
3102.728560,-4367.215058,-10807.006753,-4826.401637
3102.728888,-2960.823768,-8142.265362,-5439.278036
3102.729215,-2664.741391,-7328.038826,-2374.896044
3102.729543,-2072.576638,-8808.450710,1455.581446
3102.729870,222.061783,-6217.729913,3140.991542
3102.730198,2146.597232,-6883.915261,4213.525239
3102.730526,3256.906145,-10732.986159,5975.544884
3102.730853,4959.379811,-11547.212695,3600.648841
3102.731181,6661.853478,-11769.274478,689.485948
3102.731508,5107.421000,-12953.603985,842.705048
3102.731836,2442.679609,-12731.542202,-766.095498
3102.732164,370.102971,-10658.965565,-3447.429741
3102.732491,-2738.761985,-9992.780217,-4903.011187
3102.732819,-4737.318029,-9844.739029,-5056.230287
3102.733146,-3404.947333,-7772.162391,-5822.325785
3102.733474,-4071.132681,-7772.162391,-2757.943793
3102.733802,-4071.132681,-9030.512492,383.047749
3102.734129,-1480.411884,-6735.874072,2068.457845
3102.734457,1554.432478,-7105.977043,3064.381992
3102.734784,3108.864956,-10140.821405,4596.572988
3102.735112,5699.585753,-10584.944971,3524.039291
3102.735440,6957.935855,-11547.212695,2221.676944
3102.735767,4145.153275,-14434.015869,2451.505594
3102.736095,2442.679609,-11843.295072,-459.657299
3102.736423,74.020594,-8216.285956,-2145.067394
3102.736750,-3034.844362,-9918.759623,-3064.381992
3102.737078,-3775.050304,-10807.006753,-4366.744339
3102.737406,-2960.823768,-8068.244768,-5132.839837
3102.737733,-4071.132681,-8068.244768,-2987.772442
3102.738061,-3775.050304,-9474.636058,919.314598
3102.738389,-1850.514855,-5181.441594,2221.676944
3102.738716,0.000000,-5995.668130,1991.848295
3102.739044,1184.329507,-9474.636058,3907.087040
3102.739372,4959.379811,-10881.027347,1608.800546
3102.739699,4885.359217,-10584.944971,2145.067394
3102.740027,4367.215058,-13841.851115,3447.429741
3102.740355,2590.720797,-12509.480420,1838.629195
3102.740682,1998.556043,-10881.027347,-1838.629195
3102.741010,-1554.432478,-10732.986159,-3524.039291
3102.741338,-2886.803174,-10140.821405,-3677.258390
3102.741665,-1998.556043,-7624.121203,-4903.011187
3102.741993,-2368.659014,-8882.471304,-2298.286494
3102.742321,-3923.091493,-9030.512492,919.314598
3102.742648,-2220.617826,-5847.626942,229.828649
3102.742976,-296.082377,-6735.874072,842.705048
3102.743304,1258.350101,-10584.944971,2451.505594
3102.743631,4071.132681,-10807.006753,2221.676944
3102.743959,4959.379811,-10807.006753,1072.533697
3102.744287,4663.297435,-14211.954086,2451.505594
3102.744614,3701.029710,-13989.892304,1915.238745
3102.744942,1998.556043,-9696.697840,0.000000
3102.745270,-444.123565,-10362.883188,-1762.019645
3102.745597,-2516.700203,-9992.780217,-3600.648841
3102.745925,-2590.720797,-6809.894666,-5515.887586
3102.746253,-3478.967927,-7772.162391,-3677.258390
3102.746580,-3552.988522,-8882.471304,-383.047749
3102.746908,-1480.411884,-6957.935855,689.485948
3102.747236,148.041188,-7476.080014,1762.019645
3102.747563,1480.411884,-10732.986159,3140.991542
3102.747891,5551.544565,-11251.130318,1378.971896
3102.748219,6735.874072,-10807.006753,1378.971896
3102.748546,5551.544565,-13619.789333,4290.134789
3102.748874,2886.803174,-12509.480420,3907.087040
3102.749202,-296.082377,-9918.759623,1149.143247
3102.749529,-3923.091493,-10066.800811,-1991.848295
3102.749857,-3701.029710,-9104.533087,-5515.887586
3102.750185,-3404.947333,-6883.915261,-6665.030833
3102.750512,-4367.215058,-7772.162391,-3677.258390
3102.750840,-3404.947333,-9844.739029,76.609550
3102.751168,0.000000,-7994.224174,0.000000
3102.751495,2368.659014,-8290.306550,459.657299
3102.751823,2442.679609,-10584.944971,2528.115143
3102.752151,4441.235652,-9178.553681,2145.067394
3102.752479,5699.585753,-9474.636058,1915.238745
3102.752806,5403.503377,-14211.954086,3907.087040
3102.753134,3256.906145,-12509.480420,2757.943793
3102.753462,2072.576638,-8216.285956,1072.533697
3102.753789,-814.226536,-10955.047942,-459.657299
3102.754117,-2664.741391,-11177.109724,-3064.381992
3102.754445,-3330.926739,-8290.306550,-6205.373534
3102.754772,-4663.297435,-7994.224174,-5286.058936
3102.755100,-6217.729913,-8290.306550,-2221.676944
3102.755428,-2220.617826,-7402.059420,-1838.629195
3102.755755,-740.205942,-7105.977043,1072.533697
3102.756083,888.247130,-10732.986159,3677.258390
3102.756411,4737.318029,-10140.821405,2145.067394
3102.756738,6439.791695,-10510.924376,1149.143247
3102.757066,6365.771101,-13767.830521,2987.772442
3102.757394,5255.462188,-12583.501014,3600.648841
3102.757721,1850.514855,-8956.491898,1455.581446
3102.758049,-2146.597232,-9252.574275,-766.095498
3102.758377,-4737.318029,-10732.986159,-3370.820191
3102.758704,-4293.194464,-9622.677246,-5669.106685
3102.759032,-4663.297435,-9474.636058,-4136.915689
3102.759360,-3997.112087,-9918.759623,-1532.190996
3102.759687,-1036.288319,-6143.709319,-1532.190996
3102.760015,-1036.288319,-5551.544565,1149.143247
3102.760343,-222.061783,-8512.368333,2681.334243
3102.760670,3330.926739,-7328.038826,1838.629195
3102.760998,3404.947333,-8512.368333,1302.362347
3102.761326,4589.276840,-12361.439231,2604.724693
3102.761653,3849.070898,-12509.480420,2374.896044
3102.761981,2812.782580,-10510.924376,1072.533697
3102.762309,-370.102971,-11547.212695,-153.219100
3102.762636,-2442.679609,-11399.171507,-1532.190996
3102.762964,-2294.638420,-6883.915261,-4136.915689
3102.763292,-3923.091493,-7994.224174,-3677.258390
3102.763619,-3775.050304,-10214.842000,-1532.190996
3102.763947,-1480.411884,-7846.182985,-995.924147
3102.764275,-1480.411884,-6217.729913,536.266849
3102.764602,222.061783,-9548.656652,1838.629195
3102.764930,3849.070898,-8586.388927,1225.752797
3102.765258,4663.297435,-10288.862594,0.000000
3102.765585,3404.947333,-13841.851115,1302.362347
3102.765913,2812.782580,-12583.501014,153.219100
3102.766241,2442.679609,-8586.388927,-1302.362347
3102.766568,-962.267725,-10881.027347,-306.438199
3102.766896,-2664.741391,-11843.295072,-306.438199
3102.767224,-1036.288319,-9474.636058,-2451.505594
3102.767551,-2294.638420,-9474.636058,-2068.457845
3102.767879,-2368.659014,-9474.636058,-1762.019645
