#time,accel_x,accel_y,accel_z
495.045721,0.000000,-9918.759623,-536.266849
495.046047,370.102971,-9770.718434,-689.485948
495.046373,518.144159,-9992.780217,-689.485948
495.046699,518.144159,-9474.636058,306.438199
495.047026,222.061783,-9030.512492,536.266849
495.047352,370.102971,-8808.450710,689.485948
495.047678,444.123565,-8956.491898,306.438199
495.048004,0.000000,-8808.450710,306.438199
495.048330,222.061783,-9178.553681,689.485948
495.048656,296.082377,-9474.636058,-766.095498
495.048982,0.000000,-9770.718434,-766.095498
495.049308,74.020594,-9548.656652,-766.095498
495.049634,518.144159,-9918.759623,-383.047749
495.049960,444.123565,-10066.800811,-229.828649
495.050287,962.267725,-9622.677246,153.219100
495.050613,740.205942,-9104.533087,536.266849
495.050939,814.226536,-8956.491898,306.438199
495.051265,814.226536,-9474.636058,306.438199
495.051591,296.082377,-9474.636058,0.000000
495.051917,-222.061783,-9474.636058,-383.047749
495.052243,0.000000,-9326.594869,-995.924147
495.052569,-296.082377,-10214.842000,-1608.800546
495.052895,-370.102971,-10140.821405,-1685.410096
495.053221,0.000000,-10436.903782,-766.095498
495.053548,444.123565,-10658.965565,-536.266849
495.053874,222.061783,-9844.739029,-383.047749
495.054200,666.185348,-9770.718434,-229.828649
495.054526,740.205942,-9548.656652,0.000000
495.054852,814.226536,-9622.677246,229.828649
495.055178,222.061783,-9548.656652,0.000000
495.055504,592.164754,-9622.677246,536.266849
495.055830,296.082377,-10066.800811,-459.657299
495.056156,74.020594,-10510.924376,-536.266849
495.056482,0.000000,-10362.883188,-612.876398
495.056809,-222.061783,-9770.718434,-689.485948
495.057135,296.082377,-10214.842000,0.000000
495.057461,74.020594,-9548.656652,-229.828649
495.057787,444.123565,-9400.615463,0.000000
495.058113,518.144159,-8882.471304,995.924147
495.058439,444.123565,-8956.491898,612.876398
495.058765,296.082377,-9030.512492,689.485948
495.059091,296.082377,-9252.574275,383.047749
495.059417,0.000000,-9178.553681,-689.485948
495.059743,0.000000,-9400.615463,-229.828649
495.060070,0.000000,-10214.842000,-612.876398
495.060396,148.041188,-9474.636058,-766.095498
495.060722,222.061783,-9474.636058,-689.485948
495.061048,444.123565,-10066.800811,-153.219100
495.061374,740.205942,-9622.677246,0.000000
495.061700,888.247130,-9400.615463,306.438199
495.062026,740.205942,-9326.594869,459.657299
495.062352,370.102971,-9178.553681,459.657299
495.062678,0.000000,-9178.553681,0.000000
495.063004,0.000000,-9844.739029,0.000000
495.063331,-222.061783,-9770.718434,-766.095498
495.063657,-444.123565,-10140.821405,-1225.752797
495.063983,-444.123565,-10362.883188,-919.314598
495.064309,-592.164754,-10214.842000,-1302.362347
495.064635,-222.061783,-10362.883188,-919.314598
495.064961,592.164754,-10362.883188,-766.095498
495.065287,592.164754,-9548.656652,0.000000
495.065613,444.123565,-9474.636058,306.438199
495.065940,592.164754,-9474.636058,76.609550
495.066266,1184.329507,-9326.594869,842.705048
495.066592,962.267725,-9622.677246,536.266849
495.066918,148.041188,-9918.759623,0.000000
495.067244,222.061783,-10584.944971,-383.047749
495.067570,0.000000,-10510.924376,-612.876398
495.067896,-222.061783,-10140.821405,-766.095498
495.068223,0.000000,-10066.800811,-536.266849
495.068549,370.102971,-9400.615463,-459.657299
495.068875,148.041188,-9400.615463,229.828649
495.069201,592.164754,-9474.636058,612.876398
495.069527,0.000000,-8142.265362,995.924147
495.069853,444.123565,-8734.430116,536.266849
495.070179,370.102971,-8882.471304,383.047749
495.070505,74.020594,-9104.533087,153.219100
495.070832,222.061783,-9548.656652,0.000000
495.071158,518.144159,-9474.636058,-536.266849
495.071484,0.000000,-9622.677246,-1532.190996
495.071810,0.000000,-9696.697840,-306.438199
495.072136,222.061783,-10436.903782,-383.047749
495.072462,740.205942,-10436.903782,-153.219100
495.072788,888.247130,-9622.677246,229.828649
495.073115,666.185348,-9400.615463,229.828649
495.073441,740.205942,-9030.512492,842.705048
495.073767,444.123565,-9474.636058,612.876398
495.074093,518.144159,-9400.615463,383.047749
495.074419,0.000000,-9400.615463,-459.657299
495.074745,-370.102971,-9770.718434,-766.095498
495.075071,-518.144159,-10214.842000,-842.705048
495.075397,-370.102971,-10436.903782,-1378.971896
495.075724,148.041188,-10732.986159,-919.314598
495.076050,0.000000,-10066.800811,-1378.971896
495.076376,370.102971,-9252.574275,76.609550
495.076702,592.164754,-9474.636058,229.828649
495.077028,592.164754,-9474.636058,383.047749
495.077354,740.205942,-9178.553681,383.047749
495.077680,592.164754,-9474.636058,459.657299
495.078007,666.185348,-9400.615463,0.000000
495.078333,296.082377,-9696.697840,-229.828649
495.078659,74.020594,-10214.842000,-612.876398
495.078985,148.041188,-10362.883188,-766.095498
495.079311,148.041188,-10214.842000,-689.485948
495.079637,0.000000,-10214.842000,-536.266849
495.079963,222.061783,-9770.718434,-229.828649
495.080289,444.123565,-9326.594869,0.000000
495.080616,0.000000,-9030.512492,229.828649
495.080942,370.102971,-8438.347739,1072.533697
495.081268,666.185348,-9326.594869,459.657299
495.081594,444.123565,-9104.533087,153.219100
495.081920,0.000000,-9326.594869,0.000000
495.082246,444.123565,-9918.759623,-459.657299
495.082572,74.020594,-9992.780217,0.000000
495.082899,74.020594,-9696.697840,-1149.143247
495.083225,370.102971,-10288.862594,-536.266849
495.083551,444.123565,-10140.821405,-306.438199
495.083877,740.205942,-9844.739029,229.828649
495.084203,740.205942,-9622.677246,383.047749
495.084529,740.205942,-9400.615463,459.657299
495.084855,666.185348,-9178.553681,229.828649
495.085181,74.020594,-9400.615463,-1149.143247
495.085508,-148.041188,-8882.471304,0.000000
495.085834,0.000000,-9770.718434,-995.924147
495.086160,-518.144159,-9992.780217,-842.705048
495.086486,-370.102971,-10214.842000,-1149.143247
495.086812,0.000000,-10881.027347,-995.924147
495.087138,0.000000,-10436.903782,-612.876398
495.087464,148.041188,-9770.718434,0.000000
495.087791,296.082377,-9474.636058,-306.438199
495.088117,444.123565,-9326.594869,229.828649
495.088443,518.144159,-8882.471304,459.657299
495.088769,666.185348,-9252.574275,459.657299
495.089095,222.061783,-9326.594869,306.438199
495.089421,74.020594,-9548.656652,-689.485948
495.089747,370.102971,-10732.986159,-689.485948
495.090073,0.000000,-9918.759623,0.000000
495.090400,148.041188,-10362.883188,-536.266849
495.090726,296.082377,-10436.903782,-995.924147
495.091052,148.041188,-9992.780217,-842.705048
495.091378,518.144159,-9474.636058,0.000000
495.091704,740.205942,-9030.512492,153.219100
495.092030,666.185348,-8956.491898,1685.410096
495.092356,962.267725,-8660.409521,306.438199
495.092683,296.082377,-9252.574275,459.657299
495.093009,148.041188,-9252.574275,0.000000
495.093335,296.082377,-10066.800811,-306.438199
495.093661,222.061783,-10140.821405,-612.876398
495.093987,148.041188,-9992.780217,-1302.362347
495.094313,0.000000,-10140.821405,-612.876398
495.094639,148.041188,-10436.903782,-995.924147
495.094965,444.123565,-9844.739029,0.000000
495.095292,666.185348,-9474.636058,459.657299
495.095618,518.144159,-9474.636058,766.095498
495.095944,518.144159,-9178.553681,459.657299
495.096270,592.164754,-9474.636058,612.876398
495.096596,148.041188,-9400.615463,229.828649
495.096922,0.000000,-9326.594869,-229.828649
495.097248,-222.061783,-9770.718434,-612.876398
495.097575,-666.185348,-10066.800811,-919.314598
495.097901,-148.041188,-10584.944971,-766.095498
495.098227,0.000000,-10436.903782,-459.657299
495.098553,-444.123565,-9918.759623,-689.485948
495.098879,666.185348,-9400.615463,-229.828649
495.099205,592.164754,-9252.574275,842.705048
495.099531,666.185348,-9030.512492,919.314598
495.099857,370.102971,-8882.471304,383.047749
495.100184,74.020594,-9178.553681,0.000000
495.100510,0.000000,-9474.636058,-153.219100
495.100836,148.041188,-9992.780217,-306.438199
495.101162,222.061783,-10066.800811,-919.314598
495.101488,74.020594,-10214.842000,-612.876398
495.101814,592.164754,-10658.965565,-1378.971896
495.102140,222.061783,-10288.862594,-842.705048
495.102467,666.185348,-9622.677246,-306.438199
495.102793,592.164754,-9400.615463,153.219100
495.103119,518.144159,-9104.533087,153.219100
495.103445,962.267725,-8808.450710,229.828649
495.103771,296.082377,-8734.430116,229.828649
495.104097,0.000000,-9474.636058,0.000000
495.104423,0.000000,-9696.697840,-612.876398
495.104749,222.061783,-10140.821405,-995.924147
495.105076,0.000000,-10214.842000,-1149.143247
495.105402,370.102971,-10807.006753,-995.924147
495.105728,444.123565,-10955.047942,-842.705048
495.106054,518.144159,-9474.636058,-229.828649
495.106380,814.226536,-9696.697840,0.000000
495.106706,666.185348,-9400.615463,612.876398
495.107032,444.123565,-8882.471304,536.266849
495.107359,518.144159,-9178.553681,459.657299
495.107685,0.000000,-9104.533087,536.266849
495.108011,0.000000,-9104.533087,459.657299
495.108337,74.020594,-9474.636058,-306.438199
495.108663,-370.102971,-9548.656652,-689.485948
495.108989,0.000000,-10288.862594,-919.314598
495.109315,0.000000,-10288.862594,-689.485948
495.109641,-222.061783,-9918.759623,-536.266849
495.109968,222.061783,-9474.636058,0.000000
495.110294,296.082377,-8956.491898,383.047749
495.110620,444.123565,-8882.471304,919.314598
495.110946,592.164754,-8734.430116,919.314598
495.111272,296.082377,-8956.491898,229.828649
495.111598,370.102971,-9400.615463,-153.219100
495.111924,0.000000,-9696.697840,-689.485948
495.112251,74.020594,-10066.800811,-612.876398
495.112577,0.000000,-10066.800811,-536.266849
495.112903,370.102971,-10584.944971,-306.438199
495.113229,518.144159,-10436.903782,-536.266849
495.113555,518.144159,-9918.759623,-842.705048
495.113881,592.164754,-9548.656652,0.000000
495.114207,370.102971,-9178.553681,76.609550
495.114533,740.205942,-9252.574275,0.000000
495.114860,518.144159,-9400.615463,306.438199
495.115186,370.102971,-9918.759623,-229.828649
495.115512,222.061783,-9696.697840,-459.657299
495.115838,222.061783,-10362.883188,-1072.533697
495.116164,0.000000,-10214.842000,-1225.752797
495.116490,0.000000,-10288.862594,-1149.143247
495.116816,74.020594,-10584.944971,-689.485948
495.117143,444.123565,-10066.800811,-383.047749
495.117469,962.267725,-9770.718434,459.657299
495.117795,888.247130,-9474.636058,459.657299
495.118121,592.164754,-9400.615463,383.047749
495.118447,666.185348,-9474.636058,306.438199
495.118773,518.144159,-9474.636058,306.438199
495.119099,0.000000,-9326.594869,0.000000
495.119425,296.082377,-9770.718434,-766.095498
495.119752,-592.164754,-9474.636058,-689.485948
495.120078,-444.123565,-9622.677246,-612.876398
495.120404,0.000000,-9918.759623,-766.095498
495.120730,-148.041188,-9918.759623,0.000000
495.121056,370.102971,-9474.636058,0.000000
495.121382,518.144159,-9104.533087,536.266849
495.121708,740.205942,-8734.430116,536.266849
495.122035,814.226536,-9030.512492,842.705048
495.122361,518.144159,-9178.553681,0.000000
495.122687,0.000000,-9252.574275,0.000000
495.123013,222.061783,-9770.718434,-612.876398
495.123339,370.102971,-10288.862594,-766.095498
495.123665,148.041188,-10140.821405,-612.876398
495.123991,740.205942,-10288.862594,-1378.971896
495.124317,518.144159,-10362.883188,-612.876398
495.124644,740.205942,-10362.883188,-229.828649
495.124970,370.102971,-9622.677246,-306.438199
495.125296,370.102971,-9400.615463,76.609550
495.125622,592.164754,-9474.636058,229.828649
495.125948,444.123565,-9622.677246,0.000000
495.126274,148.041188,-9474.636058,0.000000
495.126600,0.000000,-9548.656652,0.000000
495.126927,0.000000,-10436.903782,-1225.752797
495.127253,148.041188,-10362.883188,-919.314598
495.127579,0.000000,-10140.821405,-1302.362347
495.127905,0.000000,-10362.883188,-766.095498
495.128231,296.082377,-10214.842000,-229.828649
495.128557,444.123565,-9474.636058,0.000000
495.128883,592.164754,-9844.739029,229.828649
495.129209,592.164754,-9474.636058,689.485948
495.129536,518.144159,-8882.471304,383.047749
495.129862,518.144159,-9400.615463,306.438199
495.130188,74.020594,-9474.636058,76.609550
495.130514,0.000000,-9918.759623,0.000000
495.130840,0.000000,-9844.739029,-612.876398
495.131166,-222.061783,-9548.656652,-306.438199
495.131492,-148.041188,-9474.636058,-995.924147
495.131819,-222.061783,-9622.677246,0.000000
495.132145,0.000000,-9178.553681,0.000000
495.132471,370.102971,-9252.574275,306.438199
495.132797,296.082377,-9104.533087,612.876398
495.133123,592.164754,-9178.553681,1225.752797
495.133449,518.144159,-9030.512492,383.047749
495.133775,148.041188,-9326.594869,0.000000
495.134101,0.000000,-9474.636058,-229.828649
495.134428,296.082377,-10140.821405,-612.876398
495.134754,444.123565,-10214.842000,-842.705048
495.135080,296.082377,-9992.780217,-766.095498
495.135406,370.102971,-10362.883188,-612.876398
495.135732,222.061783,-10214.842000,-612.876398
495.136058,1110.308913,-9992.780217,-459.657299
495.136384,740.205942,-9844.739029,229.828649
495.136711,370.102971,-9548.656652,459.657299
495.137037,740.205942,-9622.677246,0.000000
495.137363,370.102971,-9474.636058,-536.266849
495.137689,0.000000,-9696.697840,-306.438199
495.138015,-222.061783,-9770.718434,-995.924147
495.138341,0.000000,-10214.842000,-995.924147
495.138667,0.000000,-9844.739029,-1302.362347
495.138993,-148.041188,-10436.903782,-842.705048
495.139320,370.102971,-10436.903782,-306.438199
495.139646,592.164754,-9844.739029,-153.219100
495.139972,888.247130,-9474.636058,229.828649
495.140298,740.205942,-9400.615463,229.828649
495.140624,740.205942,-9252.574275,0.000000
495.140950,370.102971,-8808.450710,306.438199
495.141276,148.041188,-9474.636058,459.657299
495.141603,0.000000,-9474.636058,0.000000
495.141929,-148.041188,-9844.739029,-306.438199
495.142255,-518.144159,-9622.677246,-689.485948
495.142581,-222.061783,-9770.718434,-612.876398
495.142907,-740.205942,-9474.636058,-689.485948
495.143233,0.000000,-9326.594869,0.000000
495.143559,222.061783,-9326.594869,153.219100
495.143885,518.144159,-9474.636058,459.657299
495.144212,518.144159,-9252.574275,306.438199
495.144538,740.205942,-9252.574275,536.266849
495.144864,222.061783,-8956.491898,229.828649
495.145190,148.041188,-8956.491898,0.000000
495.145516,222.061783,-9622.677246,-1149.143247
495.145842,222.061783,-10066.800811,-689.485948
495.146168,222.061783,-10140.821405,-842.705048
495.146495,444.123565,-10584.944971,-995.924147
495.146821,370.102971,-10510.924376,-459.657299
495.147147,740.205942,-9918.759623,0.000000
495.147473,814.226536,-9326.594869,0.000000
495.147799,444.123565,-9474.636058,0.000000
495.148125,370.102971,-9474.636058,-153.219100
495.148451,296.082377,-9622.677246,-306.438199
495.148777,-222.061783,-9770.718434,-229.828649
495.149104,0.000000,-9918.759623,-689.485948
495.149430,-222.061783,-10510.924376,-1149.143247
495.149756,-222.061783,-9918.759623,-919.314598
495.150082,-296.082377,-9918.759623,-1225.752797
495.150408,444.123565,-10214.842000,-612.876398
495.150734,296.082377,-9844.739029,-153.219100
495.151060,740.205942,-9474.636058,153.219100
495.151387,592.164754,-9548.656652,536.266849
495.151713,444.123565,-9474.636058,536.266849
495.152039,518.144159,-8364.327145,612.876398
495.152365,296.082377,-9178.553681,0.000000
495.152691,222.061783,-9696.697840,0.000000
495.153017,0.000000,-9548.656652,-306.438199
495.153343,-296.082377,-9474.636058,-459.657299
495.153669,-296.082377,-9474.636058,-612.876398
495.153996,0.000000,-9548.656652,-689.485948
495.154322,0.000000,-9474.636058,0.000000
495.154648,296.082377,-9178.553681,229.828649
495.154974,740.205942,-9474.636058,153.219100
495.155300,814.226536,-9474.636058,76.609550
495.155626,518.144159,-9252.574275,383.047749
495.155952,592.164754,-9474.636058,76.609550
495.156279,222.061783,-9844.739029,-383.047749
495.156605,74.020594,-9696.697840,-842.705048
495.156931,296.082377,-9918.759623,-612.876398
495.157257,0.000000,-9770.718434,-919.314598
495.157583,370.102971,-10140.821405,-995.924147
495.157909,518.144159,-10584.944971,-612.876398
495.158235,518.144159,-10436.903782,0.000000
495.158561,888.247130,-9992.780217,229.828649
495.158888,814.226536,-9918.759623,-383.047749
495.159214,518.144159,-9770.718434,153.219100
495.159540,222.061783,-9474.636058,0.000000
495.159866,0.000000,-9548.656652,0.000000
495.160192,-222.061783,-9992.780217,-689.485948
495.160518,0.000000,-9770.718434,-995.924147
495.160844,222.061783,-9696.697840,-1149.143247
495.161171,0.000000,-9474.636058,-842.705048
495.161497,0.000000,-10066.800811,229.828649
495.161823,296.082377,-9770.718434,0.000000
495.162149,592.164754,-9474.636058,76.609550
495.162475,814.226536,-9696.697840,229.828649
495.162801,518.144159,-9770.718434,229.828649
495.163127,740.205942,-9326.594869,459.657299
495.163453,518.144159,-9400.615463,1072.533697
495.163780,148.041188,-9400.615463,306.438199
495.164106,148.041188,-9326.594869,0.000000
495.164432,0.000000,-9474.636058,-229.828649
495.164758,-222.061783,-9326.594869,-536.266849
495.165084,0.000000,-9474.636058,-229.828649
495.165410,0.000000,-9770.718434,-229.828649
495.165736,148.041188,-9474.636058,0.000000
495.166062,444.123565,-9548.656652,76.609550
495.166389,740.205942,-9474.636058,459.657299
495.166715,740.205942,-9770.718434,0.000000
495.167041,444.123565,-9400.615463,0.000000
495.167367,0.000000,-9548.656652,-306.438199
495.167693,444.123565,-9844.739029,-766.095498
495.168019,370.102971,-9474.636058,-842.705048
495.168345,-370.102971,-9326.594869,-1072.533697
495.168671,74.020594,-9918.759623,-766.095498
495.168998,74.020594,-10658.965565,-689.485948
495.169324,444.123565,-10584.944971,-383.047749
495.169650,666.185348,-10214.842000,0.000000
495.169976,666.185348,-10140.821405,153.219100
495.170302,888.247130,-9844.739029,229.828649
495.170628,888.247130,-9844.739029,383.047749
495.170954,222.061783,-9474.636058,0.000000
495.171280,-296.082377,-9474.636058,0.000000
495.171606,-296.082377,-9474.636058,-536.266849
495.171933,-444.123565,-9400.615463,-459.657299
495.172259,-444.123565,-9474.636058,-766.095498
495.172585,0.000000,-10066.800811,-306.438199
495.172911,148.041188,-9252.574275,229.828649
495.173237,444.123565,-9400.615463,383.047749
495.173563,444.123565,-9474.636058,383.047749
495.173889,814.226536,-9548.656652,459.657299
495.174215,444.123565,-9252.574275,383.047749
495.174542,518.144159,-9104.533087,306.438199
495.174868,74.020594,-9030.512492,842.705048
495.175194,0.000000,-9400.615463,-306.438199
495.175520,148.041188,-9622.677246,-229.828649
495.175846,-296.082377,-9400.615463,-383.047749
495.176172,74.020594,-9548.656652,-383.047749
495.176498,222.061783,-9918.759623,-229.828649
495.176824,148.041188,-9622.677246,-459.657299
495.177151,444.123565,-9696.697840,612.876398
495.177477,666.185348,-9548.656652,536.266849
495.177803,740.205942,-9548.656652,229.828649
495.178129,814.226536,-9474.636058,-153.219100
495.178455,222.061783,-9548.656652,-306.438199
495.178781,222.061783,-9770.718434,-536.266849
495.179107,0.000000,-9696.697840,-842.705048
495.179433,74.020594,-9918.759623,-766.095498
495.179759,222.061783,-10066.800811,-995.924147
495.180086,518.144159,-10436.903782,-1072.533697
495.180412,518.144159,-10436.903782,76.609550
495.180738,666.185348,-10214.842000,0.000000
495.181064,666.185348,-10140.821405,0.000000
495.181390,518.144159,-10066.800811,229.828649
495.181716,592.164754,-9548.656652,306.438199
495.182042,370.102971,-9178.553681,612.876398
495.182368,0.000000,-9104.533087,0.000000
495.182695,0.000000,-9474.636058,-612.876398
495.183021,-592.164754,-9326.594869,-842.705048
495.183347,-518.144159,-9696.697840,-689.485948
495.183673,0.000000,-10066.800811,-612.876398
495.183999,74.020594,-9770.718434,0.000000
495.184325,370.102971,-9696.697840,229.828649
495.184651,222.061783,-9104.533087,842.705048
495.184977,740.205942,-9548.656652,459.657299
495.185304,814.226536,-9104.533087,459.657299
495.185630,592.164754,-9030.512492,76.609550
495.185956,370.102971,-9252.574275,0.000000
495.186282,74.020594,-9548.656652,-536.266849
495.186608,222.061783,-9400.615463,-459.657299
495.186934,0.000000,-9474.636058,-1532.190996
495.187260,74.020594,-9178.553681,-612.876398
495.187586,0.000000,-9918.759623,-612.876398
495.187912,148.041188,-9622.677246,-306.438199
495.188239,296.082377,-9622.677246,-153.219100
495.188565,740.205942,-9918.759623,459.657299
495.188891,592.164754,-9474.636058,612.876398
495.189217,962.267725,-9400.615463,459.657299
495.189543,370.102971,-9622.677246,0.000000
495.189869,296.082377,-9770.718434,-306.438199
495.190195,0.000000,-9918.759623,-1072.533697
495.190521,-222.061783,-9696.697840,-1072.533697
495.190848,0.000000,-10066.800811,-1225.752797
495.191174,222.061783,-10288.862594,-766.095498
495.191500,370.102971,-10140.821405,-536.266849
495.191826,740.205942,-10362.883188,-306.438199
495.192152,814.226536,-10362.883188,0.000000
495.192478,888.247130,-10066.800811,76.609550
495.192804,592.164754,-9548.656652,383.047749
495.193130,296.082377,-9474.636058,153.219100
495.193456,0.000000,-9548.656652,229.828649
495.193783,-296.082377,-9252.574275,-536.266849
495.194109,-592.164754,-9326.594869,-766.095498
495.194435,-888.247130,-9400.615463,-612.876398
495.194761,-370.102971,-9548.656652,-766.095498
495.195087,0.000000,-9992.780217,-383.047749
495.195413,0.000000,-9474.636058,76.609550
495.195739,0.000000,-9622.677246,612.876398
495.196065,740.205942,-9474.636058,306.438199
495.196392,962.267725,-9326.594869,536.266849
495.196718,148.041188,-8956.491898,0.000000
495.197044,444.123565,-9104.533087,229.828649
495.197370,296.082377,-9400.615463,0.000000
495.197696,74.020594,-9474.636058,-229.828649
495.198022,74.020594,-9474.636058,-229.828649
495.198348,74.020594,-9992.780217,-1455.581446
495.198674,296.082377,-10140.821405,-1149.143247
495.199001,222.061783,-10214.842000,-612.876398
495.199327,370.102971,-10066.800811,-153.219100
495.199653,666.185348,-10214.842000,76.609550
495.199979,888.247130,-10066.800811,-153.219100
495.200305,592.164754,-9252.574275,0.000000
495.200631,666.185348,-9326.594869,0.000000
495.200957,592.164754,-9622.677246,0.000000
495.201283,222.061783,-9548.656652,-689.485948
495.201609,-222.061783,-9474.636058,-995.924147
495.201936,0.000000,-10066.800811,-1149.143247
495.202262,0.000000,-10436.903782,-995.924147
495.202588,370.102971,-10510.924376,-536.266849
495.202914,518.144159,-10584.944971,-229.828649
495.203240,370.102971,-10362.883188,0.000000
495.203566,888.247130,-10288.862594,153.219100
495.203892,518.144159,-9622.677246,306.438199
495.204218,518.144159,-9474.636058,306.438199
495.204545,222.061783,-9400.615463,306.438199
495.204871,0.000000,-8882.471304,0.000000
495.205197,-370.102971,-8882.471304,306.438199
495.205523,-518.144159,-8660.409521,-766.095498
495.205849,-518.144159,-9474.636058,-383.047749
495.206175,-222.061783,-9992.780217,-612.876398
495.206501,0.000000,-9622.677246,-306.438199
495.206827,148.041188,-9844.739029,-229.828649
495.207154,666.185348,-9992.780217,153.219100
495.207480,888.247130,-9326.594869,0.000000
495.207806,1036.288319,-8808.450710,153.219100
495.208132,740.205942,-8512.368333,76.609550
495.208458,444.123565,-9178.553681,229.828649
495.208784,0.000000,-9178.553681,0.000000
495.209110,148.041188,-9548.656652,-306.438199
495.209436,74.020594,-9992.780217,76.609550
495.209762,370.102971,-10066.800811,-689.485948
495.210089,74.020594,-10214.842000,-842.705048
495.210415,296.082377,-9992.780217,-766.095498
495.210741,518.144159,-10214.842000,0.000000
495.211067,518.144159,-10066.800811,-229.828649
495.211393,444.123565,-9622.677246,0.000000
495.211719,296.082377,-8882.471304,153.219100
495.212045,296.082377,-9474.636058,0.000000
495.212371,-296.082377,-9474.636058,-766.095498
495.212698,0.000000,-9474.636058,-1072.533697
495.213024,0.000000,-9992.780217,-766.095498
495.213350,74.020594,-10288.862594,-995.924147
495.213676,370.102971,-10584.944971,-995.924147
495.214002,370.102971,-10362.883188,-689.485948
495.214328,518.144159,-10140.821405,-229.828649
495.214654,592.164754,-10066.800811,0.000000
495.214980,1110.308913,-9696.697840,842.705048
495.215307,666.185348,-9030.512492,459.657299
495.215633,444.123565,-9178.553681,383.047749
495.215959,0.000000,-9030.512492,153.219100
495.216285,-222.061783,-9030.512492,-229.828649
495.216611,-814.226536,-9252.574275,-459.657299
495.216937,-518.144159,-9474.636058,-383.047749
495.217263,-592.164754,-9622.677246,0.000000
495.217589,148.041188,-9918.759623,-612.876398
495.217915,0.000000,-9622.677246,-536.266849
495.218242,444.123565,-9770.718434,0.000000
495.218568,1110.308913,-9548.656652,153.219100
495.218894,962.267725,-9030.512492,842.705048
495.219220,592.164754,-8734.430116,612.876398
495.219546,1184.329507,-9030.512492,-229.828649
495.219872,370.102971,-9474.636058,0.000000
495.220198,222.061783,-9696.697840,-383.047749
495.220524,74.020594,-10288.862594,-612.876398
495.220851,0.000000,-10658.965565,-1302.362347
495.221177,222.061783,-10732.986159,-995.924147
495.221503,-148.041188,-10214.842000,-1225.752797
495.221829,296.082377,-9992.780217,-306.438199
495.222155,592.164754,-10140.821405,0.000000
495.222481,518.144159,-9548.656652,459.657299
495.222807,740.205942,-9104.533087,459.657299
495.223133,370.102971,-9400.615463,76.609550
495.223459,74.020594,-9622.677246,612.876398
495.223786,222.061783,-9770.718434,-612.876398
495.224112,148.041188,-10214.842000,-1762.019645
495.224438,0.000000,-10510.924376,-1302.362347
495.224764,148.041188,-10658.965565,-995.924147
495.225090,296.082377,-10510.924376,-689.485948
495.225416,296.082377,-10140.821405,0.000000
495.225742,296.082377,-9548.656652,689.485948
495.226068,1110.308913,-9548.656652,459.657299
495.226395,592.164754,-9030.512492,766.095498
495.226721,296.082377,-8808.450710,842.705048
495.227047,0.000000,-9104.533087,306.438199
495.227373,-296.082377,-9252.574275,0.000000
495.227699,-592.164754,-9622.677246,-612.876398
495.228025,-740.205942,-9696.697840,-612.876398
495.228351,-444.123565,-9548.656652,-1149.143247
495.228677,0.000000,-9992.780217,-459.657299
495.229004,148.041188,-9844.739029,-229.828649
495.229330,666.185348,-9474.636058,0.000000
495.229656,888.247130,-9474.636058,306.438199
495.229982,740.205942,-9252.574275,536.266849
495.230308,1036.288319,-8808.450710,459.657299
495.230634,740.205942,-8956.491898,0.000000
495.230960,444.123565,-9770.718434,-153.219100
495.231286,222.061783,-9844.739029,-306.438199
495.231612,74.020594,-10436.903782,-1149.143247
495.231939,0.000000,-10584.944971,-1225.752797
495.232265,0.000000,-10732.986159,-1149.143247
495.232591,444.123565,-10658.965565,-766.095498
495.232917,592.164754,-10214.842000,0.000000
495.233243,592.164754,-9474.636058,0.000000
495.233569,962.267725,-9770.718434,-229.828649
495.233895,592.164754,-9400.615463,76.609550
495.234221,370.102971,-9474.636058,76.609550
495.234548,148.041188,-9400.615463,76.609550
495.234874,222.061783,-9696.697840,-229.828649
495.235200,148.041188,-10732.986159,-995.924147
495.235526,0.000000,-9918.759623,-1532.190996
495.235852,222.061783,-9622.677246,-1149.143247
495.236178,0.000000,-10214.842000,-689.485948
495.236504,370.102971,-9918.759623,0.000000
495.236830,592.164754,-9770.718434,306.438199
495.237157,1036.288319,-9474.636058,766.095498
495.237483,592.164754,-8956.491898,1072.533697
495.237809,1110.308913,-9104.533087,612.876398
495.238135,222.061783,-8734.430116,383.047749
495.238461,0.000000,-9326.594869,-153.219100
495.238787,-518.144159,-9474.636058,-383.047749
495.239113,-518.144159,-9474.636058,-536.266849
495.239439,-444.123565,-9622.677246,-842.705048
495.239765,-370.102971,-9400.615463,-689.485948
495.240092,74.020594,-9548.656652,-229.828649
495.240418,592.164754,-9622.677246,536.266849
495.240744,666.185348,-9474.636058,229.828649
495.241070,814.226536,-9474.636058,459.657299
495.241396,1036.288319,-9474.636058,0.000000
495.241722,666.185348,-9696.697840,-229.828649
495.242048,666.185348,-9622.677246,-76.609550
495.242374,444.123565,-9696.697840,-459.657299
495.242701,222.061783,-10362.883188,-995.924147
495.243027,0.000000,-10288.862594,-1378.971896
495.243353,74.020594,-10362.883188,-1072.533697
495.243679,222.061783,-10658.965565,-536.266849
495.244005,296.082377,-10214.842000,-306.438199
495.244331,666.185348,-9918.759623,0.000000
495.244657,666.185348,-10140.821405,383.047749
495.244983,592.164754,-9844.739029,0.000000
495.245310,444.123565,-9622.677246,0.000000
495.245636,74.020594,-9474.636058,0.000000
495.245962,0.000000,-9474.636058,-383.047749
495.246288,0.000000,-9696.697840,-536.266849
495.246614,0.000000,-9252.574275,-1225.752797
495.246940,0.000000,-9104.533087,306.438199
495.247266,222.061783,-10066.800811,-229.828649
495.247592,592.164754,-9918.759623,-306.438199
495.247918,518.144159,-9622.677246,459.657299
495.248245,666.185348,-9474.636058,689.485948
495.248571,814.226536,-9474.636058,612.876398
495.248897,592.164754,-8808.450710,612.876398
495.249223,814.226536,-9252.574275,0.000000
495.249549,0.000000,-9474.636058,0.000000
495.249875,-370.102971,-9104.533087,0.000000
495.250201,-296.082377,-9252.574275,-229.828649
495.250527,-592.164754,-9252.574275,-459.657299
495.250854,-148.041188,-9622.677246,-536.266849
495.251180,444.123565,-9770.718434,-383.047749
495.251506,444.123565,-9696.697840,76.609550
495.251832,518.144159,-9474.636058,0.000000
495.252158,296.082377,-9696.697840,153.219100
495.252484,1036.288319,-9844.739029,0.000000
495.252810,888.247130,-9770.718434,-229.828649
495.253136,370.102971,-9622.677246,0.000000
495.253462,666.185348,-9844.739029,-995.924147
495.253789,666.185348,-10214.842000,-1455.581446
495.254115,148.041188,-9918.759623,-995.924147
495.254441,0.000000,-10510.924376,-1072.533697
495.254767,518.144159,-10881.027347,-842.705048
495.255093,222.061783,-10584.944971,-459.657299
495.255419,518.144159,-10288.862594,0.000000
495.255745,592.164754,-9622.677246,76.609550
495.256071,592.164754,-9696.697840,229.828649
495.256398,370.102971,-9474.636058,0.000000
495.256724,222.061783,-9400.615463,-229.828649
495.257050,0.000000,-9400.615463,76.609550
495.257376,0.000000,-9326.594869,-383.047749
495.257702,-592.164754,-9252.574275,-536.266849
495.258028,-444.123565,-9030.512492,-689.485948
495.258354,592.164754,-9696.697840,0.000000
495.258680,148.041188,-9770.718434,0.000000
495.259007,370.102971,-9622.677246,306.438199
495.259333,518.144159,-9474.636058,229.828649
495.259659,592.164754,-9548.656652,459.657299
495.259985,740.205942,-9548.656652,383.047749
495.260311,888.247130,-9104.533087,0.000000
495.260637,0.000000,-9178.553681,0.000000
495.260963,222.061783,-8808.450710,-383.047749
495.261289,0.000000,-8660.409521,0.000000
495.261615,-296.082377,-9252.574275,-306.438199
495.261942,0.000000,-9548.656652,-612.876398
495.262268,0.000000,-9844.739029,-459.657299
495.262594,222.061783,-9770.718434,-383.047749
495.262920,370.102971,-9844.739029,0.000000
495.263246,1110.308913,-10066.800811,0.000000
495.263572,592.164754,-9992.780217,-306.438199
495.263898,740.205942,-9918.759623,-229.828649
495.264224,222.061783,-9844.739029,-536.266849
495.264551,222.061783,-9992.780217,-919.314598
495.264877,0.000000,-9622.677246,-919.314598
495.265203,74.020594,-9770.718434,-306.438199
495.265529,0.000000,-10436.903782,-842.705048
495.265853,888.247130,-10658.965565,-612.876398
495.266179,518.144159,-10658.965565,-306.438199
495.266505,518.144159,-10288.862594,-306.438199
495.266831,444.123565,-10510.924376,-153.219100
495.267157,444.123565,-10140.821405,0.000000
495.267483,518.144159,-9326.594869,0.000000
495.267810,370.102971,-9474.636058,612.876398
495.268136,-296.082377,-9030.512492,-229.828649
495.268462,0.000000,-9030.512492,0.000000
495.268788,-370.102971,-8956.491898,-229.828649
495.269114,-444.123565,-9178.553681,-612.876398
495.269440,-148.041188,-9474.636058,0.000000
495.269766,222.061783,-9400.615463,229.828649
495.270092,518.144159,-9252.574275,229.828649
495.270418,592.164754,-9548.656652,153.219100
495.270744,814.226536,-9622.677246,612.876398
495.271070,814.226536,-9548.656652,306.438199
495.271397,666.185348,-9326.594869,459.657299
495.271723,222.061783,-9326.594869,76.609550
495.272049,148.041188,-9104.533087,153.219100
495.272375,0.000000,-8882.471304,-689.485948
495.272701,0.000000,-8808.450710,-612.876398
495.273027,-370.102971,-9474.636058,-612.876398
495.273353,0.000000,-9992.780217,-459.657299
495.273679,148.041188,-10066.800811,-612.876398
495.274005,444.123565,-10140.821405,-229.828649
495.274331,666.185348,-10584.944971,-153.219100
495.274657,592.164754,-10140.821405,383.047749
495.274983,444.123565,-9474.636058,0.000000
495.275310,370.102971,-9992.780217,-229.828649
495.275636,222.061783,-9770.718434,-766.095498
495.275962,0.000000,-9474.636058,-842.705048
495.276288,0.000000,-9400.615463,-842.705048
495.276614,0.000000,-9770.718434,-689.485948
495.276940,148.041188,-10732.986159,-536.266849
495.277266,370.102971,-10881.027347,-383.047749
495.277592,444.123565,-10362.883188,-306.438199
495.277918,740.205942,-10436.903782,0.000000
495.278244,518.144159,-10362.883188,76.609550
495.278570,444.123565,-9400.615463,0.000000
495.278897,518.144159,-8956.491898,306.438199
495.279223,-370.102971,-9030.512492,0.000000
495.279549,370.102971,-9104.533087,0.000000
495.279875,-444.123565,-8808.450710,0.000000
495.280201,-444.123565,-9104.533087,0.000000
495.280527,0.000000,-9548.656652,-383.047749
495.280853,74.020594,-9696.697840,-306.438199
495.281179,74.020594,-9474.636058,0.000000
495.281505,222.061783,-9400.615463,-306.438199
495.281831,666.185348,-9474.636058,459.657299
495.282157,888.247130,-9474.636058,612.876398
495.282483,1036.288319,-8882.471304,383.047749
495.282810,592.164754,-9178.553681,459.657299
495.283136,518.144159,-9252.574275,153.219100
495.283462,148.041188,-9030.512492,-306.438199
495.283788,0.000000,-9030.512492,0.000000
495.284114,-296.082377,-9400.615463,-536.266849
495.284440,-370.102971,-10140.821405,-842.705048
495.284766,0.000000,-10658.965565,-766.095498
495.285092,222.061783,-10510.924376,-383.047749
495.285418,518.144159,-10436.903782,-306.438199
495.285744,518.144159,-10066.800811,0.000000
495.286070,592.164754,-9770.718434,0.000000
495.286397,888.247130,-9474.636058,-153.219100
495.286723,296.082377,-9178.553681,0.000000
495.287049,222.061783,-9548.656652,-536.266849
495.287375,0.000000,-9992.780217,-459.657299
495.287701,74.020594,-10362.883188,-459.657299
495.288027,222.061783,-10584.944971,-842.705048
495.288353,444.123565,-11103.089130,-459.657299
495.288679,370.102971,-10732.986159,0.000000
495.289005,1110.308913,-10436.903782,0.000000
495.289331,740.205942,-10140.821405,229.828649
495.289657,740.205942,-9252.574275,612.876398
495.289983,592.164754,-8586.388927,612.876398
495.290310,148.041188,-8660.409521,306.438199
495.290636,-592.164754,-8586.388927,459.657299
495.290962,0.000000,-9104.533087,0.000000
495.291288,-370.102971,-9548.656652,-383.047749
495.291614,-518.144159,-9474.636058,-612.876398
495.291940,0.000000,-9548.656652,-842.705048
495.292266,0.000000,-9844.739029,-229.828649
495.292592,222.061783,-9696.697840,76.609550
495.292918,1258.350101,-9474.636058,153.219100
495.293244,1184.329507,-9400.615463,689.485948
495.293570,1184.329507,-8734.430116,536.266849
495.293897,888.247130,-8956.491898,383.047749
495.294223,444.123565,-9548.656652,229.828649
495.294549,296.082377,-9548.656652,0.000000
495.294875,0.000000,-9474.636058,-766.095498
495.295201,0.000000,-10140.821405,-459.657299
495.295527,0.000000,-10362.883188,-1378.971896
495.295853,0.000000,-10584.944971,-1072.533697
495.296179,0.000000,-10288.862594,-919.314598
495.296505,148.041188,-10288.862594,-536.266849
495.296831,592.164754,-9992.780217,0.000000
495.297157,666.185348,-9696.697840,612.876398
495.297483,666.185348,-9326.594869,536.266849
495.297810,888.247130,-9696.697840,-459.657299
495.298136,444.123565,-9696.697840,-153.219100
495.298462,222.061783,-10362.883188,-919.314598
495.298788,74.020594,-10584.944971,-1149.143247
495.299114,0.000000,-10510.924376,-919.314598
495.299440,370.102971,-10362.883188,-306.438199
495.299766,518.144159,-10658.965565,-153.219100
495.300092,444.123565,-9770.718434,229.828649
495.300418,888.247130,-9770.718434,1072.533697
495.300744,444.123565,-9104.533087,1225.752797
495.301070,518.144159,-8438.347739,995.924147
495.301397,370.102971,-8660.409521,612.876398
495.301723,0.000000,-8734.430116,229.828649
495.302049,-518.144159,-8808.450710,536.266849
495.302375,-370.102971,-9178.553681,-153.219100
495.302701,-444.123565,-9474.636058,-153.219100
495.303027,-296.082377,-9548.656652,-689.485948
495.303353,0.000000,-9992.780217,-383.047749
495.303679,222.061783,-9474.636058,0.000000
495.304005,888.247130,-9474.636058,229.828649
495.304331,1184.329507,-9474.636058,459.657299
495.304657,1184.329507,-9178.553681,153.219100
495.304983,1036.288319,-9252.574275,536.266849
495.305310,592.164754,-9622.677246,153.219100
495.305636,148.041188,-9992.780217,-306.438199
495.305962,148.041188,-10288.862594,-1072.533697
495.306288,-296.082377,-10066.800811,-1838.629195
495.306614,-518.144159,-10140.821405,-1532.190996
495.306940,222.061783,-10807.006753,-1225.752797
495.307266,222.061783,-10881.027347,-995.924147
495.307592,444.123565,-10288.862594,-306.438199
495.307918,444.123565,-9918.759623,-153.219100
495.308244,296.082377,-9770.718434,76.609550
495.308570,518.144159,-9474.636058,0.000000
495.308897,444.123565,-9770.718434,0.000000
495.309223,296.082377,-9622.677246,-229.828649
495.309549,296.082377,-9548.656652,-612.876398
495.309875,222.061783,-10214.842000,-1072.533697
495.310201,0.000000,-10066.800811,-995.924147
495.310527,74.020594,-10066.800811,-766.095498
495.310853,296.082377,-10140.821405,-153.219100
495.311179,814.226536,-9770.718434,229.828649
495.311505,666.185348,-8956.491898,842.705048
495.311831,814.226536,-8660.409521,229.828649
495.312157,814.226536,-8808.450710,689.485948
495.312483,518.144159,-8882.471304,536.266849
495.312810,0.000000,-8956.491898,383.047749
495.313136,-518.144159,-9030.512492,76.609550
495.313462,222.061783,-9326.594869,-536.266849
495.313788,0.000000,-9400.615463,-1149.143247
495.314114,-296.082377,-8956.491898,-306.438199
495.314440,74.020594,-9474.636058,-383.047749
495.314766,370.102971,-9622.677246,0.000000
495.315092,740.205942,-9548.656652,76.609550
495.315418,1110.308913,-9474.636058,229.828649
495.315744,1110.308913,-9400.615463,76.609550
495.316070,814.226536,-9400.615463,306.438199
495.316397,740.205942,-9622.677246,76.609550
495.316723,370.102971,-10140.821405,-306.438199
495.317049,370.102971,-10362.883188,-1072.533697
495.317375,0.000000,-10436.903782,-1225.752797
495.317701,-370.102971,-10362.883188,-1608.800546
495.318027,0.000000,-10510.924376,-1149.143247
495.318353,0.000000,-10807.006753,-536.266849
495.318679,222.061783,-10214.842000,-689.485948
495.319005,518.144159,-9844.739029,-306.438199
495.319331,518.144159,-9770.718434,-153.219100
495.319657,518.144159,-9622.677246,76.609550
495.319983,666.185348,-9844.739029,0.000000
495.320310,296.082377,-9400.615463,0.000000
495.320636,370.102971,-10140.821405,-536.266849
495.320962,148.041188,-9992.780217,-536.266849
495.321288,74.020594,-9844.739029,-766.095498
495.321614,0.000000,-9696.697840,-689.485948
495.321940,74.020594,-10214.842000,-383.047749
495.322266,518.144159,-10066.800811,0.000000
495.322592,740.205942,-9326.594869,306.438199
495.322918,814.226536,-8882.471304,459.657299
495.323244,962.267725,-9400.615463,536.266849
495.323570,296.082377,-8882.471304,689.485948
495.323897,222.061783,-8882.471304,229.828649
495.324223,-592.164754,-8882.471304,229.828649
495.324549,0.000000,-9104.533087,-306.438199
495.324875,-666.185348,-8956.491898,-306.438199
495.325201,-962.267725,-8808.450710,-459.657299
495.325527,222.061783,-9622.677246,-459.657299
495.325853,740.205942,-10140.821405,0.000000
495.326179,592.164754,-9548.656652,0.000000
495.326505,888.247130,-9622.677246,383.047749
495.326831,962.267725,-9844.739029,0.000000
495.327157,1184.329507,-9696.697840,153.219100
495.327483,1036.288319,-9918.759623,383.047749
495.327810,222.061783,-9622.677246,-383.047749
495.328136,740.205942,-10436.903782,-612.876398
495.328462,0.000000,-10214.842000,-842.705048
495.328788,-296.082377,-9992.780217,-995.924147
495.329114,0.000000,-10362.883188,-1302.362347
495.329440,0.000000,-10362.883188,-1072.533697
495.329766,0.000000,-10436.903782,-536.266849
495.330092,518.144159,-9992.780217,-612.876398
495.330418,518.144159,-9992.780217,229.828649
495.330744,518.144159,-10140.821405,0.000000
495.331070,518.144159,-9696.697840,0.000000
495.331397,296.082377,-9548.656652,-153.219100
495.331723,0.000000,-9474.636058,0.000000
495.332049,148.041188,-9326.594869,-689.485948
495.332375,0.000000,-9474.636058,-383.047749
495.332701,148.041188,-9474.636058,-689.485948
495.333027,148.041188,-9918.759623,-229.828649
495.333353,296.082377,-10214.842000,0.000000
495.333679,666.185348,-9474.636058,0.000000
495.334005,740.205942,-9474.636058,919.314598
495.334331,814.226536,-9474.636058,766.095498
495.334657,666.185348,-9104.533087,842.705048
495.334983,370.102971,-9104.533087,459.657299
495.335310,0.000000,-8956.491898,229.828649
495.335636,0.000000,-8956.491898,0.000000
495.335962,-370.102971,-9030.512492,-229.828649
495.336288,-518.144159,-9104.533087,-612.876398
495.336614,0.000000,-9770.718434,-689.485948
495.336940,222.061783,-9622.677246,-383.047749
495.337266,740.205942,-9622.677246,-536.266849
495.337592,592.164754,-9770.718434,76.609550
495.337918,962.267725,-10066.800811,0.000000
495.338244,888.247130,-9844.739029,153.219100
495.338570,740.205942,-9770.718434,76.609550
495.338897,666.185348,-9548.656652,-229.828649
495.339223,74.020594,-9844.739029,-536.266849
495.339549,0.000000,-9918.759623,-306.438199
495.339875,-148.041188,-9992.780217,-995.924147
495.340201,0.000000,-9992.780217,-995.924147
495.340527,0.000000,-10288.862594,-995.924147
495.340853,296.082377,-10510.924376,-689.485948
495.341179,222.061783,-10362.883188,0.000000
495.341505,592.164754,-9844.739029,0.000000
495.341831,518.144159,-10066.800811,459.657299
495.342157,666.185348,-9844.739029,76.609550
495.342483,222.061783,-9474.636058,0.000000
495.342810,148.041188,-9474.636058,-306.438199
495.343136,148.041188,-9252.574275,-306.438199
495.343462,0.000000,-9326.594869,0.000000
495.343788,222.061783,-9400.615463,-766.095498
495.344114,444.123565,-10140.821405,-536.266849
495.344440,296.082377,-9992.780217,0.000000
495.344766,666.185348,-9622.677246,0.000000
495.345092,370.102971,-9696.697840,0.000000
495.345418,888.247130,-9992.780217,459.657299
495.345744,1110.308913,-9474.636058,766.095498
495.346070,518.144159,-8808.450710,1149.143247
495.346397,74.020594,-8660.409521,1149.143247
495.346723,74.020594,-9178.553681,-229.828649
495.347049,-296.082377,-8882.471304,-612.876398
495.347375,-518.144159,-9252.574275,-689.485948
495.347701,0.000000,-9770.718434,-612.876398
495.348027,296.082377,-10362.883188,-229.828649
495.348353,222.061783,-10436.903782,76.609550
495.348679,518.144159,-10140.821405,-536.266849
495.349005,592.164754,-10140.821405,-306.438199
495.349331,740.205942,-10066.800811,-153.219100
495.349657,592.164754,-9474.636058,0.000000
495.349983,296.082377,-9474.636058,0.000000
495.350310,814.226536,-9770.718434,0.000000
495.350636,296.082377,-9474.636058,-1685.410096
495.350962,0.000000,-9548.656652,0.000000
495.351288,0.000000,-10066.800811,-612.876398
495.351614,0.000000,-10510.924376,-919.314598
495.351940,296.082377,-10807.006753,-919.314598
495.352266,370.102971,-10362.883188,-306.438199
495.352592,518.144159,-9622.677246,-229.828649
495.352918,888.247130,-9770.718434,153.219100
495.353244,666.185348,-9252.574275,383.047749
495.353570,296.082377,-8956.491898,306.438199
495.353897,74.020594,-9030.512492,0.000000
495.354223,0.000000,-9030.512492,-229.828649
495.354549,-222.061783,-8956.491898,0.000000
495.354875,-148.041188,-9030.512492,-612.876398
495.355201,0.000000,-9474.636058,-383.047749
495.355527,296.082377,-10362.883188,-536.266849
495.355853,148.041188,-9918.759623,-536.266849
495.356179,370.102971,-9992.780217,-229.828649
495.356505,814.226536,-10066.800811,153.219100
495.356831,888.247130,-9548.656652,612.876398
495.357157,814.226536,-8956.491898,689.485948
495.357484,370.102971,-8660.409521,-536.266849
495.357810,222.061783,-8660.409521,153.219100
495.358136,-148.041188,-9326.594869,0.000000
495.358462,-370.102971,-9622.677246,-536.266849
495.358788,-444.123565,-10066.800811,-689.485948
495.359114,0.000000,-10362.883188,-919.314598
495.359440,74.020594,-10066.800811,-689.485948
495.359766,444.123565,-10214.842000,-919.314598
495.360092,666.185348,-10362.883188,76.609550
495.360418,444.123565,-9696.697840,-306.438199
495.360744,740.205942,-9474.636058,76.609550
495.361070,518.144159,-9104.533087,229.828649
495.361397,222.061783,-9474.636058,0.000000
495.361723,666.185348,-9548.656652,0.000000
495.362049,518.144159,-9770.718434,-766.095498
495.362375,0.000000,-10140.821405,-536.266849
495.362701,0.000000,-10510.924376,-995.924147
495.363027,74.020594,-10732.986159,-689.485948
495.363353,0.000000,-10288.862594,-383.047749
495.363679,148.041188,-9992.780217,0.000000
495.364005,0.000000,-9844.739029,153.219100
495.364331,518.144159,-9030.512492,842.705048
495.364657,296.082377,-8586.388927,689.485948
495.364984,222.061783,-8808.450710,383.047749
495.365310,74.020594,-9030.512492,153.219100
495.365636,0.000000,-9104.533087,0.000000
495.365962,0.000000,-9326.594869,-612.876398
495.366288,0.000000,-9770.718434,-1072.533697
495.366614,222.061783,-10066.800811,-1072.533697
495.366940,592.164754,-10288.862594,-689.485948
495.367266,592.164754,-9844.739029,-689.485948
495.367592,888.247130,-9844.739029,76.609550
495.367918,814.226536,-9548.656652,536.266849
495.368244,962.267725,-8882.471304,459.657299
495.368571,0.000000,-8734.430116,0.000000
495.368897,518.144159,-9400.615463,153.219100
495.369223,370.102971,-9326.594869,0.000000
495.369549,0.000000,-9844.739029,-306.438199
495.369875,-296.082377,-10066.800811,-842.705048
495.370201,-222.061783,-10510.924376,-1225.752797
495.370527,0.000000,-10807.006753,-1302.362347
495.370853,222.061783,-10436.903782,-919.314598
495.371179,518.144159,-9918.759623,0.000000
495.371505,740.205942,-9918.759623,306.438199
495.371831,962.267725,-9400.615463,306.438199
495.372158,518.144159,-9104.533087,153.219100
495.372484,370.102971,-9474.636058,0.000000
495.372810,296.082377,-9696.697840,0.000000
495.373136,222.061783,-10066.800811,-612.876398
495.373462,148.041188,-10214.842000,-459.657299
495.373788,0.000000,-10584.944971,-995.924147
495.374114,0.000000,-10955.047942,-229.828649
495.374440,148.041188,-10584.944971,-536.266849
495.374766,222.061783,-9770.718434,0.000000
495.375092,370.102971,-9474.636058,229.828649
495.375419,518.144159,-9178.553681,689.485948
495.375745,148.041188,-8438.347739,229.828649
495.376071,370.102971,-8660.409521,459.657299
495.376397,222.061783,-8808.450710,306.438199
495.376723,148.041188,-9474.636058,0.000000
495.377049,0.000000,-9622.677246,-459.657299
495.377375,-148.041188,-9622.677246,-766.095498
495.377701,0.000000,-10066.800811,-995.924147
495.378027,0.000000,-10140.821405,-536.266849
495.378353,518.144159,-9696.697840,-306.438199
495.378680,518.144159,-9400.615463,0.000000
495.379006,1036.288319,-9474.636058,306.438199
495.379332,1036.288319,-9326.594869,536.266849
495.379658,888.247130,-9178.553681,383.047749
495.379984,74.020594,-9326.594869,0.000000
495.380310,222.061783,-9622.677246,-306.438199
495.380636,74.020594,-10140.821405,-1685.410096
495.380962,-222.061783,-9844.739029,-1072.533697
495.381288,0.000000,-10584.944971,-1072.533697
495.381614,-148.041188,-10732.986159,-995.924147
495.381941,0.000000,-10510.924376,-995.924147
495.382267,74.020594,-9844.739029,-383.047749
495.382593,666.185348,-9326.594869,-306.438199
495.382919,814.226536,-9178.553681,-153.219100
495.383245,666.185348,-9252.574275,459.657299
495.383571,814.226536,-9474.636058,306.438199
495.383897,296.082377,-9548.656652,153.219100
495.384223,148.041188,-9918.759623,-383.047749
495.384549,148.041188,-10362.883188,-689.485948
495.384875,0.000000,-10066.800811,-536.266849
495.385201,0.000000,-10288.862594,-1072.533697
495.385528,148.041188,-10510.924376,-229.828649
495.385854,444.123565,-9770.718434,0.000000
495.386180,370.102971,-9252.574275,76.609550
495.386506,444.123565,-9252.574275,612.876398
495.386832,444.123565,-9104.533087,995.924147
495.387158,444.123565,-9030.512492,919.314598
495.387484,370.102971,-9104.533087,306.438199
495.387810,296.082377,-9252.574275,-306.438199
495.388136,0.000000,-9622.677246,-383.047749
495.388462,0.000000,-9770.718434,-995.924147
495.388789,-222.061783,-9696.697840,-842.705048
495.389115,148.041188,-10140.821405,-689.485948
495.389441,888.247130,-10214.842000,-383.047749
495.389767,814.226536,-9104.533087,0.000000
495.390093,1332.370696,-9474.636058,0.000000
495.390419,962.267725,-9252.574275,689.485948
495.390745,666.185348,-9474.636058,153.219100
495.391071,592.164754,-9622.677246,0.000000
495.391397,0.000000,-9474.636058,0.000000
495.391723,0.000000,-9770.718434,-995.924147
495.392050,-592.164754,-10066.800811,-766.095498
495.392376,-666.185348,-9918.759623,-919.314598
495.392702,74.020594,-10214.842000,-1608.800546
495.393028,74.020594,-10362.883188,-1149.143247
495.393354,74.020594,-9844.739029,-153.219100
495.393680,518.144159,-9474.636058,0.000000
495.394006,740.205942,-9400.615463,229.828649
495.394332,444.123565,-9104.533087,689.485948
495.394658,814.226536,-9178.553681,689.485948
495.394984,296.082377,-9548.656652,0.000000
495.395311,0.000000,-9696.697840,-536.266849
495.395637,0.000000,-10214.842000,-842.705048
495.395963,-222.061783,-9918.759623,-766.095498
495.396289,0.000000,-9770.718434,-995.924147
495.396615,74.020594,-9770.718434,0.000000
495.396941,518.144159,-9918.759623,306.438199
495.397267,370.102971,-8882.471304,76.609550
495.397593,296.082377,-9104.533087,459.657299
495.397919,370.102971,-9474.636058,459.657299
495.398245,592.164754,-9400.615463,306.438199
495.398571,74.020594,-9252.574275,0.000000
495.398898,0.000000,-9252.574275,306.438199
495.399224,444.123565,-9474.636058,-459.657299
495.399550,-370.102971,-9474.636058,-842.705048
495.399876,-296.082377,-9696.697840,-995.924147
495.400202,222.061783,-9844.739029,-842.705048
495.400528,444.123565,-9992.780217,-383.047749
495.400854,814.226536,-9474.636058,0.000000
495.401180,888.247130,-9474.636058,536.266849
495.401506,1184.329507,-10066.800811,536.266849
495.401832,1110.308913,-10066.800811,0.000000
495.402159,592.164754,-9770.718434,0.000000
495.402485,148.041188,-9622.677246,-306.438199
495.402811,148.041188,-9992.780217,-766.095498
495.403137,-296.082377,-9918.759623,-842.705048
495.403463,-296.082377,-9770.718434,-1455.581446
495.403789,0.000000,-9770.718434,-383.047749
495.404115,74.020594,-10658.965565,-766.095498
495.404441,222.061783,-9918.759623,-306.438199
495.404767,222.061783,-9622.677246,0.000000
495.405093,518.144159,-9474.636058,76.609550
495.405420,740.205942,-9770.718434,229.828649
495.405746,666.185348,-9400.615463,383.047749
495.406072,444.123565,-9178.553681,-459.657299
495.406398,222.061783,-9696.697840,-306.438199
495.406724,370.102971,-10066.800811,-689.485948
495.407050,0.000000,-9548.656652,-459.657299
495.407376,0.000000,-9622.677246,-842.705048
495.407702,148.041188,-10288.862594,-536.266849
495.408028,740.205942,-10214.842000,-153.219100
495.408354,740.205942,-9844.739029,-229.828649
495.408680,296.082377,-9104.533087,612.876398
495.409007,740.205942,-9622.677246,536.266849
495.409333,444.123565,-9400.615463,0.000000
495.409659,296.082377,-9252.574275,76.609550
495.409985,0.000000,-9252.574275,0.000000
495.410311,444.123565,-9548.656652,-842.705048
495.410637,0.000000,-9548.656652,-689.485948
495.410963,-222.061783,-9400.615463,0.000000
495.411289,370.102971,-10140.821405,-766.095498
495.411615,148.041188,-10436.903782,-536.266849
495.411941,518.144159,-9622.677246,-306.438199
495.412268,518.144159,-9622.677246,0.000000
495.412594,1036.288319,-10658.965565,536.266849
495.412920,1332.370696,-10140.821405,306.438199
495.413246,888.247130,-9696.697840,0.000000
495.413572,74.020594,-9400.615463,0.000000
495.413898,148.041188,-9844.739029,-536.266849
495.414224,0.000000,-9696.697840,-689.485948
495.414550,-592.164754,-9474.636058,-612.876398
495.414876,-370.102971,-9844.739029,-842.705048
495.415202,0.000000,-10288.862594,-536.266849
495.415529,0.000000,-10214.842000,0.000000
495.415855,222.061783,-9844.739029,-153.219100
495.416181,296.082377,-9992.780217,0.000000
495.416507,444.123565,-9622.677246,306.438199
495.416833,592.164754,-9178.553681,306.438199
495.417159,74.020594,-9030.512492,229.828649
495.417485,222.061783,-9400.615463,0.000000
495.417811,148.041188,-9252.574275,0.000000
495.418137,0.000000,-8882.471304,0.000000
495.418463,0.000000,-9474.636058,-536.266849
495.418790,222.061783,-10436.903782,-459.657299
495.419116,222.061783,-10288.862594,-689.485948
495.419442,444.123565,-9918.759623,-229.828649
495.419768,370.102971,-9622.677246,0.000000
495.420094,444.123565,-9548.656652,0.000000
495.420420,814.226536,-9622.677246,-306.438199
495.420746,370.102971,-9178.553681,153.219100
495.421072,74.020594,-8956.491898,76.609550
495.421398,74.020594,-9326.594869,0.000000
495.421724,148.041188,-9474.636058,0.000000
495.422050,0.000000,-9548.656652,-459.657299
495.422377,74.020594,-9992.780217,-766.095498
495.422703,296.082377,-10955.047942,-612.876398
495.423029,444.123565,-10510.924376,-766.095498
495.423355,518.144159,-10214.842000,-689.485948
495.423681,666.185348,-10362.883188,0.000000
495.424007,888.247130,-9622.677246,536.266849
495.424333,592.164754,-9548.656652,383.047749
495.424659,370.102971,-9548.656652,306.438199
495.424985,222.061783,-9474.636058,-229.828649
495.425311,0.000000,-9326.594869,0.000000
495.425638,-518.144159,-9474.636058,-383.047749
495.425964,-444.123565,-9696.697840,-689.485948
495.426290,0.000000,-10288.862594,-459.657299
495.426616,0.000000,-10066.800811,0.000000
495.426942,-370.102971,-9844.739029,0.000000
495.427268,74.020594,-9474.636058,383.047749
495.427594,444.123565,-9548.656652,383.047749
495.427920,518.144159,-8882.471304,536.266849
495.428246,222.061783,-8734.430116,383.047749
495.428572,148.041188,-8734.430116,689.485948
495.428899,518.144159,-9178.553681,0.000000
495.429225,-518.144159,-8956.491898,-383.047749
495.429551,296.082377,-9474.636058,-153.219100
495.429877,74.020594,-10214.842000,-766.095498
495.430203,370.102971,-10881.027347,-689.485948
495.430529,444.123565,-10288.862594,-612.876398
495.430855,740.205942,-9770.718434,-306.438199
495.431181,814.226536,-9622.677246,76.609550
495.431507,666.185348,-9252.574275,0.000000
495.431833,518.144159,-8586.388927,459.657299
495.432160,0.000000,-8808.450710,76.609550
495.432486,222.061783,-9326.594869,0.000000
495.432812,74.020594,-9474.636058,-383.047749
495.433138,-74.020594,-9696.697840,-536.266849
495.433464,0.000000,-10140.821405,-919.314598
495.433790,444.123565,-10510.924376,-995.924147
495.434116,518.144159,-10584.944971,-306.438199
495.434442,592.164754,-10436.903782,-842.705048
495.434768,592.164754,-10214.842000,-306.438199
495.435094,888.247130,-9844.739029,229.828649
495.435420,814.226536,-9104.533087,612.876398
495.435747,296.082377,-9104.533087,229.828649
495.436073,-444.123565,-9178.553681,536.266849
495.436399,296.082377,-9400.615463,229.828649
495.436725,0.000000,-9992.780217,-306.438199
495.437051,-222.061783,-9770.718434,-612.876398
495.437377,0.000000,-10288.862594,-766.095498
495.437703,0.000000,-10658.965565,-766.095498
495.438029,0.000000,-9918.759623,0.000000
495.438355,518.144159,-9474.636058,0.000000
495.438681,518.144159,-9326.594869,689.485948
495.439008,592.164754,-8882.471304,689.485948
495.439334,518.144159,-8586.388927,612.876398
495.439660,370.102971,-8808.450710,306.438199
495.439986,74.020594,-8882.471304,153.219100
495.440312,74.020594,-9252.574275,-306.438199
495.440638,148.041188,-9622.677246,-919.314598
495.440964,0.000000,-9474.636058,-229.828649
495.441290,370.102971,-10732.986159,-766.095498
495.441616,592.164754,-10658.965565,-919.314598
495.441942,666.185348,-9992.780217,-383.047749
495.442269,888.247130,-9548.656652,76.609550
495.442595,888.247130,-9400.615463,536.266849
495.442921,888.247130,-9104.533087,76.609550
495.443247,0.000000,-8734.430116,-229.828649
495.443573,-370.102971,-8882.471304,0.000000
495.443899,148.041188,-9770.718434,-383.047749
495.444225,0.000000,-10066.800811,-612.876398
495.444551,-444.123565,-10140.821405,-842.705048
495.444877,0.000000,-10658.965565,-1608.800546
495.445203,444.123565,-11547.212695,-1225.752797
495.445529,222.061783,-9918.759623,-459.657299
495.445856,740.205942,-9992.780217,76.609550
495.446182,666.185348,-9622.677246,306.438199
495.446508,814.226536,-9326.594869,459.657299
495.446834,740.205942,-9252.574275,383.047749
495.447160,666.185348,-9326.594869,0.000000
495.447486,444.123565,-9474.636058,1149.143247
495.447812,222.061783,-9844.739029,-383.047749
495.448138,0.000000,-9992.780217,-612.876398
495.448464,-370.102971,-9844.739029,-612.876398
495.448790,-148.041188,-10288.862594,-689.485948
495.449117,0.000000,-10066.800811,-459.657299
495.449443,74.020594,-9326.594869,-153.219100
495.449769,222.061783,-8956.491898,0.000000
495.450095,222.061783,-8512.368333,536.266849
495.450421,444.123565,-8586.388927,919.314598
495.450747,370.102971,-9104.533087,306.438199
495.451073,148.041188,-9030.512492,306.438199
495.451399,74.020594,-9400.615463,-383.047749
495.451725,296.082377,-9918.759623,-536.266849
495.452051,74.020594,-9918.759623,-919.314598
495.452378,0.000000,-9474.636058,-229.828649
495.452704,592.164754,-10584.944971,-612.876398
495.453030,666.185348,-9992.780217,0.000000
495.453356,814.226536,-9770.718434,0.000000
495.453682,740.205942,-9770.718434,306.438199
495.454008,962.267725,-9252.574275,-306.438199
495.454334,592.164754,-9400.615463,0.000000
495.454660,0.000000,-9326.594869,0.000000
495.454986,0.000000,-9548.656652,-536.266849
495.455312,-296.082377,-10288.862594,-919.314598
495.455639,-296.082377,-10140.821405,-1302.362347
495.455965,-444.123565,-10066.800811,-1225.752797
495.456291,74.020594,-10436.903782,-459.657299
495.456617,148.041188,-9770.718434,-536.266849
495.456943,1036.288319,-9844.739029,0.000000
495.457269,1036.288319,-9622.677246,383.047749
495.457595,740.205942,-9696.697840,459.657299
495.457921,814.226536,-9326.594869,229.828649
495.458247,592.164754,-9548.656652,76.609550
495.458573,0.000000,-9548.656652,229.828649
495.458899,518.144159,-10066.800811,-766.095498
495.459226,0.000000,-9474.636058,-766.095498
495.459552,-296.082377,-9548.656652,-1072.533697
495.459878,-148.041188,-9622.677246,-689.485948
495.460204,0.000000,-9770.718434,0.000000
495.460530,74.020594,-9326.594869,153.219100
495.460856,370.102971,-9252.574275,459.657299
495.461182,370.102971,-8956.491898,612.876398
495.461508,962.267725,-9030.512492,229.828649
495.461834,370.102971,-9104.533087,612.876398
495.462160,0.000000,-9178.553681,76.609550
495.462487,148.041188,-9474.636058,-459.657299
495.462813,222.061783,-9844.739029,-995.924147
495.463139,74.020594,-9474.636058,-306.438199
495.463465,222.061783,-9918.759623,-536.266849
495.463791,888.247130,-10510.924376,0.000000
495.464117,888.247130,-9918.759623,383.047749
495.464443,888.247130,-9992.780217,229.828649
495.464769,666.185348,-9696.697840,306.438199
495.465095,888.247130,-9844.739029,153.219100
495.465421,592.164754,-9770.718434,76.609550
495.465748,-444.123565,-9696.697840,-229.828649
495.466074,-148.041188,-9918.759623,-229.828649
495.466400,0.000000,-9844.739029,-995.924147
495.466726,-444.123565,-9844.739029,-919.314598
495.467052,-444.123565,-9622.677246,-995.924147
495.467378,0.000000,-10288.862594,-919.314598
495.467704,0.000000,-10214.842000,-306.438199
495.468030,444.123565,-9548.656652,0.000000
495.468356,1258.350101,-9992.780217,306.438199
495.468683,814.226536,-9474.636058,612.876398
495.469009,962.267725,-9696.697840,153.219100
495.469335,592.164754,-9548.656652,76.609550
495.469661,222.061783,-9770.718434,0.000000
495.469987,74.020594,-9844.739029,-306.438199
495.470313,-148.041188,-9474.636058,-459.657299
495.470639,-592.164754,-9252.574275,-1302.362347
495.470966,0.000000,-9474.636058,-842.705048
495.471292,74.020594,-9844.739029,-612.876398
495.471618,148.041188,-9400.615463,0.000000
495.471944,444.123565,-9252.574275,306.438199
495.472270,370.102971,-9400.615463,459.657299
495.472596,1110.308913,-9548.656652,612.876398
495.472922,814.226536,-9030.512492,-536.266849
495.473249,518.144159,-9474.636058,0.000000
495.473575,592.164754,-9474.636058,-612.876398
495.473901,0.000000,-9548.656652,-919.314598
495.474227,-148.041188,-9474.636058,-1072.533697
495.474553,0.000000,-9770.718434,-766.095498
495.474879,592.164754,-10436.903782,-383.047749
495.475205,518.144159,-10066.800811,0.000000
495.475532,1036.288319,-9548.656652,0.000000
495.475858,1110.308913,-9548.656652,612.876398
495.476184,888.247130,-10066.800811,153.219100
495.476510,888.247130,-9918.759623,0.000000
495.476836,74.020594,-9548.656652,-153.219100
495.477162,0.000000,-9622.677246,76.609550
495.477488,0.000000,-9770.718434,-306.438199
495.477815,-370.102971,-9696.697840,-689.485948
495.478141,0.000000,-9474.636058,-842.705048
495.478467,0.000000,-9844.739029,-536.266849
495.478793,74.020594,-10066.800811,-306.438199
495.479119,296.082377,-9696.697840,-153.219100
495.479445,444.123565,-9400.615463,383.047749
495.479771,888.247130,-9844.739029,459.657299
495.480098,814.226536,-9548.656652,689.485948
495.480424,666.185348,-9252.574275,306.438199
495.480750,222.061783,-9622.677246,76.609550
495.481076,370.102971,-9918.759623,-459.657299
495.481402,0.000000,-9696.697840,-383.047749
495.481728,0.000000,-9400.615463,-459.657299
495.482054,-74.020594,-9474.636058,-306.438199
495.482381,-148.041188,-9696.697840,-459.657299
495.482707,74.020594,-9252.574275,-536.266849
495.483033,222.061783,-9474.636058,-153.219100
495.483359,370.102971,-9770.718434,383.047749
495.483685,1036.288319,-9770.718434,153.219100
495.484011,666.185348,-9474.636058,229.828649
495.484337,370.102971,-9400.615463,153.219100
495.484664,296.082377,-9622.677246,-842.705048
495.484990,74.020594,-9326.594869,-536.266849
495.485316,-518.144159,-9104.533087,-842.705048
495.485642,0.000000,-9770.718434,-766.095498
495.485968,74.020594,-10140.821405,-612.876398
495.486294,370.102971,-10288.862594,-383.047749
495.486620,962.267725,-10140.821405,-306.438199
495.486946,1036.288319,-10362.883188,306.438199
495.487273,592.164754,-10362.883188,229.828649
495.487599,740.205942,-9918.759623,0.000000
495.487925,222.061783,-9400.615463,0.000000
495.488251,0.000000,-9548.656652,0.000000
495.488577,0.000000,-9548.656652,-459.657299
495.488903,0.000000,-9326.594869,-1149.143247
495.489229,-740.205942,-9400.615463,-536.266849
495.489556,0.000000,-10584.944971,-842.705048
495.489882,0.000000,-10140.821405,-689.485948
495.490208,222.061783,-9992.780217,0.000000
495.490534,370.102971,-9770.718434,-153.219100
495.490860,666.185348,-9918.759623,153.219100
495.491186,1036.288319,-9474.636058,0.000000
495.491512,1110.308913,-9178.553681,0.000000
495.491839,74.020594,-8734.430116,536.266849
495.492165,666.185348,-9252.574275,153.219100
495.492491,74.020594,-9326.594869,-153.219100
495.492817,-222.061783,-9400.615463,-383.047749
495.493143,-296.082377,-9770.718434,-306.438199
495.493469,370.102971,-10362.883188,-459.657299
495.493795,296.082377,-10066.800811,-459.657299
495.494122,444.123565,-10140.821405,-306.438199
495.494448,518.144159,-9992.780217,229.828649
495.494774,814.226536,-9770.718434,306.438199
495.495100,740.205942,-9326.594869,153.219100
495.495426,666.185348,-9252.574275,306.438199
495.495752,222.061783,-9252.574275,76.609550
495.496078,370.102971,-9474.636058,0.000000
495.496405,740.205942,-9474.636058,0.000000
495.496731,-370.102971,-9178.553681,-459.657299
495.497057,74.020594,-10362.883188,-1225.752797
495.497383,296.082377,-10732.986159,-1225.752797
495.497709,296.082377,-10510.924376,-536.266849
495.498035,444.123565,-10214.842000,0.000000
495.498361,666.185348,-10362.883188,1072.533697
495.498688,592.164754,-9104.533087,76.609550
495.499014,444.123565,-9030.512492,459.657299
495.499340,296.082377,-8808.450710,459.657299
495.499666,0.000000,-9474.636058,0.000000
495.499992,-296.082377,-9252.574275,-459.657299
495.500318,-666.185348,-9622.677246,-689.485948
495.500644,-814.226536,-9770.718434,-766.095498
495.500971,-592.164754,-10140.821405,-612.876398
495.501297,74.020594,-10066.800811,-842.705048
495.501623,74.020594,-9844.739029,-536.266849
495.501949,222.061783,-9918.759623,153.219100
495.502275,814.226536,-9474.636058,383.047749
495.502601,814.226536,-9030.512492,383.047749
495.502927,370.102971,-8364.327145,383.047749
495.503254,74.020594,-8956.491898,383.047749
495.503580,888.247130,-9918.759623,-153.219100
495.503906,74.020594,-9548.656652,-612.876398
495.504232,0.000000,-9770.718434,-612.876398
495.504558,222.061783,-10584.944971,-995.924147
495.504884,370.102971,-10658.965565,-1072.533697
495.505210,592.164754,-10140.821405,-229.828649
495.505537,444.123565,-9622.677246,-612.876398
495.505863,666.185348,-9622.677246,612.876398
495.506189,814.226536,-9400.615463,0.000000
495.506515,444.123565,-8808.450710,229.828649
495.506841,74.020594,-8956.491898,153.219100
495.507167,148.041188,-9548.656652,-383.047749
495.507493,0.000000,-9474.636058,-459.657299
495.507820,0.000000,-9474.636058,-995.924147
495.508146,0.000000,-10288.862594,-1072.533697
495.508472,0.000000,-10807.006753,-995.924147
495.508798,444.123565,-10658.965565,-612.876398
495.509124,592.164754,-10362.883188,-459.657299
495.509450,814.226536,-10288.862594,0.000000
495.509776,888.247130,-9622.677246,459.657299
495.510103,592.164754,-8660.409521,229.828649
495.510429,222.061783,-8956.491898,842.705048
495.510755,0.000000,-8808.450710,383.047749
495.511081,0.000000,-9178.553681,0.000000
495.511407,-444.123565,-9474.636058,-383.047749
495.511733,-370.102971,-9918.759623,-766.095498
495.512059,-148.041188,-10362.883188,-1532.190996
495.512386,148.041188,-10066.800811,-919.314598
495.512712,222.061783,-9918.759623,-383.047749
495.513038,148.041188,-9474.636058,0.000000
495.513364,592.164754,-9474.636058,306.438199
495.513690,888.247130,-9178.553681,459.657299
495.514016,592.164754,-8586.388927,306.438199
495.514342,0.000000,-8438.347739,1072.533697
495.514669,296.082377,-9178.553681,153.219100
495.514995,0.000000,-8956.491898,0.000000
495.515321,148.041188,-9844.739029,-306.438199
495.515647,0.000000,-10584.944971,-842.705048
495.515973,444.123565,-10881.027347,-842.705048
495.516299,518.144159,-10362.883188,-919.314598
495.516625,592.164754,-10066.800811,0.000000
495.516952,814.226536,-10066.800811,689.485948
495.517278,1036.288319,-9252.574275,306.438199
495.517604,592.164754,-9326.594869,229.828649
495.517930,370.102971,-9030.512492,229.828649
495.518256,74.020594,-9252.574275,0.000000
495.518582,296.082377,-9770.718434,-306.438199
495.518908,0.000000,-9844.739029,-1225.752797
495.519235,0.000000,-9918.759623,-1532.190996
495.519561,-296.082377,-10214.842000,-1149.143247
495.519887,518.144159,-10955.047942,-766.095498
495.520213,518.144159,-10362.883188,-459.657299
495.520539,888.247130,-10214.842000,229.828649
495.520865,888.247130,-9992.780217,459.657299
495.521191,814.226536,-9252.574275,459.657299
495.521518,74.020594,-8808.450710,306.438199
495.521844,-222.061783,-8808.450710,536.266849
495.522170,0.000000,-9252.574275,-306.438199
495.522496,-222.061783,-9326.594869,0.000000
495.522822,-444.123565,-9400.615463,-383.047749
495.523148,-592.164754,-9696.697840,-612.876398
495.523474,0.000000,-10362.883188,-383.047749
495.523801,74.020594,-9844.739029,-229.828649
495.524127,370.102971,-9178.553681,-459.657299
495.524453,444.123565,-9474.636058,459.657299
495.524779,1036.288319,-9474.636058,0.000000
495.525105,740.205942,-9104.533087,306.438199
495.525431,444.123565,-8882.471304,0.000000
495.525757,74.020594,-8882.471304,0.000000
495.526084,296.082377,-9474.636058,-229.828649
495.526410,740.205942,-10881.027347,-383.047749
495.526736,74.020594,-9844.739029,-536.266849
495.527062,592.164754,-11029.068536,-919.314598
495.527388,444.123565,-11029.068536,-919.314598
495.527714,518.144159,-10288.862594,-459.657299
495.528040,740.205942,-10214.842000,0.000000
495.528367,666.185348,-9844.739029,229.828649
495.528693,740.205942,-9770.718434,0.000000
495.529019,518.144159,-9474.636058,0.000000
495.529345,-74.020594,-8808.450710,306.438199
495.529671,148.041188,-9548.656652,-383.047749
495.529997,0.000000,-9844.739029,-612.876398
495.530323,0.000000,-9992.780217,-919.314598
495.530650,0.000000,-10066.800811,-995.924147
495.530976,444.123565,-10658.965565,0.000000
495.531302,222.061783,-10362.883188,153.219100
495.531628,592.164754,-9918.759623,0.000000
495.531954,592.164754,-9696.697840,306.438199
495.532280,814.226536,-9474.636058,919.314598
495.532606,592.164754,-8734.430116,536.266849
495.532933,0.000000,-8956.491898,689.485948
495.533259,0.000000,-8882.471304,306.438199
495.533585,0.000000,-9178.553681,0.000000
495.533911,-740.205942,-9178.553681,-153.219100
495.534237,-740.205942,-9474.636058,-536.266849
495.534563,-148.041188,-10066.800811,-612.876398
495.534889,-148.041188,-9992.780217,-459.657299
495.535216,74.020594,-9696.697840,-306.438199
495.535542,518.144159,-9474.636058,0.000000
495.535868,888.247130,-9252.574275,459.657299
495.536194,962.267725,-9104.533087,76.609550
495.536520,518.144159,-8956.491898,0.000000
495.536846,74.020594,-9178.553681,0.000000
495.537172,370.102971,-9622.677246,-459.657299
495.537499,222.061783,-9992.780217,-689.485948
495.537825,0.000000,-9844.739029,-766.095498
495.538151,444.123565,-10658.965565,-995.924147
495.538477,296.082377,-11029.068536,-1302.362347
495.538803,370.102971,-10436.903782,-995.924147
495.539129,370.102971,-10214.842000,-459.657299
495.539455,444.123565,-10362.883188,0.000000
495.539782,444.123565,-9844.739029,689.485948
495.540108,666.185348,-9326.594869,0.000000
495.540434,518.144159,-9400.615463,-459.657299
495.540760,0.000000,-9696.697840,-689.485948
495.541086,148.041188,-9844.739029,-612.876398
495.541412,0.000000,-9844.739029,-536.266849
495.541738,0.000000,-9844.739029,-689.485948
495.542064,-296.082377,-9844.739029,-306.438199
495.542391,370.102971,-10436.903782,-612.876398
495.542717,444.123565,-9992.780217,76.609550
495.543043,962.267725,-9844.739029,0.000000
495.543369,740.205942,-9326.594869,766.095498
495.543695,592.164754,-8882.471304,306.438199
495.544021,444.123565,-8882.471304,383.047749
495.544347,-296.082377,-8660.409521,229.828649
495.544674,-370.102971,-8808.450710,153.219100
495.545000,-222.061783,-9178.553681,0.000000
495.545326,-370.102971,-8660.409521,-383.047749
495.545652,-444.123565,-9622.677246,-459.657299
495.545978,0.000000,-10214.842000,-306.438199
495.546304,74.020594,-9844.739029,-536.266849
495.546630,592.164754,-9400.615463,-153.219100
495.546957,666.185348,-9474.636058,536.266849
495.547283,518.144159,-8808.450710,612.876398
495.547609,962.267725,-9178.553681,-153.219100
495.547935,518.144159,-9178.553681,0.000000
495.548261,74.020594,-9474.636058,-459.657299
495.548587,444.123565,-10214.842000,-536.266849
495.548913,0.000000,-10288.862594,-1378.971896
495.549240,222.061783,-10658.965565,-1455.581446
495.549566,666.185348,-11251.130318,-995.924147
495.549892,592.164754,-11177.109724,-766.095498
495.550218,518.144159,-10362.883188,-689.485948
495.550544,592.164754,-10066.800811,-229.828649
495.550870,518.144159,-9992.780217,0.000000
495.551196,666.185348,-9400.615463,0.000000
495.551523,74.020594,-9252.574275,0.000000
495.551849,-444.123565,-9326.594869,-612.876398
495.552175,296.082377,-9844.739029,-383.047749
495.552501,0.000000,-10066.800811,-459.657299
495.552827,-296.082377,-9918.759623,-536.266849
495.553153,0.000000,-10140.821405,-689.485948
495.553479,444.123565,-10658.965565,-383.047749
495.553806,518.144159,-10140.821405,-229.828649
495.554132,666.185348,-9548.656652,842.705048
495.554458,740.205942,-9474.636058,842.705048
495.554784,814.226536,-9104.533087,919.314598
495.555110,370.102971,-8586.388927,612.876398
495.555436,0.000000,-8734.430116,306.438199
495.555762,0.000000,-8734.430116,229.828649
495.556089,-296.082377,-9400.615463,76.609550
495.556415,0.000000,-9474.636058,-536.266849
495.556741,0.000000,-9326.594869,-612.876398
495.557067,222.061783,-9918.759623,-536.266849
495.557393,0.000000,-9844.739029,-306.438199
495.557719,296.082377,-9474.636058,-153.219100
495.558045,222.061783,-9474.636058,229.828649
495.558372,592.164754,-9104.533087,76.609550
495.558698,888.247130,-8956.491898,0.000000
495.559024,592.164754,-9252.574275,0.000000
495.559350,222.061783,-9548.656652,-229.828649
495.559676,370.102971,-9844.739029,-842.705048
495.560002,296.082377,-10436.903782,-995.924147
495.560328,0.000000,-10807.006753,-1072.533697
495.560655,518.144159,-11029.068536,-1149.143247
495.560981,222.061783,-10732.986159,-459.657299
495.561307,296.082377,-10436.903782,-383.047749
495.561633,444.123565,-10214.842000,-459.657299
495.561959,444.123565,-9992.780217,0.000000
495.562285,592.164754,-9696.697840,0.000000
495.562611,370.102971,-9400.615463,153.219100
495.562938,296.082377,-9104.533087,-306.438199
495.563264,0.000000,-9474.636058,-536.266849
495.563590,0.000000,-10066.800811,-459.657299
495.563916,74.020594,-9844.739029,-306.438199
495.564242,-148.041188,-9696.697840,-689.485948
495.564568,0.000000,-10214.842000,-459.657299
495.564894,370.102971,-10436.903782,0.000000
495.565221,444.123565,-9252.574275,306.438199
495.565547,740.205942,-8808.450710,612.876398
495.565873,888.247130,-8808.450710,1149.143247
495.566199,962.267725,-8734.430116,689.485948
495.566525,370.102971,-8660.409521,383.047749
495.566851,0.000000,-8734.430116,536.266849
495.567177,0.000000,-9252.574275,0.000000
495.567504,148.041188,-9474.636058,0.000000
495.567830,-222.061783,-9548.656652,-766.095498
495.568156,0.000000,-10066.800811,-842.705048
495.568482,518.144159,-9844.739029,0.000000
495.568808,370.102971,-9622.677246,-153.219100
495.569134,518.144159,-9622.677246,0.000000
495.569460,518.144159,-9252.574275,229.828649
495.569786,666.185348,-8956.491898,459.657299
495.570113,518.144159,-9104.533087,536.266849
495.570439,296.082377,-9326.594869,-229.828649
495.570765,296.082377,-9770.718434,-1608.800546
495.571091,148.041188,-10214.842000,-1378.971896
495.571417,0.000000,-10436.903782,-1149.143247
495.571743,148.041188,-10584.944971,-1302.362347
495.572069,370.102971,-10955.047942,-919.314598
495.572395,444.123565,-10584.944971,-842.705048
495.572721,814.226536,-10140.821405,-689.485948
495.573048,962.267725,-10066.800811,-306.438199
495.573374,444.123565,-9622.677246,0.000000
495.573700,518.144159,-9400.615463,0.000000
495.574026,148.041188,-9400.615463,0.000000
495.574352,74.020594,-9696.697840,-536.266849
495.574678,74.020594,-9622.677246,-536.266849
495.575004,74.020594,-9696.697840,-383.047749
495.575330,0.000000,-9474.636058,-766.095498
495.575657,0.000000,-9770.718434,-459.657299
495.575983,148.041188,-10140.821405,0.000000
495.576309,518.144159,-9474.636058,0.000000
495.576635,444.123565,-8956.491898,536.266849
495.576961,666.185348,-8882.471304,1149.143247
495.577287,888.247130,-8734.430116,842.705048
495.577613,814.226536,-9030.512492,383.047749
495.577939,0.000000,-9030.512492,383.047749
495.578265,74.020594,-9474.636058,76.609550
495.578592,0.000000,-9770.718434,-383.047749
495.578918,0.000000,-9548.656652,-919.314598
495.579244,148.041188,-9844.739029,-1149.143247
495.579570,370.102971,-10066.800811,-306.438199
495.579896,296.082377,-9474.636058,0.000000
495.580222,444.123565,-9474.636058,76.609550
495.580548,518.144159,-9548.656652,229.828649
495.580874,666.185348,-9548.656652,76.609550
495.581200,740.205942,-9548.656652,0.000000
495.581527,74.020594,-9696.697840,0.000000
495.581853,222.061783,-9548.656652,-689.485948
495.582179,74.020594,-10140.821405,-1149.143247
495.582505,0.000000,-10510.924376,-1225.752797
495.582831,0.000000,-10436.903782,-1149.143247
495.583157,370.102971,-10881.027347,-766.095498
495.583483,296.082377,-10140.821405,-689.485948
495.583809,740.205942,-9992.780217,229.828649
495.584135,518.144159,-9178.553681,383.047749
495.584462,740.205942,-9326.594869,536.266849
495.584788,666.185348,-9400.615463,0.000000
495.585114,74.020594,-9400.615463,0.000000
495.585440,0.000000,-9474.636058,-153.219100
495.585766,0.000000,-9918.759623,-459.657299
495.586092,0.000000,-9844.739029,-306.438199
495.586418,-888.247130,-8882.471304,-689.485948
495.586744,-148.041188,-9770.718434,-766.095498
495.587070,74.020594,-9622.677246,-383.047749
495.587397,296.082377,-9474.636058,76.609550
495.587723,444.123565,-9030.512492,536.266849
495.588049,666.185348,-9030.512492,612.876398
495.588375,1036.288319,-8808.450710,536.266849
495.588701,814.226536,-9252.574275,306.438199
495.589027,592.164754,-9030.512492,229.828649
495.589353,518.144159,-9622.677246,0.000000
495.589679,74.020594,-10140.821405,-536.266849
495.590005,0.000000,-9622.677246,-612.876398
495.590332,-370.102971,-9770.718434,-766.095498
495.590658,74.020594,-9992.780217,-536.266849
495.590984,0.000000,-9844.739029,0.000000
495.591310,222.061783,-9474.636058,-229.828649
495.591636,444.123565,-9696.697840,153.219100
495.591962,814.226536,-9548.656652,0.000000
495.592288,518.144159,-9622.677246,0.000000
495.592614,296.082377,-9548.656652,0.000000
495.592940,518.144159,-9844.739029,-842.705048
495.593267,74.020594,-9992.780217,-536.266849
495.593593,-518.144159,-10066.800811,-1072.533697
495.593919,148.041188,-10807.006753,-1302.362347
495.594245,296.082377,-10732.986159,-919.314598
495.594571,518.144159,-10436.903782,-536.266849
495.594897,666.185348,-9844.739029,-383.047749
495.595223,740.205942,-9844.739029,76.609550
495.595549,1110.308913,-9844.739029,459.657299
495.595875,962.267725,-9622.677246,1149.143247
495.596202,592.164754,-9252.574275,229.828649
495.596528,0.000000,-9326.594869,306.438199
495.596854,0.000000,-9696.697840,0.000000
495.597180,-370.102971,-9770.718434,-383.047749
495.597506,-370.102971,-9474.636058,-612.876398
495.597832,-296.082377,-8882.471304,-536.266849
495.598158,0.000000,-9696.697840,153.219100
495.598484,444.123565,-9400.615463,0.000000
495.598811,444.123565,-9030.512492,229.828649
495.599137,518.144159,-9252.574275,536.266849
495.599463,1110.308913,-9178.553681,689.485948
495.599789,444.123565,-8512.368333,536.266849
495.600115,370.102971,-9252.574275,383.047749
495.600441,296.082377,-9474.636058,0.000000
495.600767,74.020594,-9844.739029,0.000000
495.601093,0.000000,-9770.718434,-995.924147
495.601419,0.000000,-10066.800811,-1149.143247
495.601746,222.061783,-10510.924376,-842.705048
495.602072,0.000000,-10214.842000,-995.924147
495.602398,666.185348,-9548.656652,0.000000
495.602724,518.144159,-9548.656652,-229.828649
495.603050,444.123565,-9474.636058,-153.219100
495.603376,666.185348,-9474.636058,153.219100
495.603702,518.144159,-9474.636058,0.000000
495.604028,0.000000,-9844.739029,0.000000
495.604354,0.000000,-10066.800811,-919.314598
495.604681,222.061783,-10436.903782,-766.095498
495.605007,0.000000,-10214.842000,-1532.190996
495.605333,0.000000,-10288.862594,-766.095498
495.605659,296.082377,-10658.965565,-766.095498
495.605985,592.164754,-10214.842000,-153.219100
495.606311,740.205942,-9696.697840,0.000000
495.606637,666.185348,-9474.636058,1072.533697
495.606963,888.247130,-9104.533087,689.485948
495.607289,592.164754,-8438.347739,842.705048
495.607616,222.061783,-8438.347739,0.000000
495.607942,0.000000,-9400.615463,0.000000
495.608268,-296.082377,-9548.656652,-306.438199
495.608594,-592.164754,-9474.636058,-612.876398
495.608920,-666.185348,-9252.574275,-612.876398
495.609246,-370.102971,-9622.677246,-459.657299
495.609572,222.061783,-9844.739029,-459.657299
495.609898,666.185348,-9178.553681,-459.657299
495.610224,592.164754,-9326.594869,76.609550
495.610551,888.247130,-9178.553681,689.485948
495.610877,1110.308913,-9030.512492,383.047749
495.611203,814.226536,-8660.409521,229.828649
495.611529,370.102971,-9474.636058,-383.047749
495.611855,592.164754,-9548.656652,-306.438199
495.612181,518.144159,-9844.739029,-536.266849
495.612507,0.000000,-10066.800811,-1072.533697
495.612833,0.000000,-10510.924376,-1302.362347
495.613159,0.000000,-10807.006753,-1072.533697
495.613486,148.041188,-9992.780217,-383.047749
495.613812,370.102971,-9622.677246,306.438199
495.614138,740.205942,-10214.842000,76.609550
495.614464,592.164754,-9326.594869,0.000000
495.614790,740.205942,-9400.615463,153.219100
495.615116,148.041188,-9474.636058,0.000000
495.615442,296.082377,-9992.780217,-306.438199
495.615768,74.020594,-10214.842000,-842.705048
495.616094,0.000000,-10214.842000,-842.705048
495.616421,148.041188,-10510.924376,-1072.533697
495.616747,222.061783,-11029.068536,0.000000
495.617073,296.082377,-10214.842000,-383.047749
495.617399,666.185348,-9918.759623,0.000000
495.617725,592.164754,-9622.677246,229.828649
495.618051,740.205942,-9474.636058,766.095498
495.618377,518.144159,-8586.388927,995.924147
495.618703,666.185348,-8660.409521,459.657299
495.619030,74.020594,-8438.347739,689.485948
495.619356,-370.102971,-9178.553681,0.000000
495.619682,-370.102971,-9548.656652,-459.657299
495.620008,-592.164754,-9400.615463,-383.047749
495.620334,-296.082377,-9622.677246,-766.095498
495.620660,592.164754,-10436.903782,-1302.362347
495.620986,518.144159,-9548.656652,76.609550
495.621312,888.247130,-9474.636058,766.095498
495.621638,740.205942,-9326.594869,689.485948
495.621965,1110.308913,-9104.533087,536.266849
495.622291,1036.288319,-8956.491898,306.438199
495.622617,370.102971,-9178.553681,306.438199
495.622943,148.041188,-9844.739029,0.000000
495.623269,222.061783,-9992.780217,536.266849
495.623595,296.082377,-10288.862594,-766.095498
495.623921,0.000000,-10362.883188,-1455.581446
495.624247,0.000000,-11029.068536,-1302.362347
495.624573,0.000000,-10362.883188,-995.924147
495.624900,296.082377,-9918.759623,-689.485948
495.625226,0.000000,-9844.739029,0.000000
495.625552,148.041188,-8882.471304,306.438199
495.625878,518.144159,-9252.574275,-306.438199
495.626204,666.185348,-9844.739029,306.438199
495.626530,74.020594,-9474.636058,0.000000
495.626856,0.000000,-9844.739029,-459.657299
495.627182,0.000000,-10066.800811,-842.705048
495.627508,0.000000,-9918.759623,-689.485948
495.627835,518.144159,-10362.883188,-2068.457845
495.628161,74.020594,-10362.883188,-612.876398
495.628487,666.185348,-10288.862594,-612.876398
495.628813,518.144159,-9696.697840,0.000000
495.629139,888.247130,-9400.615463,536.266849
495.629465,740.205942,-9030.512492,919.314598
495.629791,370.102971,-8512.368333,1378.971896
495.630117,74.020594,-8956.491898,459.657299
495.630443,-592.164754,-9326.594869,0.000000
495.630770,-222.061783,-9400.615463,-383.047749
495.631096,-444.123565,-9400.615463,-536.266849
495.631422,-370.102971,-9474.636058,-919.314598
495.631748,0.000000,-10214.842000,-766.095498
495.632074,444.123565,-9770.718434,-383.047749
495.632400,592.164754,-9400.615463,-229.828649
495.632726,592.164754,-9548.656652,459.657299
495.633052,592.164754,-9030.512492,383.047749
495.633378,888.247130,-9326.594869,0.000000
495.633705,888.247130,-9178.553681,0.000000
495.634031,0.000000,-9400.615463,0.000000
495.634357,74.020594,-10214.842000,-306.438199
495.634683,296.082377,-9844.739029,-766.095498
495.635009,-370.102971,-9844.739029,-919.314598
495.635335,-222.061783,-9992.780217,-995.924147
495.635661,296.082377,-10881.027347,-919.314598
495.635987,0.000000,-9992.780217,-459.657299
495.636313,222.061783,-9844.739029,0.000000
495.636640,74.020594,-9844.739029,229.828649
495.636966,222.061783,-9400.615463,0.000000
495.637292,666.185348,-9548.656652,76.609550
495.637618,0.000000,-9030.512492,153.219100
495.637944,74.020594,-9622.677246,-459.657299
495.638270,148.041188,-9992.780217,-766.095498
495.638596,0.000000,-9918.759623,-689.485948
495.638922,74.020594,-9696.697840,-919.314598
495.639248,296.082377,-9992.780217,-842.705048
495.639575,0.000000,-9474.636058,-306.438199
495.639901,740.205942,-9474.636058,153.219100
495.640227,518.144159,-9474.636058,459.657299
495.640553,814.226536,-9400.615463,842.705048
495.640879,740.205942,-9252.574275,306.438199
495.641205,370.102971,-9178.553681,306.438199
495.641531,-296.082377,-8660.409521,229.828649
495.641857,0.000000,-9178.553681,-306.438199
495.642184,0.000000,-9474.636058,-919.314598
495.642510,-518.144159,-9474.636058,-689.485948
495.642836,0.000000,-10066.800811,-536.266849
495.643162,296.082377,-10214.842000,-306.438199
495.643488,518.144159,-9622.677246,-536.266849
495.643814,814.226536,-9548.656652,459.657299
495.644140,666.185348,-9622.677246,306.438199
495.644466,666.185348,-9400.615463,0.000000
495.644792,888.247130,-9548.656652,0.000000
495.645119,370.102971,-9770.718434,-229.828649
495.645445,222.061783,-9992.780217,-766.095498
495.645771,0.000000,-10658.965565,-842.705048
495.646097,148.041188,-9696.697840,-459.657299
495.646423,296.082377,-10066.800811,-1072.533697
495.646749,74.020594,-10214.842000,-689.485948
495.647075,0.000000,-10362.883188,-306.438199
495.647401,444.123565,-9844.739029,0.000000
495.647727,370.102971,-9918.759623,153.219100
495.648054,296.082377,-9844.739029,153.219100
495.648380,444.123565,-9178.553681,536.266849
495.648706,0.000000,-9178.553681,76.609550
495.649032,0.000000,-9474.636058,0.000000
495.649358,0.000000,-9548.656652,-536.266849
495.649684,-74.020594,-9400.615463,-689.485948
495.650010,0.000000,-9474.636058,-383.047749
495.650336,148.041188,-10066.800811,-306.438199
495.650662,740.205942,-9918.759623,0.000000
495.650989,592.164754,-9252.574275,76.609550
495.651315,222.061783,-9326.594869,229.828649
495.651641,888.247130,-9548.656652,459.657299
495.651967,592.164754,-9400.615463,306.438199
495.652293,444.123565,-9400.615463,306.438199
495.652619,-148.041188,-9178.553681,0.000000
495.652945,296.082377,-9400.615463,0.000000
495.653271,-296.082377,-9400.615463,-612.876398
495.653597,-370.102971,-9252.574275,-229.828649
495.653924,0.000000,-9770.718434,-766.095498
495.654250,296.082377,-10140.821405,-612.876398
495.654576,370.102971,-9844.739029,-306.438199
495.654902,592.164754,-9622.677246,76.609550
495.655228,962.267725,-10066.800811,0.000000
495.655554,1036.288319,-10066.800811,76.609550
495.655880,740.205942,-9474.636058,-536.266849
495.656206,296.082377,-9696.697840,-76.609550
495.656532,444.123565,-9992.780217,-536.266849
495.656859,0.000000,-9770.718434,-842.705048
495.657185,0.000000,-9918.759623,-842.705048
495.657511,296.082377,-9474.636058,-1302.362347
495.657837,296.082377,-10362.883188,459.657299
495.658163,370.102971,-10066.800811,-383.047749
495.658489,370.102971,-9844.739029,-459.657299
495.658815,444.123565,-9918.759623,153.219100
495.659141,444.123565,-9992.780217,306.438199
495.659467,518.144159,-9326.594869,306.438199
495.659794,148.041188,-9104.533087,153.219100
495.660120,518.144159,-9400.615463,153.219100
495.660446,0.000000,-9178.553681,-766.095498
495.660772,-518.144159,-8956.491898,-153.219100
495.661098,-296.082377,-9326.594869,0.000000
495.661424,222.061783,-9844.739029,-459.657299
495.661750,444.123565,-9918.759623,0.000000
495.662076,814.226536,-9548.656652,-153.219100
495.662402,1036.288319,-9548.656652,306.438199
495.662729,814.226536,-9252.574275,0.000000
495.663055,1184.329507,-9400.615463,536.266849
495.663381,444.123565,-9474.636058,383.047749
495.663707,296.082377,-9474.636058,229.828649
495.664033,0.000000,-9104.533087,-229.828649
495.664359,370.102971,-9252.574275,-919.314598
495.664685,0.000000,-9178.553681,-995.924147
495.665011,0.000000,-9696.697840,-995.924147
495.665338,0.000000,-10140.821405,-536.266849
495.665664,222.061783,-9622.677246,-612.876398
495.665990,370.102971,-9992.780217,-383.047749
495.666316,740.205942,-10658.965565,-153.219100
495.666642,666.185348,-9844.739029,0.000000
495.666968,740.205942,-9178.553681,-459.657299
495.667294,0.000000,-9178.553681,-306.438199
495.667620,370.102971,-9992.780217,-536.266849
495.667946,222.061783,-9696.697840,-689.485948
495.668273,0.000000,-9918.759623,-766.095498
495.668599,0.000000,-10510.924376,-612.876398
495.668925,222.061783,-10658.965565,-689.485948
495.669251,518.144159,-10362.883188,0.000000
495.669577,592.164754,-10066.800811,-536.266849
495.669903,296.082377,-10288.862594,0.000000
495.670229,518.144159,-9844.739029,383.047749
495.670555,592.164754,-9030.512492,383.047749
495.670882,0.000000,-9030.512492,306.438199
495.671208,0.000000,-8956.491898,842.705048
495.671534,-296.082377,-8882.471304,0.000000
495.671860,-296.082377,-8808.450710,-1378.971896
495.672186,-296.082377,-9030.512492,-459.657299
495.672512,74.020594,-9474.636058,-612.876398
495.672838,74.020594,-9918.759623,-536.266849
495.673165,518.144159,-9696.697840,-229.828649
495.673491,592.164754,-9844.739029,0.000000
495.673817,1110.308913,-9844.739029,0.000000
495.674143,1258.350101,-9622.677246,383.047749
495.674469,592.164754,-9474.636058,0.000000
495.674795,888.247130,-9400.615463,0.000000
495.675121,444.123565,-9400.615463,0.000000
495.675448,0.000000,-9252.574275,-383.047749
495.675774,-296.082377,-9474.636058,-689.485948
495.676100,-666.185348,-10066.800811,-919.314598
495.676426,0.000000,-10955.047942,-995.924147
495.676752,222.061783,-10066.800811,-919.314598
495.677078,296.082377,-10658.965565,-689.485948
495.677405,518.144159,-10658.965565,-459.657299
495.677731,888.247130,-10140.821405,0.000000
495.678057,592.164754,-9548.656652,0.000000
495.678383,148.041188,-9474.636058,0.000000
495.678709,148.041188,-9400.615463,0.000000
495.679035,518.144159,-9696.697840,-153.219100
495.679361,74.020594,-9400.615463,-229.828649
495.679688,74.020594,-10214.842000,-689.485948
495.680014,0.000000,-10658.965565,-612.876398
495.680340,222.061783,-10658.965565,-536.266849
495.680666,518.144159,-10362.883188,153.219100
495.680992,592.164754,-10066.800811,76.609550
495.681318,518.144159,-9770.718434,612.876398
495.681644,814.226536,-8882.471304,919.314598
495.681971,222.061783,-8734.430116,306.438199
495.682297,0.000000,-8734.430116,306.438199
495.682623,0.000000,-8660.409521,153.219100
495.682949,-296.082377,-8882.471304,153.219100
495.683275,-296.082377,-9104.533087,-536.266849
495.683601,0.000000,-9992.780217,-612.876398
495.683928,222.061783,-9696.697840,-612.876398
495.684254,222.061783,-9918.759623,-459.657299
495.684580,518.144159,-9918.759623,-383.047749
495.684906,740.205942,-10066.800811,0.000000
495.685232,1036.288319,-9474.636058,76.609550
495.685558,1184.329507,-9104.533087,306.438199
495.685884,740.205942,-9104.533087,536.266849
495.686211,518.144159,-9252.574275,0.000000
495.686537,0.000000,-9474.636058,-383.047749
495.686863,-222.061783,-9622.677246,-766.095498
495.687189,0.000000,-10288.862594,-1225.752797
495.687515,0.000000,-10436.903782,-1455.581446
495.687841,0.000000,-10658.965565,-995.924147
495.688167,518.144159,-10732.986159,-1149.143247
495.688494,148.041188,-10362.883188,-459.657299
495.688820,370.102971,-9992.780217,0.000000
495.689146,666.185348,-9474.636058,-153.219100
495.689472,518.144159,-9474.636058,-153.219100
495.689798,148.041188,-9252.574275,0.000000
495.690124,370.102971,-9252.574275,153.219100
495.690451,222.061783,-9622.677246,-536.266849
495.690777,74.020594,-9992.780217,-842.705048
495.691103,0.000000,-10214.842000,-842.705048
495.691429,370.102971,-10881.027347,-459.657299
495.691755,444.123565,-10658.965565,-612.876398
495.692081,592.164754,-10214.842000,0.000000
495.692407,666.185348,-9474.636058,0.000000
495.692734,222.061783,-9030.512492,995.924147
495.693060,518.144159,-8512.368333,306.438199
495.693386,0.000000,-8512.368333,689.485948
495.693712,0.000000,-8586.388927,76.609550
495.694038,-148.041188,-8808.450710,0.000000
495.694364,-444.123565,-8882.471304,-306.438199
495.694690,74.020594,-9252.574275,-229.828649
495.695017,296.082377,-9992.780217,0.000000
495.695343,592.164754,-10288.862594,-612.876398
495.695669,518.144159,-10066.800811,-459.657299
495.695995,666.185348,-9992.780217,-306.438199
495.696321,814.226536,-9770.718434,306.438199
495.696647,814.226536,-9400.615463,536.266849
495.696974,740.205942,-9178.553681,766.095498
495.697300,148.041188,-9104.533087,153.219100
495.697626,518.144159,-9770.718434,0.000000
495.697952,0.000000,-9622.677246,-689.485948
495.698278,0.000000,-10288.862594,-1072.533697
495.698604,-222.061783,-10362.883188,-1149.143247
495.698930,0.000000,-10955.047942,-995.924147
495.699257,0.000000,-10584.944971,-612.876398
495.699583,814.226536,-10584.944971,-1225.752797
495.699909,518.144159,-9696.697840,-306.438199
495.700235,296.082377,-9474.636058,0.000000
495.700561,444.123565,-9252.574275,0.000000
495.700887,74.020594,-9400.615463,-229.828649
495.701213,222.061783,-9326.594869,153.219100
495.701540,370.102971,-9252.574275,0.000000
495.701866,0.000000,-9770.718434,-766.095498
495.702192,222.061783,-9992.780217,-536.266849
495.702518,74.020594,-10362.883188,-766.095498
495.702844,222.061783,-10584.944971,-306.438199
495.703170,518.144159,-10288.862594,0.000000
495.703497,592.164754,-9548.656652,229.828649
495.703823,518.144159,-8956.491898,1072.533697
495.704149,740.205942,-8808.450710,689.485948
495.704475,222.061783,-8068.244768,536.266849
495.704801,-222.061783,-8586.388927,306.438199
495.705127,0.000000,-8882.471304,76.609550
495.705453,-296.082377,-9178.553681,0.000000
495.705780,-222.061783,-9400.615463,-306.438199
495.706106,74.020594,-9770.718434,0.000000
495.706432,0.000000,-9992.780217,-383.047749
495.706758,814.226536,-9992.780217,-1762.019645
495.707084,296.082377,-9770.718434,-306.438199
495.707410,814.226536,-9844.739029,0.000000
495.707736,888.247130,-9474.636058,536.266849
495.708063,666.185348,-9474.636058,229.828649
495.708389,814.226536,-9400.615463,0.000000
495.708715,222.061783,-9326.594869,-153.219100
495.709041,148.041188,-9622.677246,-1378.971896
495.709367,-148.041188,-9918.759623,-612.876398
495.709693,0.000000,-10436.903782,-995.924147
495.710020,0.000000,-10658.965565,-919.314598
495.710346,0.000000,-10510.924376,-689.485948
495.710672,0.000000,-10214.842000,-153.219100
495.710998,222.061783,-9992.780217,-383.047749
495.711324,370.102971,-9400.615463,76.609550
495.711650,740.205942,-9252.574275,0.000000
495.711976,222.061783,-9178.553681,0.000000
495.712303,296.082377,-9474.636058,0.000000
495.712629,0.000000,-9400.615463,-306.438199
495.712955,0.000000,-9992.780217,-766.095498
495.713281,0.000000,-9844.739029,-383.047749
495.713607,222.061783,-10658.965565,-689.485948
495.713933,222.061783,-10288.862594,-766.095498
495.714259,592.164754,-10362.883188,0.000000
495.714586,518.144159,-9548.656652,306.438199
495.714912,666.185348,-9326.594869,536.266849
495.715238,592.164754,-8882.471304,995.924147
495.715564,518.144159,-8586.388927,76.609550
495.715890,296.082377,-8734.430116,-229.828649
495.716216,0.000000,-8586.388927,0.000000
495.716543,0.000000,-9252.574275,0.000000
495.716869,-296.082377,-9474.636058,-383.047749
495.717195,0.000000,-9992.780217,-689.485948
495.717521,444.123565,-10066.800811,-612.876398
495.717847,592.164754,-10362.883188,-153.219100
495.718173,962.267725,-9992.780217,-459.657299
495.718499,888.247130,-9622.677246,76.609550
495.718826,814.226536,-9770.718434,153.219100
495.719152,740.205942,-9252.574275,76.609550
495.719478,518.144159,-9400.615463,76.609550
495.719804,592.164754,-9474.636058,0.000000
495.720130,222.061783,-9622.677246,-689.485948
495.720456,-148.041188,-10066.800811,-536.266849
495.720782,-592.164754,-9992.780217,-1378.971896
495.721109,0.000000,-10584.944971,-1225.752797
495.721435,0.000000,-10658.965565,-919.314598
495.721761,0.000000,-10658.965565,-536.266849
495.722087,296.082377,-10066.800811,-612.876398
495.722413,592.164754,-9474.636058,536.266849
495.722739,888.247130,-9030.512492,306.438199
495.723066,592.164754,-8956.491898,0.000000
495.723392,370.102971,-9400.615463,0.000000
495.723718,0.000000,-9474.636058,0.000000
495.724044,74.020594,-9696.697840,0.000000
495.724370,74.020594,-9770.718434,-536.266849
495.724696,444.123565,-9992.780217,-1532.190996
495.725022,296.082377,-10362.883188,-459.657299
495.725349,518.144159,-10140.821405,-306.438199
495.725675,370.102971,-9696.697840,0.000000
495.726001,592.164754,-9622.677246,229.828649
495.726327,814.226536,-9104.533087,766.095498
495.726653,740.205942,-9030.512492,612.876398
495.726979,222.061783,-8808.450710,1378.971896
495.727305,0.000000,-8438.347739,612.876398
495.727632,0.000000,-9252.574275,-306.438199
495.727958,0.000000,-9696.697840,-459.657299
495.728284,-222.061783,-9992.780217,-459.657299
495.728610,0.000000,-10436.903782,-842.705048
495.728936,148.041188,-10436.903782,-689.485948
495.729262,74.020594,-9770.718434,-459.657299
495.729589,1110.308913,-10066.800811,-383.047749
495.729915,740.205942,-9696.697840,612.876398
495.730241,518.144159,-9252.574275,459.657299
495.730567,666.185348,-9326.594869,76.609550
495.730893,370.102971,-9474.636058,0.000000
495.731219,296.082377,-9918.759623,-612.876398
495.731545,296.082377,-10436.903782,-842.705048
495.731872,74.020594,-10288.862594,-766.095498
495.732198,0.000000,-10436.903782,-1072.533697
495.732524,148.041188,-10584.944971,-842.705048
495.732850,0.000000,-10362.883188,-612.876398
495.733176,74.020594,-10066.800811,-229.828649
495.733502,296.082377,-9622.677246,76.609550
495.733828,814.226536,-9252.574275,536.266849
495.734155,370.102971,-8586.388927,689.485948
495.734481,444.123565,-9104.533087,306.438199
495.734807,0.000000,-9252.574275,229.828649
495.735133,0.000000,-9474.636058,-229.828649
495.735459,0.000000,-9622.677246,-612.876398
495.735785,0.000000,-9844.739029,-612.876398
495.736112,148.041188,-9992.780217,-842.705048
495.736438,222.061783,-9918.759623,-153.219100
495.736764,444.123565,-9696.697840,-306.438199
495.737090,666.185348,-9474.636058,0.000000
495.737416,814.226536,-9178.553681,536.266849
495.737742,888.247130,-9030.512492,383.047749
495.738068,518.144159,-9104.533087,229.828649
495.738395,370.102971,-8512.368333,-229.828649
495.738721,148.041188,-9178.553681,-919.314598
495.739047,0.000000,-9178.553681,-153.219100
495.739373,-518.144159,-9844.739029,-612.876398
495.739699,-148.041188,-10066.800811,-1072.533697
495.740025,0.000000,-10436.903782,-919.314598
495.740351,0.000000,-10140.821405,-919.314598
495.740678,888.247130,-9992.780217,-459.657299
495.741004,592.164754,-9622.677246,76.609550
495.741330,592.164754,-8956.491898,0.000000
495.741656,740.205942,-9400.615463,459.657299
495.741982,444.123565,-9474.636058,76.609550
495.742308,148.041188,-9548.656652,-153.219100
495.742635,222.061783,-10362.883188,-459.657299
495.742961,0.000000,-10362.883188,-766.095498
495.743287,0.000000,-10214.842000,-766.095498
495.743613,74.020594,-10436.903782,-536.266849
495.743939,148.041188,-10436.903782,-536.266849
495.744265,148.041188,-9992.780217,-229.828649
495.744591,444.123565,-9622.677246,0.000000
495.744918,296.082377,-9252.574275,229.828649
495.745244,592.164754,-8882.471304,689.485948
495.745570,740.205942,-9030.512492,306.438199
495.745896,148.041188,-9326.594869,76.609550
495.746222,0.000000,-9178.553681,0.000000
495.746548,74.020594,-9844.739029,-612.876398
495.746874,0.000000,-10140.821405,-995.924147
495.747201,0.000000,-9696.697840,-995.924147
495.747527,148.041188,-10066.800811,-536.266849
495.747853,814.226536,-10510.924376,0.000000
495.748179,814.226536,-9696.697840,229.828649
495.748505,1036.288319,-9178.553681,306.438199
495.748831,592.164754,-9030.512492,689.485948
495.749158,740.205942,-9178.553681,459.657299
495.749484,444.123565,-9178.553681,0.000000
495.749810,-222.061783,-9252.574275,153.219100
495.750136,-444.123565,-9474.636058,-919.314598
495.750462,-740.205942,-10066.800811,-689.485948
495.750788,-740.205942,-9770.718434,-919.314598
495.751114,-148.041188,-10140.821405,-1378.971896
495.751441,74.020594,-10362.883188,-689.485948
495.751767,296.082377,-9844.739029,-306.438199
495.752093,962.267725,-9770.718434,76.609550
495.752419,666.185348,-9474.636058,612.876398
495.752745,888.247130,-9252.574275,229.828649
495.753071,1406.391290,-10140.821405,0.000000
495.753397,296.082377,-9548.656652,76.609550
495.753724,148.041188,-9918.759623,-383.047749
495.754050,222.061783,-10584.944971,-689.485948
495.754376,-148.041188,-10658.965565,-919.314598
495.754702,-296.082377,-9622.677246,-842.705048
495.755028,148.041188,-10288.862594,-229.828649
495.755354,-148.041188,-9474.636058,-229.828649
495.755681,74.020594,-9400.615463,0.000000
495.756007,0.000000,-9400.615463,459.657299
495.756333,518.144159,-9252.574275,689.485948
495.756659,592.164754,-9326.594869,229.828649
495.756985,444.123565,-9252.574275,229.828649
495.757311,296.082377,-9252.574275,-153.219100
495.757637,0.000000,-9622.677246,-306.438199
495.757964,148.041188,-10140.821405,-842.705048
495.758290,0.000000,-9696.697840,-612.876398
495.758616,222.061783,-9696.697840,-383.047749
495.758942,666.185348,-10436.903782,-306.438199
495.759268,888.247130,-9918.759623,76.609550
495.759594,962.267725,-9622.677246,229.828649
495.759920,1110.308913,-9548.656652,229.828649
495.760247,888.247130,-9474.636058,306.438199
495.760573,518.144159,-9548.656652,76.609550
495.760899,0.000000,-9474.636058,0.000000
495.761225,-370.102971,-9474.636058,-689.485948
495.761551,0.000000,-9696.697840,-1838.629195
495.761877,-370.102971,-9474.636058,-842.705048
495.762204,-222.061783,-9696.697840,-919.314598
495.762530,296.082377,-10140.821405,-612.876398
495.762856,148.041188,-9770.718434,0.000000
495.763182,666.185348,-9622.677246,0.000000
495.763508,518.144159,-9696.697840,536.266849
495.763834,814.226536,-9770.718434,536.266849
495.764160,1110.308913,-9474.636058,0.000000
495.764487,518.144159,-9770.718434,306.438199
495.764813,-222.061783,-9696.697840,0.000000
495.765139,148.041188,-10214.842000,-459.657299
495.765465,74.020594,-10140.821405,-612.876398
495.765791,-370.102971,-9770.718434,-766.095498
495.766117,444.123565,-9622.677246,-306.438199
495.766443,0.000000,-9992.780217,-229.828649
495.766770,148.041188,-9400.615463,536.266849
495.767096,518.144159,-9474.636058,383.047749
495.767422,222.061783,-9252.574275,842.705048
495.767748,518.144159,-9474.636058,76.609550
495.768074,296.082377,-9548.656652,0.000000
495.768400,0.000000,-9178.553681,-229.828649
495.768726,296.082377,-9400.615463,0.000000
495.769053,74.020594,-10066.800811,-383.047749
495.769379,-444.123565,-9400.615463,-1072.533697
495.769705,148.041188,-9696.697840,-919.314598
495.770031,592.164754,-10214.842000,-306.438199
495.770357,740.205942,-10140.821405,0.000000
495.770683,1036.288319,-9696.697840,536.266849
495.771009,1036.288319,-9622.677246,612.876398
495.771336,1036.288319,-9992.780217,536.266849
495.771662,740.205942,-10066.800811,0.000000
495.771988,0.000000,-9548.656652,0.000000
495.772314,0.000000,-9474.636058,-1072.533697
495.772640,0.000000,-10066.800811,-1072.533697
495.772966,-296.082377,-9770.718434,-766.095498
495.773292,-444.123565,-9548.656652,-842.705048
495.773618,74.020594,-9918.759623,0.000000
495.773945,148.041188,-9992.780217,0.000000
495.774271,444.123565,-9326.594869,0.000000
495.774597,592.164754,-9474.636058,459.657299
495.774923,740.205942,-9474.636058,766.095498
495.775249,740.205942,-9400.615463,153.219100
495.775575,518.144159,-9252.574275,612.876398
495.775901,0.000000,-9400.615463,153.219100
495.776228,148.041188,-9622.677246,-229.828649
495.776554,-296.082377,-9696.697840,-536.266849
495.776880,-296.082377,-9770.718434,-766.095498
495.777206,0.000000,-9844.739029,-689.485948
495.777532,148.041188,-9770.718434,-306.438199
495.777858,148.041188,-9104.533087,383.047749
495.778184,74.020594,-8734.430116,76.609550
495.778510,666.185348,-9178.553681,536.266849
495.778837,666.185348,-9400.615463,306.438199
495.779163,444.123565,-9252.574275,153.219100
495.779489,0.000000,-9474.636058,-153.219100
495.779815,518.144159,-10066.800811,-76.609550
495.780141,-518.144159,-9474.636058,-1149.143247
495.780467,222.061783,-9844.739029,-919.314598
495.780793,222.061783,-10288.862594,-1532.190996
495.781119,444.123565,-10362.883188,-842.705048
495.781446,444.123565,-9918.759623,-383.047749
495.781772,814.226536,-9548.656652,76.609550
495.782098,1480.411884,-10066.800811,995.924147
495.782424,1554.432478,-10066.800811,612.876398
495.782750,740.205942,-9548.656652,459.657299
495.783076,740.205942,-9252.574275,-383.047749
495.783402,148.041188,-9770.718434,-306.438199
495.783729,0.000000,-9918.759623,-842.705048
495.784055,-740.205942,-9770.718434,-919.314598
495.784381,-888.247130,-9548.656652,-766.095498
495.784707,-370.102971,-10362.883188,-536.266849
495.785033,370.102971,-9918.759623,-536.266849
495.785359,370.102971,-9474.636058,766.095498
495.785685,148.041188,-9474.636058,536.266849
495.786011,740.205942,-9770.718434,536.266849
495.786338,666.185348,-9474.636058,459.657299
495.786664,518.144159,-9030.512492,536.266849
495.786990,0.000000,-9474.636058,153.219100
495.787316,518.144159,-9696.697840,0.000000
495.787642,-370.102971,-9030.512492,-766.095498
495.787968,-444.123565,-9400.615463,-689.485948
495.788294,74.020594,-9918.759623,-612.876398
495.788620,74.020594,-10214.842000,-383.047749
495.788947,296.082377,-9622.677246,76.609550
495.789273,518.144159,-9548.656652,383.047749
495.789599,518.144159,-9326.594869,153.219100
495.789925,370.102971,-9474.636058,459.657299
495.790251,740.205942,-9252.574275,0.000000
495.790577,370.102971,-9326.594869,0.000000
495.790903,370.102971,-9844.739029,-153.219100
495.791230,0.000000,-9696.697840,-766.095498
495.791556,0.000000,-9326.594869,-612.876398
495.791882,0.000000,-10658.965565,-842.705048
495.792208,222.061783,-10214.842000,-995.924147
495.792534,222.061783,-10140.821405,-612.876398
495.792860,666.185348,-10066.800811,-306.438199
495.793186,814.226536,-10288.862594,0.000000
495.793512,1036.288319,-10436.903782,383.047749
495.793839,1036.288319,-10066.800811,306.438199
495.794165,444.123565,-9400.615463,459.657299
495.794491,444.123565,-9992.780217,-383.047749
495.794817,74.020594,-9474.636058,-383.047749
495.795143,-592.164754,-9474.636058,-766.095498
495.795469,-518.144159,-9474.636058,-842.705048
495.795795,-444.123565,-9844.739029,-1149.143247
495.796122,-222.061783,-9992.780217,-459.657299
495.796448,518.144159,-9474.636058,-153.219100
495.796774,444.123565,-9548.656652,306.438199
495.797100,518.144159,-9474.636058,842.705048
495.797426,814.226536,-9474.636058,689.485948
495.797752,740.205942,-9030.512492,536.266849
495.798078,222.061783,-9326.594869,76.609550
495.798404,666.185348,-9548.656652,-383.047749
495.798731,0.000000,-9400.615463,-1532.190996
495.799057,-222.061783,-9252.574275,-766.095498
495.799383,222.061783,-9918.759623,-689.485948
495.799709,74.020594,-9992.780217,-536.266849
495.800035,222.061783,-9474.636058,0.000000
495.800361,370.102971,-9548.656652,0.000000
495.800687,740.205942,-9992.780217,229.828649
495.801013,814.226536,-9770.718434,306.438199
495.801340,740.205942,-8660.409521,383.047749
495.801666,666.185348,-9400.615463,536.266849
495.801992,222.061783,-9770.718434,-306.438199
495.802318,0.000000,-9474.636058,-689.485948
495.802644,-296.082377,-9548.656652,-919.314598
495.802970,0.000000,-10362.883188,-1378.971896
495.803296,0.000000,-9622.677246,-612.876398
495.803623,370.102971,-9918.759623,-919.314598
495.803949,444.123565,-9770.718434,76.609550
495.804275,740.205942,-10214.842000,-153.219100
495.804601,1110.308913,-10436.903782,229.828649
495.804927,888.247130,-9918.759623,229.828649
495.805253,444.123565,-9622.677246,76.609550
495.805579,444.123565,-9844.739029,306.438199
495.805905,222.061783,-9326.594869,0.000000
495.806232,-444.123565,-9252.574275,-153.219100
495.806558,-444.123565,-9474.636058,-612.876398
495.806884,-444.123565,-9918.759623,-919.314598
495.807210,0.000000,-10140.821405,-766.095498
495.807536,0.000000,-9770.718434,-536.266849
495.807862,296.082377,-9474.636058,0.000000
495.808188,222.061783,-9474.636058,459.657299
495.808514,962.267725,-9474.636058,689.485948
495.808841,444.123565,-8882.471304,459.657299
495.809167,148.041188,-9252.574275,383.047749
495.809493,296.082377,-9178.553681,76.609550
495.809819,0.000000,-9474.636058,-153.219100
495.810145,-222.061783,-9770.718434,-689.485948
495.810471,74.020594,-9326.594869,-383.047749
495.810797,222.061783,-9918.759623,-459.657299
495.811124,370.102971,-10066.800811,-383.047749
495.811450,370.102971,-9696.697840,-229.828649
495.811776,592.164754,-9992.780217,0.000000
495.812102,1036.288319,-9696.697840,229.828649
495.812428,962.267725,-9252.574275,459.657299
495.812754,444.123565,-8808.450710,689.485948
495.813080,444.123565,-9622.677246,-306.438199
495.813406,-296.082377,-9474.636058,-689.485948
495.813733,0.000000,-9548.656652,-919.314598
495.814059,-148.041188,-9992.780217,-1149.143247
495.814385,0.000000,-10214.842000,-1225.752797
495.814711,296.082377,-10066.800811,-306.438199
495.815037,296.082377,-9992.780217,-612.876398
495.815363,814.226536,-10066.800811,0.000000
495.815689,888.247130,-10066.800811,-153.219100
495.816016,814.226536,-9918.759623,229.828649
495.816342,666.185348,-9326.594869,229.828649
495.816668,148.041188,-9548.656652,229.828649
495.816994,370.102971,-9548.656652,-153.219100
495.817320,0.000000,-9548.656652,-459.657299
495.817646,-370.102971,-8734.430116,-306.438199
495.817972,-592.164754,-9548.656652,-689.485948
495.818298,-370.102971,-9918.759623,-766.095498
495.818625,-148.041188,-10066.800811,0.000000
495.818951,74.020594,-9622.677246,0.000000
495.819277,444.123565,-9252.574275,459.657299
495.819603,740.205942,-9178.553681,306.438199
495.819929,370.102971,-8882.471304,689.485948
495.820255,740.205942,-9104.533087,0.000000
495.820581,222.061783,-9104.533087,0.000000
495.820907,0.000000,-9252.574275,-153.219100
495.821234,0.000000,-9252.574275,-612.876398
495.821560,0.000000,-9474.636058,-383.047749
495.821886,370.102971,-10436.903782,-306.438199
495.822212,222.061783,-10214.842000,0.000000
495.822538,592.164754,-9844.739029,-612.876398
495.822864,814.226536,-10288.862594,0.000000
495.823190,888.247130,-9770.718434,229.828649
495.823517,888.247130,-9696.697840,153.219100
495.823843,518.144159,-9252.574275,229.828649
495.824169,444.123565,-8956.491898,76.609550
495.824495,74.020594,-9400.615463,-995.924147
495.824821,148.041188,-9474.636058,-1072.533697
495.825147,-222.061783,-9622.677246,-1149.143247
495.825473,0.000000,-9918.759623,-1072.533697
495.825799,74.020594,-10510.924376,-919.314598
495.826126,370.102971,-10584.944971,-459.657299
495.826452,592.164754,-10066.800811,0.000000
495.826778,666.185348,-10140.821405,383.047749
495.827104,740.205942,-9918.759623,306.438199
495.827430,666.185348,-9400.615463,459.657299
495.827756,666.185348,-9474.636058,76.609550
495.828082,444.123565,-9696.697840,0.000000
495.828409,0.000000,-9400.615463,0.000000
495.828735,-148.041188,-9030.512492,-536.266849
495.829061,-1184.329507,-8882.471304,-612.876398
495.829387,0.000000,-9696.697840,-919.314598
495.829713,-222.061783,-9992.780217,-306.438199
495.830039,-222.061783,-9548.656652,-229.828649
495.830365,148.041188,-9696.697840,0.000000
495.830691,666.185348,-9992.780217,0.000000
495.831018,518.144159,-9474.636058,306.438199
495.831344,518.144159,-8438.347739,612.876398
495.831670,444.123565,-9104.533087,-306.438199
495.831996,370.102971,-9252.574275,0.000000
495.832322,0.000000,-9178.553681,-459.657299
495.832648,0.000000,-9474.636058,-612.876398
495.832974,148.041188,-10140.821405,-995.924147
495.833300,370.102971,-10436.903782,-459.657299
495.833627,814.226536,-10066.800811,-842.705048
495.833953,1036.288319,-10214.842000,-153.219100
495.834279,814.226536,-10362.883188,229.828649
495.834605,814.226536,-9918.759623,153.219100
495.834931,518.144159,-9474.636058,229.828649
495.835257,296.082377,-9326.594869,229.828649
495.835583,444.123565,-9474.636058,-612.876398
495.835910,0.000000,-9474.636058,-383.047749
495.836236,-814.226536,-9474.636058,0.000000
495.836562,-148.041188,-10066.800811,-995.924147
495.836888,0.000000,-10362.883188,-766.095498
495.837214,296.082377,-10510.924376,-612.876398
495.837540,444.123565,-10066.800811,-306.438199
495.837866,740.205942,-10140.821405,-306.438199
495.838192,1258.350101,-10066.800811,306.438199
495.838519,814.226536,-9326.594869,1072.533697
495.838845,740.205942,-9400.615463,536.266849
495.839171,370.102971,-9326.594869,229.828649
495.839497,74.020594,-9178.553681,76.609550
495.839823,-148.041188,-9400.615463,0.000000
495.840149,-222.061783,-9252.574275,-229.828649
495.840475,0.000000,-9474.636058,-995.924147
495.840801,-148.041188,-9770.718434,-153.219100
495.841128,0.000000,-10066.800811,0.000000
495.841454,148.041188,-9770.718434,0.000000
495.841780,592.164754,-10140.821405,229.828649
495.842106,814.226536,-9474.636058,153.219100
495.842432,666.185348,-8882.471304,229.828649
495.842758,444.123565,-9104.533087,0.000000
495.843084,370.102971,-8956.491898,0.000000
495.843411,370.102971,-9030.512492,-383.047749
495.843737,148.041188,-9326.594869,-536.266849
495.844063,0.000000,-9992.780217,-536.266849
495.844389,296.082377,-10807.006753,-842.705048
495.844715,444.123565,-10732.986159,-995.924147
495.845041,370.102971,-10362.883188,-612.876398
495.845367,962.267725,-10584.944971,229.828649
495.845693,962.267725,-10214.842000,229.828649
495.846020,592.164754,-9474.636058,153.219100
495.846346,518.144159,-9474.636058,0.000000
495.846672,0.000000,-9474.636058,0.000000
495.846998,0.000000,-9326.594869,229.828649
495.847324,296.082377,-9252.574275,-766.095498
495.847650,-592.164754,-9622.677246,-459.657299
495.847976,-666.185348,-10066.800811,-536.266849
495.848303,0.000000,-10436.903782,-689.485948
495.848629,74.020594,-10288.862594,-459.657299
495.848955,444.123565,-10140.821405,-229.828649
495.849281,740.205942,-9622.677246,0.000000
495.849607,888.247130,-9252.574275,459.657299
495.849933,1036.288319,-8882.471304,612.876398
495.850259,148.041188,-8882.471304,459.657299
495.850585,222.061783,-9178.553681,153.219100
495.850912,0.000000,-9178.553681,0.000000
495.851238,-296.082377,-9178.553681,0.000000
495.851564,-518.144159,-9474.636058,0.000000
495.851890,-222.061783,-9844.739029,-306.438199
495.852216,0.000000,-9326.594869,-459.657299
495.852542,222.061783,-9622.677246,-383.047749
495.852868,518.144159,-9918.759623,0.000000
495.853194,740.205942,-9474.636058,229.828649
495.853521,814.226536,-9104.533087,76.609550
495.853847,296.082377,-8808.450710,229.828649
495.854173,222.061783,-8734.430116,153.219100
495.854499,222.061783,-9030.512492,-383.047749
495.854825,296.082377,-9104.533087,-766.095498
495.855151,0.000000,-9992.780217,-919.314598
495.855477,222.061783,-10584.944971,-1072.533697
495.855804,444.123565,-11177.109724,-995.924147
495.856130,518.144159,-10732.986159,-1149.143247
495.856456,740.205942,-10288.862594,-536.266849
495.856782,666.185348,-10214.842000,459.657299
495.857108,814.226536,-10140.821405,383.047749
495.857434,444.123565,-8956.491898,0.000000
495.857760,222.061783,-9326.594869,0.000000
495.858086,0.000000,-9326.594869,-153.219100
495.858413,0.000000,-9548.656652,-459.657299
495.858739,0.000000,-9844.739029,-919.314598
495.859065,-888.247130,-9770.718434,-919.314598
495.859391,296.082377,-10066.800811,-766.095498
495.859717,74.020594,-10510.924376,-536.266849
495.860043,444.123565,-9992.780217,0.000000
495.860369,592.164754,-9696.697840,0.000000
495.860695,740.205942,-9474.636058,1072.533697
495.861022,814.226536,-8734.430116,536.266849
495.861348,592.164754,-8142.265362,689.485948
495.861674,814.226536,-9474.636058,383.047749
495.862000,148.041188,-9252.574275,-459.657299
495.862326,-222.061783,-9474.636058,-383.047749
495.862652,-222.061783,-9622.677246,-612.876398
495.862978,-148.041188,-9844.739029,-459.657299
495.863305,0.000000,-10140.821405,-459.657299
495.863631,0.000000,-9474.636058,0.000000
495.863957,740.205942,-9622.677246,-536.266849
495.864283,740.205942,-9548.656652,229.828649
495.864609,740.205942,-9104.533087,612.876398
495.864935,518.144159,-8882.471304,536.266849
495.865261,370.102971,-9104.533087,306.438199
495.865587,222.061783,-9474.636058,-76.609550
495.865914,-370.102971,-9474.636058,-536.266849
495.866240,222.061783,-10362.883188,-919.314598
495.866566,0.000000,-10510.924376,-1149.143247
495.866892,370.102971,-10955.047942,-995.924147
495.867218,222.061783,-10658.965565,-919.314598
495.867544,444.123565,-10214.842000,-383.047749
495.867870,1036.288319,-10066.800811,0.000000
495.868197,740.205942,-9770.718434,919.314598
495.868523,814.226536,-9178.553681,459.657299
495.868849,370.102971,-9104.533087,153.219100
495.869175,0.000000,-9178.553681,-153.219100
495.869501,-222.061783,-9622.677246,-459.657299
495.869827,-148.041188,-10066.800811,-766.095498
495.870153,-518.144159,-10066.800811,-383.047749
495.870479,0.000000,-10510.924376,-689.485948
495.870806,296.082377,-10436.903782,-306.438199
495.871132,222.061783,-9918.759623,-612.876398
495.871458,592.164754,-9622.677246,0.000000
495.871784,444.123565,-9326.594869,459.657299
495.872110,666.185348,-8882.471304,842.705048
495.872436,444.123565,-8290.306550,766.095498
495.872762,814.226536,-9104.533087,689.485948
495.873089,0.000000,-8882.471304,0.000000
495.873415,0.000000,-8956.491898,-766.095498
495.873741,0.000000,-9770.718434,-536.266849
495.874067,0.000000,-9918.759623,-536.266849
495.874393,0.000000,-10288.862594,-383.047749
495.874719,148.041188,-10288.862594,-229.828649
495.875045,518.144159,-9696.697840,-459.657299
495.875372,814.226536,-9400.615463,536.266849
495.875698,1036.288319,-9400.615463,0.000000
495.876024,740.205942,-8882.471304,306.438199
495.876350,666.185348,-8956.491898,76.609550
495.876676,74.020594,-9178.553681,76.609550
495.877002,296.082377,-9918.759623,0.000000
495.877328,0.000000,-10436.903782,-612.876398
495.877655,-222.061783,-10066.800811,-1455.581446
495.877981,222.061783,-10436.903782,-1072.533697
495.878307,222.061783,-10881.027347,-536.266849
495.878633,518.144159,-10510.924376,-459.657299
495.878959,814.226536,-10214.842000,-153.219100
495.879285,814.226536,-9844.739029,153.219100
495.879611,518.144159,-9326.594869,229.828649
495.879938,518.144159,-8808.450710,0.000000
495.880264,0.000000,-8808.450710,842.705048
495.880590,0.000000,-9548.656652,76.609550
495.880916,0.000000,-9770.718434,-383.047749
495.881242,-370.102971,-10066.800811,-536.266849
495.881568,-444.123565,-10140.821405,-766.095498
495.881894,0.000000,-10362.883188,-995.924147
495.882221,0.000000,-10140.821405,-383.047749
495.882547,370.102971,-9474.636058,-383.047749
495.882873,444.123565,-9326.594869,229.828649
495.883199,666.185348,-9252.574275,383.047749
495.883525,814.226536,-8956.491898,459.657299
495.883851,370.102971,-8734.430116,459.657299
495.884177,148.041188,-9178.553681,459.657299
495.884504,518.144159,-9474.636058,-229.828649
495.884830,0.000000,-9474.636058,229.828649
495.885156,0.000000,-9844.739029,-459.657299
495.885482,222.061783,-10362.883188,-766.095498
495.885808,518.144159,-10510.924376,-383.047749
495.886134,222.061783,-9844.739029,-383.047749
495.886460,444.123565,-9696.697840,306.438199
495.886787,518.144159,-9326.594869,76.609550
495.887113,592.164754,-9030.512492,76.609550
495.887439,666.185348,-9030.512492,0.000000
495.887765,74.020594,-9252.574275,76.609550
495.888091,296.082377,-9770.718434,-383.047749
495.888417,0.000000,-10140.821405,-842.705048
495.888743,-222.061783,-10066.800811,-1149.143247
495.889070,-740.205942,-10140.821405,-1532.190996
495.889396,148.041188,-10732.986159,-842.705048
495.889722,370.102971,-10436.903782,-536.266849
495.890048,592.164754,-10140.821405,-383.047749
495.890374,666.185348,-10066.800811,306.438199
495.890700,740.205942,-9770.718434,536.266849
495.891026,888.247130,-9104.533087,536.266849
495.891353,370.102971,-8808.450710,0.000000
495.891679,148.041188,-9104.533087,306.438199
495.892005,0.000000,-9400.615463,-153.219100
495.892331,-296.082377,-10066.800811,-306.438199
495.892657,-592.164754,-9548.656652,-459.657299
