#time,accel_x,accel_y,accel_z
3299.363405,148.041188,-9326.594869,0.000000
3299.363732,370.102971,-9696.697840,-766.095498
3299.364060,0.000000,-9326.594869,-306.438199
3299.364388,444.123565,-10288.862594,-306.438199
3299.364716,592.164754,-10066.800811,-612.876398
3299.365044,962.267725,-10066.800811,0.000000
3299.365371,814.226536,-9844.739029,0.000000
3299.365699,962.267725,-9992.780217,-383.047749
3299.366027,518.144159,-9474.636058,0.000000
3299.366355,0.000000,-9548.656652,-842.705048
3299.366683,0.000000,-9622.677246,-536.266849
3299.367010,0.000000,-9844.739029,-995.924147
3299.367338,0.000000,-10066.800811,-995.924147
3299.367666,0.000000,-10214.842000,-1072.533697
3299.367994,518.144159,-10288.862594,-689.485948
3299.368322,222.061783,-10436.903782,-153.219100
3299.368649,444.123565,-10214.842000,0.000000
3299.368977,666.185348,-10362.883188,0.000000
3299.369305,666.185348,-9918.759623,76.609550
3299.369633,444.123565,-9474.636058,0.000000
3299.369961,148.041188,-9548.656652,0.000000
3299.370288,0.000000,-9178.553681,459.657299
3299.370616,370.102971,-9104.533087,153.219100
3299.370944,-296.082377,-8586.388927,0.000000
3299.371272,0.000000,-9474.636058,0.000000
3299.371600,0.000000,-9548.656652,-153.219100
3299.371927,444.123565,-9770.718434,-306.438199
3299.372255,592.164754,-9992.780217,-459.657299
3299.372583,814.226536,-9622.677246,76.609550
3299.372911,888.247130,-9400.615463,536.266849
3299.373239,962.267725,-9326.594869,76.609550
3299.373566,296.082377,-9178.553681,153.219100
3299.373894,74.020594,-9326.594869,0.000000
3299.374222,0.000000,-9474.636058,0.000000
3299.374550,-74.020594,-9548.656652,-383.047749
3299.374878,222.061783,-10214.842000,-459.657299
3299.375205,222.061783,-10140.821405,-383.047749
3299.375533,666.185348,-10066.800811,-919.314598
3299.375861,1184.329507,-9696.697840,-612.876398
3299.376189,1776.494261,-9844.739029,0.000000
3299.376517,2812.782580,-9622.677246,153.219100
3299.376844,3775.050304,-9104.533087,0.000000
3299.377172,4145.153275,-9104.533087,0.000000
3299.377500,4737.318029,-9474.636058,-383.047749
3299.377828,5107.421000,-9474.636058,-383.047749
3299.378156,5921.647536,-9770.718434,-612.876398
3299.378483,6735.874072,-9844.739029,-689.485948
3299.378811,7550.100608,-10140.821405,-612.876398
3299.379139,8438.347739,-10807.006753,0.000000
3299.379467,8882.471304,-11473.192101,229.828649
3299.379795,8660.409521,-10881.027347,612.876398
3299.380122,9696.697840,-9622.677246,459.657299
3299.380450,9622.677246,-8808.450710,76.609550
3299.380778,9770.718434,-8364.327145,536.266849
3299.381106,10288.862594,-8142.265362,459.657299
3299.381434,10510.924376,-8586.388927,1072.533697
3299.381761,10881.027347,-9474.636058,383.047749
3299.382089,10436.903782,-9622.677246,1072.533697
3299.382417,10584.944971,-9178.553681,0.000000
3299.382745,11251.130318,-8808.450710,-229.828649
3299.383073,12805.562797,-10510.924376,-153.219100
3299.383400,13915.871710,-11177.109724,229.828649
3299.383728,14656.077652,-10658.965565,1378.971896
3299.384056,15396.283594,-8586.388927,153.219100
3299.384384,14730.098246,-8660.409521,919.314598
3299.384712,13323.706956,-8956.491898,1608.800546
3299.385039,13101.645173,-8586.388927,612.876398
3299.385367,12361.439231,-9474.636058,0.000000
3299.385695,12361.439231,-10658.965565,0.000000
3299.386023,12435.459826,-9770.718434,0.000000
3299.386351,12361.439231,-9326.594869,1915.238745
3299.386678,12657.521608,-9992.780217,1378.971896
3299.387006,12361.439231,-9474.636058,306.438199
3299.387334,11621.233289,-10362.883188,306.438199
3299.387662,10584.944971,-10584.944971,383.047749
3299.387990,9844.739029,-9326.594869,0.000000
3299.388317,8438.347739,-8438.347739,612.876398
3299.388645,7846.182985,-8364.327145,459.657299
3299.388973,9548.656652,-9548.656652,-1302.362347
3299.389301,9992.780217,-10140.821405,-766.095498
3299.389629,10214.842000,-11621.233289,76.609550
3299.389956,9548.656652,-11843.295072,306.438199
3299.390284,8068.244768,-9992.780217,-383.047749
3299.390612,7624.121203,-8068.244768,-229.828649
3299.390940,7920.203579,-7846.182985,153.219100
3299.391268,9326.594869,-9918.759623,919.314598
3299.391595,9696.697840,-11103.089130,2145.067394
3299.391923,9474.636058,-9622.677246,1302.362347
3299.392251,8142.265362,-7402.059420,-229.828649
3299.392579,6365.771101,-9104.533087,0.000000
3299.392907,5329.482782,-9844.739029,0.000000
3299.393234,6291.750507,-9326.594869,-1455.581446
3299.393562,8364.327145,-8586.388927,-1762.019645
3299.393890,10732.986159,-9918.759623,-1532.190996
3299.394218,10362.883188,-9918.759623,919.314598
3299.394546,8660.409521,-8290.306550,2681.334243
3299.394873,7846.182985,-8142.265362,2451.505594
3299.395201,10066.800811,-9770.718434,0.000000
3299.395529,11621.233289,-10510.924376,-2298.286494
3299.395857,11547.212695,-10066.800811,-919.314598
3299.396185,9696.697840,-8068.244768,306.438199
3299.396512,8364.327145,-9548.656652,1302.362347
3299.396840,7994.224174,-10140.821405,689.485948
3299.397168,6957.935855,-8512.368333,-919.314598
3299.397496,6883.915261,-8438.347739,-1915.238745
3299.397824,9178.553681,-9474.636058,-1532.190996
3299.398151,10881.027347,-10140.821405,-612.876398
3299.398479,11177.109724,-11103.089130,1302.362347
3299.398807,11325.150913,-9992.780217,2374.896044
3299.399135,11695.253884,-7179.997637,689.485948
3299.399463,10140.821405,-9844.739029,0.000000
3299.399790,9918.759623,-11769.274478,0.000000
3299.400118,11621.233289,-8808.450710,-1991.848295
3299.400446,10362.883188,-9474.636058,-1378.971896
3299.400774,7179.997637,-11843.295072,995.924147
3299.401102,6513.812290,-11251.130318,995.924147
3299.401429,7031.956449,-8808.450710,-689.485948
3299.401757,6143.709319,-10658.965565,-1685.410096
3299.402085,6143.709319,-10955.047942,-1378.971896
3299.402413,5773.606348,-8438.347739,76.609550
3299.402741,4219.173869,-8660.409521,2911.162892
3299.403068,5625.565159,-8808.450710,2528.115143
3299.403396,4071.132681,-6883.915261,0.000000
3299.403724,1480.411884,-8216.285956,1072.533697
3299.404052,3997.112087,-10214.842000,76.609550
3299.404380,4811.338623,-9844.739029,-2604.724693
3299.404707,3627.009116,-10362.883188,-383.047749
3299.405035,6217.729913,-10066.800811,459.657299
3299.405363,6883.915261,-11473.192101,-612.876398
3299.405691,4293.194464,-13027.624579,1455.581446
3299.406019,4293.194464,-11769.274478,689.485948
3299.406346,2812.782580,-10288.862594,-1072.533697
3299.406674,1258.350101,-9548.656652,-383.047749
3299.407002,-888.247130,-8290.306550,1149.143247
3299.407330,-2590.720797,-7772.162391,2604.724693
3299.407658,-3627.009116,-7179.997637,2221.676944
3299.407985,-4663.297435,-9252.574275,153.219100
3299.408313,-4885.359217,-8216.285956,-1532.190996
3299.408641,-4885.359217,-7846.182985,-1838.629195
3299.408969,-4515.256246,-8364.327145,-919.314598
3299.409297,-2664.741391,-9474.636058,-612.876398
3299.409624,-1628.453072,-11177.109724,-1149.143247
3299.409952,0.000000,-11843.295072,0.000000
3299.410280,296.082377,-10436.903782,306.438199
3299.410608,0.000000,-12139.377449,229.828649
3299.410936,-740.205942,-11029.068536,-306.438199
3299.411263,-2664.741391,-9844.739029,383.047749
3299.411591,-4219.173869,-8142.265362,0.000000
3299.411919,-4071.132681,-7920.203579,-2681.334243
3299.412247,-3775.050304,-9326.594869,-2528.115143
3299.412575,-1554.432478,-8438.347739,-1838.629195
3299.412902,814.226536,-8660.409521,-1149.143247
3299.413230,1850.514855,-10214.842000,612.876398
3299.413558,2146.597232,-9622.677246,2221.676944
3299.413886,2960.823768,-10066.800811,1072.533697
3299.414214,3034.844362,-10140.821405,-1608.800546
3299.414541,1776.494261,-11843.295072,-1225.752797
3299.414869,2072.576638,-9696.697840,-1608.800546
3299.415197,2368.659014,-9696.697840,-1608.800546
3299.415525,1036.288319,-11103.089130,383.047749
3299.415853,1406.391290,-9770.718434,459.657299
3299.416180,1332.370696,-10288.862594,0.000000
3299.416508,1110.308913,-11399.171507,306.438199
3299.416836,740.205942,-7994.224174,-1302.362347
3299.417164,-814.226536,-6883.915261,-1532.190996
3299.417492,-1776.494261,-7846.182985,-612.876398
3299.417819,888.247130,-10066.800811,536.266849
3299.418147,3552.988522,-8216.285956,153.219100
3299.418475,4219.173869,-7476.080014,766.095498
3299.418803,2442.679609,-10807.006753,1302.362347
3299.419131,1480.411884,-12287.418637,-766.095498
3299.419458,1776.494261,-13619.789333,-2068.457845
3299.419786,3256.906145,-11399.171507,-2451.505594
3299.420114,3034.844362,-11399.171507,-1455.581446
3299.420442,1776.494261,-11769.274478,1762.019645
3299.420770,2886.803174,-9918.759623,2374.896044
3299.421097,2664.741391,-9474.636058,1608.800546
3299.421425,888.247130,-6883.915261,1302.362347
3299.421753,-740.205942,-7179.997637,1762.019645
3299.422081,-1258.350101,-6883.915261,1532.190996
3299.422409,-1406.391290,-5551.544565,0.000000
3299.422736,-666.185348,-9030.512492,-383.047749
3299.423064,370.102971,-10807.006753,-306.438199
3299.423392,1036.288319,-12139.377449,306.438199
3299.423720,1332.370696,-11473.192101,-766.095498
3299.424048,814.226536,-12213.398043,-1072.533697
3299.424375,296.082377,-13767.830521,-842.705048
3299.424703,666.185348,-11251.130318,-1608.800546
3299.425031,-1332.370696,-9104.533087,-766.095498
3299.425358,-2812.782580,-7994.224174,689.485948
3299.425686,-2146.597232,-7698.141797,1225.752797
3299.426014,-2960.823768,-6809.894666,1225.752797
3299.426342,-3034.844362,-6365.771101,-689.485948
3299.426669,-2590.720797,-7994.224174,-536.266849
3299.426997,-1184.329507,-9252.574275,-689.485948
3299.427325,-444.123565,-9622.677246,-229.828649
3299.427652,296.082377,-10658.965565,-995.924147
3299.427980,1036.288319,-10066.800811,-1838.629195
3299.428308,296.082377,-11695.253884,-919.314598
3299.428636,222.061783,-12583.501014,-766.095498
3299.428963,296.082377,-12065.356855,-1072.533697
3299.429291,-518.144159,-12287.418637,-766.095498
3299.429619,-370.102971,-10807.006753,-1072.533697
3299.429946,-1184.329507,-9918.759623,-1149.143247
3299.430274,-2960.823768,-7550.100608,229.828649
3299.430602,-2886.803174,-7031.956449,689.485948
3299.430929,-1850.514855,-6735.874072,-995.924147
3299.431257,-370.102971,-7105.977043,-995.924147
3299.431585,74.020594,-8512.368333,1072.533697
3299.431913,888.247130,-8364.327145,1302.362347
3299.432240,444.123565,-10066.800811,0.000000
3299.432568,1258.350101,-11251.130318,-1378.971896
3299.432896,3182.885551,-11103.089130,-2834.553343
3299.433223,2294.638420,-12583.501014,-229.828649
3299.433551,1850.514855,-13397.727550,995.924147
3299.433879,2220.617826,-11917.315666,0.000000
3299.434206,2664.741391,-10436.903782,-1838.629195
3299.434534,518.144159,-8882.471304,-383.047749
3299.434862,370.102971,-8290.306550,766.095498
3299.435190,296.082377,-5847.626942,0.000000
3299.435517,518.144159,-6365.771101,842.705048
3299.435845,1776.494261,-5995.668130,1455.581446
3299.436173,4219.173869,-7254.018232,1838.629195
3299.436500,4441.235652,-10881.027347,2757.943793
3299.436828,4811.338623,-11621.233289,1072.533697
3299.437156,3552.988522,-12139.377449,-459.657299
3299.437484,1850.514855,-11769.274478,-1608.800546
3299.437811,222.061783,-12213.398043,-1915.238745
3299.438139,-518.144159,-11769.274478,-1608.800546
3299.438467,-592.164754,-8364.327145,-995.924147
3299.438794,-1184.329507,-8660.409521,-306.438199
3299.439122,-2294.638420,-9992.780217,-383.047749
3299.439450,-1776.494261,-9548.656652,-842.705048
3299.439777,-814.226536,-7772.162391,-612.876398
3299.440105,1406.391290,-8660.409521,-229.828649
3299.440433,1332.370696,-9474.636058,1455.581446
3299.440761,2664.741391,-9030.512492,1532.190996
3299.441088,1332.370696,-8068.244768,1378.971896
3299.441416,1628.453072,-9474.636058,459.657299
3299.441744,222.061783,-10214.842000,-842.705048
3299.442071,-1924.535449,-12361.439231,229.828649
3299.442399,-1998.556043,-11177.109724,-1532.190996
3299.442727,-1110.308913,-10288.862594,-2604.724693
3299.443054,-2664.741391,-11547.212695,-1455.581446
3299.443382,-2442.679609,-11177.109724,-919.314598
3299.443710,-1776.494261,-8586.388927,-1532.190996
3299.444038,-1406.391290,-7550.100608,-383.047749
3299.444365,-2072.576638,-8956.491898,919.314598
3299.444693,-1554.432478,-6883.915261,1149.143247
3299.445021,-444.123565,-6809.894666,536.266849
3299.445348,0.000000,-10436.903782,995.924147
3299.445676,0.000000,-10214.842000,229.828649
3299.446004,-888.247130,-9030.512492,-612.876398
3299.446332,-592.164754,-11177.109724,-1072.533697
3299.446659,-296.082377,-12287.418637,-1378.971896
3299.446987,222.061783,-13027.624579,-1302.362347
3299.447315,0.000000,-10658.965565,-842.705048
3299.447642,-518.144159,-9918.759623,-459.657299
3299.447970,-1406.391290,-8512.368333,-536.266849
3299.448298,-2294.638420,-7624.121203,229.828649
3299.448625,-2146.597232,-7624.121203,1685.410096
3299.448953,-74.020594,-6365.771101,459.657299
3299.449281,666.185348,-9252.574275,306.438199
3299.449609,1998.556043,-11251.130318,766.095498
3299.449936,3552.988522,-10436.903782,-229.828649
3299.450264,2442.679609,-9622.677246,-612.876398
3299.450592,1702.473667,-10436.903782,-689.485948
3299.450919,370.102971,-10732.986159,1685.410096
3299.451247,1184.329507,-11399.171507,-153.219100
3299.451575,814.226536,-9696.697840,-689.485948
3299.451903,-296.082377,-9400.615463,-766.095498
3299.452230,-1998.556043,-8882.471304,0.000000
3299.452558,-1924.535449,-10732.986159,-766.095498
3299.452886,222.061783,-8364.327145,-1838.629195
3299.453213,2886.803174,-8290.306550,-2451.505594
3299.453541,2812.782580,-9474.636058,76.609550
3299.453869,3627.009116,-11103.089130,2834.553343
3299.454196,4071.132681,-9770.718434,2145.067394
3299.454524,3034.844362,-8882.471304,459.657299
3299.454852,1036.288319,-10732.986159,-229.828649
3299.455180,444.123565,-10510.924376,-766.095498
3299.455507,1258.350101,-9326.594869,-536.266849
3299.455835,518.144159,-9770.718434,306.438199
3299.456163,666.185348,-10066.800811,0.000000
3299.456490,1998.556043,-11399.171507,459.657299
3299.456818,3034.844362,-11251.130318,0.000000
3299.457146,2294.638420,-10510.924376,383.047749
3299.457473,666.185348,-8660.409521,229.828649
3299.457801,-222.061783,-6291.750507,-612.876398
3299.458129,-962.267725,-9400.615463,612.876398
3299.458457,0.000000,-7328.038826,1608.800546
3299.458784,592.164754,-6661.853478,995.924147
3299.459112,-2072.576638,-10362.883188,2145.067394
3299.459440,-1998.556043,-10955.047942,-842.705048
3299.459767,-740.205942,-10362.883188,-3217.601092
3299.460095,-740.205942,-10066.800811,-2298.286494
3299.460423,444.123565,-12065.356855,-2374.896044
3299.460751,222.061783,-11991.336260,459.657299
3299.461078,148.041188,-8882.471304,919.314598
3299.461406,444.123565,-8438.347739,1225.752797
3299.461734,74.020594,-8586.388927,536.266849
3299.462061,-1110.308913,-9178.553681,306.438199
3299.462389,-2590.720797,-9252.574275,1149.143247
3299.462717,-1924.535449,-8364.327145,-612.876398
3299.463044,-2442.679609,-9844.739029,-1762.019645
3299.463372,-1036.288319,-10214.842000,-1685.410096
3299.463700,-296.082377,-9770.718434,-1225.752797
3299.464028,-814.226536,-11251.130318,-612.876398
3299.464355,-1702.473667,-11251.130318,-536.266849
3299.464683,-1702.473667,-11843.295072,-766.095498
3299.465011,0.000000,-10436.903782,-2757.943793
3299.465338,74.020594,-9622.677246,-766.095498
3299.465666,-518.144159,-10436.903782,1149.143247
3299.465994,0.000000,-9548.656652,536.266849
3299.466322,518.144159,-10214.842000,-459.657299
3299.466649,1258.350101,-8364.327145,-1225.752797
3299.466977,1036.288319,-7772.162391,-383.047749
3299.467305,1406.391290,-9400.615463,1072.533697
3299.467632,148.041188,-9178.553681,919.314598
3299.467960,0.000000,-8660.409521,-383.047749
3299.468288,296.082377,-8216.285956,-1455.581446
3299.468615,444.123565,-10955.047942,0.000000
3299.468943,888.247130,-11103.089130,689.485948
3299.469271,2368.659014,-10066.800811,306.438199
3299.469599,2812.782580,-9992.780217,-612.876398
3299.469926,3034.844362,-9992.780217,-1072.533697
3299.470254,1924.535449,-10955.047942,459.657299
3299.470582,1702.473667,-8068.244768,689.485948
3299.470909,1332.370696,-7105.977043,919.314598
3299.471237,592.164754,-9548.656652,995.924147
3299.471565,962.267725,-8438.347739,-383.047749
3299.471892,0.000000,-9474.636058,995.924147
3299.472220,-222.061783,-10807.006753,-229.828649
3299.472548,-962.267725,-11325.150913,-2221.676944
3299.472876,666.185348,-11325.150913,-2757.943793
3299.473203,3478.967927,-9326.594869,-2757.943793
3299.473531,3182.885551,-10584.944971,1072.533697
3299.473859,3330.926739,-11843.295072,2374.896044
3299.474186,3256.906145,-11325.150913,2757.943793
3299.474514,2664.741391,-11029.068536,-536.266849
3299.474842,0.000000,-8512.368333,-2374.896044
3299.475170,-2442.679609,-8956.491898,-1302.362347
3299.475497,-2368.659014,-8438.347739,-612.876398
3299.475825,-444.123565,-9030.512492,-1838.629195
3299.476153,888.247130,-9178.553681,-995.924147
3299.476480,1332.370696,-9326.594869,306.438199
3299.476808,2368.659014,-10288.862594,1302.362347
3299.477136,2516.700203,-9844.739029,919.314598
3299.477463,2072.576638,-10807.006753,306.438199
3299.477791,592.164754,-11843.295072,76.609550
3299.478119,0.000000,-9770.718434,0.000000
3299.478447,-1184.329507,-8438.347739,0.000000
3299.478774,-1110.308913,-7402.059420,-383.047749
3299.479102,-2368.659014,-9918.759623,0.000000
3299.479430,-4367.215058,-10732.986159,-536.266849
3299.479757,-3849.070898,-8882.471304,-2681.334243
3299.480085,-2442.679609,-8660.409521,-3064.381992
3299.480413,-1628.453072,-8956.491898,-612.876398
3299.480741,-666.185348,-9844.739029,2068.457845
3299.481068,1110.308913,-9252.574275,2221.676944
3299.481396,2368.659014,-9030.512492,612.876398
3299.481724,518.144159,-9474.636058,919.314598
3299.482051,-444.123565,-9992.780217,229.828649
3299.482379,-1332.370696,-10807.006753,459.657299
3299.482707,444.123565,-9252.574275,-995.924147
3299.483034,-222.061783,-8660.409521,-2145.067394
3299.483362,-1184.329507,-12287.418637,-536.266849
3299.483690,-1110.308913,-11399.171507,-459.657299
3299.484018,518.144159,-9474.636058,-2145.067394
3299.484345,0.000000,-8734.430116,-1838.629195
3299.484673,-296.082377,-10510.924376,153.219100
3299.485001,0.000000,-9474.636058,842.705048
3299.485328,1702.473667,-7920.203579,-612.876398
3299.485656,1998.556043,-9770.718434,0.000000
3299.485984,1924.535449,-10140.821405,0.000000
3299.486311,1998.556043,-9918.759623,459.657299
3299.486639,1110.308913,-9548.656652,-459.657299
3299.486967,740.205942,-9918.759623,-612.876398
3299.487295,814.226536,-11621.233289,-459.657299
3299.487622,1776.494261,-10362.883188,-995.924147
3299.487950,1850.514855,-10362.883188,-383.047749
3299.488278,518.144159,-9622.677246,229.828649
3299.488605,444.123565,-8586.388927,536.266849
3299.488933,148.041188,-9178.553681,229.828649
3299.489261,740.205942,-8290.306550,-229.828649
3299.489589,814.226536,-8586.388927,1149.143247
3299.489916,1332.370696,-9178.553681,1072.533697
3299.490244,1036.288319,-9252.574275,-689.485948
3299.490572,1406.391290,-10214.842000,-536.266849
3299.490899,1776.494261,-9474.636058,-612.876398
3299.491227,1628.453072,-11251.130318,919.314598
3299.491555,2590.720797,-10436.903782,459.657299
3299.491882,2368.659014,-8956.491898,383.047749
3299.492210,296.082377,-10140.821405,1378.971896
3299.492538,-888.247130,-9104.533087,-536.266849
3299.492866,-1850.514855,-9252.574275,-1608.800546
3299.493193,-1480.411884,-8290.306550,-2374.896044
3299.493521,-1184.329507,-8512.368333,-1838.629195
3299.493849,-1332.370696,-9844.739029,766.095498
3299.494176,370.102971,-8882.471304,612.876398
3299.494504,2220.617826,-10362.883188,-536.266849
3299.494832,1776.494261,-12139.377449,-1149.143247
3299.495160,370.102971,-10955.047942,-383.047749
3299.495487,296.082377,-10807.006753,-536.266849
3299.495815,0.000000,-9474.636058,-842.705048
3299.496143,0.000000,-10288.862594,0.000000
3299.496470,0.000000,-9770.718434,689.485948
3299.496798,370.102971,-9474.636058,689.485948
3299.497126,-444.123565,-9622.677246,-459.657299
3299.497453,-592.164754,-8808.450710,0.000000
3299.497781,-1628.453072,-9474.636058,0.000000
3299.498109,0.000000,-9104.533087,-1225.752797
3299.498437,1628.453072,-9104.533087,-995.924147
3299.498764,2368.659014,-10436.903782,536.266849
3299.499092,2294.638420,-10214.842000,1838.629195
3299.499420,0.000000,-9770.718434,1149.143247
3299.499747,-1776.494261,-9474.636058,-1378.971896
3299.500075,-2368.659014,-11473.192101,-1532.190996
3299.500403,-1702.473667,-9474.636058,-1455.581446
3299.500730,-1480.411884,-7994.224174,-1225.752797
3299.501058,-1850.514855,-8660.409521,-306.438199
3299.501386,74.020594,-8438.347739,-612.876398
3299.501714,518.144159,-8734.430116,-229.828649
3299.502041,1628.453072,-9548.656652,153.219100
3299.502369,1998.556043,-8808.450710,1149.143247
3299.502697,1184.329507,-9992.780217,1378.971896
3299.503024,814.226536,-8956.491898,536.266849
3299.503352,0.000000,-9622.677246,995.924147
3299.503680,814.226536,-10288.862594,-1149.143247
3299.504008,0.000000,-9992.780217,-995.924147
3299.504335,-1258.350101,-12361.439231,-153.219100
3299.504663,-1850.514855,-10214.842000,-1455.581446
3299.504991,-1184.329507,-9548.656652,-2298.286494
3299.505318,0.000000,-9474.636058,-2298.286494
3299.505646,148.041188,-10140.821405,-536.266849
3299.505974,148.041188,-11103.089130,919.314598
3299.506301,888.247130,-9030.512492,1072.533697
3299.506629,1110.308913,-10140.821405,0.000000
3299.506957,1406.391290,-9844.739029,-229.828649
3299.507285,1628.453072,-9622.677246,-229.828649
3299.507612,444.123565,-10807.006753,842.705048
3299.507940,296.082377,-9326.594869,-536.266849
3299.508268,222.061783,-10510.924376,-153.219100
3299.508595,296.082377,-9474.636058,-919.314598
3299.508923,296.082377,-9252.574275,-995.924147
3299.509251,0.000000,-10140.821405,689.485948
3299.509579,-444.123565,-9696.697840,1225.752797
3299.509906,222.061783,-10362.883188,153.219100
3299.510234,1702.473667,-8660.409521,-1532.190996
3299.510562,518.144159,-8808.450710,-612.876398
3299.510889,-666.185348,-8882.471304,1685.410096
3299.511217,1406.391290,-8438.347739,459.657299
3299.511545,2220.617826,-9548.656652,0.000000
3299.511872,1110.308913,-9178.553681,766.095498
3299.512200,-370.102971,-10881.027347,1532.190996
3299.512528,222.061783,-10214.842000,-383.047749
3299.512856,-592.164754,-8660.409521,-2298.286494
3299.513183,-1184.329507,-9622.677246,-842.705048
3299.513511,-666.185348,-9474.636058,-383.047749
3299.513839,-740.205942,-10881.027347,1991.848295
3299.514166,518.144159,-9918.759623,0.000000
3299.514494,444.123565,-8734.430116,-1838.629195
3299.514822,0.000000,-9696.697840,-689.485948
3299.515149,518.144159,-7994.224174,-612.876398
3299.515477,0.000000,-8512.368333,-76.609550
3299.515805,74.020594,-9104.533087,689.485948
3299.516133,370.102971,-9844.739029,919.314598
3299.516460,1702.473667,-11843.295072,459.657299
3299.516788,2294.638420,-10807.006753,-1072.533697
3299.517116,666.185348,-11843.295072,-612.876398
3299.517443,518.144159,-11103.089130,-1149.143247
3299.517771,592.164754,-10214.842000,-2451.505594
3299.518099,444.123565,-9696.697840,-1915.238745
3299.518427,888.247130,-7254.018232,0.000000
3299.518754,1332.370696,-7328.038826,1685.410096
3299.519082,888.247130,-9400.615463,2451.505594
3299.519410,0.000000,-11251.130318,459.657299
3299.519737,-296.082377,-10584.944971,-1608.800546
3299.520065,666.185348,-9474.636058,-3370.820191
3299.520393,-370.102971,-10881.027347,-2451.505594
3299.520720,-1184.329507,-12139.377449,-1225.752797
3299.521048,-592.164754,-10807.006753,-383.047749
3299.521376,1554.432478,-9178.553681,-1302.362347
3299.521704,1110.308913,-8512.368333,-459.657299
3299.522031,-148.041188,-8882.471304,1762.019645
3299.522359,-370.102971,-6735.874072,2221.676944
3299.522687,1480.411884,-9104.533087,1455.581446
3299.523014,962.267725,-10214.842000,383.047749
3299.523342,444.123565,-9030.512492,0.000000
3299.523670,370.102971,-9474.636058,612.876398
3299.523998,814.226536,-9622.677246,-612.876398
3299.524325,74.020594,-11695.253884,-842.705048
3299.524653,-222.061783,-10584.944971,-536.266849
3299.524981,-888.247130,-8734.430116,-1302.362347
3299.525308,-1036.288319,-9474.636058,-1455.581446
3299.525636,-1110.308913,-8216.285956,-1149.143247
3299.525964,-1184.329507,-10362.883188,612.876398
3299.526291,-814.226536,-9770.718434,766.095498
3299.526619,370.102971,-8808.450710,0.000000
3299.526946,0.000000,-8956.491898,-229.828649
3299.527274,-444.123565,-9844.739029,0.000000
3299.527601,74.020594,-11103.089130,536.266849
3299.527929,2442.679609,-9844.739029,-459.657299
3299.528257,2368.659014,-8882.471304,-919.314598
3299.528584,888.247130,-10658.965565,383.047749
3299.528912,-222.061783,-9474.636058,1072.533697
3299.529239,-592.164754,-10140.821405,1532.190996
3299.529567,444.123565,-9474.636058,-766.095498
3299.529894,0.000000,-10362.883188,-1685.410096
3299.530222,-1036.288319,-10584.944971,-995.924147
3299.530550,74.020594,-9326.594869,-1072.533697
3299.530877,592.164754,-9622.677246,-383.047749
3299.531205,0.000000,-9474.636058,0.000000
3299.531532,1406.391290,-8734.430116,-536.266849
3299.531860,888.247130,-7624.121203,0.000000
3299.532188,0.000000,-9326.594869,1762.019645
3299.532515,370.102971,-11695.253884,1455.581446
3299.532843,1850.514855,-9400.615463,-689.485948
3299.533170,2220.617826,-8290.306550,-919.314598
3299.533498,1406.391290,-10436.903782,459.657299
3299.533825,-74.020594,-10510.924376,2068.457845
3299.534153,0.000000,-10436.903782,1378.971896
3299.534481,1036.288319,-8142.265362,-2145.067394
3299.534808,-370.102971,-9178.553681,-2528.115143
3299.535136,-1924.535449,-9400.615463,-612.876398
3299.535463,-740.205942,-8290.306550,229.828649
3299.535791,740.205942,-9178.553681,842.705048
3299.536118,1406.391290,-7994.224174,306.438199
3299.536446,1406.391290,-10436.903782,1378.971896
3299.536774,2294.638420,-11843.295072,536.266849
3299.537101,1850.514855,-10658.965565,-689.485948
3299.537429,1110.308913,-11325.150913,-689.485948
3299.537756,148.041188,-9326.594869,-1225.752797
3299.538084,-148.041188,-10140.821405,-536.266849
3299.538411,962.267725,-8882.471304,-153.219100
3299.538739,1628.453072,-8290.306550,0.000000
3299.539067,666.185348,-8956.491898,995.924147
3299.539394,-518.144159,-9474.636058,383.047749
3299.539722,-814.226536,-11325.150913,-459.657299
3299.540049,518.144159,-10658.965565,-1302.362347
3299.540377,1036.288319,-10436.903782,-1225.752797
3299.540704,888.247130,-11177.109724,-1302.362347
3299.541032,74.020594,-9844.739029,0.000000
3299.541360,296.082377,-9992.780217,536.266849
3299.541687,-296.082377,-8364.327145,-612.876398
3299.542015,-2294.638420,-9622.677246,-306.438199
3299.542342,-2516.700203,-9178.553681,-1378.971896
3299.542670,-1184.329507,-7105.977043,-2221.676944
3299.542997,-962.267725,-9770.718434,0.000000
3299.543325,1110.308913,-11399.171507,995.924147
3299.543653,1850.514855,-11399.171507,1685.410096
3299.543980,2516.700203,-10288.862594,536.266849
3299.544308,1776.494261,-9104.533087,-612.876398
3299.544635,888.247130,-10732.986159,383.047749
3299.544963,-1184.329507,-8882.471304,919.314598
3299.545290,-1702.473667,-8290.306550,536.266849
3299.545618,-1184.329507,-7920.203579,-1838.629195
3299.545946,-1036.288319,-8808.450710,-1072.533697
3299.546273,-1850.514855,-11029.068536,383.047749
3299.546601,-888.247130,-9844.739029,-1225.752797
3299.546928,-222.061783,-11177.109724,-1302.362347
3299.547256,814.226536,-10584.944971,-1685.410096
3299.547583,1480.411884,-9178.553681,-1149.143247
3299.547911,962.267725,-8882.471304,919.314598
3299.548239,814.226536,-7772.162391,1225.752797
3299.548566,1332.370696,-9992.780217,1072.533697
3299.548894,814.226536,-9474.636058,76.609550
3299.549221,-444.123565,-9030.512492,153.219100
3299.549549,-296.082377,-10807.006753,229.828649
3299.549877,296.082377,-9992.780217,-1838.629195
3299.550204,444.123565,-11103.089130,-2451.505594
3299.550532,1036.288319,-9918.759623,-1762.019645
3299.550859,814.226536,-9252.574275,-306.438199
3299.551187,222.061783,-10362.883188,1072.533697
3299.551514,1110.308913,-9474.636058,153.219100
3299.551842,888.247130,-9178.553681,153.219100
3299.552170,74.020594,-8586.388927,842.705048
3299.552497,-592.164754,-9474.636058,383.047749
3299.552825,-518.144159,-10362.883188,-919.314598
3299.553152,962.267725,-8290.306550,-2068.457845
3299.553480,2368.659014,-10288.862594,-1532.190996
3299.553807,1110.308913,-10732.986159,766.095498
3299.554135,74.020594,-10362.883188,2987.772442
3299.554463,666.185348,-9252.574275,76.609550
3299.554790,1184.329507,-8956.491898,-2451.505594
3299.555118,-1036.288319,-10807.006753,-1225.752797
3299.555445,-740.205942,-8438.347739,153.219100
3299.555773,444.123565,-7624.121203,383.047749
3299.556100,888.247130,-8808.450710,689.485948
3299.556428,518.144159,-8734.430116,766.095498
3299.556756,2294.638420,-11399.171507,1225.752797
3299.557083,2220.617826,-10732.986159,229.828649
3299.557411,1628.453072,-10362.883188,-612.876398
3299.557738,370.102971,-9696.697840,-1302.362347
3299.558066,-518.144159,-10288.862594,-995.924147
3299.558393,222.061783,-10362.883188,-229.828649
3299.558721,1628.453072,-7476.080014,306.438199
3299.559049,1036.288319,-8734.430116,2374.896044
3299.559376,-222.061783,-9696.697840,919.314598
3299.559704,-666.185348,-11251.130318,-689.485948
3299.560031,-592.164754,-11251.130318,-1455.581446
3299.560359,296.082377,-8956.491898,-1838.629195
3299.560686,-222.061783,-9622.677246,-1225.752797
3299.561014,-1184.329507,-9918.759623,306.438199
3299.561342,0.000000,-10288.862594,842.705048
3299.561669,814.226536,-10362.883188,-536.266849
3299.561997,0.000000,-9474.636058,-1225.752797
3299.562324,-1998.556043,-10066.800811,0.000000
3299.562652,-1036.288319,-8438.347739,-306.438199
3299.562979,666.185348,-9474.636058,-306.438199
3299.563307,888.247130,-10732.986159,689.485948
3299.563635,814.226536,-8734.430116,383.047749
3299.563962,740.205942,-8586.388927,995.924147
3299.564290,740.205942,-9400.615463,0.000000
3299.564617,-592.164754,-10807.006753,0.000000
3299.564945,-1628.453072,-9104.533087,-229.828649
3299.565272,-1702.473667,-6883.915261,-1455.581446
3299.565600,-1258.350101,-9178.553681,-995.924147
3299.565928,-444.123565,-10140.821405,-689.485948
3299.566255,-222.061783,-10214.842000,766.095498
3299.566583,962.267725,-9992.780217,-383.047749
3299.566910,1110.308913,-10510.924376,-1072.533697
3299.567238,518.144159,-10510.924376,-766.095498
3299.567566,0.000000,-8882.471304,-383.047749
3299.567893,74.020594,-10214.842000,612.876398
3299.568221,1036.288319,-9474.636058,-612.876398
3299.568548,1110.308913,-9474.636058,-612.876398
3299.568876,148.041188,-10510.924376,612.876398
3299.569203,666.185348,-9918.759623,0.000000
3299.569531,740.205942,-10214.842000,0.000000
3299.569859,1406.391290,-10362.883188,-919.314598
3299.570186,296.082377,-9844.739029,-1685.410096
3299.570514,296.082377,-9548.656652,-919.314598
3299.570841,444.123565,-8586.388927,-612.876398
3299.571169,370.102971,-10362.883188,459.657299
3299.571496,222.061783,-9992.780217,153.219100
3299.571824,296.082377,-9178.553681,-229.828649
3299.572152,0.000000,-9030.512492,383.047749
3299.572479,-444.123565,-9548.656652,-306.438199
3299.572807,0.000000,-10732.986159,-766.095498
3299.573134,1406.391290,-9474.636058,-1608.800546
3299.573462,2960.823768,-9178.553681,-306.438199
3299.573789,2960.823768,-9326.594869,1225.752797
3299.574117,1036.288319,-9622.677246,3524.039291
3299.574445,74.020594,-9622.677246,3600.648841
3299.574772,444.123565,-8068.244768,0.000000
3299.575100,-1850.514855,-8512.368333,-1915.238745
3299.575427,-3182.885551,-9252.574275,-1915.238745
3299.575755,-2442.679609,-7920.203579,-1455.581446
3299.576082,-370.102971,-9104.533087,-536.266849
3299.576410,1258.350101,-9252.574275,-76.609550
3299.576738,2072.576638,-10658.965565,1072.533697
3299.577065,2368.659014,-10214.842000,919.314598
3299.577393,1702.473667,-10807.006753,766.095498
3299.577720,518.144159,-10881.027347,0.000000
3299.578048,-296.082377,-8808.450710,-1378.971896
3299.578375,-444.123565,-10288.862594,-383.047749
3299.578703,962.267725,-9918.759623,-612.876398
3299.579031,1406.391290,-9474.636058,229.828649
3299.579358,296.082377,-9326.594869,1532.190996
3299.579686,0.000000,-8882.471304,-1072.533697
3299.580013,-1554.432478,-10807.006753,-1915.238745
3299.580341,-740.205942,-11473.192101,-2145.067394
3299.580668,-962.267725,-10362.883188,-1455.581446
3299.580996,-370.102971,-10214.842000,-229.828649
3299.581324,148.041188,-9918.759623,-536.266849
3299.581651,740.205942,-11251.130318,-459.657299
3299.581979,-222.061783,-10510.924376,-229.828649
3299.582306,-1110.308913,-9474.636058,-612.876398
3299.582634,-740.205942,-8216.285956,-1378.971896
3299.582961,-370.102971,-7698.141797,-1149.143247
3299.583289,-222.061783,-9030.512492,0.000000
3299.583617,-444.123565,-9178.553681,1225.752797
3299.583944,-222.061783,-10584.944971,1685.410096
3299.584272,1776.494261,-9622.677246,-766.095498
3299.584599,1924.535449,-9326.594869,-2298.286494
3299.584927,592.164754,-11325.150913,995.924147
3299.585255,222.061783,-9844.739029,919.314598
3299.585582,0.000000,-8586.388927,0.000000
3299.585910,222.061783,-7624.121203,-842.705048
3299.586237,0.000000,-7698.141797,-689.485948
3299.586565,-370.102971,-9474.636058,1455.581446
3299.586892,74.020594,-9696.697840,153.219100
3299.587220,444.123565,-10955.047942,-459.657299
3299.587548,962.267725,-11029.068536,-1685.410096
3299.587875,1110.308913,-9178.553681,-1378.971896
3299.588203,444.123565,-9696.697840,459.657299
3299.588530,518.144159,-10140.821405,153.219100
3299.588858,666.185348,-10140.821405,306.438199
3299.589185,2368.659014,-8660.409521,-1532.190996
3299.589513,1998.556043,-8882.471304,0.000000
3299.589841,444.123565,-10436.903782,1838.629195
3299.590168,296.082377,-9474.636058,842.705048
3299.590496,0.000000,-10955.047942,-995.924147
3299.590823,-444.123565,-9844.739029,-2834.553343
3299.591151,0.000000,-9178.553681,-3447.429741
3299.591478,592.164754,-10732.986159,-383.047749
3299.591806,888.247130,-10732.986159,153.219100
3299.592134,444.123565,-11547.212695,689.485948
3299.592461,0.000000,-9918.759623,0.000000
3299.592789,0.000000,-9770.718434,-1072.533697
3299.593116,-888.247130,-9548.656652,-995.924147
3299.593444,592.164754,-8438.347739,-689.485948
3299.593771,814.226536,-10214.842000,1149.143247
3299.594099,1406.391290,-10658.965565,1915.238745
3299.594427,1554.432478,-9400.615463,1608.800546
3299.594754,518.144159,-9252.574275,1072.533697
3299.595082,-962.267725,-9252.574275,-842.705048
3299.595409,-1258.350101,-10436.903782,-1685.410096
3299.595737,-666.185348,-8512.368333,-2451.505594
3299.596064,-592.164754,-7179.997637,-919.314598
3299.596392,-740.205942,-8068.244768,1762.019645
3299.596720,0.000000,-8512.368333,2834.553343
3299.597047,1702.473667,-9992.780217,2374.896044
3299.597375,2442.679609,-9844.739029,0.000000
3299.597702,888.247130,-10066.800811,0.000000
3299.598030,0.000000,-9400.615463,-1149.143247
3299.598357,0.000000,-8956.491898,-1838.629195
3299.598685,444.123565,-10584.944971,-1149.143247
3299.599013,2442.679609,-9770.718434,229.828649
3299.599340,2368.659014,-8882.471304,2604.724693
3299.599668,1258.350101,-9178.553681,1838.629195
3299.599995,-1110.308913,-10732.986159,-766.095498
3299.600323,-2368.659014,-10955.047942,-1455.581446
3299.600650,0.000000,-9696.697840,-2298.286494
3299.600978,-370.102971,-10510.924376,-1532.190996
3299.601306,-296.082377,-10066.800811,-536.266849
3299.601633,666.185348,-10955.047942,-306.438199
3299.601961,1998.556043,-11991.336260,-1455.581446
3299.602288,1406.391290,-10510.924376,-1608.800546
3299.602616,-1110.308913,-10066.800811,-306.438199
3299.602944,-1702.473667,-7476.080014,-229.828649
3299.603271,-962.267725,-8660.409521,-383.047749
3299.603599,444.123565,-10955.047942,-153.219100
3299.603926,740.205942,-9770.718434,153.219100
3299.604254,666.185348,-10732.986159,2145.067394
3299.604581,1628.453072,-9474.636058,0.000000
3299.604909,1110.308913,-10066.800811,-1378.971896
3299.605237,296.082377,-10362.883188,-612.876398
3299.605564,-1036.288319,-7476.080014,-766.095498
3299.605892,-592.164754,-8364.327145,536.266849
3299.606219,666.185348,-8734.430116,459.657299
3299.606547,-222.061783,-7846.182985,1072.533697
3299.606874,-888.247130,-9474.636058,2451.505594
3299.607202,1554.432478,-9474.636058,76.609550
3299.607530,0.000000,-11325.150913,-306.438199
3299.607857,814.226536,-10288.862594,-1225.752797
3299.608185,148.041188,-8660.409521,-1378.971896
3299.608512,518.144159,-9992.780217,0.000000
3299.608840,1406.391290,-8734.430116,0.000000
3299.609167,0.000000,-8660.409521,1378.971896
3299.609495,518.144159,-7624.121203,995.924147
3299.609823,1036.288319,-10066.800811,536.266849
3299.610150,1702.473667,-11843.295072,-153.219100
3299.610478,1036.288319,-10140.821405,-689.485948
3299.610805,-148.041188,-10436.903782,-766.095498
3299.611133,0.000000,-10140.821405,-1608.800546
3299.611460,148.041188,-10955.047942,-1991.848295
3299.611788,888.247130,-10436.903782,-153.219100
3299.612116,666.185348,-10066.800811,-229.828649
3299.612443,296.082377,-9918.759623,-153.219100
3299.612771,814.226536,-10066.800811,-612.876398
3299.613098,-148.041188,-10362.883188,229.828649
3299.613426,666.185348,-8586.388927,-536.266849
3299.613753,592.164754,-8808.450710,1455.581446
3299.614081,-888.247130,-10288.862594,766.095498
3299.614409,-370.102971,-10584.944971,-1225.752797
3299.614736,74.020594,-10140.821405,-1608.800546
3299.615064,518.144159,-9474.636058,-1991.848295
3299.615391,370.102971,-9770.718434,-995.924147
3299.615719,-962.267725,-10658.965565,1532.190996
3299.616046,-2368.659014,-8068.244768,1072.533697
3299.616374,-1850.514855,-7846.182985,-689.485948
3299.616702,-1480.411884,-7846.182985,-1608.800546
3299.617029,-740.205942,-9474.636058,-689.485948
3299.617357,148.041188,-9770.718434,0.000000
3299.617684,518.144159,-8586.388927,229.828649
3299.618012,1258.350101,-9548.656652,459.657299
3299.618339,2072.576638,-9474.636058,459.657299
3299.618667,1998.556043,-10584.944971,919.314598
3299.618995,1850.514855,-9918.759623,1149.143247
3299.619322,370.102971,-9400.615463,306.438199
3299.619650,444.123565,-10214.842000,0.000000
3299.619977,740.205942,-8586.388927,-995.924147
3299.620305,0.000000,-9252.574275,76.609550
3299.620633,148.041188,-9474.636058,612.876398
3299.620960,1184.329507,-10214.842000,0.000000
3299.621288,2072.576638,-10510.924376,-536.266849
3299.621615,1036.288319,-8808.450710,-1532.190996
3299.621943,-1036.288319,-10807.006753,-1455.581446
3299.622270,-740.205942,-11399.171507,-1378.971896
3299.622598,222.061783,-10510.924376,-1608.800546
3299.622926,814.226536,-9918.759623,-383.047749
3299.623253,962.267725,-9326.594869,919.314598
3299.623581,814.226536,-10732.986159,995.924147
3299.623908,296.082377,-10584.944971,153.219100
3299.624236,-370.102971,-8808.450710,-1608.800546
3299.624564,-296.082377,-9178.553681,-1991.848295
3299.624891,0.000000,-9252.574275,-995.924147
3299.625219,1332.370696,-10214.842000,-306.438199
3299.625547,1406.391290,-9622.677246,153.219100
3299.625874,888.247130,-9844.739029,1455.581446
3299.626202,2368.659014,-10584.944971,1685.410096
3299.626529,1776.494261,-9844.739029,229.828649
3299.626857,148.041188,-10436.903782,229.828649
3299.627185,-1258.350101,-8956.491898,-1302.362347
3299.627512,-888.247130,-8512.368333,-1608.800546
3299.627840,666.185348,-8660.409521,-1532.190996
3299.628168,444.123565,-8290.306550,0.000000
3299.628495,222.061783,-10066.800811,2068.457845
3299.628823,444.123565,-10066.800811,1378.971896
3299.629151,814.226536,-11103.089130,229.828649
3299.629478,1036.288319,-9992.780217,-383.047749
3299.629806,518.144159,-7846.182985,-995.924147
3299.630134,0.000000,-9178.553681,0.000000
3299.630461,-296.082377,-9400.615463,-306.438199
3299.630789,74.020594,-9400.615463,-306.438199
3299.631117,370.102971,-9474.636058,0.000000
3299.631444,740.205942,-9622.677246,-536.266849
3299.631772,148.041188,-10732.986159,-766.095498
3299.632099,-1332.370696,-10510.924376,-612.876398
3299.632427,-1406.391290,-11029.068536,-1302.362347
3299.632755,74.020594,-10362.883188,-1149.143247
3299.633082,0.000000,-8734.430116,-1225.752797
3299.633410,0.000000,-10510.924376,383.047749
3299.633738,1628.453072,-10658.965565,612.876398
3299.634065,1850.514855,-10510.924376,995.924147
3299.634393,1332.370696,-9252.574275,536.266849
3299.634721,-370.102971,-8586.388927,0.000000
3299.635048,-1998.556043,-9474.636058,-766.095498
3299.635376,-2294.638420,-7920.203579,-2068.457845
3299.635704,-370.102971,-9770.718434,-1838.629195
3299.636031,518.144159,-11251.130318,-459.657299
3299.636359,518.144159,-11769.274478,1532.190996
3299.636687,740.205942,-10214.842000,1455.581446
3299.637014,1628.453072,-9400.615463,-1149.143247
3299.637342,814.226536,-10214.842000,-919.314598
3299.637670,592.164754,-9030.512492,-766.095498
3299.637997,-666.185348,-7254.018232,459.657299
3299.638325,148.041188,-7031.956449,766.095498
3299.638652,74.020594,-7772.162391,1072.533697
3299.638980,1036.288319,-10510.924376,2221.676944
3299.639308,1480.411884,-10436.903782,689.485948
3299.639635,666.185348,-10362.883188,0.000000
3299.639963,-222.061783,-10066.800811,-1608.800546
3299.640291,-444.123565,-9474.636058,-2298.286494
3299.640618,1036.288319,-10288.862594,-1225.752797
3299.640946,2516.700203,-8438.347739,76.609550
3299.641274,3404.947333,-9252.574275,2298.286494
3299.641601,2442.679609,-9474.636058,2987.772442
3299.641929,962.267725,-10362.883188,1302.362347
3299.642257,-1332.370696,-11399.171507,-689.485948
3299.642584,-1554.432478,-10807.006753,-3294.210641
3299.642912,-444.123565,-10288.862594,-2911.162892
3299.643240,74.020594,-9992.780217,-1378.971896
3299.643567,592.164754,-10140.821405,0.000000
3299.643895,1702.473667,-11399.171507,459.657299
3299.644222,2220.617826,-10362.883188,1149.143247
3299.644550,1924.535449,-9548.656652,229.828649
3299.644878,0.000000,-8882.471304,153.219100
3299.645205,-1406.391290,-8216.285956,766.095498
3299.645533,-444.123565,-9400.615463,0.000000
3299.645861,222.061783,-8956.491898,-1225.752797
3299.646188,-222.061783,-11695.253884,229.828649
3299.646516,740.205942,-10658.965565,459.657299
3299.646844,296.082377,-9548.656652,-689.485948
3299.647171,0.000000,-10881.027347,-1762.019645
3299.647499,-666.185348,-9474.636058,-2068.457845
3299.647827,-1258.350101,-8438.347739,-306.438199
3299.648154,-888.247130,-7624.121203,229.828649
3299.648482,-296.082377,-8734.430116,919.314598
3299.648810,370.102971,-9326.594869,1378.971896
3299.649137,518.144159,-9030.512492,1225.752797
3299.649465,-518.144159,-10436.903782,919.314598
3299.649793,-740.205942,-8956.491898,-536.266849
3299.650120,518.144159,-9252.574275,-1532.190996
3299.650448,888.247130,-10955.047942,-842.705048
3299.650775,-148.041188,-9400.615463,536.266849
3299.651103,-740.205942,-8808.450710,689.485948
3299.651431,148.041188,-9622.677246,-919.314598
3299.651758,0.000000,-10584.944971,0.000000
3299.652086,0.000000,-10288.862594,0.000000
3299.652414,-444.123565,-9326.594869,153.219100
3299.652741,-222.061783,-11251.130318,-229.828649
3299.653069,-296.082377,-9696.697840,-1685.410096
3299.653397,0.000000,-7846.182985,-1685.410096
3299.653724,148.041188,-9252.574275,306.438199
3299.654052,2072.576638,-10214.842000,0.000000
3299.654380,1998.556043,-10881.027347,459.657299
3299.654707,814.226536,-10658.965565,1225.752797
3299.655035,-444.123565,-10066.800811,766.095498
3299.655363,-1110.308913,-9770.718434,-1302.362347
3299.655690,-1554.432478,-8956.491898,-1915.238745
3299.656018,-1480.411884,-9992.780217,-995.924147
3299.656345,-444.123565,-9918.759623,-919.314598
3299.656673,666.185348,-9992.780217,459.657299
3299.657001,1776.494261,-9178.553681,0.000000
3299.657328,1850.514855,-9696.697840,-229.828649
3299.657656,1332.370696,-10214.842000,689.485948
3299.657984,0.000000,-8512.368333,383.047749
3299.658311,370.102971,-9178.553681,-612.876398
3299.658639,740.205942,-10066.800811,-689.485948
3299.658967,1258.350101,-10066.800811,612.876398
3299.659294,1850.514855,-11177.109724,1455.581446
3299.659622,1628.453072,-9548.656652,612.876398
3299.659950,1776.494261,-10066.800811,-689.485948
3299.660277,1332.370696,-8068.244768,-919.314598
3299.660605,0.000000,-7550.100608,0.000000
3299.660933,74.020594,-8438.347739,842.705048
3299.661260,962.267725,-7328.038826,1149.143247
3299.661588,2368.659014,-9400.615463,2528.115143
3299.661916,2146.597232,-8364.327145,919.314598
3299.662243,296.082377,-10510.924376,-1072.533697
3299.662571,-2960.823768,-12361.439231,-919.314598
3299.662898,-740.205942,-11695.253884,-3600.648841
3299.663226,1628.453072,-10214.842000,-3907.087040
3299.663554,1480.411884,-8882.471304,-842.705048
3299.663881,666.185348,-10066.800811,2528.115143
3299.664209,740.205942,-11029.068536,3217.601092
3299.664537,592.164754,-9178.553681,229.828649
3299.664864,0.000000,-9992.780217,-1762.019645
3299.665192,-1924.535449,-7328.038826,-2451.505594
3299.665520,-2294.638420,-8438.347739,-995.924147
3299.665847,-1184.329507,-10955.047942,0.000000
3299.666175,962.267725,-11769.274478,-612.876398
3299.666503,1924.535449,-12065.356855,-153.219100
3299.666830,1406.391290,-10732.986159,612.876398
3299.667158,222.061783,-9474.636058,1225.752797
3299.667486,-962.267725,-10140.821405,-536.266849
3299.667813,-2368.659014,-9474.636058,-842.705048
3299.668141,-2516.700203,-7846.182985,-1225.752797
3299.668468,-814.226536,-7698.141797,-1225.752797
3299.668796,0.000000,-10140.821405,612.876398
3299.669124,-518.144159,-11029.068536,1455.581446
3299.669451,0.000000,-9844.739029,842.705048
3299.669779,1036.288319,-8882.471304,-2604.724693
3299.670107,1110.308913,-8438.347739,-1915.238745
3299.670434,962.267725,-9474.636058,612.876398
3299.670762,740.205942,-7772.162391,1608.800546
3299.671090,444.123565,-8364.327145,2451.505594
3299.671417,888.247130,-9178.553681,689.485948
3299.671745,518.144159,-8808.450710,-459.657299
3299.672073,-444.123565,-10510.924376,0.000000
3299.672400,444.123565,-10510.924376,-1915.238745
3299.672728,518.144159,-10214.842000,-2757.943793
3299.673056,1406.391290,-11473.192101,-2451.505594
3299.673383,1850.514855,-9474.636058,-995.924147
3299.673711,1554.432478,-9252.574275,1378.971896
3299.674039,1480.411884,-9474.636058,1991.848295
3299.674366,1850.514855,-11399.171507,1378.971896
3299.674694,1628.453072,-10066.800811,0.000000
3299.675021,962.267725,-8808.450710,-383.047749
3299.675349,592.164754,-10214.842000,689.485948
3299.675677,0.000000,-9030.512492,-612.876398
3299.676004,-592.164754,-9770.718434,-383.047749
3299.676332,-1998.556043,-10288.862594,-842.705048
3299.676660,-1998.556043,-8956.491898,-1838.629195
3299.676987,-666.185348,-10066.800811,-1608.800546
3299.677315,148.041188,-9918.759623,-1072.533697
3299.677643,1332.370696,-10732.986159,306.438199
3299.677970,1776.494261,-11029.068536,1838.629195
3299.678298,2220.617826,-10140.821405,1762.019645
3299.678626,1406.391290,-10066.800811,842.705048
3299.678953,-222.061783,-8734.430116,-536.266849
3299.679281,-370.102971,-8734.430116,-1149.143247
3299.679609,-444.123565,-8438.347739,-1225.752797
3299.679936,-1184.329507,-8068.244768,459.657299
3299.680264,-888.247130,-8142.265362,1532.190996
3299.680592,-1184.329507,-8512.368333,1762.019645
3299.680919,888.247130,-10584.944971,306.438199
3299.681247,592.164754,-10881.027347,-919.314598
3299.681574,740.205942,-10288.862594,-536.266849
3299.681902,888.247130,-9918.759623,-153.219100
3299.682230,962.267725,-9622.677246,-536.266849
3299.682557,1036.288319,-10214.842000,459.657299
3299.682885,2072.576638,-8364.327145,536.266849
3299.683213,666.185348,-7846.182985,306.438199
3299.683540,-1702.473667,-10658.965565,-459.657299
3299.683868,-3182.885551,-10510.924376,-1991.848295
3299.684196,-1406.391290,-10214.842000,-2298.286494
3299.684523,0.000000,-9474.636058,-1838.629195
3299.684851,518.144159,-10881.027347,-383.047749
3299.685179,0.000000,-10955.047942,1532.190996
3299.685506,1110.308913,-9178.553681,1762.019645
3299.685834,1924.535449,-9622.677246,-919.314598
3299.686162,444.123565,-10066.800811,-536.266849
3299.686489,-1332.370696,-9474.636058,612.876398
3299.686817,-2368.659014,-8068.244768,0.000000
3299.687144,-2442.679609,-7994.224174,-919.314598
3299.687472,-2146.597232,-9622.677246,-995.924147
3299.687800,-1036.288319,-11325.150913,-536.266849
3299.688127,0.000000,-11325.150913,153.219100
3299.688455,888.247130,-11029.068536,-689.485948
3299.688783,370.102971,-10584.944971,-1225.752797
3299.689110,592.164754,-9622.677246,-1302.362347
3299.689438,0.000000,-8216.285956,0.000000
3299.689766,592.164754,-7846.182985,1072.533697
3299.690093,666.185348,-8660.409521,1225.752797
3299.690421,962.267725,-10658.965565,1838.629195
3299.690749,1554.432478,-10955.047942,842.705048
3299.691076,1702.473667,-9178.553681,-459.657299
3299.691404,740.205942,-9548.656652,76.609550
3299.691732,74.020594,-9770.718434,-1149.143247
3299.692059,1036.288319,-9696.697840,-1225.752797
3299.692387,2072.576638,-9548.656652,-1532.190996
3299.692715,2072.576638,-8512.368333,-1532.190996
3299.693042,1406.391290,-10881.027347,1378.971896
3299.693370,1110.308913,-9992.780217,2298.286494
3299.693697,814.226536,-9104.533087,1685.410096
3299.694025,1332.370696,-8808.450710,-383.047749
3299.694353,1036.288319,-8808.450710,-1991.848295
3299.694680,1258.350101,-11473.192101,-383.047749
3299.695008,814.226536,-9622.677246,-383.047749
3299.695336,1776.494261,-9622.677246,-612.876398
3299.695663,1998.556043,-10436.903782,-536.266849
3299.695991,148.041188,-9400.615463,536.266849
3299.696319,-1332.370696,-10658.965565,919.314598
3299.696646,-1554.432478,-10066.800811,-1838.629195
3299.696974,-1332.370696,-8586.388927,-2757.943793
3299.697302,74.020594,-8512.368333,-2604.724693
3299.697629,962.267725,-9104.533087,-76.609550
3299.697957,1036.288319,-12065.356855,2681.334243
3299.698285,1998.556043,-10658.965565,1838.629195
3299.698612,3256.906145,-10362.883188,-1149.143247
3299.698940,1184.329507,-10955.047942,-1838.629195
3299.699267,-222.061783,-9992.780217,-1455.581446
3299.699595,-518.144159,-8364.327145,-536.266849
3299.699923,-1258.350101,-7846.182985,383.047749
3299.700250,-962.267725,-9770.718434,1302.362347
3299.700578,296.082377,-9178.553681,995.924147
3299.700906,1406.391290,-8660.409521,1455.581446
3299.701233,1110.308913,-9918.759623,383.047749
3299.701561,0.000000,-10140.821405,383.047749
3299.701889,666.185348,-9696.697840,-1838.629195
3299.702216,-370.102971,-7994.224174,-2068.457845
3299.702544,0.000000,-8734.430116,-383.047749
3299.702872,814.226536,-9104.533087,689.485948
3299.703199,-222.061783,-9030.512492,1455.581446
3299.703527,-296.082377,-10955.047942,612.876398
3299.703855,-814.226536,-10510.924376,-2451.505594
3299.704182,-962.267725,-10732.986159,-1915.238745
3299.704510,-518.144159,-9918.759623,-842.705048
3299.704838,0.000000,-9474.636058,-842.705048
3299.705165,296.082377,-9696.697840,383.047749
3299.705493,814.226536,-9844.739029,0.000000
3299.705820,962.267725,-11177.109724,0.000000
3299.706148,222.061783,-10510.924376,306.438199
3299.706476,-1480.411884,-8142.265362,229.828649
3299.706803,-1554.432478,-9252.574275,-229.828649
3299.707131,-962.267725,-9178.553681,-1302.362347
3299.707459,-666.185348,-10362.883188,-842.705048
3299.707786,-370.102971,-11399.171507,229.828649
3299.708114,888.247130,-10510.924376,229.828649
3299.708442,1110.308913,-10436.903782,-689.485948
3299.708769,592.164754,-9844.739029,-536.266849
3299.709097,0.000000,-9104.533087,-383.047749
3299.709425,-962.267725,-9030.512492,0.000000
3299.709752,-1184.329507,-8808.450710,0.000000
3299.710080,74.020594,-8586.388927,-153.219100
3299.710408,888.247130,-9252.574275,0.000000
3299.710735,666.185348,-10807.006753,1455.581446
3299.711063,222.061783,-9622.677246,766.095498
3299.711390,592.164754,-8660.409521,-612.876398
3299.711718,1998.556043,-8808.450710,-1608.800546
3299.712046,1480.411884,-9104.533087,-919.314598
3299.712373,1110.308913,-10214.842000,1302.362347
3299.712701,0.000000,-8808.450710,2068.457845
3299.713029,444.123565,-9474.636058,76.609550
3299.713356,1184.329507,-9696.697840,-995.924147
3299.713684,592.164754,-9326.594869,0.000000
3299.714012,296.082377,-10436.903782,306.438199
3299.714339,1406.391290,-9696.697840,-995.924147
3299.714667,1850.514855,-10436.903782,-1225.752797
3299.714995,1628.453072,-10807.006753,-689.485948
3299.715322,1258.350101,-9548.656652,842.705048
3299.715650,1554.432478,-9770.718434,1532.190996
3299.715978,0.000000,-8586.388927,536.266849
3299.716305,-1332.370696,-10288.862594,-536.266849
3299.716633,-1184.329507,-9622.677246,-1991.848295
3299.716961,-1036.288319,-9474.636058,-2298.286494
3299.717288,-592.164754,-10807.006753,-536.266849
3299.717616,370.102971,-9622.677246,-1302.362347
3299.717943,296.082377,-10436.903782,306.438199
3299.718271,2072.576638,-10140.821405,306.438199
3299.718599,2812.782580,-9474.636058,0.000000
3299.718926,1628.453072,-11473.192101,459.657299
3299.719254,-444.123565,-9992.780217,459.657299
3299.719582,-518.144159,-8586.388927,76.609550
3299.719909,-814.226536,-7105.977043,-459.657299
3299.720237,-1998.556043,-8216.285956,689.485948
3299.720565,-1480.411884,-9622.677246,2221.676944
3299.720892,0.000000,-8956.491898,0.000000
3299.721220,962.267725,-9918.759623,-1608.800546
3299.721548,666.185348,-11103.089130,-1072.533697
3299.721875,592.164754,-9474.636058,-306.438199
3299.722203,296.082377,-8068.244768,1225.752797
3299.722531,222.061783,-8660.409521,612.876398
3299.722858,1258.350101,-9844.739029,229.828649
3299.723186,0.000000,-9770.718434,612.876398
3299.723514,-1184.329507,-10140.821405,919.314598
3299.723841,-444.123565,-10214.842000,-919.314598
3299.724169,-296.082377,-9474.636058,-1991.848295
3299.724496,222.061783,-9474.636058,-1532.190996
3299.724824,444.123565,-9474.636058,-1378.971896
3299.725152,740.205942,-9178.553681,153.219100
3299.725479,1258.350101,-9548.656652,76.609550
3299.725807,74.020594,-9918.759623,0.000000
3299.726135,0.000000,-10881.027347,153.219100
3299.726463,-296.082377,-8882.471304,0.000000
3299.726790,444.123565,-9474.636058,-459.657299
3299.727118,222.061783,-10584.944971,-766.095498
3299.727446,296.082377,-10362.883188,-919.314598
3299.727773,370.102971,-10066.800811,-842.705048
3299.728101,1332.370696,-10140.821405,-1378.971896
3299.728429,444.123565,-11103.089130,-766.095498
3299.728756,-740.205942,-10881.027347,-306.438199
3299.729084,74.020594,-9178.553681,-842.705048
3299.729412,1184.329507,-9918.759623,-229.828649
3299.729740,888.247130,-9474.636058,766.095498
3299.730067,888.247130,-9696.697840,1455.581446
3299.730395,666.185348,-9474.636058,1225.752797
3299.730723,1110.308913,-8808.450710,-306.438199
3299.731050,592.164754,-9104.533087,-689.485948
3299.731378,518.144159,-8142.265362,76.609550
3299.731706,1184.329507,-9030.512492,766.095498
3299.732033,888.247130,-9474.636058,153.219100
3299.732361,148.041188,-10288.862594,536.266849
3299.732689,444.123565,-10584.944971,0.000000
3299.733017,444.123565,-8956.491898,-995.924147
3299.733344,0.000000,-9252.574275,-306.438199
3299.733672,666.185348,-9474.636058,-383.047749
3299.734000,1036.288319,-9696.697840,0.000000
3299.734327,2072.576638,-9844.739029,-536.266849
3299.734655,1480.411884,-8956.491898,-383.047749
3299.734983,814.226536,-9400.615463,1072.533697
3299.735311,518.144159,-9178.553681,383.047749
3299.735638,-1036.288319,-9104.533087,0.000000
3299.735966,-1776.494261,-9030.512492,-459.657299
3299.736294,-2294.638420,-9474.636058,-1838.629195
3299.736621,-2146.597232,-11917.315666,-1991.848295
3299.736949,-518.144159,-10510.924376,-2374.896044
3299.737277,1406.391290,-9770.718434,-2221.676944
3299.737604,1850.514855,-10807.006753,-383.047749
3299.737932,1776.494261,-11843.295072,1915.238745
3299.738260,2368.659014,-10362.883188,995.924147
3299.738588,1702.473667,-9030.512492,0.000000
3299.738915,-370.102971,-10362.883188,-383.047749
3299.739243,-1480.411884,-9252.574275,-1455.581446
3299.739571,-1406.391290,-7254.018232,-1685.410096
3299.739898,-888.247130,-9326.594869,-689.485948
3299.740226,-518.144159,-9770.718434,153.219100
3299.740554,0.000000,-10584.944971,1378.971896
3299.740881,2072.576638,-9104.533087,0.000000
3299.741209,1998.556043,-8956.491898,-612.876398
3299.741537,888.247130,-10288.862594,306.438199
3299.741865,0.000000,-9252.574275,842.705048
3299.742192,74.020594,-8512.368333,919.314598
3299.742520,1258.350101,-7476.080014,383.047749
3299.742848,888.247130,-8216.285956,536.266849
3299.743175,-888.247130,-10288.862594,1685.410096
3299.743503,-1406.391290,-10807.006753,-153.219100
3299.743831,0.000000,-10510.924376,-3064.381992
3299.744159,888.247130,-9252.574275,-3447.429741
3299.744486,296.082377,-9104.533087,-306.438199
3299.744814,740.205942,-10288.862594,1762.019645
3299.745142,740.205942,-9252.574275,2298.286494
3299.745469,1480.411884,-9400.615463,995.924147
3299.745797,888.247130,-9770.718434,-995.924147
3299.746125,-1258.350101,-10362.883188,0.000000
3299.746452,-1258.350101,-8438.347739,-536.266849
3299.746780,-222.061783,-8808.450710,-1532.190996
3299.747108,814.226536,-10881.027347,-1532.190996
3299.747436,666.185348,-10955.047942,-842.705048
3299.747763,888.247130,-10955.047942,-459.657299
3299.748091,888.247130,-10955.047942,-612.876398
3299.748419,0.000000,-10362.883188,-459.657299
3299.748746,962.267725,-10140.821405,-612.876398
3299.749074,296.082377,-8882.471304,-536.266849
3299.749402,518.144159,-9992.780217,306.438199
3299.749730,222.061783,-9474.636058,153.219100
3299.750057,592.164754,-9178.553681,-229.828649
3299.750385,1110.308913,-10288.862594,-1378.971896
3299.750713,148.041188,-8512.368333,-766.095498
3299.751040,-296.082377,-9770.718434,0.000000
3299.751368,444.123565,-10584.944971,76.609550
3299.751696,962.267725,-10362.883188,306.438199
3299.752023,1702.473667,-9992.780217,229.828649
3299.752351,1258.350101,-9104.533087,689.485948
3299.752679,370.102971,-10658.965565,766.095498
3299.753007,0.000000,-9696.697840,0.000000
3299.753334,-370.102971,-9252.574275,-536.266849
3299.753662,370.102971,-9474.636058,-919.314598
3299.753990,1110.308913,-8586.388927,-459.657299
3299.754317,296.082377,-9474.636058,1225.752797
3299.754645,-370.102971,-9178.553681,459.657299
3299.754973,-370.102971,-8808.450710,459.657299
3299.755300,370.102971,-9918.759623,0.000000
3299.755628,444.123565,-8586.388927,-306.438199
3299.755956,0.000000,-9548.656652,1455.581446
3299.756284,-962.267725,-9178.553681,842.705048
3299.756611,-814.226536,-10510.924376,-1532.190996
3299.756939,-222.061783,-9474.636058,-2221.676944
3299.757267,370.102971,-8438.347739,-2068.457845
3299.757594,222.061783,-9548.656652,0.000000
3299.757922,222.061783,-10881.027347,1455.581446
3299.758250,370.102971,-10658.965565,1149.143247
3299.758578,1406.391290,-10658.965565,-919.314598
3299.758905,74.020594,-9770.718434,-536.266849
3299.759233,222.061783,-10288.862594,-1149.143247
3299.759561,0.000000,-8956.491898,-1608.800546
3299.759888,592.164754,-10288.862594,-1608.800546
3299.760216,666.185348,-10214.842000,-459.657299
3299.760544,1406.391290,-9326.594869,689.485948
3299.760871,1850.514855,-10362.883188,1838.629195
3299.761199,814.226536,-9474.636058,919.314598
3299.761527,444.123565,-10066.800811,1455.581446
3299.761855,444.123565,-9474.636058,-995.924147
3299.762182,-518.144159,-8512.368333,-1225.752797
3299.762510,74.020594,-9844.739029,-766.095498
3299.762838,962.267725,-8882.471304,0.000000
3299.763165,814.226536,-9622.677246,229.828649
3299.763493,814.226536,-11251.130318,0.000000
3299.763821,740.205942,-10140.821405,-1302.362347
3299.764148,296.082377,-10140.821405,-919.314598
3299.764476,0.000000,-8808.450710,0.000000
3299.764804,74.020594,-8586.388927,1608.800546
3299.765132,666.185348,-8512.368333,1608.800546
3299.765459,888.247130,-8956.491898,995.924147
3299.765787,222.061783,-10955.047942,536.266849
3299.766115,-962.267725,-8956.491898,-1378.971896
3299.766442,0.000000,-9400.615463,-1762.019645
3299.766770,0.000000,-8660.409521,-1915.238745
3299.767098,0.000000,-9104.533087,153.219100
3299.767426,592.164754,-10436.903782,1685.410096
3299.767753,148.041188,-10732.986159,2145.067394
3299.768081,1110.308913,-11177.109724,919.314598
3299.768409,74.020594,-8660.409521,-1915.238745
3299.768736,-1628.453072,-9030.512492,76.609550
3299.769064,-1110.308913,-9844.739029,-1149.143247
3299.769392,-1332.370696,-8290.306550,-2068.457845
3299.769719,1258.350101,-10658.965565,-1838.629195
3299.770047,1776.494261,-10955.047942,-612.876398
3299.770375,1702.473667,-10140.821405,1072.533697
3299.770703,222.061783,-9474.636058,1225.752797
3299.771030,-888.247130,-9474.636058,919.314598
3299.771358,-814.226536,-9844.739029,0.000000
3299.771686,370.102971,-8068.244768,-1532.190996
3299.772013,0.000000,-8586.388927,229.828649
3299.772341,444.123565,-9474.636058,612.876398
3299.772669,1184.329507,-10658.965565,-689.485948
3299.772996,1036.288319,-10881.027347,-1608.800546
3299.773324,-296.082377,-8586.388927,-1378.971896
3299.773652,296.082377,-9252.574275,-1149.143247
3299.773980,148.041188,-10807.006753,0.000000
3299.774307,148.041188,-10955.047942,536.266849
3299.774635,592.164754,-10362.883188,459.657299
3299.774963,444.123565,-8808.450710,1072.533697
3299.775290,444.123565,-9178.553681,536.266849
3299.775618,74.020594,-10436.903782,-612.876398
3299.775946,-370.102971,-7994.224174,229.828649
3299.776274,-814.226536,-8216.285956,0.000000
3299.776601,-1036.288319,-10362.883188,-995.924147
3299.776929,-370.102971,-10140.821405,-1225.752797
3299.777257,0.000000,-8512.368333,-1762.019645
3299.777584,222.061783,-9992.780217,459.657299
3299.777912,1110.308913,-10955.047942,2298.286494
3299.778240,1406.391290,-9992.780217,1608.800546
3299.778567,2072.576638,-9400.615463,-229.828649
3299.778895,222.061783,-10510.924376,-919.314598
3299.779223,-518.144159,-9548.656652,-459.657299
3299.779551,-74.020594,-7550.100608,-1915.238745
3299.779878,-296.082377,-8142.265362,-1838.629195
3299.780206,148.041188,-9770.718434,229.828649
3299.780534,0.000000,-10510.924376,1685.410096
3299.780861,962.267725,-11251.130318,1762.019645
3299.781189,2294.638420,-11029.068536,-612.876398
3299.781517,1776.494261,-10140.821405,-1072.533697
3299.781845,370.102971,-9992.780217,536.266849
3299.782172,444.123565,-8216.285956,-383.047749
3299.782500,1332.370696,-8142.265362,-919.314598
3299.782828,1998.556043,-8290.306550,-306.438199
3299.783155,2072.576638,-9548.656652,995.924147
3299.783483,962.267725,-11843.295072,1225.752797
3299.783811,-592.164754,-10955.047942,-612.876398
3299.784138,-518.144159,-11029.068536,-1915.238745
3299.784466,-518.144159,-9400.615463,-3217.601092
3299.784794,296.082377,-10288.862594,-1532.190996
3299.785122,-370.102971,-11103.089130,1455.581446
3299.785449,222.061783,-9030.512492,1302.362347
3299.785777,1184.329507,-9400.615463,0.000000
3299.786105,814.226536,-9844.739029,-1149.143247
3299.786432,-518.144159,-8808.450710,-995.924147
3299.786760,-666.185348,-8438.347739,76.609550
3299.787088,-370.102971,-8142.265362,1149.143247
3299.787415,0.000000,-9696.697840,306.438199
3299.787743,0.000000,-10288.862594,459.657299
3299.788071,222.061783,-10214.842000,612.876398
3299.788399,148.041188,-10807.006753,0.000000
3299.788726,148.041188,-11029.068536,-1225.752797
3299.789054,222.061783,-9622.677246,-2451.505594
3299.789382,-444.123565,-7179.997637,-2451.505594
3299.789709,-370.102971,-7476.080014,0.000000
3299.790037,-74.020594,-9770.718434,1378.971896
3299.790365,0.000000,-10881.027347,2451.505594
3299.790693,592.164754,-9992.780217,1072.533697
3299.791020,0.000000,-8290.306550,-612.876398
3299.791348,0.000000,-10362.883188,-1455.581446
3299.791676,-444.123565,-9400.615463,-229.828649
3299.792003,-666.185348,-8216.285956,-612.876398
3299.792331,1110.308913,-9918.759623,-1072.533697
3299.792659,1406.391290,-9770.718434,-1149.143247
3299.792986,592.164754,-11473.192101,612.876398
3299.793314,1110.308913,-9474.636058,383.047749
3299.793642,74.020594,-8438.347739,1072.533697
3299.793970,444.123565,-10214.842000,1225.752797
3299.794297,518.144159,-9178.553681,-919.314598
3299.794625,-1258.350101,-9844.739029,0.000000
3299.794953,-1850.514855,-9474.636058,-842.705048
3299.795280,518.144159,-9104.533087,-2757.943793
3299.795608,1332.370696,-9252.574275,-1302.362347
3299.795936,0.000000,-8660.409521,612.876398
3299.796263,-1184.329507,-10955.047942,2451.505594
3299.796591,-222.061783,-11917.315666,0.000000
3299.796919,814.226536,-10288.862594,-2451.505594
3299.797247,1850.514855,-8882.471304,-2451.505594
3299.797574,518.144159,-9326.594869,689.485948
3299.797902,148.041188,-11251.130318,3370.820191
3299.798230,518.144159,-10362.883188,1532.190996
3299.798557,1554.432478,-9252.574275,-1685.410096
3299.798885,740.205942,-9030.512492,-2911.162892
3299.799213,-1480.411884,-8882.471304,-1532.190996
3299.799541,-1258.350101,-9030.512492,-612.876398
3299.799868,-1332.370696,-8142.265362,-1455.581446
3299.800196,-740.205942,-9104.533087,-153.219100
3299.800524,1258.350101,-10658.965565,2681.334243
3299.800851,3182.885551,-10658.965565,1608.800546
3299.801179,3034.844362,-11029.068536,1455.581446
3299.801507,1554.432478,-10288.862594,0.000000
3299.801834,666.185348,-8734.430116,-995.924147
3299.802162,666.185348,-7772.162391,-1378.971896
3299.802490,962.267725,-7105.977043,-229.828649
3299.802818,1554.432478,-8216.285956,2451.505594
3299.803145,0.000000,-8660.409521,2221.676944
3299.803473,148.041188,-11843.295072,76.609550
3299.803801,-666.185348,-12657.521608,-2451.505594
3299.804128,592.164754,-11177.109724,-3064.381992
3299.804456,592.164754,-9844.739029,-1762.019645
3299.804784,296.082377,-8808.450710,0.000000
3299.805112,1480.411884,-10362.883188,995.924147
3299.805439,1776.494261,-10214.842000,1225.752797
3299.805767,888.247130,-9548.656652,1225.752797
3299.806095,0.000000,-9474.636058,459.657299
3299.806422,-2146.597232,-9252.574275,-689.485948
3299.806750,-1184.329507,-8956.491898,-1225.752797
3299.807078,74.020594,-8808.450710,-2221.676944
3299.807405,0.000000,-10584.944971,-383.047749
3299.807733,222.061783,-11251.130318,306.438199
3299.808061,1110.308913,-10288.862594,229.828649
3299.808389,1406.391290,-10288.862594,-612.876398
3299.808716,444.123565,-9326.594869,-1225.752797
3299.809044,-1184.329507,-9252.574275,-383.047749
3299.809372,-1776.494261,-8660.409521,-229.828649
3299.809699,-1184.329507,-7846.182985,0.000000
3299.810027,74.020594,-10214.842000,536.266849
3299.810355,0.000000,-10140.821405,229.828649
3299.810682,-592.164754,-10584.944971,76.609550
3299.811010,-888.247130,-11029.068536,-612.876398
3299.811338,296.082377,-9548.656652,-2221.676944
3299.811666,1480.411884,-9992.780217,-1991.848295
3299.811993,592.164754,-8512.368333,-1455.581446
3299.812321,592.164754,-9104.533087,1532.190996
3299.812649,1406.391290,-9104.533087,1838.629195
3299.812976,1480.411884,-8956.491898,766.095498
3299.813304,592.164754,-9474.636058,536.266849
3299.813632,-370.102971,-9104.533087,0.000000
3299.813960,74.020594,-9918.759623,-229.828649
3299.814287,0.000000,-10584.944971,-1838.629195
3299.814615,-814.226536,-9918.759623,-995.924147
3299.814943,0.000000,-9474.636058,-995.924147
3299.815270,1702.473667,-9696.697840,-766.095498
3299.815598,2368.659014,-10955.047942,76.609550
3299.815926,222.061783,-9844.739029,1762.019645
3299.816253,-1850.514855,-9474.636058,1838.629195
3299.816581,-1480.411884,-10584.944971,-612.876398
3299.816909,0.000000,-7994.224174,-2987.772442
3299.817237,962.267725,-9178.553681,-2604.724693
3299.817564,148.041188,-10436.903782,306.438199
3299.817892,1184.329507,-11325.150913,1608.800546
3299.818220,2146.597232,-10658.965565,0.000000
3299.818547,1110.308913,-9104.533087,-1532.190996
3299.818875,0.000000,-9474.636058,-536.266849
3299.819203,-592.164754,-8364.327145,-919.314598
3299.819530,-1258.350101,-8068.244768,0.000000
3299.819858,-592.164754,-9178.553681,0.000000
3299.820186,-222.061783,-8438.347739,306.438199
3299.820514,1406.391290,-10436.903782,1455.581446
3299.820841,2442.679609,-11029.068536,153.219100
3299.821169,2368.659014,-11695.253884,-612.876398
3299.821497,1554.432478,-10807.006753,-995.924147
3299.821824,814.226536,-7624.121203,-1532.190996
3299.822152,444.123565,-8734.430116,0.000000
3299.822480,888.247130,-8734.430116,1378.971896
3299.822808,1628.453072,-8216.285956,2911.162892
3299.823135,740.205942,-9622.677246,2451.505594
3299.823463,-370.102971,-10881.027347,-1991.848295
3299.823791,222.061783,-11991.336260,-2911.162892
3299.824118,-222.061783,-10807.006753,-2834.553343
3299.824446,814.226536,-8734.430116,-2451.505594
3299.824774,444.123565,-9548.656652,-689.485948
3299.825101,444.123565,-10066.800811,842.705048
3299.825429,1110.308913,-10362.883188,1608.800546
3299.825757,0.000000,-9770.718434,1455.581446
3299.826085,-1332.370696,-9844.739029,76.609550
3299.826412,-1702.473667,-9104.533087,-1225.752797
3299.826740,-1110.308913,-8364.327145,-1302.362347
3299.827068,-370.102971,-9918.759623,-766.095498
3299.827395,-296.082377,-10658.965565,306.438199
3299.827723,1924.535449,-9400.615463,-306.438199
3299.828051,1184.329507,-11103.089130,-383.047749
3299.828378,0.000000,-10807.006753,459.657299
3299.828706,-740.205942,-8808.450710,306.438199
3299.829034,-1924.535449,-7476.080014,0.000000
3299.829361,-1776.494261,-9104.533087,0.000000
3299.829689,-370.102971,-9400.615463,-689.485948
3299.830016,0.000000,-9326.594869,536.266849
3299.830344,0.000000,-11029.068536,1072.533697
3299.830672,0.000000,-10214.842000,-536.266849
3299.830999,1998.556043,-9918.759623,-1608.800546
3299.831327,1110.308913,-8882.471304,-919.314598
3299.831655,666.185348,-10066.800811,766.095498
3299.831982,0.000000,-9252.574275,1072.533697
3299.832310,-296.082377,-8586.388927,536.266849
3299.832638,74.020594,-10658.965565,459.657299
3299.832965,0.000000,-8364.327145,-842.705048
3299.833293,1110.308913,-9178.553681,-306.438199
3299.833621,518.144159,-11621.233289,689.485948
3299.833948,1480.411884,-10214.842000,-1532.190996
3299.834276,1480.411884,-9844.739029,-2528.115143
3299.834603,370.102971,-10584.944971,-766.095498
3299.834931,0.000000,-10066.800811,1149.143247
3299.835259,814.226536,-9030.512492,919.314598
3299.835586,962.267725,-9030.512492,0.000000
3299.835914,148.041188,-10510.924376,842.705048
3299.836242,-296.082377,-10732.986159,229.828649
3299.836569,-518.144159,-11177.109724,-612.876398
3299.836897,-296.082377,-8734.430116,-2604.724693
3299.837225,814.226536,-7920.203579,-3370.820191
3299.837552,1554.432478,-10584.944971,-1072.533697
3299.837880,2368.659014,-11843.295072,2451.505594
3299.838208,3701.029710,-10732.986159,2451.505594
3299.838535,2442.679609,-9548.656652,1302.362347
3299.838863,0.000000,-9770.718434,766.095498
3299.839190,-888.247130,-9104.533087,-306.438199
3299.839518,-2738.761985,-7179.997637,-842.705048
3299.839846,-1850.514855,-6957.935855,-919.314598
3299.840173,-1480.411884,-8660.409521,-1915.238745
3299.840501,222.061783,-9622.677246,0.000000
3299.840829,2368.659014,-11769.274478,0.000000
3299.841156,1332.370696,-11103.089130,1149.143247
3299.841484,1776.494261,-10288.862594,919.314598
3299.841812,296.082377,-9178.553681,-306.438199
3299.842139,666.185348,-8438.347739,689.485948
3299.842467,1702.473667,-7624.121203,1225.752797
3299.842795,1998.556043,-7254.018232,2374.896044
3299.843122,-814.226536,-10584.944971,3064.381992
3299.843450,-3478.967927,-11177.109724,-459.657299
3299.843777,-1924.535449,-9548.656652,-4443.353888
3299.844105,-518.144159,-10436.903782,-4903.011187
3299.844433,0.000000,-10658.965565,-3064.381992
3299.844760,518.144159,-12879.583391,383.047749
3299.845088,1036.288319,-11177.109724,995.924147
3299.845416,2072.576638,-9622.677246,383.047749
3299.845743,0.000000,-9474.636058,459.657299
3299.846071,-2146.597232,-9400.615463,0.000000
3299.846399,-2590.720797,-8290.306550,0.000000
3299.846726,-1850.514855,-7550.100608,-1608.800546
3299.847054,0.000000,-10510.924376,-2528.115143
3299.847382,518.144159,-11991.336260,-842.705048
3299.847709,1702.473667,-10436.903782,995.924147
3299.848037,1628.453072,-9696.697840,76.609550
3299.848364,592.164754,-10436.903782,-536.266849
3299.848692,-518.144159,-10214.842000,-536.266849
3299.849020,-370.102971,-7698.141797,-1149.143247
3299.849347,-592.164754,-7179.997637,383.047749
3299.849675,1110.308913,-10807.006753,1455.581446
3299.850003,518.144159,-11325.150913,1225.752797
3299.850330,888.247130,-10732.986159,536.266849
3299.850658,370.102971,-8364.327145,-1608.800546
3299.850986,74.020594,-8216.285956,-2604.724693
3299.851313,518.144159,-8956.491898,-1685.410096
3299.851641,0.000000,-8882.471304,229.828649
3299.851969,222.061783,-9770.718434,2145.067394
3299.852296,1332.370696,-9844.739029,1838.629195
3299.852624,1406.391290,-10510.924376,1225.752797
3299.852951,740.205942,-11029.068536,995.924147
3299.853279,1406.391290,-8660.409521,-689.485948
3299.853607,1628.453072,-8364.327145,-1608.800546
3299.853934,1406.391290,-8586.388927,-1532.190996
3299.854262,1332.370696,-9326.594869,-919.314598
3299.854590,1406.391290,-10436.903782,689.485948
3299.854917,888.247130,-9622.677246,1762.019645
3299.855245,444.123565,-10288.862594,842.705048
3299.855573,1554.432478,-9696.697840,-1225.752797
3299.855900,1036.288319,-9474.636058,-766.095498
3299.856228,0.000000,-11917.315666,0.000000
3299.856556,-888.247130,-11843.295072,-383.047749
3299.856883,1332.370696,-9844.739029,-2604.724693
3299.857211,2146.597232,-8068.244768,-2987.772442
3299.857538,1702.473667,-9400.615463,-383.047749
3299.857866,0.000000,-10362.883188,3140.991542
3299.858194,592.164754,-9622.677246,2987.772442
3299.858521,1258.350101,-10436.903782,76.609550
3299.858849,0.000000,-9918.759623,-1991.848295
3299.859177,-666.185348,-10066.800811,-1225.752797
3299.859504,-1776.494261,-9770.718434,-229.828649
3299.859832,-1480.411884,-7624.121203,-1149.143247
3299.860160,-296.082377,-9326.594869,-1762.019645
3299.860487,0.000000,-9474.636058,153.219100
3299.860815,1110.308913,-8882.471304,919.314598
3299.861143,-370.102971,-9474.636058,2374.896044
3299.861470,-814.226536,-9326.594869,1302.362347
3299.861798,-1110.308913,-9030.512492,-1149.143247
3299.862125,-888.247130,-8512.368333,-1991.848295
3299.862453,296.082377,-9622.677246,-229.828649
3299.862781,1258.350101,-10436.903782,1302.362347
3299.863108,1924.535449,-9030.512492,1532.190996
3299.863436,1184.329507,-9844.739029,-306.438199
3299.863764,-1850.514855,-11029.068536,-1378.971896
3299.864091,-814.226536,-9844.739029,-1838.629195
3299.864419,-222.061783,-8956.491898,-1225.752797
3299.864747,0.000000,-10066.800811,459.657299
3299.865074,740.205942,-10436.903782,1532.190996
3299.865402,1702.473667,-9400.615463,536.266849
3299.865730,1480.411884,-11917.315666,842.705048
3299.866057,-444.123565,-11695.253884,-383.047749
3299.866385,-1110.308913,-8660.409521,-2145.067394
3299.866712,-1036.288319,-7105.977043,-3524.039291
3299.867040,-814.226536,-9104.533087,-2298.286494
3299.867368,0.000000,-11103.089130,-229.828649
3299.867695,148.041188,-11547.212695,2068.457845
3299.868023,1036.288319,-9696.697840,1225.752797
3299.868351,1628.453072,-9178.553681,-1455.581446
3299.868678,-444.123565,-9548.656652,-1072.533697
3299.869006,-1628.453072,-10214.842000,0.000000
3299.869334,-518.144159,-8364.327145,-995.924147
3299.869661,1776.494261,-9178.553681,-1455.581446
3299.869989,1554.432478,-11103.089130,-459.657299
3299.870317,666.185348,-9474.636058,1225.752797
3299.870644,1036.288319,-9622.677246,1762.019645
3299.870972,1184.329507,-10881.027347,153.219100
3299.871299,1554.432478,-11769.274478,-1072.533697
3299.871627,370.102971,-8068.244768,-842.705048
3299.871955,74.020594,-6735.874072,-229.828649
3299.872282,814.226536,-10510.924376,2528.115143
3299.872610,1554.432478,-10066.800811,1149.143247
3299.872938,888.247130,-9178.553681,153.219100
3299.873265,-444.123565,-8438.347739,-919.314598
3299.873593,1110.308913,-8956.491898,-1838.629195
3299.873921,444.123565,-11251.130318,-229.828649
3299.874248,-888.247130,-10066.800811,1149.143247
3299.874576,0.000000,-9252.574275,-536.266849
3299.874904,370.102971,-9474.636058,-1532.190996
3299.875231,296.082377,-11621.233289,383.047749
3299.875559,-740.205942,-10881.027347,766.095498
3299.875886,222.061783,-8438.347739,-612.876398
3299.876214,1258.350101,-9770.718434,-689.485948
3299.876542,-296.082377,-9548.656652,459.657299
3299.876869,444.123565,-9474.636058,0.000000
3299.877197,666.185348,-8882.471304,0.000000
3299.877525,370.102971,-8734.430116,153.219100
3299.877852,-666.185348,-10732.986159,229.828649
3299.878180,-1998.556043,-11029.068536,-229.828649
3299.878508,-666.185348,-10584.944971,-1072.533697
3299.878835,814.226536,-10510.924376,-2604.724693
3299.879163,1850.514855,-10362.883188,-1532.190996
3299.879491,1998.556043,-10881.027347,383.047749
3299.879818,2442.679609,-9548.656652,1685.410096
3299.880146,1776.494261,-9696.697840,1532.190996
3299.880473,-1480.411884,-10362.883188,383.047749
3299.880801,-1850.514855,-7698.141797,-2374.896044
3299.881129,-1332.370696,-7031.956449,-2834.553343
3299.881456,-1924.535449,-8142.265362,-842.705048
3299.881784,-1258.350101,-10510.924376,1149.143247
3299.882112,888.247130,-11547.212695,1225.752797
3299.882439,3775.050304,-9918.759623,0.000000
3299.882767,3701.029710,-10955.047942,0.000000
3299.883095,2738.761985,-9622.677246,1149.143247
3299.883422,1850.514855,-8512.368333,612.876398
3299.883750,-962.267725,-8586.388927,0.000000
3299.884078,-444.123565,-9030.512492,-689.485948
3299.884405,1332.370696,-9178.553681,-383.047749
3299.884733,1998.556043,-7994.224174,766.095498
3299.885061,814.226536,-10436.903782,1838.629195
3299.885388,-1110.308913,-11917.315666,-612.876398
3299.885716,296.082377,-10807.006753,-3600.648841
3299.886043,1628.453072,-10658.965565,-4519.963438
3299.886371,2516.700203,-10140.821405,-1762.019645
3299.886699,1850.514855,-10658.965565,2451.505594
3299.887026,814.226536,-9326.594869,2757.943793
3299.887354,1480.411884,-10584.944971,1072.533697
3299.887682,444.123565,-10066.800811,-612.876398
3299.888009,-2220.617826,-9326.594869,0.000000
3299.888337,-2886.803174,-9178.553681,-612.876398
3299.888665,-2368.659014,-8142.265362,-3140.991542
3299.888992,-1184.329507,-9622.677246,-2834.553343
3299.889320,0.000000,-11325.150913,-383.047749
3299.889648,2072.576638,-10436.903782,1685.410096
3299.889975,2368.659014,-11325.150913,2221.676944
3299.890303,1258.350101,-11251.130318,1072.533697
3299.890630,296.082377,-9252.574275,-383.047749
3299.890958,-962.267725,-7476.080014,-1225.752797
3299.891286,-1406.391290,-7624.121203,-766.095498
3299.891613,-1850.514855,-9474.636058,536.266849
3299.891941,-1480.411884,-8438.347739,459.657299
3299.892269,74.020594,-9992.780217,383.047749
3299.892596,444.123565,-10807.006753,-689.485948
3299.892924,592.164754,-10584.944971,-383.047749
3299.893252,-1036.288319,-8808.450710,-536.266849
3299.893579,-1036.288319,-6809.894666,-842.705048
3299.893907,962.267725,-9992.780217,-306.438199
3299.894235,1110.308913,-9770.718434,842.705048
3299.894562,962.267725,-9474.636058,2374.896044
3299.894890,740.205942,-10362.883188,1915.238745
3299.895217,2220.617826,-9992.780217,-995.924147
3299.895545,888.247130,-10066.800811,-1302.362347
3299.895873,-740.205942,-9474.636058,-1455.581446
3299.896200,-1258.350101,-9252.574275,-1225.752797
3299.896528,0.000000,-11399.171507,-1532.190996
3299.896856,-592.164754,-10584.944971,-1685.410096
3299.897183,-222.061783,-10362.883188,383.047749
3299.897511,1406.391290,-9770.718434,-383.047749
3299.897839,1628.453072,-9992.780217,-229.828649
3299.898166,740.205942,-9918.759623,306.438199
3299.898494,0.000000,-8734.430116,0.000000
3299.898822,0.000000,-9844.739029,-153.219100
3299.899149,1776.494261,-10436.903782,-1532.190996
3299.899477,1554.432478,-9548.656652,-1225.752797
3299.899804,740.205942,-11473.192101,229.828649
3299.900132,1406.391290,-10362.883188,1302.362347
3299.900460,1480.411884,-11103.089130,229.828649
3299.900787,-370.102971,-10288.862594,-689.485948
3299.901115,-888.247130,-9400.615463,-2221.676944
3299.901443,-1480.411884,-8142.265362,-1302.362347
3299.901770,-1258.350101,-7550.100608,-306.438199
3299.902098,0.000000,-7846.182985,0.000000
3299.902426,370.102971,-7402.059420,1532.190996
3299.902753,2072.576638,-9474.636058,2374.896044
3299.903081,1480.411884,-11399.171507,2374.896044
3299.903409,1554.432478,-10658.965565,536.266849
3299.903736,888.247130,-9474.636058,-995.924147
3299.904064,-592.164754,-8364.327145,-1991.848295
3299.904391,666.185348,-10288.862594,-995.924147
3299.904719,1036.288319,-10362.883188,-689.485948
3299.905047,2368.659014,-8882.471304,1302.362347
3299.905374,2886.803174,-8956.491898,2068.457845
3299.905702,1628.453072,-10584.944971,919.314598
3299.906030,666.185348,-11695.253884,-306.438199
3299.906357,592.164754,-11399.171507,-1225.752797
3299.906685,518.144159,-9770.718434,-995.924147
3299.907013,1628.453072,-9474.636058,-2068.457845
3299.907340,666.185348,-9400.615463,-229.828649
3299.907668,1110.308913,-12287.418637,1149.143247
3299.907996,0.000000,-10955.047942,459.657299
3299.908323,-296.082377,-9252.574275,-1149.143247
3299.908651,-370.102971,-8068.244768,-3983.696590
3299.908978,-370.102971,-7402.059420,-1838.629195
3299.909306,-666.185348,-9918.759623,459.657299
3299.909634,-740.205942,-9992.780217,1455.581446
3299.909961,518.144159,-10436.903782,842.705048
3299.910289,1702.473667,-10881.027347,-536.266849
3299.910617,148.041188,-9918.759623,-306.438199
3299.910944,74.020594,-10658.965565,689.485948
3299.911272,-296.082377,-8808.450710,-919.314598
3299.911600,-518.144159,-9474.636058,-1532.190996
3299.911927,0.000000,-8734.430116,-612.876398
3299.912255,-222.061783,-8808.450710,1225.752797
3299.912583,-888.247130,-9918.759623,3140.991542
3299.912910,-1850.514855,-9622.677246,1532.190996
3299.913238,-370.102971,-9770.718434,-1302.362347
3299.913565,-1332.370696,-8364.327145,-2528.115143
3299.913893,-666.185348,-8364.327145,-536.266849
3299.914221,-592.164754,-9622.677246,1608.800546
3299.914548,-370.102971,-7994.224174,1072.533697
3299.914876,740.205942,-9770.718434,-689.485948
3299.915204,888.247130,-9474.636058,-1608.800546
3299.915531,1110.308913,-9770.718434,-229.828649
3299.915859,0.000000,-10362.883188,995.924147
3299.916187,-518.144159,-10436.903782,536.266849
3299.916514,148.041188,-10807.006753,-689.485948
3299.916842,-666.185348,-9770.718434,-1455.581446
3299.917170,222.061783,-9770.718434,-766.095498
3299.917497,0.000000,-10214.842000,0.000000
3299.917825,888.247130,-9992.780217,-995.924147
3299.918152,1850.514855,-9252.574275,-1762.019645
3299.918480,518.144159,-8068.244768,-536.266849
3299.918808,74.020594,-10214.842000,1532.190996
3299.919135,-1110.308913,-12731.542202,1532.190996
3299.919463,740.205942,-10214.842000,-1685.410096
3299.919791,1924.535449,-9252.574275,-2221.676944
3299.920118,1776.494261,-10510.924376,0.000000
3299.920446,1554.432478,-10881.027347,3140.991542
3299.920774,296.082377,-11103.089130,2374.896044
3299.921101,74.020594,-8512.368333,-1838.629195
3299.921429,296.082377,-8068.244768,-4673.182538
3299.921757,-1702.473667,-7698.141797,-2987.772442
3299.922084,-1924.535449,-7920.203579,919.314598
3299.922412,-592.164754,-7846.182985,1302.362347
3299.922739,2072.576638,-9770.718434,1915.238745
3299.923067,4441.235652,-11695.253884,2221.676944
3299.923395,3849.070898,-10584.944971,2374.896044
3299.923722,3997.112087,-9844.739029,1991.848295
3299.924050,1924.535449,-9252.574275,306.438199
3299.924378,740.205942,-7846.182985,-1991.848295
3299.924705,74.020594,-7402.059420,-1762.019645
3299.925033,0.000000,-6883.915261,-766.095498
3299.925361,1480.411884,-8956.491898,1991.848295
3299.925688,296.082377,-11695.253884,2528.115143
3299.926016,518.144159,-11991.336260,306.438199
3299.926343,1628.453072,-11917.315666,-1915.238745
3299.926671,444.123565,-9770.718434,-1455.581446
3299.926999,740.205942,-9474.636058,-689.485948
3299.927326,444.123565,-9844.739029,-1149.143247
3299.927654,814.226536,-9992.780217,-1455.581446
3299.927981,518.144159,-10881.027347,-1225.752797
3299.928309,-370.102971,-9696.697840,0.000000
3299.928636,-1258.350101,-9918.759623,919.314598
3299.928964,-1332.370696,-9474.636058,-229.828649
3299.929292,-1406.391290,-9474.636058,-919.314598
3299.929619,-2072.576638,-9992.780217,-1225.752797
3299.929947,-666.185348,-9696.697840,-229.828649
3299.930274,962.267725,-10066.800811,0.000000
3299.930602,814.226536,-9474.636058,-1149.143247
3299.930930,518.144159,-11547.212695,-153.219100
3299.931257,-222.061783,-11103.089130,0.000000
3299.931585,814.226536,-8956.491898,-459.657299
3299.931912,-296.082377,-9252.574275,459.657299
3299.932240,-1924.535449,-9104.533087,536.266849
3299.932568,-1776.494261,-9622.677246,1225.752797
3299.932895,-1258.350101,-9326.594869,306.438199
3299.933223,-1332.370696,-9622.677246,-536.266849
3299.933550,-1924.535449,-9252.574275,-1225.752797
3299.933878,-518.144159,-7328.038826,-1685.410096
3299.934206,962.267725,-10881.027347,-1915.238745
3299.934533,666.185348,-10658.965565,0.000000
3299.934861,1406.391290,-8660.409521,842.705048
3299.935188,592.164754,-9400.615463,1225.752797
3299.935516,518.144159,-9548.656652,1378.971896
3299.935843,888.247130,-9696.697840,612.876398
3299.936171,148.041188,-7994.224174,612.876398
3299.936499,518.144159,-9696.697840,383.047749
3299.936826,222.061783,-11843.295072,-536.266849
3299.937154,0.000000,-10066.800811,-1838.629195
3299.937481,0.000000,-9918.759623,-1991.848295
3299.937809,0.000000,-9844.739029,-1991.848295
3299.938137,592.164754,-10584.944971,-1302.362347
3299.938464,1406.391290,-10658.965565,229.828649
3299.938792,3552.988522,-9474.636058,459.657299
3299.939119,3923.091493,-9844.739029,2145.067394
3299.939447,2146.597232,-9918.759623,2145.067394
3299.939775,0.000000,-9474.636058,1762.019645
3299.940102,-1554.432478,-9326.594869,-1532.190996
3299.940430,-1628.453072,-7994.224174,-3753.867940
3299.940757,-888.247130,-10436.903782,-2604.724693
3299.941085,0.000000,-10732.986159,-1302.362347
3299.941412,2146.597232,-11843.295072,-1225.752797
3299.941740,1406.391290,-11325.150913,-995.924147
3299.942068,666.185348,-9474.636058,0.000000
3299.942395,370.102971,-9474.636058,1072.533697
3299.942723,1406.391290,-7105.977043,1378.971896
3299.943050,2072.576638,-8290.306550,2374.896044
3299.943378,962.267725,-9622.677246,2068.457845
3299.943706,2146.597232,-9326.594869,995.924147
3299.944033,2590.720797,-10362.883188,-153.219100
3299.944361,1110.308913,-8586.388927,-1685.410096
3299.944688,296.082377,-10066.800811,-1302.362347
3299.945016,-592.164754,-9844.739029,-1762.019645
3299.945344,-370.102971,-9474.636058,-612.876398
3299.945671,74.020594,-9474.636058,153.219100
3299.945999,814.226536,-7624.121203,1532.190996
3299.946326,1628.453072,-10214.842000,3370.820191
3299.946654,1776.494261,-10584.944971,2221.676944
3299.946982,888.247130,-8956.491898,-766.095498
3299.947309,-888.247130,-8956.491898,-3217.601092
3299.947637,-2294.638420,-8734.430116,-4136.915689
3299.947964,-1480.411884,-11843.295072,-1685.410096
3299.948292,-2664.741391,-10066.800811,0.000000
3299.948619,-888.247130,-9400.615463,383.047749
3299.948947,-370.102971,-10732.986159,0.000000
3299.949275,518.144159,-9770.718434,-766.095498
3299.949602,592.164754,-11177.109724,459.657299
3299.949930,-740.205942,-8808.450710,459.657299
3299.950257,-1036.288319,-8660.409521,-536.266849
3299.950585,-1110.308913,-8882.471304,-2451.505594
3299.950913,518.144159,-9992.780217,-2451.505594
3299.951240,0.000000,-11251.130318,383.047749
3299.951568,888.247130,-10732.986159,689.485948
3299.951895,222.061783,-11103.089130,919.314598
3299.952223,148.041188,-9992.780217,-153.219100
3299.952551,-962.267725,-8290.306550,-766.095498
3299.952878,-1924.535449,-9770.718434,306.438199
3299.953206,-2442.679609,-8290.306550,-306.438199
3299.953533,-740.205942,-9104.533087,-1838.629195
3299.953861,0.000000,-9474.636058,-1838.629195
3299.954188,2220.617826,-10955.047942,0.000000
3299.954516,1258.350101,-10807.006753,2068.457845
3299.954844,518.144159,-8586.388927,1838.629195
3299.955171,1776.494261,-8660.409521,1072.533697
3299.955499,2368.659014,-8882.471304,-1072.533697
3299.955826,518.144159,-8956.491898,229.828649
3299.956154,-1036.288319,-9622.677246,1532.190996
3299.956482,-444.123565,-9252.574275,0.000000
3299.956809,2146.597232,-10510.924376,-2221.676944
3299.957137,1628.453072,-10066.800811,-1072.533697
3299.957464,814.226536,-10288.862594,1225.752797
3299.957792,962.267725,-10658.965565,842.705048
3299.958120,1258.350101,-9622.677246,-842.705048
3299.958447,1258.350101,-9474.636058,-612.876398
3299.958775,666.185348,-7772.162391,-306.438199
3299.959102,1776.494261,-9178.553681,1378.971896
3299.959430,1702.473667,-10881.027347,2451.505594
3299.959757,2812.782580,-11103.089130,-383.047749
3299.960085,3330.926739,-10436.903782,-2145.067394
3299.960413,2294.638420,-9326.594869,-1378.971896
3299.960740,0.000000,-9844.739029,1915.238745
3299.961068,-1850.514855,-11621.233289,1608.800546
3299.961395,-1850.514855,-9770.718434,-1532.190996
3299.961723,-1554.432478,-8142.265362,-3600.648841
3299.962051,-1110.308913,-6735.874072,-2374.896044
3299.962378,-888.247130,-11103.089130,536.266849
3299.962706,962.267725,-11843.295072,1302.362347
3299.963033,2886.803174,-9770.718434,0.000000
3299.963361,2368.659014,-10436.903782,-612.876398
3299.963689,2368.659014,-10288.862594,-919.314598
3299.964016,962.267725,-9474.636058,1532.190996
3299.964344,592.164754,-8808.450710,689.485948
3299.964671,-444.123565,-8290.306550,153.219100
3299.964999,-296.082377,-10140.821405,-536.266849
3299.965327,-518.144159,-8438.347739,229.828649
3299.965654,-148.041188,-10214.842000,1532.190996
3299.965982,518.144159,-9474.636058,-383.047749
3299.966309,888.247130,-9400.615463,-1762.019645
3299.966637,-962.267725,-9992.780217,-1378.971896
3299.966964,-888.247130,-10362.883188,-536.266849
3299.967292,0.000000,-9770.718434,536.266849
3299.967620,888.247130,-8068.244768,-536.266849
3299.967947,-1036.288319,-10288.862594,0.000000
3299.968275,-2368.659014,-11473.192101,229.828649
3299.968602,-1480.411884,-8660.409521,-689.485948
3299.968930,-1036.288319,-9252.574275,-459.657299
3299.969258,-740.205942,-8586.388927,-995.924147
3299.969585,-740.205942,-9474.636058,-306.438199
3299.969913,-962.267725,-9474.636058,153.219100
3299.970240,222.061783,-9252.574275,76.609550
3299.970568,1850.514855,-10732.986159,0.000000
3299.970896,0.000000,-9326.594869,-306.438199
3299.971223,0.000000,-10066.800811,153.219100
3299.971551,1036.288319,-10066.800811,459.657299
3299.971878,1406.391290,-9622.677246,0.000000
3299.972206,296.082377,-11251.130318,689.485948
3299.972533,74.020594,-8586.388927,-612.876398
3299.972861,888.247130,-8956.491898,-1608.800546
3299.973189,148.041188,-11103.089130,-383.047749
3299.973516,444.123565,-10436.903782,536.266849
3299.973844,74.020594,-9474.636058,-536.266849
3299.974171,0.000000,-8364.327145,-1302.362347
3299.974499,0.000000,-11029.068536,-612.876398
3299.974827,444.123565,-9992.780217,0.000000
3299.975154,1850.514855,-8290.306550,229.828649
3299.975482,2220.617826,-10140.821405,459.657299
3299.975809,1850.514855,-9548.656652,229.828649
3299.976137,1998.556043,-9474.636058,995.924147
3299.976465,1110.308913,-9326.594869,919.314598
3299.976792,1184.329507,-9770.718434,0.000000
3299.977120,0.000000,-10881.027347,-919.314598
3299.977447,-370.102971,-9918.759623,0.000000
3299.977775,-518.144159,-10066.800811,-229.828649
3299.978103,666.185348,-9400.615463,-919.314598
3299.978430,370.102971,-9992.780217,-153.219100
3299.978758,-888.247130,-9474.636058,383.047749
3299.979085,222.061783,-8142.265362,-383.047749
3299.979413,1406.391290,-10288.862594,-536.266849
3299.979740,1406.391290,-9992.780217,229.828649
3299.980068,962.267725,-9178.553681,536.266849
3299.980396,1110.308913,-9474.636058,1378.971896
3299.980723,1184.329507,-9326.594869,766.095498
3299.981051,-814.226536,-10510.924376,842.705048
3299.981378,-3034.844362,-9030.512492,-612.876398
3299.981706,-2368.659014,-9326.594869,-3294.210641
3299.982034,-1850.514855,-9030.512492,-3830.477490
3299.982361,-1184.329507,-9844.739029,-2451.505594
3299.982689,-740.205942,-11103.089130,919.314598
3299.983016,2590.720797,-10658.965565,766.095498
3299.983344,3627.009116,-11177.109724,766.095498
3299.983672,2442.679609,-10732.986159,766.095498
3299.983999,518.144159,-9030.512492,919.314598
3299.984327,222.061783,-8734.430116,536.266849
3299.984654,222.061783,-6587.832884,-612.876398
3299.984982,-1332.370696,-8586.388927,-229.828649
3299.985309,-1924.535449,-10881.027347,536.266849
3299.985637,0.000000,-10584.944971,-383.047749
3299.985965,1110.308913,-11399.171507,-1149.143247
3299.986292,1258.350101,-10140.821405,-1378.971896
3299.986620,1480.411884,-10510.924376,-383.047749
3299.986947,1258.350101,-10436.903782,0.000000
3299.987275,592.164754,-9474.636058,1302.362347
3299.987603,666.185348,-7179.997637,995.924147
3299.987930,-370.102971,-7476.080014,0.000000
3299.988258,-1480.411884,-11621.233289,306.438199
3299.988585,-1850.514855,-10140.821405,-1455.581446
3299.988913,0.000000,-8734.430116,-2451.505594
3299.989241,592.164754,-9474.636058,-2298.286494
3299.989568,592.164754,-9622.677246,-689.485948
3299.989896,888.247130,-11251.130318,766.095498
3299.990223,444.123565,-8882.471304,1149.143247
3299.990551,1702.473667,-9178.553681,842.705048
3299.990879,1406.391290,-9696.697840,0.000000
3299.991206,592.164754,-8290.306550,995.924147
3299.991534,1110.308913,-9548.656652,1455.581446
3299.991861,1554.432478,-10066.800811,229.828649
3299.992189,962.267725,-11769.274478,153.219100
3299.992516,592.164754,-9770.718434,-1225.752797
3299.992844,-518.144159,-8660.409521,-1378.971896
3299.993172,-962.267725,-11029.068536,-229.828649
3299.993499,-814.226536,-10658.965565,0.000000
3299.993827,-370.102971,-9992.780217,0.000000
3299.994154,888.247130,-8734.430116,-612.876398
3299.994482,1036.288319,-9992.780217,536.266849
3299.994810,592.164754,-10732.986159,1838.629195
3299.995137,444.123565,-8290.306550,0.000000
3299.995465,1554.432478,-9252.574275,-1685.410096
3299.995792,814.226536,-9918.759623,-1608.800546
3299.996120,1036.288319,-8808.450710,-229.828649
3299.996448,-666.185348,-9474.636058,1225.752797
3299.996775,-740.205942,-9548.656652,612.876398
3299.997103,148.041188,-11177.109724,-1455.581446
3299.997430,-222.061783,-10066.800811,-2298.286494
3299.997758,-962.267725,-8882.471304,-842.705048
3299.998085,-666.185348,-9992.780217,153.219100
3299.998413,370.102971,-9474.636058,-1302.362347
3299.998741,444.123565,-10066.800811,-229.828649
3299.999068,0.000000,-8660.409521,-459.657299
3299.999396,666.185348,-9770.718434,0.000000
3299.999723,-592.164754,-11843.295072,1225.752797
3300.000051,-222.061783,-9400.615463,536.266849
3300.000379,-1184.329507,-8956.491898,1072.533697
3300.000706,592.164754,-7920.203579,-842.705048
3300.001034,-888.247130,-9770.718434,919.314598
3300.001361,-3627.009116,-11103.089130,1378.971896
3300.001689,-3627.009116,-9252.574275,-2298.286494
3300.002017,-1998.556043,-9696.697840,-4136.915689
3300.002344,-2368.659014,-7476.080014,-3600.648841
3300.002672,-370.102971,-8956.491898,-766.095498
3300.002999,296.082377,-11473.192101,2145.067394
3300.003327,2886.803174,-11843.295072,2987.772442
3300.003654,3404.947333,-10955.047942,766.095498
3300.003982,1924.535449,-8142.265362,-689.485948
3300.004310,518.144159,-9030.512492,-383.047749
3300.004637,-518.144159,-9622.677246,0.000000
3300.004965,148.041188,-8142.265362,-766.095498
3300.005292,518.144159,-9844.739029,-1915.238745
3300.005620,1480.411884,-10436.903782,-766.095498
3300.005948,3627.009116,-11621.233289,919.314598
3300.006275,2146.597232,-10732.986159,1455.581446
3300.006603,2072.576638,-9252.574275,766.095498
3300.006930,2072.576638,-7994.224174,-383.047749
3300.007258,2072.576638,-8216.285956,-459.657299
3300.007586,1850.514855,-10732.986159,1225.752797
3300.007913,1554.432478,-10066.800811,766.095498
3300.008241,1258.350101,-9326.594869,-842.705048
3300.008568,1110.308913,-11325.150913,-2068.457845
3300.008896,666.185348,-10288.862594,-2374.896044
3300.009224,1332.370696,-10066.800811,-612.876398
3300.009551,1110.308913,-8068.244768,536.266849
3300.009879,2368.659014,-9030.512492,612.876398
3300.010206,2516.700203,-9474.636058,842.705048
3300.010534,1702.473667,-8290.306550,919.314598
3300.010861,814.226536,-10436.903782,2068.457845
3300.011189,1184.329507,-10140.821405,229.828649
3300.011517,2294.638420,-9770.718434,-1838.629195
3300.011844,2146.597232,-10140.821405,-1762.019645
3300.012172,2072.576638,-8660.409521,-306.438199
3300.012499,1998.556043,-10584.944971,1455.581446
3300.012827,-370.102971,-9474.636058,919.314598
3300.013155,-2072.576638,-9474.636058,995.924147
3300.013482,-3034.844362,-7920.203579,-306.438199
3300.013810,-2738.761985,-8586.388927,-306.438199
3300.014137,-2294.638420,-10881.027347,842.705048
3300.014465,-1480.411884,-10066.800811,-612.876398
3300.014793,-1480.411884,-9474.636058,-1762.019645
3300.015120,0.000000,-8512.368333,-2987.772442
3300.015448,-148.041188,-8364.327145,-1608.800546
3300.015775,0.000000,-10955.047942,1149.143247
3300.016103,-1258.350101,-10140.821405,2681.334243
3300.016430,-1480.411884,-11029.068536,1915.238745
3300.016758,-1110.308913,-9178.553681,383.047749
3300.017086,-814.226536,-9992.780217,-459.657299
3300.017413,-888.247130,-10807.006753,0.000000
3300.017741,-1776.494261,-8882.471304,-919.314598
3300.018068,-2072.576638,-8882.471304,-1838.629195
3300.018396,-1776.494261,-8438.347739,-2911.162892
3300.018724,-1924.535449,-10140.821405,-612.876398
3300.019051,-2146.597232,-11177.109724,306.438199
3300.019379,-1924.535449,-9622.677246,383.047749
3300.019706,-1628.453072,-10584.944971,536.266849
3300.020034,-740.205942,-9400.615463,-1302.362347
3300.020362,0.000000,-9252.574275,0.000000
3300.020689,740.205942,-9770.718434,919.314598
3300.021017,666.185348,-7698.141797,459.657299
3300.021344,-888.247130,-10658.965565,0.000000
3300.021672,-2146.597232,-9696.697840,-2221.676944
3300.022000,-1924.535449,-9474.636058,-3524.039291
3300.022327,-2220.617826,-8512.368333,-2604.724693
3300.022655,-666.185348,-9252.574275,-1378.971896
3300.022982,1258.350101,-11399.171507,459.657299
3300.023310,3775.050304,-10881.027347,995.924147
3300.023637,3923.091493,-11769.274478,1838.629195
3300.023965,3256.906145,-10732.986159,1225.752797
3300.024293,2664.741391,-8068.244768,-383.047749
3300.024620,1998.556043,-7920.203579,-842.705048
3300.024948,1406.391290,-7476.080014,-766.095498
3300.025275,2220.617826,-8956.491898,-306.438199
3300.025603,2812.782580,-10584.944971,76.609550
3300.025931,2368.659014,-10955.047942,766.095498
3300.026258,2072.576638,-10214.842000,689.485948
3300.026586,2442.679609,-9622.677246,-383.047749
3300.026913,2590.720797,-11769.274478,76.609550
3300.027241,2590.720797,-10214.842000,-1072.533697
3300.027569,2220.617826,-8068.244768,-1455.581446
3300.027896,2146.597232,-8882.471304,-689.485948
3300.028224,1998.556043,-9252.574275,842.705048
3300.028551,1480.411884,-9104.533087,2298.286494
3300.028879,1332.370696,-8882.471304,306.438199
3300.029207,1702.473667,-9548.656652,-536.266849
3300.029534,2146.597232,-9252.574275,-612.876398
3300.029862,1628.453072,-9474.636058,306.438199
3300.030189,1702.473667,-11917.315666,1378.971896
3300.030517,888.247130,-10140.821405,766.095498
3300.030845,740.205942,-9696.697840,-536.266849
3300.031172,1332.370696,-9474.636058,-1838.629195
3300.031500,1184.329507,-8068.244768,-1072.533697
3300.031827,1776.494261,-10214.842000,1378.971896
3300.032155,0.000000,-9844.739029,2681.334243
3300.032483,-222.061783,-9178.553681,1608.800546
3300.032810,-2590.720797,-7179.997637,0.000000
3300.033138,-3552.988522,-9252.574275,229.828649
3300.033465,-2664.741391,-10510.924376,-842.705048
3300.033793,-3034.844362,-10807.006753,-1532.190996
3300.034121,-2368.659014,-12065.356855,-1302.362347
3300.034448,222.061783,-10658.965565,-2911.162892
3300.034776,-592.164754,-8882.471304,-1915.238745
3300.035104,-1776.494261,-9548.656652,76.609550
3300.035431,-2368.659014,-8142.265362,995.924147
3300.035759,-1480.411884,-8364.327145,689.485948
3300.036086,-1332.370696,-8586.388927,689.485948
3300.036414,-1628.453072,-10881.027347,1991.848295
3300.036742,-1998.556043,-11843.295072,1685.410096
3300.037069,-1998.556043,-9918.759623,-612.876398
3300.037397,-1702.473667,-9992.780217,-3524.039291
3300.037724,-1036.288319,-9104.533087,-4749.792088
3300.038052,-1776.494261,-9400.615463,-2374.896044
3300.038380,-888.247130,-10732.986159,76.609550
3300.038707,740.205942,-9844.739029,0.000000
3300.039035,962.267725,-11251.130318,1915.238745
3300.039362,518.144159,-9474.636058,2451.505594
3300.039690,-1406.391290,-8364.327145,919.314598
3300.040018,-1554.432478,-9252.574275,-536.266849
3300.040345,-1036.288319,-9474.636058,-2145.067394
3300.040673,1480.411884,-9992.780217,-3064.381992
3300.041000,1480.411884,-7920.203579,-1378.971896
3300.041328,666.185348,-10214.842000,1532.190996
3300.041656,-888.247130,-10955.047942,1685.410096
3300.041983,-740.205942,-10584.944971,-612.876398
3300.042311,-1036.288319,-7920.203579,-2987.772442
3300.042638,-666.185348,-7179.997637,-3600.648841
3300.042966,-592.164754,-10510.924376,229.828649
3300.043294,1850.514855,-11547.212695,1838.629195
3300.043621,3627.009116,-9992.780217,612.876398
3300.043949,5033.400406,-10584.944971,-459.657299
3300.044277,3701.029710,-9548.656652,-383.047749
3300.044604,2738.761985,-8364.327145,76.609550
3300.044932,2146.597232,-8438.347739,459.657299
3300.045259,1332.370696,-9030.512492,229.828649
3300.045587,2368.659014,-10436.903782,0.000000
3300.045915,2442.679609,-10140.821405,459.657299
3300.046242,3330.926739,-11399.171507,536.266849
3300.046570,3627.009116,-11251.130318,76.609550
3300.046897,2590.720797,-9474.636058,-689.485948
3300.047225,3849.070898,-8586.388927,-995.924147
3300.047553,2590.720797,-8882.471304,76.609550
3300.047880,2368.659014,-11177.109724,2221.676944
3300.048208,1406.391290,-9622.677246,1838.629195
3300.048535,814.226536,-9474.636058,76.609550
3300.048863,888.247130,-10807.006753,-1685.410096
3300.049191,-1110.308913,-8882.471304,-1532.190996
3300.049518,-1110.308913,-8882.471304,-306.438199
3300.049846,-740.205942,-9622.677246,-536.266849
3300.050173,74.020594,-10436.903782,-1532.190996
3300.050501,148.041188,-9030.512492,-459.657299
3300.050829,-296.082377,-7624.121203,919.314598
3300.051156,740.205942,-8956.491898,2451.505594
3300.051484,592.164754,-9400.615463,2068.457845
3300.051811,-1406.391290,-9252.574275,689.485948
3300.052139,-1776.494261,-9474.636058,0.000000
3300.052467,-1924.535449,-9326.594869,-842.705048
3300.052794,-1332.370696,-10066.800811,-612.876398
3300.053122,-2294.638420,-11251.130318,-612.876398
3300.053450,-1628.453072,-10881.027347,-1532.190996
3300.053777,-1998.556043,-9474.636058,-383.047749
3300.054105,-1480.411884,-8364.327145,-459.657299
3300.054432,-2072.576638,-8734.430116,229.828649
3300.054760,-1924.535449,-9474.636058,229.828649
3300.055088,-1332.370696,-9474.636058,0.000000
3300.055415,-222.061783,-10510.924376,-766.095498
3300.055743,-592.164754,-9918.759623,-229.828649
3300.056070,0.000000,-11325.150913,-459.657299
3300.056398,-1036.288319,-9252.574275,0.000000
3300.056726,-148.041188,-9770.718434,-1225.752797
3300.057053,-1110.308913,-10584.944971,-1838.629195
3300.057381,-814.226536,-10658.965565,-919.314598
3300.057708,666.185348,-9918.759623,-842.705048
3300.058036,0.000000,-9622.677246,766.095498
3300.058364,0.000000,-9548.656652,459.657299
3300.058691,-518.144159,-9178.553681,842.705048
3300.059019,-592.164754,-9696.697840,229.828649
3300.059346,-296.082377,-9326.594869,-1149.143247
3300.059674,0.000000,-9104.533087,-2145.067394
3300.060002,0.000000,-9548.656652,-995.924147
3300.060329,0.000000,-8882.471304,0.000000
3300.060657,2220.617826,-8068.244768,612.876398
3300.060984,2664.741391,-9178.553681,1149.143247
3300.061312,962.267725,-12139.377449,2145.067394
3300.061640,1776.494261,-11251.130318,612.876398
3300.061967,2072.576638,-8068.244768,-1225.752797
3300.062295,2072.576638,-9400.615463,-536.266849
3300.062623,666.185348,-10288.862594,536.266849
3300.062950,-518.144159,-9918.759623,1225.752797
3300.063278,666.185348,-7846.182985,-1532.190996
3300.063605,1480.411884,-7402.059420,-3524.039291
3300.063933,518.144159,-8882.471304,-1225.752797
3300.064261,518.144159,-9696.697840,689.485948
3300.064588,1406.391290,-9844.739029,1838.629195
3300.064916,4219.173869,-11029.068536,536.266849
3300.065243,3552.988522,-10066.800811,306.438199
3300.065571,2516.700203,-11029.068536,1608.800546
3300.065899,3182.885551,-10436.903782,76.609550
3300.066226,2294.638420,-10584.944971,-536.266849
3300.066554,1776.494261,-9696.697840,-995.924147
3300.066881,962.267725,-7624.121203,-919.314598
3300.067209,296.082377,-8290.306550,306.438199
3300.067537,-888.247130,-9918.759623,1608.800546
3300.067864,-2072.576638,-10658.965565,1378.971896
3300.068192,148.041188,-10436.903782,-995.924147
3300.068519,1184.329507,-10881.027347,-2451.505594
3300.068847,1406.391290,-13249.686362,-1149.143247
3300.069175,222.061783,-11399.171507,383.047749
3300.069502,-222.061783,-8142.265362,383.047749
3300.069830,444.123565,-6735.874072,-766.095498
3300.070157,-370.102971,-8216.285956,-1838.629195
3300.070485,-2220.617826,-8808.450710,842.705048
3300.070813,-2664.741391,-9030.512492,1149.143247
3300.071140,-2368.659014,-10140.821405,229.828649
3300.071468,-740.205942,-8882.471304,-1608.800546
3300.071796,0.000000,-9770.718434,-1225.752797
3300.072123,740.205942,-11177.109724,612.876398
3300.072451,148.041188,-11547.212695,229.828649
3300.072778,-444.123565,-10140.821405,-229.828649
3300.073106,518.144159,-7476.080014,-1762.019645
3300.073434,-370.102971,-7476.080014,0.000000
3300.073761,-814.226536,-8956.491898,2911.162892
3300.074089,-1998.556043,-8956.491898,4213.525239
3300.074416,-2220.617826,-8216.285956,1225.752797
3300.074744,-444.123565,-9252.574275,-3447.429741
3300.075072,-2220.617826,-10510.924376,-2451.505594
3300.075399,-1258.350101,-10658.965565,-766.095498
3300.075727,-814.226536,-10584.944971,-766.095498
3300.076054,1480.411884,-10510.924376,-1838.629195
3300.076382,1554.432478,-9326.594869,-1685.410096
3300.076710,518.144159,-9474.636058,536.266849
3300.077037,296.082377,-8956.491898,2068.457845
3300.077365,518.144159,-8882.471304,1608.800546
3300.077692,518.144159,-9178.553681,76.609550
3300.078020,592.164754,-9548.656652,-1225.752797
3300.078348,-592.164754,-11103.089130,-919.314598
3300.078675,148.041188,-11399.171507,-1915.238745
3300.079003,962.267725,-11251.130318,-2374.896044
3300.079330,2072.576638,-11547.212695,-2911.162892
3300.079658,1776.494261,-9844.739029,-2681.334243
3300.079986,814.226536,-9844.739029,459.657299
3300.080313,1480.411884,-9474.636058,2145.067394
3300.080641,2294.638420,-10362.883188,2528.115143
3300.080969,2368.659014,-8438.347739,2221.676944
3300.081296,1628.453072,-6957.935855,1302.362347
3300.081624,296.082377,-10436.903782,1991.848295
3300.081951,1110.308913,-11695.253884,-612.876398
3300.082279,1406.391290,-10214.842000,-3064.381992
3300.082607,962.267725,-8364.327145,-2604.724693
3300.082934,814.226536,-9104.533087,-766.095498
3300.083262,0.000000,-11177.109724,2451.505594
3300.083589,-296.082377,-9474.636058,2298.286494
3300.083917,0.000000,-8068.244768,842.705048
3300.084245,0.000000,-7550.100608,-842.705048
3300.084572,-518.144159,-6439.791695,-153.219100
3300.084900,-740.205942,-8956.491898,1302.362347
3300.085227,222.061783,-9474.636058,76.609550
3300.085555,1406.391290,-10955.047942,-1225.752797
3300.085883,3108.864956,-10288.862594,-2451.505594
3300.086210,2368.659014,-10066.800811,-1991.848295
3300.086538,1776.494261,-10584.944971,842.705048
3300.086865,1924.535449,-9400.615463,1225.752797
3300.087193,518.144159,-9474.636058,842.705048
3300.087521,444.123565,-8364.327145,0.000000
3300.087848,-1406.391290,-9104.533087,76.609550
3300.088176,-2664.741391,-10658.965565,842.705048
3300.088503,-518.144159,-10881.027347,-2374.896044
3300.088831,0.000000,-11325.150913,-3677.258390
3300.089159,1332.370696,-10288.862594,-3217.601092
3300.089486,518.144159,-11695.253884,-842.705048
3300.089814,148.041188,-10658.965565,689.485948
3300.090142,518.144159,-9474.636058,76.609550
3300.090469,-1776.494261,-9844.739029,0.000000
3300.090797,-1850.514855,-9400.615463,0.000000
3300.091124,-2590.720797,-9474.636058,383.047749
3300.091452,-1110.308913,-9474.636058,0.000000
3300.091780,-296.082377,-9992.780217,-1838.629195
3300.092107,0.000000,-10881.027347,-1685.410096
3300.092435,1850.514855,-9770.718434,-1302.362347
3300.092762,444.123565,-9474.636058,153.219100
3300.093090,962.267725,-9030.512492,919.314598
3300.093418,-962.267725,-8068.244768,766.095498
3300.093745,-1702.473667,-9326.594869,1685.410096
3300.094073,-370.102971,-8882.471304,1072.533697
3300.094400,-1184.329507,-8956.491898,1302.362347
3300.094728,0.000000,-9844.739029,1072.533697
3300.095056,222.061783,-9252.574275,-1302.362347
3300.095383,-296.082377,-9030.512492,-2221.676944
3300.095711,518.144159,-7994.224174,-1149.143247
3300.096038,444.123565,-8438.347739,842.705048
3300.096366,2146.597232,-9400.615463,1532.190996
3300.096694,1702.473667,-9844.739029,1455.581446
3300.097021,1184.329507,-10436.903782,2374.896044
3300.097349,2146.597232,-9918.759623,766.095498
3300.097676,592.164754,-9622.677246,612.876398
3300.098004,1184.329507,-10732.986159,-306.438199
3300.098332,518.144159,-10584.944971,-1378.971896
3300.098659,518.144159,-10288.862594,-1532.190996
3300.098987,1480.411884,-10214.842000,-1991.848295
3300.099315,1332.370696,-9474.636058,-1991.848295
3300.099642,888.247130,-9474.636058,153.219100
3300.099970,-518.144159,-10807.006753,1225.752797
3300.100297,962.267725,-10955.047942,229.828649
3300.100625,1480.411884,-9178.553681,0.000000
3300.100953,-518.144159,-10214.842000,536.266849
3300.101280,-518.144159,-11399.171507,-76.609550
3300.101608,0.000000,-11029.068536,-1532.190996
3300.101935,2220.617826,-9548.656652,-3217.601092
3300.102263,1924.535449,-9030.512492,-2528.115143
3300.102591,740.205942,-10658.965565,1149.143247
3300.102918,2738.761985,-10658.965565,2221.676944
3300.103246,2960.823768,-10362.883188,1991.848295
3300.103573,1332.370696,-9030.512492,2221.676944
3300.103901,-740.205942,-8882.471304,2374.896044
3300.104229,-2294.638420,-8216.285956,383.047749
3300.104556,-2294.638420,-6883.915261,-1149.143247
3300.104884,-3997.112087,-8142.265362,-1838.629195
3300.105211,-2220.617826,-9548.656652,-2221.676944
3300.105539,-296.082377,-9400.615463,-1762.019645
3300.105867,1332.370696,-10140.821405,-1149.143247
3300.106194,2072.576638,-10436.903782,383.047749
3300.106522,1702.473667,-10881.027347,1838.629195
3300.106849,1628.453072,-8364.327145,2757.943793
3300.107177,1258.350101,-8068.244768,1608.800546
3300.107505,888.247130,-9400.615463,1378.971896
3300.107832,370.102971,-10140.821405,306.438199
3300.108160,-1702.473667,-11473.192101,0.000000
3300.108488,74.020594,-9992.780217,-2298.286494
3300.108815,0.000000,-8882.471304,-3064.381992
3300.109143,-370.102971,-11103.089130,-1149.143247
3300.109470,-1110.308913,-9770.718434,-612.876398
3300.109798,-666.185348,-10066.800811,229.828649
3300.110126,1850.514855,-10955.047942,536.266849
3300.110453,1258.350101,-11695.253884,995.924147
3300.110781,592.164754,-11029.068536,1532.190996
3300.111108,-592.164754,-9474.636058,-842.705048
3300.111436,-740.205942,-10436.903782,-2145.067394
3300.111764,-370.102971,-9400.615463,-3830.477490
3300.112091,-888.247130,-8956.491898,-2987.772442
3300.112419,-592.164754,-9030.512492,-995.924147
3300.112746,-592.164754,-9474.636058,0.000000
3300.113074,0.000000,-10807.006753,1149.143247
3300.113402,2294.638420,-9474.636058,383.047749
3300.113729,1628.453072,-9030.512492,1532.190996
3300.114057,888.247130,-9622.677246,1915.238745
3300.114384,0.000000,-9400.615463,919.314598
3300.114712,740.205942,-9622.677246,-1225.752797
3300.115040,1702.473667,-9104.533087,-2374.896044
3300.115367,518.144159,-10436.903782,612.876398
3300.115695,888.247130,-9400.615463,1685.410096
3300.116022,666.185348,-8734.430116,1302.362347
3300.116350,-592.164754,-9030.512492,919.314598
3300.116678,518.144159,-9030.512492,-842.705048
3300.117005,-444.123565,-10510.924376,0.000000
3300.117333,814.226536,-10362.883188,459.657299
3300.117661,296.082377,-9252.574275,0.000000
3300.117988,592.164754,-9918.759623,306.438199
3300.118316,2368.659014,-7772.162391,-1455.581446
3300.118643,1332.370696,-8290.306550,536.266849
3300.118971,1110.308913,-9326.594869,995.924147
3300.119299,296.082377,-10807.006753,766.095498
3300.119626,296.082377,-9992.780217,-766.095498
3300.119954,592.164754,-8660.409521,-2834.553343
3300.120281,-1036.288319,-10955.047942,-459.657299
3300.120609,592.164754,-11843.295072,-459.657299
3300.120937,148.041188,-11621.233289,536.266849
3300.121264,666.185348,-11029.068536,-1072.533697
3300.121592,1406.391290,-9770.718434,-3140.991542
3300.121919,148.041188,-9770.718434,-1225.752797
3300.122247,888.247130,-8068.244768,-229.828649
3300.122575,296.082377,-8290.306550,1991.848295
3300.122902,1702.473667,-9474.636058,1991.848295
3300.123230,2072.576638,-10214.842000,459.657299
3300.123557,518.144159,-11103.089130,0.000000
3300.123885,-666.185348,-10732.986159,0.000000
3300.124213,-1258.350101,-11251.130318,-306.438199
3300.124540,-1110.308913,-8438.347739,-2374.896044
3300.124868,-1332.370696,-7402.059420,-1532.190996
3300.125195,-2368.659014,-9104.533087,-1225.752797
3300.125523,-814.226536,-8438.347739,0.000000
3300.125851,-740.205942,-9030.512492,-153.219100
3300.126178,962.267725,-9326.594869,-1225.752797
3300.126506,740.205942,-9696.697840,-536.266849
3300.126834,518.144159,-9844.739029,1685.410096
3300.127161,2220.617826,-9918.759623,1225.752797
3300.127489,1850.514855,-10658.965565,919.314598
3300.127816,2960.823768,-8290.306550,-995.924147
3300.128144,518.144159,-9474.636058,0.000000
3300.128472,-1554.432478,-11251.130318,1225.752797
3300.128799,-370.102971,-9252.574275,-842.705048
3300.129127,-1628.453072,-8956.491898,-1149.143247
3300.129454,296.082377,-9252.574275,-1225.752797
3300.129782,0.000000,-9992.780217,612.876398
3300.130109,962.267725,-10955.047942,1685.410096
3300.130437,2294.638420,-11029.068536,76.609550
3300.130764,0.000000,-13175.665768,-689.485948
3300.131092,-666.185348,-8882.471304,-2451.505594
3300.131419,-1184.329507,-7179.997637,-1991.848295
3300.131747,-518.144159,-9918.759623,0.000000
3300.132074,0.000000,-10732.986159,-306.438199
3300.132402,-962.267725,-10732.986159,459.657299
3300.132729,518.144159,-9178.553681,-383.047749
3300.133057,370.102971,-9918.759623,-153.219100
3300.133384,666.185348,-10066.800811,612.876398
3300.133712,0.000000,-8956.491898,76.609550
3300.134039,0.000000,-9400.615463,76.609550
3300.134367,1776.494261,-9104.533087,-1072.533697
3300.134694,592.164754,-10807.006753,0.000000
3300.135022,148.041188,-10066.800811,1149.143247
3300.135350,814.226536,-8660.409521,0.000000
3300.135677,-296.082377,-9474.636058,383.047749
3300.136005,1554.432478,-8808.450710,0.000000
3300.136332,814.226536,-8438.347739,2145.067394
3300.136660,0.000000,-9252.574275,2298.286494
3300.136987,222.061783,-9992.780217,459.657299
3300.137315,-296.082377,-10584.944971,-689.485948
3300.137642,74.020594,-8586.388927,-2221.676944
3300.137970,-1036.288319,-7994.224174,-306.438199
3300.138297,592.164754,-8956.491898,0.000000
3300.138625,2368.659014,-10807.006753,0.000000
3300.138952,1776.494261,-11029.068536,995.924147
3300.139280,2368.659014,-9252.574275,536.266849
3300.139607,0.000000,-9548.656652,919.314598
3300.139935,-370.102971,-9178.553681,153.219100
3300.140262,-962.267725,-10140.821405,-1149.143247
3300.140590,-296.082377,-10066.800811,-1915.238745
3300.140917,1850.514855,-11103.089130,-1991.848295
3300.141245,592.164754,-11399.171507,229.828649
3300.141572,1776.494261,-10436.903782,536.266849
3300.141900,74.020594,-9622.677246,919.314598
3300.142227,666.185348,-8734.430116,-612.876398
3300.142555,962.267725,-6957.935855,-1455.581446
3300.142882,-888.247130,-10584.944971,689.485948
3300.143210,444.123565,-11843.295072,1072.533697
3300.143538,1776.494261,-11843.295072,-766.095498
3300.143865,1924.535449,-9474.636058,-1378.971896
3300.144193,962.267725,-9474.636058,-1072.533697
3300.144520,-1924.535449,-9696.697840,1225.752797
3300.144848,-888.247130,-8734.430116,689.485948
3300.145175,-1628.453072,-8438.347739,-919.314598
3300.145503,-1924.535449,-9770.718434,-1378.971896
3300.145830,-1776.494261,-8882.471304,-1149.143247
3300.146158,-1332.370696,-8956.491898,76.609550
3300.146485,962.267725,-9400.615463,-612.876398
3300.146813,814.226536,-11769.274478,76.609550
3300.147140,1924.535449,-9696.697840,0.000000
3300.147468,3256.906145,-8808.450710,153.219100
3300.147795,2590.720797,-8586.388927,2068.457845
3300.148123,1776.494261,-8808.450710,2757.943793
3300.148450,-1258.350101,-9474.636058,2834.553343
3300.148778,-1776.494261,-7772.162391,-153.219100
3300.149105,-1110.308913,-7772.162391,-2911.162892
3300.149433,-1110.308913,-10584.944971,-1838.629195
3300.149760,74.020594,-10658.965565,-1225.752797
3300.150088,518.144159,-11251.130318,-383.047749
3300.150415,2072.576638,-10288.862594,-2068.457845
3300.150743,1258.350101,-11547.212695,-1225.752797
3300.151071,1332.370696,-10658.965565,459.657299
3300.151398,1406.391290,-7846.182985,153.219100
3300.151726,-814.226536,-9252.574275,689.485948
3300.152053,-518.144159,-9548.656652,-459.657299
3300.152381,-666.185348,-9770.718434,-1149.143247
3300.152708,-814.226536,-10288.862594,-612.876398
3300.153036,-1258.350101,-10066.800811,-1149.143247
3300.153363,-2146.597232,-9326.594869,-1838.629195
3300.153691,962.267725,-9474.636058,-2911.162892
3300.154018,1480.411884,-11473.192101,-1225.752797
3300.154346,1554.432478,-10881.027347,842.705048
3300.154673,814.226536,-8438.347739,3524.039291
3300.155001,296.082377,-10214.842000,2834.553343
3300.155328,2220.617826,-9178.553681,306.438199
3300.155656,1628.453072,-8364.327145,-153.219100
3300.155983,-518.144159,-9474.636058,919.314598
3300.156311,-1332.370696,-10362.883188,0.000000
3300.156638,-1850.514855,-9104.533087,-1915.238745
3300.156966,0.000000,-7624.121203,-3370.820191
3300.157293,-888.247130,-10510.924376,-995.924147
3300.157621,-592.164754,-10955.047942,842.705048
3300.157948,148.041188,-8882.471304,1225.752797
3300.158276,444.123565,-9400.615463,1072.533697
3300.158604,2368.659014,-8586.388927,153.219100
3300.158931,1184.329507,-8216.285956,1455.581446
3300.159259,444.123565,-9400.615463,2834.553343
3300.159586,518.144159,-9252.574275,536.266849
3300.159914,518.144159,-9622.677246,-1762.019645
3300.160241,1258.350101,-8660.409521,-2757.943793
3300.160569,-296.082377,-10584.944971,-766.095498
3300.160896,-518.144159,-11177.109724,612.876398
3300.161224,-518.144159,-10881.027347,459.657299
3300.161551,0.000000,-10881.027347,0.000000
3300.161879,1628.453072,-9474.636058,-2068.457845
3300.162206,74.020594,-10362.883188,306.438199
3300.162534,444.123565,-11251.130318,1838.629195
3300.162861,1258.350101,-9400.615463,459.657299
3300.163189,2294.638420,-7846.182985,-1149.143247
3300.163516,2664.741391,-8290.306550,-1762.019645
3300.163844,0.000000,-11695.253884,1149.143247
3300.164171,-1480.411884,-10658.965565,2298.286494
3300.164499,-888.247130,-10214.842000,153.219100
3300.164826,-1036.288319,-9030.512492,-2145.067394
3300.165154,-1702.473667,-8956.491898,-1608.800546
3300.165481,-3478.967927,-11103.089130,536.266849
3300.165809,-1258.350101,-10807.006753,-306.438199
3300.166137,592.164754,-9548.656652,-2757.943793
3300.166464,1110.308913,-8068.244768,-3677.258390
3300.166792,1332.370696,-8586.388927,-919.314598
3300.167119,1258.350101,-9622.677246,2451.505594
3300.167447,2368.659014,-7179.997637,2911.162892
3300.167774,1850.514855,-9696.697840,2451.505594
3300.168102,2146.597232,-9770.718434,842.705048
3300.168429,1036.288319,-8586.388927,842.705048
3300.168757,-444.123565,-10584.944971,1225.752797
3300.169084,888.247130,-10881.027347,-1302.362347
3300.169412,0.000000,-11251.130318,-2604.724693
3300.169739,148.041188,-8068.244768,-3140.991542
3300.170067,444.123565,-9178.553681,-1455.581446
