#time,accel_x,accel_y,accel_z
2774.504142,-296.082377,-9400.615463,-383.047749
2774.504469,0.000000,-9474.636058,-383.047749
2774.504797,-148.041188,-9400.615463,0.000000
2774.505124,222.061783,-9548.656652,76.609550
2774.505452,592.164754,-9918.759623,0.000000
2774.505780,666.185348,-9696.697840,0.000000
2774.506107,518.144159,-9252.574275,0.000000
2774.506435,296.082377,-9400.615463,-153.219100
2774.506762,296.082377,-9474.636058,306.438199
2774.507090,222.061783,-9474.636058,-1072.533697
2774.507417,148.041188,-9548.656652,-459.657299
2774.507745,0.000000,-9992.780217,-766.095498
2774.508072,148.041188,-10288.862594,-689.485948
2774.508400,74.020594,-10362.883188,-689.485948
2774.508727,666.185348,-10436.903782,-459.657299
2774.509055,888.247130,-10510.924376,-459.657299
2774.509383,962.267725,-10362.883188,0.000000
2774.509710,666.185348,-9770.718434,0.000000
2774.510038,888.247130,-9622.677246,229.828649
2774.510365,444.123565,-9696.697840,0.000000
2774.510693,148.041188,-9622.677246,0.000000
2774.511020,0.000000,-9400.615463,-153.219100
2774.511348,0.000000,-9548.656652,-612.876398
2774.511675,0.000000,-9918.759623,0.000000
2774.512003,0.000000,-10214.842000,-383.047749
2774.512330,592.164754,-10066.800811,-229.828649
2774.512658,444.123565,-10066.800811,153.219100
2774.512985,592.164754,-9918.759623,306.438199
2774.513313,518.144159,-9622.677246,536.266849
2774.513641,296.082377,-9178.553681,689.485948
2774.513968,518.144159,-9178.553681,612.876398
2774.514296,0.000000,-8512.368333,919.314598
2774.514623,74.020594,-8364.327145,0.000000
2774.514951,0.000000,-8882.471304,0.000000
2774.515278,-222.061783,-9326.594869,-229.828649
2774.515606,-222.061783,-9622.677246,-229.828649
2774.515933,74.020594,-9474.636058,-536.266849
2774.516261,296.082377,-9474.636058,306.438199
2774.516588,1036.288319,-9622.677246,-612.876398
2774.516916,592.164754,-9622.677246,-153.219100
2774.517244,666.185348,-9474.636058,-153.219100
2774.517571,518.144159,-9548.656652,-229.828649
2774.517899,148.041188,-9548.656652,-306.438199
2774.518226,222.061783,-9252.574275,-766.095498
2774.518554,518.144159,-9622.677246,-766.095498
2774.518881,962.267725,-9252.574275,-1302.362347
2774.519209,2072.576638,-9844.739029,-1302.362347
2774.519536,2960.823768,-9548.656652,-1149.143247
2774.519864,3849.070898,-9622.677246,-842.705048
2774.520191,4885.359217,-10807.006753,-766.095498
2774.520519,5699.585753,-10807.006753,-612.876398
2774.520847,6809.894666,-10288.862594,0.000000
2774.521174,7328.038826,-9696.697840,-689.485948
2774.521502,7698.141797,-10214.842000,0.000000
2774.521829,7772.162391,-10436.903782,0.000000
2774.522157,7402.059420,-10214.842000,76.609550
2774.522484,7402.059420,-10066.800811,0.000000
2774.522812,8364.327145,-9326.594869,-306.438199
2774.523139,8660.409521,-8956.491898,-536.266849
2774.523467,9104.533087,-9178.553681,76.609550
2774.523794,10955.047942,-8734.430116,842.705048
2774.524122,11547.212695,-9400.615463,689.485948
2774.524450,11843.295072,-9326.594869,919.314598
2774.524777,11991.336260,-8956.491898,842.705048
2774.525105,11547.212695,-8956.491898,1225.752797
2774.525432,12065.356855,-9104.533087,1455.581446
2774.525760,12657.521608,-9474.636058,689.485948
2774.526087,13101.645173,-9474.636058,0.000000
2774.526415,14063.912898,-9770.718434,612.876398
2774.526742,14878.139434,-9622.677246,919.314598
2774.527070,14656.077652,-8438.347739,612.876398
2774.527397,14137.933492,-8882.471304,1455.581446
2774.527725,13693.809927,-9770.718434,1915.238745
2774.528052,13027.624579,-10288.862594,995.924147
2774.528380,12213.398043,-9474.636058,459.657299
2774.528708,10658.965565,-8290.306550,0.000000
2774.529035,9844.739029,-9548.656652,689.485948
2774.529363,9252.574275,-9918.759623,1072.533697
2774.529690,8290.306550,-9844.739029,76.609550
2774.530018,7328.038826,-10214.842000,-383.047749
2774.530345,5847.626942,-10436.903782,-1225.752797
2774.530673,4367.215058,-10140.821405,-1149.143247
2774.531000,3627.009116,-10362.883188,-612.876398
2774.531328,2442.679609,-8660.409521,-766.095498
2774.531655,3034.844362,-9178.553681,-919.314598
2774.531983,4145.153275,-10510.924376,-306.438199
2774.532311,4885.359217,-11621.233289,76.609550
2774.532638,3775.050304,-10658.965565,689.485948
2774.532966,2664.741391,-11103.089130,76.609550
2774.533293,518.144159,-10807.006753,0.000000
2774.533621,-518.144159,-8882.471304,-1532.190996
2774.533948,-222.061783,-7105.977043,-1685.410096
2774.534276,962.267725,-8734.430116,-612.876398
2774.534603,2368.659014,-10510.924376,1149.143247
2774.534931,1554.432478,-11843.295072,2221.676944
2774.535258,-222.061783,-10955.047942,919.314598
2774.535586,-1480.411884,-8882.471304,-995.924147
2774.535914,-2664.741391,-7920.203579,-1991.848295
2774.536241,-2368.659014,-9178.553681,-1072.533697
2774.536569,-740.205942,-9844.739029,0.000000
2774.536896,-740.205942,-9844.739029,1762.019645
2774.537224,-740.205942,-9326.594869,1915.238745
2774.537551,-1924.535449,-8068.244768,536.266849
2774.537879,-4663.297435,-7846.182985,383.047749
2774.538206,-5181.441594,-8956.491898,-612.876398
2774.538534,-3775.050304,-9474.636058,-2145.067394
2774.538861,-1554.432478,-10066.800811,-2757.943793
2774.539189,444.123565,-8586.388927,-995.924147
2774.539517,1480.411884,-7254.018232,1149.143247
2774.539844,1036.288319,-8512.368333,2757.943793
2774.540172,296.082377,-11177.109724,1838.629195
2774.540499,222.061783,-11251.130318,-1455.581446
2774.540827,1332.370696,-9474.636058,-3447.429741
2774.541154,2442.679609,-8438.347739,-3294.210641
2774.541482,2960.823768,-9178.553681,0.000000
2774.541809,2442.679609,-10807.006753,1991.848295
2774.542137,2442.679609,-12213.398043,1685.410096
2774.542464,1776.494261,-10807.006753,-919.314598
2774.542792,2442.679609,-8216.285956,-2911.162892
2774.543119,2590.720797,-7920.203579,-2451.505594
2774.543447,2294.638420,-9770.718434,0.000000
2774.543775,2146.597232,-11103.089130,1685.410096
2774.544102,2072.576638,-10510.924376,919.314598
2774.544430,2516.700203,-8290.306550,-842.705048
2774.544757,4071.132681,-8660.409521,-1838.629195
2774.545085,3404.947333,-10362.883188,-766.095498
2774.545412,2590.720797,-12731.542202,76.609550
2774.545740,2442.679609,-12805.562797,-306.438199
2774.546067,2960.823768,-10510.924376,-1915.238745
2774.546395,2886.803174,-8438.347739,-1072.533697
2774.546722,2220.617826,-9178.553681,459.657299
2774.547050,1702.473667,-11029.068536,2145.067394
2774.547378,592.164754,-10362.883188,1685.410096
2774.547705,222.061783,-8734.430116,153.219100
2774.548033,518.144159,-7254.018232,-229.828649
2774.548360,592.164754,-7846.182985,919.314598
2774.548688,-222.061783,-8956.491898,2451.505594
2774.549015,74.020594,-11177.109724,919.314598
2774.549343,296.082377,-11029.068536,-536.266849
2774.549670,296.082377,-8882.471304,-1532.190996
2774.549998,0.000000,-8512.368333,-536.266849
2774.550325,-592.164754,-10362.883188,1762.019645
2774.550653,-370.102971,-11991.336260,1762.019645
2774.550981,-962.267725,-12139.377449,459.657299
2774.551308,-1924.535449,-8808.450710,0.000000
2774.551636,-1998.556043,-6291.750507,-1149.143247
2774.551963,-2516.700203,-7846.182985,-229.828649
2774.552291,-3108.864956,-10214.842000,919.314598
2774.552618,-2738.761985,-9992.780217,153.219100
2774.552946,-1406.391290,-9104.533087,-1532.190996
2774.553273,-1702.473667,-8216.285956,-919.314598
2774.553601,-2294.638420,-8956.491898,229.828649
2774.553928,-1480.411884,-10214.842000,689.485948
2774.554256,-1184.329507,-11251.130318,0.000000
2774.554584,-1258.350101,-10436.903782,-1455.581446
2774.554911,-666.185348,-9400.615463,-1762.019645
2774.555239,-1554.432478,-8512.368333,-229.828649
2774.555566,-2146.597232,-9622.677246,383.047749
2774.555894,-1628.453072,-11917.315666,-536.266849
2774.556221,-962.267725,-10807.006753,-1915.238745
2774.556549,-814.226536,-7772.162391,-2451.505594
2774.556876,0.000000,-7105.977043,-1225.752797
2774.557204,370.102971,-9104.533087,383.047749
2774.557531,1036.288319,-11177.109724,919.314598
2774.557859,1628.453072,-11325.150913,229.828649
2774.558186,1850.514855,-8956.491898,-919.314598
2774.558514,2516.700203,-8216.285956,-1532.190996
2774.558842,2072.576638,-10066.800811,-383.047749
2774.559169,1628.453072,-12361.439231,536.266849
2774.559497,1554.432478,-11769.274478,0.000000
2774.559824,1850.514855,-9326.594869,-1378.971896
2774.560152,1776.494261,-9400.615463,-1762.019645
2774.560479,2146.597232,-9474.636058,-995.924147
2774.560807,1332.370696,-9400.615463,766.095498
2774.561134,1850.514855,-10955.047942,1302.362347
2774.561462,1924.535449,-10436.903782,459.657299
2774.561789,2072.576638,-7698.141797,229.828649
2774.562117,1554.432478,-6661.853478,612.876398
2774.562445,1184.329507,-8438.347739,1378.971896
2774.562772,1924.535449,-11399.171507,919.314598
2774.563100,1776.494261,-11621.233289,0.000000
2774.563427,888.247130,-9474.636058,-1302.362347
2774.563755,1184.329507,-8438.347739,-1302.362347
2774.564082,1110.308913,-10510.924376,0.000000
2774.564410,592.164754,-11991.336260,1532.190996
2774.564737,888.247130,-11621.233289,0.000000
2774.565065,1406.391290,-8882.471304,0.000000
2774.565392,2072.576638,-7105.977043,0.000000
2774.565720,1332.370696,-8438.347739,919.314598
2774.566048,740.205942,-10214.842000,2221.676944
2774.566375,370.102971,-10066.800811,1302.362347
2774.566703,-296.082377,-9400.615463,-612.876398
2774.567030,296.082377,-8216.285956,-2911.162892
2774.567358,0.000000,-7846.182985,-766.095498
2774.567685,-666.185348,-10066.800811,306.438199
2774.568013,-666.185348,-12953.603985,229.828649
2774.568340,-740.205942,-11325.150913,-919.314598
2774.568668,-814.226536,-8364.327145,-2221.676944
2774.568996,-1554.432478,-8068.244768,-842.705048
2774.569323,-2072.576638,-10066.800811,-383.047749
2774.569651,-2294.638420,-10807.006753,536.266849
2774.569978,-2072.576638,-9696.697840,-459.657299
2774.570306,-1702.473667,-7402.059420,-1378.971896
2774.570634,-1184.329507,-7105.977043,-1149.143247
2774.570961,-1480.411884,-8882.471304,0.000000
2774.571289,-1776.494261,-11177.109724,229.828649
2774.571616,-740.205942,-12287.418637,-1532.190996
2774.571944,0.000000,-9400.615463,-2528.115143
2774.572271,296.082377,-8364.327145,-1608.800546
2774.572599,1184.329507,-9548.656652,0.000000
2774.572927,1036.288319,-11399.171507,1608.800546
2774.573254,296.082377,-12065.356855,919.314598
2774.573582,-296.082377,-10140.821405,-612.876398
2774.573909,-592.164754,-7920.203579,-2068.457845
2774.574237,-1110.308913,-7920.203579,-1532.190996
2774.574565,-1184.329507,-10288.862594,0.000000
2774.574892,-1110.308913,-11695.253884,383.047749
2774.575220,0.000000,-11029.068536,-383.047749
2774.575547,888.247130,-8364.327145,-1302.362347
2774.575875,962.267725,-8068.244768,-383.047749
2774.576202,962.267725,-9622.677246,1302.362347
2774.576530,1258.350101,-11695.253884,1455.581446
2774.576858,1850.514855,-11103.089130,-612.876398
2774.577185,2072.576638,-8660.409521,-919.314598
2774.577513,1924.535449,-7105.977043,0.000000
2774.577840,1480.411884,-9030.512492,1762.019645
2774.578168,1776.494261,-12287.418637,2298.286494
2774.578496,2368.659014,-11843.295072,1225.752797
2774.578823,2516.700203,-9252.574275,-383.047749
2774.579151,2442.679609,-7031.956449,-842.705048
2774.579478,2368.659014,-7772.162391,536.266849
2774.579806,1332.370696,-10066.800811,2451.505594
2774.580134,74.020594,-11177.109724,1838.629195
2774.580461,0.000000,-9474.636058,0.000000
2774.580789,1036.288319,-7698.141797,-1685.410096
2774.581116,296.082377,-7846.182985,-919.314598
2774.581444,148.041188,-11399.171507,306.438199
2774.581771,74.020594,-12805.562797,0.000000
2774.582099,592.164754,-11991.336260,-1225.752797
2774.582427,518.144159,-9474.636058,-2451.505594
2774.582754,1258.350101,-9252.574275,-1149.143247
2774.583082,0.000000,-10140.821405,995.924147
2774.583409,0.000000,-11843.295072,1149.143247
2774.583737,1036.288319,-11399.171507,0.000000
2774.584065,1036.288319,-9326.594869,-995.924147
2774.584392,370.102971,-7550.100608,-995.924147
2774.584720,-962.267725,-8142.265362,536.266849
2774.585047,-1332.370696,-10140.821405,1455.581446
2774.585375,-518.144159,-11769.274478,-842.705048
2774.585703,-888.247130,-9252.574275,-2145.067394
2774.586030,296.082377,-7328.038826,-2298.286494
2774.586358,444.123565,-9178.553681,-536.266849
2774.586685,0.000000,-12287.418637,766.095498
2774.587013,-1036.288319,-12361.439231,766.095498
2774.587340,-518.144159,-10066.800811,-766.095498
2774.587668,-296.082377,-7698.141797,-1685.410096
2774.587996,-592.164754,-7476.080014,-459.657299
2774.588323,-888.247130,-9178.553681,1991.848295
2774.588651,-814.226536,-9918.759623,2145.067394
2774.588978,-962.267725,-8956.491898,229.828649
2774.589306,-1036.288319,-7476.080014,-536.266849
2774.589634,-1850.514855,-7179.997637,-153.219100
2774.589961,-1924.535449,-8660.409521,1149.143247
2774.590289,0.000000,-10881.027347,612.876398
2774.590616,962.267725,-11769.274478,-229.828649
2774.590944,1628.453072,-9918.759623,-766.095498
2774.591272,1480.411884,-8364.327145,0.000000
2774.591599,370.102971,-9474.636058,919.314598
2774.591927,-148.041188,-11473.192101,459.657299
2774.592254,-518.144159,-11177.109724,-689.485948
2774.592582,0.000000,-8660.409521,-2068.457845
2774.592909,1258.350101,-7402.059420,-1685.410096
2774.593237,1036.288319,-8512.368333,-153.219100
2774.593565,666.185348,-11325.150913,1915.238745
2774.593892,962.267725,-12583.501014,1072.533697
2774.594220,1184.329507,-10955.047942,-1378.971896
2774.594547,1110.308913,-8660.409521,-2145.067394
2774.594875,592.164754,-8438.347739,-689.485948
2774.595203,518.144159,-9992.780217,919.314598
2774.595530,666.185348,-11325.150913,995.924147
2774.595858,296.082377,-11177.109724,0.000000
2774.596185,74.020594,-9104.533087,-1762.019645
2774.596513,-296.082377,-8216.285956,-1455.581446
2774.596841,-592.164754,-9844.739029,-383.047749
2774.597168,0.000000,-11769.274478,-306.438199
2774.597496,1036.288319,-11547.212695,-1225.752797
2774.597823,1702.473667,-9252.574275,-919.314598
2774.598151,2220.617826,-7402.059420,-306.438199
2774.598478,1628.453072,-8512.368333,1302.362347
2774.598806,888.247130,-10362.883188,2374.896044
2774.599134,814.226536,-10436.903782,919.314598
2774.599461,1850.514855,-9030.512492,-1302.362347
2774.599789,2442.679609,-7402.059420,-919.314598
2774.600116,2072.576638,-7772.162391,612.876398
2774.600444,592.164754,-9992.780217,1991.848295
2774.600772,370.102971,-11843.295072,842.705048
2774.601099,222.061783,-11103.089130,-1072.533697
2774.601427,74.020594,-8660.409521,-2451.505594
2774.601754,-296.082377,-7476.080014,-1532.190996
2774.602082,0.000000,-9474.636058,612.876398
2774.602410,-296.082377,-11029.068536,1378.971896
2774.602737,-592.164754,-10510.924376,76.609550
2774.603065,-1036.288319,-7550.100608,-919.314598
2774.603392,-814.226536,-6735.874072,-842.705048
2774.603720,-370.102971,-8734.430116,-229.828649
2774.604047,0.000000,-11621.233289,0.000000
2774.604375,-370.102971,-12213.398043,-536.266849
2774.604703,0.000000,-10066.800811,-1762.019645
2774.605030,148.041188,-8364.327145,-1685.410096
2774.605358,0.000000,-9474.636058,-459.657299
2774.605685,-222.061783,-12879.583391,919.314598
2774.606013,296.082377,-12953.603985,76.609550
2774.606341,740.205942,-9770.718434,-1455.581446
2774.606668,1036.288319,-7179.997637,-1532.190996
2774.606996,222.061783,-7994.224174,-229.828649
2774.607323,-592.164754,-9992.780217,1608.800546
2774.607651,-1258.350101,-11177.109724,1378.971896
2774.607979,-814.226536,-10510.924376,-1302.362347
2774.608306,592.164754,-8438.347739,-2604.724693
2774.608634,1184.329507,-8142.265362,-689.485948
2774.608961,370.102971,-9696.697840,1838.629195
2774.609289,518.144159,-11769.274478,2298.286494
2774.609616,592.164754,-11177.109724,76.609550
2774.609944,592.164754,-8882.471304,-1532.190996
2774.610272,518.144159,-7402.059420,-919.314598
2774.610599,370.102971,-8068.244768,1072.533697
2774.610927,0.000000,-10807.006753,2681.334243
2774.611254,0.000000,-11547.212695,766.095498
2774.611582,0.000000,-9622.677246,-1685.410096
2774.611910,0.000000,-6883.915261,-2145.067394
2774.612237,-518.144159,-7698.141797,-612.876398
2774.612565,0.000000,-10955.047942,1072.533697
2774.612892,666.185348,-12361.439231,689.485948
2774.613220,1406.391290,-10066.800811,-229.828649
2774.613547,2294.638420,-7105.977043,-612.876398
2774.613875,1258.350101,-7994.224174,153.219100
2774.614203,962.267725,-10140.821405,1685.410096
2774.614530,518.144159,-11621.233289,919.314598
2774.614858,592.164754,-10362.883188,-995.924147
2774.615185,1110.308913,-8512.368333,-1991.848295
2774.615513,1258.350101,-8068.244768,-919.314598
2774.615841,814.226536,-9918.759623,1302.362347
2774.616168,296.082377,-11251.130318,1149.143247
2774.616496,222.061783,-11547.212695,-536.266849
2774.616823,0.000000,-8808.450710,-2068.457845
2774.617151,0.000000,-7772.162391,-1762.019645
2774.617479,74.020594,-9548.656652,229.828649
2774.617806,0.000000,-11769.274478,919.314598
2774.618134,370.102971,-11695.253884,153.219100
2774.618461,370.102971,-9918.759623,-1608.800546
2774.618789,444.123565,-8068.244768,-1915.238745
2774.619116,0.000000,-8956.491898,-459.657299
2774.619444,-370.102971,-11177.109724,383.047749
2774.619772,-222.061783,-11843.295072,76.609550
2774.620099,444.123565,-10066.800811,-1838.629195
2774.620427,740.205942,-7031.956449,-2145.067394
2774.620754,888.247130,-7624.121203,153.219100
2774.621082,740.205942,-9992.780217,2374.896044
2774.621410,1184.329507,-11769.274478,2221.676944
2774.621737,1258.350101,-10140.821405,459.657299
2774.622065,1924.535449,-8068.244768,-995.924147
2774.622392,444.123565,-7402.059420,-153.219100
2774.622720,-888.247130,-8956.491898,1455.581446
2774.623048,-2072.576638,-10510.924376,689.485948
2774.623375,-1924.535449,-10732.986159,-1225.752797
2774.623703,-1406.391290,-8586.388927,-2987.772442
2774.624030,-222.061783,-8068.244768,-1608.800546
2774.624358,0.000000,-9474.636058,536.266849
2774.624685,888.247130,-11325.150913,2451.505594
2774.625013,1480.411884,-12435.459826,383.047749
2774.625341,1406.391290,-10288.862594,-919.314598
2774.625668,1110.308913,-7994.224174,-1225.752797
2774.625996,444.123565,-8142.265362,0.000000
2774.626323,74.020594,-10955.047942,1455.581446
2774.626651,74.020594,-11843.295072,1149.143247
2774.626979,0.000000,-9548.656652,-995.924147
2774.627306,666.185348,-7698.141797,-1838.629195
2774.627634,740.205942,-8290.306550,-1608.800546
2774.627961,-296.082377,-9844.739029,76.609550
2774.628289,-370.102971,-11399.171507,536.266849
2774.628617,962.267725,-11251.130318,-766.095498
2774.628944,1628.453072,-8734.430116,-842.705048
2774.629272,1776.494261,-7846.182985,306.438199
2774.629599,962.267725,-9178.553681,1991.848295
2774.629927,-296.082377,-11103.089130,1302.362347
2774.630254,-296.082377,-11103.089130,-689.485948
2774.630582,-740.205942,-9030.512492,-2298.286494
2774.630910,0.000000,-8068.244768,-1685.410096
2774.631237,518.144159,-9474.636058,0.000000
2774.631565,518.144159,-10584.944971,1838.629195
2774.631892,370.102971,-10807.006753,153.219100
2774.632220,0.000000,-9400.615463,-919.314598
2774.632548,-222.061783,-7772.162391,-995.924147
2774.632875,0.000000,-8142.265362,0.000000
2774.633203,518.144159,-9992.780217,1378.971896
2774.633530,444.123565,-11473.192101,1685.410096
2774.633858,1110.308913,-11029.068536,-459.657299
2774.634186,1258.350101,-8364.327145,-2068.457845
2774.634513,888.247130,-7920.203579,-1225.752797
2774.634841,222.061783,-10140.821405,0.000000
2774.635168,-296.082377,-11991.336260,76.609550
2774.635496,444.123565,-11473.192101,-1072.533697
2774.635823,1702.473667,-9400.615463,-1685.410096
2774.636151,1554.432478,-8956.491898,-612.876398
2774.636479,1110.308913,-9844.739029,2068.457845
2774.636806,296.082377,-11399.171507,1762.019645
2774.637134,-222.061783,-11177.109724,-383.047749
2774.637461,-1036.288319,-9030.512492,-2221.676944
2774.637789,-1406.391290,-7254.018232,-2068.457845
2774.638117,-1332.370696,-7772.162391,-536.266849
2774.638444,-1702.473667,-10362.883188,0.000000
2774.638772,-1332.370696,-12361.439231,-1302.362347
2774.639099,-1184.329507,-10362.883188,-1991.848295
2774.639427,222.061783,-7624.121203,-1991.848295
2774.639755,592.164754,-8586.388927,-306.438199
2774.640082,444.123565,-11029.068536,1608.800546
2774.640410,1332.370696,-11473.192101,2298.286494
2774.640737,1406.391290,-10288.862594,0.000000
2774.641065,1110.308913,-7550.100608,-919.314598
2774.641392,1406.391290,-7031.956449,-459.657299
2774.641720,444.123565,-8660.409521,1225.752797
2774.642048,-222.061783,-10362.883188,1915.238745
2774.642375,222.061783,-11769.274478,306.438199
2774.642703,1258.350101,-9178.553681,-995.924147
2774.643030,1406.391290,-6661.853478,-995.924147
2774.643358,370.102971,-8586.388927,536.266849
2774.643686,-296.082377,-11103.089130,1149.143247
2774.644013,-444.123565,-11695.253884,383.047749
2774.644341,-296.082377,-8734.430116,-842.705048
2774.644668,0.000000,-7179.997637,-995.924147
2774.644996,0.000000,-8290.306550,76.609550
2774.645323,0.000000,-11251.130318,842.705048
2774.645651,-1184.329507,-11843.295072,0.000000
2774.645979,-888.247130,-9770.718434,-2068.457845
2774.646306,-222.061783,-8364.327145,-2604.724693
2774.646634,296.082377,-8808.450710,-1072.533697
2774.646961,518.144159,-10584.944971,1072.533697
2774.647289,1258.350101,-11917.315666,1915.238745
2774.647617,1554.432478,-10955.047942,459.657299
2774.647944,1184.329507,-8438.347739,-612.876398
2774.648272,888.247130,-7402.059420,-842.705048
2774.648599,-518.144159,-9030.512492,0.000000
2774.648927,-740.205942,-11843.295072,689.485948
2774.649255,-444.123565,-11621.233289,-689.485948
2774.649582,74.020594,-9252.574275,-1685.410096
2774.649910,444.123565,-8068.244768,-1225.752797
2774.650237,222.061783,-9696.697840,459.657299
2774.650565,-740.205942,-11843.295072,1302.362347
2774.650892,-888.247130,-11621.233289,0.000000
2774.651220,-592.164754,-8586.388927,-1991.848295
2774.651548,0.000000,-6439.791695,-1532.190996
2774.651875,888.247130,-8512.368333,689.485948
2774.652203,1036.288319,-9622.677246,2834.553343
2774.652530,1110.308913,-10881.027347,1608.800546
2774.652858,814.226536,-9770.718434,-766.095498
2774.653186,666.185348,-7994.224174,-1838.629195
2774.653513,592.164754,-7846.182985,-1072.533697
2774.653841,296.082377,-10436.903782,612.876398
2774.654168,0.000000,-11843.295072,919.314598
2774.654496,962.267725,-11399.171507,-459.657299
2774.654824,1332.370696,-8142.265362,-1072.533697
2774.655151,814.226536,-6661.853478,-995.924147
2774.655479,-296.082377,-8956.491898,842.705048
2774.655806,-296.082377,-11621.233289,1225.752797
2774.656134,0.000000,-10807.006753,-536.266849
2774.656461,0.000000,-8216.285956,-1991.848295
2774.656789,814.226536,-7328.038826,-1685.410096
2774.657117,740.205942,-9770.718434,919.314598
2774.657444,296.082377,-11991.336260,1455.581446
2774.657772,148.041188,-12213.398043,0.000000
2774.658099,740.205942,-10140.821405,-2068.457845
2774.658427,1036.288319,-8142.265362,-1762.019645
2774.658755,148.041188,-8660.409521,306.438199
2774.659082,740.205942,-10584.944971,995.924147
2774.659410,444.123565,-10881.027347,612.876398
2774.659737,-370.102971,-10066.800811,-153.219100
2774.660065,-888.247130,-8586.388927,-1685.410096
2774.660393,-962.267725,-7920.203579,-1608.800546
2774.660720,-1110.308913,-9844.739029,-536.266849
2774.661048,-370.102971,-12509.480420,766.095498
2774.661375,592.164754,-12139.377449,-612.876398
2774.661703,1480.411884,-8364.327145,-842.705048
2774.662030,1776.494261,-7105.977043,-306.438199
2774.662358,888.247130,-9622.677246,1149.143247
2774.662686,592.164754,-11621.233289,1608.800546
2774.663013,0.000000,-10658.965565,0.000000
2774.663341,222.061783,-7550.100608,-1149.143247
2774.663668,888.247130,-6883.915261,-1072.533697
2774.663996,0.000000,-8734.430116,1532.190996
2774.664324,370.102971,-10436.903782,2987.772442
2774.664651,592.164754,-10881.027347,1072.533697
2774.664979,518.144159,-9326.594869,-689.485948
2774.665306,-148.041188,-7328.038826,-1072.533697
2774.665634,-296.082377,-7772.162391,459.657299
2774.665962,-444.123565,-9474.636058,1532.190996
2774.666289,0.000000,-10584.944971,766.095498
2774.666617,-370.102971,-10362.883188,-919.314598
2774.666944,-592.164754,-7994.224174,-1608.800546
2774.667272,0.000000,-7698.141797,-1378.971896
2774.667599,592.164754,-10881.027347,-689.485948
2774.667927,962.267725,-13619.789333,306.438199
2774.668255,1184.329507,-12657.521608,-766.095498
2774.668582,2368.659014,-8808.450710,-2145.067394
2774.668910,2516.700203,-7846.182985,-1838.629195
2774.669237,1332.370696,-9992.780217,919.314598
2774.669565,888.247130,-11769.274478,1838.629195
2774.669892,518.144159,-11177.109724,229.828649
2774.670220,740.205942,-8734.430116,-1685.410096
2774.670547,592.164754,-7254.018232,-1149.143247
2774.670875,74.020594,-8586.388927,842.705048
2774.671202,-1036.288319,-10732.986159,1072.533697
2774.671529,-740.205942,-11917.315666,-612.876398
2774.671857,-962.267725,-10214.842000,-2757.943793
2774.672184,-370.102971,-8364.327145,-2298.286494
2774.672511,518.144159,-8808.450710,0.000000
2774.672839,444.123565,-10732.986159,1378.971896
2774.673166,518.144159,-11991.336260,919.314598
2774.673494,962.267725,-10732.986159,-919.314598
2774.673821,370.102971,-7328.038826,-1378.971896
2774.674148,740.205942,-7105.977043,-229.828649
2774.674476,592.164754,-9474.636058,1302.362347
2774.674803,370.102971,-10362.883188,1685.410096
2774.675131,592.164754,-9992.780217,766.095498
2774.675458,740.205942,-8068.244768,0.000000
2774.675785,518.144159,-7550.100608,-612.876398
2774.676113,222.061783,-9400.615463,306.438199
2774.676440,74.020594,-11843.295072,1149.143247
2774.676768,666.185348,-11991.336260,153.219100
2774.677095,962.267725,-9400.615463,-1072.533697
2774.677422,1036.288319,-7846.182985,-766.095498
2774.677750,222.061783,-8586.388927,612.876398
2774.678077,-592.164754,-10510.924376,229.828649
2774.678405,-888.247130,-11029.068536,-536.266849
2774.678732,-666.185348,-9992.780217,-2145.067394
2774.679059,444.123565,-8364.327145,-1991.848295
2774.679387,888.247130,-9030.512492,-842.705048
2774.679714,518.144159,-10732.986159,1378.971896
2774.680041,1554.432478,-13397.727550,76.609550
2774.680369,1406.391290,-12805.562797,-766.095498
2774.680696,592.164754,-9326.594869,-1915.238745
2774.681024,-296.082377,-7179.997637,-842.705048
2774.681351,-1184.329507,-9178.553681,459.657299
2774.681678,-1998.556043,-11177.109724,1072.533697
2774.682006,-1850.514855,-10436.903782,-459.657299
2774.682333,-962.267725,-7624.121203,-2451.505594
2774.682661,0.000000,-6587.832884,-1685.410096
2774.682988,0.000000,-9474.636058,-689.485948
2774.683315,0.000000,-11769.274478,766.095498
2774.683643,518.144159,-11991.336260,536.266849
2774.683970,1332.370696,-9252.574275,-766.095498
2774.684298,2146.597232,-7254.018232,-459.657299
2774.684625,1924.535449,-7994.224174,842.705048
2774.684952,1480.411884,-9844.739029,2987.772442
2774.685280,1036.288319,-11029.068536,2374.896044
2774.685607,518.144159,-9474.636058,0.000000
2774.685935,0.000000,-6957.935855,-1532.190996
2774.686262,-74.020594,-7476.080014,-766.095498
2774.686589,-444.123565,-9178.553681,229.828649
2774.686917,-148.041188,-11473.192101,0.000000
2774.687244,0.000000,-11621.233289,-1302.362347
2774.687571,518.144159,-9474.636058,-2068.457845
2774.687899,1036.288319,-7994.224174,-766.095498
2774.688226,1036.288319,-10510.924376,842.705048
2774.688554,222.061783,-12731.542202,1455.581446
2774.688881,0.000000,-11473.192101,-842.705048
2774.689208,444.123565,-8512.368333,-2451.505594
2774.689536,814.226536,-6661.853478,-2757.943793
2774.689863,740.205942,-8956.491898,-536.266849
2774.690191,1036.288319,-11843.295072,1762.019645
2774.690518,740.205942,-12139.377449,1149.143247
2774.690845,888.247130,-10066.800811,-1149.143247
2774.691173,2442.679609,-9178.553681,-2374.896044
2774.691500,1850.514855,-9178.553681,0.000000
2774.691828,518.144159,-10288.862594,1685.410096
2774.692155,0.000000,-11177.109724,1378.971896
2774.692482,0.000000,-10288.862594,-689.485948
2774.692810,0.000000,-7846.182985,-1762.019645
2774.693137,-370.102971,-7476.080014,-229.828649
2774.693465,-1258.350101,-9844.739029,842.705048
2774.693792,-962.267725,-11917.315666,842.705048
2774.694119,-1110.308913,-11177.109724,-1455.581446
2774.694447,-888.247130,-8586.388927,-2451.505594
2774.694774,0.000000,-7476.080014,-1072.533697
2774.695101,666.185348,-9252.574275,1072.533697
2774.695429,888.247130,-10955.047942,2374.896044
2774.695756,2146.597232,-10658.965565,1378.971896
2774.696084,2368.659014,-7846.182985,153.219100
2774.696411,2294.638420,-6365.771101,229.828649
2774.696738,888.247130,-7550.100608,842.705048
2774.697066,-888.247130,-10214.842000,1455.581446
2774.697393,-1332.370696,-11843.295072,0.000000
2774.697721,-740.205942,-9992.780217,-2374.896044
2774.698048,592.164754,-8290.306550,-2681.334243
2774.698375,-222.061783,-9252.574275,0.000000
2774.698703,-666.185348,-11917.315666,1991.848295
2774.699030,-444.123565,-12657.521608,1532.190996
2774.699358,-666.185348,-9844.739029,-995.924147
2774.699685,-666.185348,-6587.832884,-2145.067394
2774.700012,0.000000,-7328.038826,-612.876398
2774.700340,518.144159,-9474.636058,766.095498
2774.700667,74.020594,-11029.068536,1455.581446
2774.700994,0.000000,-11029.068536,-459.657299
2774.701322,370.102971,-9918.759623,-1915.238745
2774.701649,814.226536,-8808.450710,-2145.067394
2774.701977,1036.288319,-10362.883188,-995.924147
2774.702304,592.164754,-12509.480420,536.266849
2774.702631,740.205942,-11769.274478,76.609550
2774.702959,1332.370696,-9474.636058,-842.705048
2774.703286,1110.308913,-6809.894666,-612.876398
2774.703614,370.102971,-7105.977043,536.266849
2774.703941,-518.144159,-10362.883188,1532.190996
2774.704268,-666.185348,-11843.295072,536.266849
2774.704596,74.020594,-9474.636058,-1608.800546
2774.704923,1036.288319,-7254.018232,-2298.286494
2774.705251,222.061783,-8142.265362,0.000000
2774.705578,0.000000,-10584.944971,1532.190996
2774.705905,74.020594,-11473.192101,229.828649
2774.706233,0.000000,-10140.821405,-1149.143247
2774.706560,74.020594,-7920.203579,-1455.581446
2774.706888,1258.350101,-7254.018232,0.000000
2774.707215,1406.391290,-8808.450710,2374.896044
2774.707542,1406.391290,-12361.439231,2528.115143
2774.707870,666.185348,-10807.006753,919.314598
2774.708197,518.144159,-8290.306550,-995.924147
2774.708524,444.123565,-7105.977043,-1225.752797
2774.708852,0.000000,-8882.471304,-153.219100
2774.709179,-888.247130,-11251.130318,919.314598
2774.709507,-740.205942,-11769.274478,76.609550
2774.709834,370.102971,-9918.759623,-1991.848295
2774.710161,1258.350101,-7698.141797,-2221.676944
2774.710489,814.226536,-8586.388927,-612.876398
2774.710816,518.144159,-11325.150913,1149.143247
2774.711144,888.247130,-12213.398043,306.438199
2774.711471,1628.453072,-10066.800811,-689.485948
2774.711798,1776.494261,-7550.100608,-766.095498
2774.712126,1924.535449,-8956.491898,153.219100
2774.712453,592.164754,-11251.130318,2068.457845
2774.712781,0.000000,-12287.418637,1072.533697
2774.713108,0.000000,-11621.233289,-1378.971896
2774.713435,-444.123565,-8438.347739,-2451.505594
2774.713763,-296.082377,-7105.977043,-1838.629195
2774.714090,-814.226536,-9474.636058,536.266849
2774.714418,-888.247130,-11621.233289,919.314598
2774.714745,0.000000,-11325.150913,153.219100
2774.715072,0.000000,-8142.265362,-1149.143247
2774.715400,0.000000,-7179.997637,-1072.533697
2774.715727,0.000000,-8956.491898,229.828649
2774.716054,-296.082377,-11621.233289,1302.362347
2774.716382,-148.041188,-11769.274478,0.000000
2774.716709,666.185348,-9400.615463,-1608.800546
2774.717037,740.205942,-7698.141797,-1149.143247
2774.717364,740.205942,-8438.347739,459.657299
2774.717691,814.226536,-10510.924376,2145.067394
2774.718019,74.020594,-10436.903782,1762.019645
2774.718346,-444.123565,-9252.574275,-306.438199
2774.718674,-592.164754,-7402.059420,-1685.410096
2774.719001,-518.144159,-7402.059420,-842.705048
2774.719328,-444.123565,-9474.636058,1225.752797
2774.719656,0.000000,-11769.274478,766.095498
2774.719983,0.000000,-11251.130318,-612.876398
2774.720311,370.102971,-8660.409521,-2451.505594
2774.720638,222.061783,-8216.285956,-1762.019645
2774.720965,-444.123565,-10288.862594,459.657299
2774.721293,0.000000,-11843.295072,-842.705048
2774.721620,-296.082377,-11399.171507,-306.438199
2774.721948,740.205942,-9918.759623,-1838.629195
2774.722275,1406.391290,-8882.471304,-919.314598
2774.722602,1332.370696,-9918.759623,689.485948
2774.722930,1480.411884,-11695.253884,1532.190996
2774.723257,1332.370696,-11843.295072,0.000000
2774.723584,888.247130,-9770.718434,-1225.752797
2774.723912,740.205942,-7920.203579,-1608.800546
2774.724239,1036.288319,-8438.347739,-612.876398
2774.724567,74.020594,-11325.150913,459.657299
2774.724894,-592.164754,-12065.356855,612.876398
2774.725221,-444.123565,-9918.759623,-842.705048
2774.725549,-296.082377,-7476.080014,-1532.190996
2774.725876,0.000000,-8290.306550,-536.266849
2774.726204,-444.123565,-9622.677246,842.705048
2774.726531,-444.123565,-10584.944971,536.266849
2774.726858,-444.123565,-9104.533087,-459.657299
2774.727186,0.000000,-7031.956449,-1072.533697
2774.727513,740.205942,-7179.997637,-229.828649
2774.727841,888.247130,-8956.491898,1608.800546
2774.728168,1480.411884,-10955.047942,2374.896044
2774.728495,1924.535449,-11991.336260,1072.533697
2774.728823,1776.494261,-10214.842000,-306.438199
2774.729150,1628.453072,-7550.100608,-459.657299
2774.729477,296.082377,-7846.182985,153.219100
2774.729805,-666.185348,-10658.965565,995.924147
2774.730132,-888.247130,-11843.295072,229.828649
2774.730460,-148.041188,-9400.615463,-1991.848295
2774.730787,592.164754,-6883.915261,-1378.971896
2774.731114,1036.288319,-8364.327145,-689.485948
2774.731442,-444.123565,-11547.212695,689.485948
2774.731769,-1258.350101,-12435.459826,229.828649
2774.732097,-666.185348,-10436.903782,-2221.676944
2774.732424,370.102971,-8364.327145,-2757.943793
2774.732751,740.205942,-8290.306550,-1302.362347
2774.733079,814.226536,-11029.068536,1685.410096
2774.733406,444.123565,-12213.398043,1991.848295
2774.733734,370.102971,-11473.192101,76.609550
2774.734061,-148.041188,-9030.512492,-2068.457845
2774.734388,-740.205942,-7254.018232,-2374.896044
2774.734716,-1406.391290,-8660.409521,-842.705048
2774.735043,-1776.494261,-10881.027347,612.876398
2774.735371,-1110.308913,-11917.315666,459.657299
2774.735698,0.000000,-9844.739029,-459.657299
2774.736025,222.061783,-6957.935855,-689.485948
2774.736353,0.000000,-7772.162391,76.609550
2774.736680,0.000000,-11325.150913,612.876398
2774.737007,-222.061783,-12509.480420,153.219100
2774.737335,0.000000,-9400.615463,-766.095498
2774.737662,518.144159,-6587.832884,-1302.362347
2774.737990,962.267725,-7920.203579,153.219100
2774.738317,0.000000,-10288.862594,1532.190996
2774.738644,296.082377,-11029.068536,1149.143247
2774.738972,1406.391290,-9770.718434,-995.924147
2774.739299,2220.617826,-8216.285956,-2068.457845
2774.739627,1554.432478,-8068.244768,0.000000
2774.739954,888.247130,-9770.718434,1915.238745
2774.740281,592.164754,-10732.986159,1532.190996
2774.740609,148.041188,-10807.006753,76.609550
2774.740936,518.144159,-8512.368333,-1685.410096
2774.741264,814.226536,-7402.059420,-1378.971896
2774.741591,518.144159,-9252.574275,153.219100
2774.741918,0.000000,-11695.253884,1149.143247
2774.742246,-296.082377,-12509.480420,459.657299
2774.742573,-444.123565,-9918.759623,-2221.676944
2774.742901,-148.041188,-7994.224174,-2757.943793
2774.743228,222.061783,-9178.553681,-1302.362347
2774.743555,740.205942,-11621.233289,383.047749
2774.743883,1406.391290,-12657.521608,689.485948
2774.744210,2368.659014,-10362.883188,0.000000
2774.744537,2960.823768,-7624.121203,-842.705048
2774.744865,2146.597232,-7698.141797,0.000000
2774.745192,148.041188,-9918.759623,995.924147
2774.745520,-444.123565,-11399.171507,229.828649
2774.745847,148.041188,-10807.006753,-1455.581446
2774.746174,1036.288319,-8364.327145,-2834.553343
2774.746502,814.226536,-8512.368333,-1302.362347
2774.746829,0.000000,-11399.171507,1378.971896
2774.747157,0.000000,-12509.480420,1225.752797
2774.747484,148.041188,-11621.233289,0.000000
2774.747811,-222.061783,-7920.203579,-1455.581446
2774.748139,-296.082377,-5847.626942,-919.314598
2774.748466,-296.082377,-7846.182985,612.876398
2774.748794,-1258.350101,-10658.965565,2451.505594
2774.749121,-1776.494261,-10658.965565,1072.533697
2774.749448,-518.144159,-8956.491898,-612.876398
2774.749776,74.020594,-7179.997637,-1532.190996
2774.750103,0.000000,-8512.368333,-612.876398
2774.750431,-370.102971,-11473.192101,919.314598
2774.750758,0.000000,-12361.439231,689.485948
2774.751085,888.247130,-10732.986159,-919.314598
2774.751413,2294.638420,-7772.162391,-995.924147
2774.751740,1628.453072,-7624.121203,766.095498
2774.752067,74.020594,-9326.594869,2451.505594
2774.752395,-666.185348,-10955.047942,1455.581446
2774.752722,-888.247130,-10288.862594,-766.095498
2774.753050,-962.267725,-7772.162391,-2145.067394
2774.753377,-1480.411884,-7105.977043,-1685.410096
2774.753704,-1184.329507,-9622.677246,-1149.143247
2774.754032,-888.247130,-12065.356855,0.000000
2774.754359,0.000000,-12065.356855,-1225.752797
2774.754687,1406.391290,-9844.739029,-1532.190996
2774.755014,2294.638420,-8290.306550,-1072.533697
2774.755341,2220.617826,-10362.883188,459.657299
2774.755669,962.267725,-12361.439231,1225.752797
2774.755996,0.000000,-12361.439231,459.657299
2774.756324,-370.102971,-9474.636058,-1532.190996
2774.756651,296.082377,-7179.997637,-1762.019645
2774.756978,222.061783,-8364.327145,0.000000
2774.757306,0.000000,-10807.006753,919.314598
2774.757633,592.164754,-11917.315666,842.705048
2774.757960,666.185348,-10955.047942,-842.705048
2774.758288,814.226536,-7698.141797,-1838.629195
2774.758615,1110.308913,-6883.915261,-1072.533697
2774.758943,0.000000,-9474.636058,1072.533697
2774.759270,666.185348,-11251.130318,1455.581446
2774.759597,1628.453072,-10066.800811,383.047749
2774.759925,2072.576638,-8290.306550,-1302.362347
2774.760252,1628.453072,-7846.182985,-536.266849
2774.760580,1036.288319,-9400.615463,1302.362347
2774.760907,0.000000,-10732.986159,1378.971896
2774.761234,-888.247130,-11399.171507,-689.485948
2774.761562,296.082377,-8956.491898,-2451.505594
2774.761889,1110.308913,-6735.874072,-2068.457845
2774.762217,1924.535449,-8660.409521,612.876398
2774.762544,1480.411884,-11547.212695,2528.115143
2774.762871,1776.494261,-12065.356855,2068.457845
2774.763199,1776.494261,-10140.821405,-383.047749
2774.763526,1036.288319,-7476.080014,-2068.457845
2774.763854,0.000000,-7846.182985,-1455.581446
2774.764181,-962.267725,-10140.821405,76.609550
2774.764508,-592.164754,-12065.356855,0.000000
2774.764836,0.000000,-11917.315666,-1532.190996
2774.765163,1480.411884,-9622.677246,-1762.019645
2774.765490,1998.556043,-9326.594869,-995.924147
2774.765818,962.267725,-11325.150913,229.828649
2774.766145,-296.082377,-12139.377449,842.705048
2774.766473,-222.061783,-10436.903782,-459.657299
2774.766800,518.144159,-7698.141797,-1072.533697
2774.767127,888.247130,-7476.080014,0.000000
2774.767455,0.000000,-10362.883188,2374.896044
2774.767782,-1702.473667,-11325.150913,2451.505594
2774.768110,-2590.720797,-9992.780217,76.609550
2774.768437,-2886.803174,-8364.327145,-3524.039291
2774.768765,-2960.823768,-7402.059420,-3600.648841
2774.769092,-3256.906145,-7772.162391,-842.705048
2774.769420,-1258.350101,-10362.883188,229.828649
2774.769747,-518.144159,-11399.171507,1149.143247
2774.770075,148.041188,-9844.739029,76.609550
2774.770403,740.205942,-7328.038826,-306.438199
2774.770730,740.205942,-7698.141797,459.657299
2774.771058,666.185348,-10140.821405,1762.019645
2774.771385,296.082377,-11621.233289,1225.752797
2774.771713,888.247130,-9992.780217,-995.924147
2774.772040,888.247130,-7328.038826,-1149.143247
2774.772368,962.267725,-7698.141797,-612.876398
2774.772695,0.000000,-10066.800811,689.485948
2774.773023,-962.267725,-11991.336260,766.095498
2774.773350,-148.041188,-10658.965565,-1532.190996
2774.773678,666.185348,-8956.491898,-2374.896044
2774.774005,1258.350101,-8290.306550,229.828649
2774.774333,740.205942,-9326.594869,1455.581446
2774.774660,444.123565,-11621.233289,1915.238745
2774.774988,0.000000,-11621.233289,76.609550
2774.775316,148.041188,-9178.553681,-2298.286494
2774.775643,518.144159,-7624.121203,-2145.067394
2774.775971,740.205942,-8216.285956,-383.047749
2774.776298,962.267725,-12065.356855,536.266849
2774.776626,1036.288319,-13915.871710,153.219100
2774.776953,1110.308913,-10955.047942,-1072.533697
2774.777281,1924.535449,-7772.162391,-2298.286494
2774.777608,1998.556043,-7846.182985,-1072.533697
2774.777936,518.144159,-10140.821405,1225.752797
2774.778263,888.247130,-11843.295072,2221.676944
2774.778591,1480.411884,-9474.636058,306.438199
2774.778918,2072.576638,-7476.080014,-689.485948
2774.779246,1702.473667,-7328.038826,-612.876398
2774.779574,148.041188,-9030.512492,612.876398
2774.779901,-1110.308913,-11177.109724,919.314598
2774.780229,0.000000,-11325.150913,-995.924147
2774.780556,592.164754,-9252.574275,-2068.457845
2774.780884,592.164754,-7624.121203,-536.266849
2774.781211,962.267725,-8660.409521,1225.752797
2774.781539,1110.308913,-11251.130318,2298.286494
2774.781866,370.102971,-10881.027347,1149.143247
2774.782194,296.082377,-8808.450710,-842.705048
2774.782521,592.164754,-6513.812290,-1378.971896
2774.782849,518.144159,-7105.977043,0.000000
2774.783176,-296.082377,-10066.800811,1608.800546
2774.783504,-666.185348,-12583.501014,919.314598
2774.783832,0.000000,-11325.150913,-766.095498
2774.784159,962.267725,-8660.409521,-2374.896044
2774.784487,518.144159,-8808.450710,-1149.143247
2774.784814,0.000000,-11695.253884,842.705048
2774.785142,0.000000,-12731.542202,919.314598
2774.785469,148.041188,-10955.047942,-995.924147
2774.785797,-518.144159,-7624.121203,-1378.971896
2774.786124,-296.082377,-7402.059420,-689.485948
2774.786452,-1406.391290,-9178.553681,229.828649
2774.786779,-1924.535449,-11695.253884,1149.143247
2774.787107,-1258.350101,-10807.006753,-536.266849
2774.787434,-444.123565,-8882.471304,-1532.190996
2774.787762,-296.082377,-7994.224174,-1378.971896
2774.788089,-370.102971,-9474.636058,229.828649
2774.788417,-1480.411884,-11325.150913,919.314598
2774.788745,-518.144159,-11843.295072,0.000000
2774.789072,0.000000,-9326.594869,-1762.019645
2774.789400,666.185348,-7402.059420,-1378.971896
2774.789727,444.123565,-8438.347739,536.266849
2774.790055,0.000000,-10807.006753,1685.410096
2774.790382,0.000000,-11547.212695,766.095498
2774.790710,-296.082377,-9770.718434,-1378.971896
2774.791037,0.000000,-7179.997637,-2604.724693
2774.791365,0.000000,-6957.935855,-1149.143247
2774.791692,74.020594,-9992.780217,919.314598
2774.792020,888.247130,-12435.459826,1608.800546
2774.792347,1776.494261,-11029.068536,229.828649
2774.792675,2368.659014,-8068.244768,-842.705048
2774.793003,1998.556043,-7550.100608,-689.485948
2774.793330,962.267725,-8882.471304,536.266849
2774.793658,222.061783,-10732.986159,919.314598
2774.793985,296.082377,-11399.171507,-153.219100
2774.794313,1332.370696,-9548.656652,-1302.362347
2774.794640,2738.761985,-7550.100608,-612.876398
2774.794968,2220.617826,-9474.636058,919.314598
2774.795295,1110.308913,-12139.377449,2145.067394
2774.795623,444.123565,-11917.315666,612.876398
2774.795950,222.061783,-9178.553681,-1455.581446
2774.796278,74.020594,-7179.997637,-2451.505594
2774.796605,-148.041188,-7550.100608,-995.924147
2774.796933,74.020594,-9844.739029,919.314598
2774.797261,888.247130,-11769.274478,1149.143247
2774.797588,1406.391290,-10436.903782,-612.876398
2774.797916,1184.329507,-8882.471304,-1149.143247
2774.798243,1628.453072,-8586.388927,-1302.362347
2774.798571,666.185348,-11177.109724,-306.438199
2774.798898,0.000000,-13249.686362,-153.219100
2774.799226,222.061783,-11769.274478,-612.876398
2774.799553,1850.514855,-8438.347739,-1302.362347
2774.799881,1998.556043,-7402.059420,0.000000
2774.800208,740.205942,-8734.430116,1302.362347
2774.800536,-370.102971,-10510.924376,1991.848295
2774.800863,-666.185348,-10436.903782,76.609550
2774.801191,-814.226536,-8290.306550,-1685.410096
2774.801518,0.000000,-6735.874072,-1915.238745
2774.801846,74.020594,-8216.285956,-536.266849
2774.802174,-962.267725,-10362.883188,2221.676944
2774.802501,-518.144159,-11547.212695,1378.971896
2774.802829,518.144159,-10288.862594,-612.876398
2774.803156,814.226536,-8068.244768,-1762.019645
2774.803484,444.123565,-8734.430116,-766.095498
2774.803811,-666.185348,-11177.109724,612.876398
2774.804139,-814.226536,-12435.459826,842.705048
2774.804466,222.061783,-10510.924376,-995.924147
2774.804794,370.102971,-7476.080014,-1532.190996
2774.805121,74.020594,-7179.997637,-689.485948
2774.805449,-370.102971,-10140.821405,612.876398
2774.805776,0.000000,-12509.480420,612.876398
2774.806104,518.144159,-11621.233289,-459.657299
2774.806432,74.020594,-8808.450710,-1915.238745
2774.806759,370.102971,-7031.956449,-1149.143247
2774.807087,148.041188,-9474.636058,76.609550
2774.807414,0.000000,-11843.295072,1302.362347
2774.807742,148.041188,-12287.418637,153.219100
2774.808069,814.226536,-10362.883188,-1225.752797
2774.808397,1480.411884,-8882.471304,-1455.581446
2774.808724,592.164754,-9474.636058,-383.047749
2774.809052,-1184.329507,-11251.130318,1302.362347
2774.809379,-962.267725,-11473.192101,229.828649
2774.809707,0.000000,-9326.594869,-2068.457845
2774.810034,666.185348,-8068.244768,-1991.848295
2774.810362,740.205942,-8956.491898,612.876398
2774.810690,814.226536,-10288.862594,1915.238745
2774.811017,0.000000,-11399.171507,1532.190996
2774.811345,-888.247130,-9844.739029,-1378.971896
2774.811672,-666.185348,-6587.832884,-2604.724693
2774.812000,-592.164754,-5995.668130,-1302.362347
2774.812327,74.020594,-9252.574275,383.047749
2774.812655,592.164754,-11843.295072,1072.533697
2774.812982,1184.329507,-11251.130318,229.828649
2774.813310,2146.597232,-9474.636058,-1378.971896
2774.813637,2960.823768,-8364.327145,-1532.190996
2774.813965,1332.370696,-8734.430116,153.219100
2774.814292,0.000000,-10658.965565,995.924147
2774.814620,888.247130,-11029.068536,383.047749
2774.814947,2220.617826,-9326.594869,-842.705048
2774.815275,2516.700203,-7772.162391,-229.828649
2774.815603,1110.308913,-8364.327145,1915.238745
2774.815930,-444.123565,-10584.944971,1302.362347
2774.816258,-1554.432478,-11473.192101,-612.876398
2774.816585,-1184.329507,-9992.780217,-2604.724693
2774.816913,-666.185348,-8068.244768,-2987.772442
2774.817240,0.000000,-9030.512492,-995.924147
2774.817568,370.102971,-11621.233289,306.438199
2774.817895,370.102971,-13471.748144,1149.143247
2774.818223,0.000000,-11769.274478,-383.047749
2774.818550,444.123565,-8142.265362,-1532.190996
2774.818878,740.205942,-7179.997637,-1685.410096
2774.819205,148.041188,-9548.656652,-229.828649
2774.819533,0.000000,-12213.398043,995.924147
2774.819861,370.102971,-10807.006753,459.657299
2774.820188,666.185348,-8068.244768,-306.438199
2774.820516,518.144159,-7105.977043,-1302.362347
2774.820843,-296.082377,-8734.430116,0.000000
2774.821171,-518.144159,-11769.274478,612.876398
2774.821498,-296.082377,-11769.274478,153.219100
2774.821826,666.185348,-9252.574275,-766.095498
2774.822153,814.226536,-7846.182985,-459.657299
2774.822481,296.082377,-8512.368333,76.609550
2774.822808,-592.164754,-10362.883188,1762.019645
2774.823136,-962.267725,-10807.006753,842.705048
2774.823463,-592.164754,-9622.677246,-1378.971896
2774.823791,0.000000,-7105.977043,-2221.676944
2774.824119,0.000000,-7328.038826,-1072.533697
2774.824446,-814.226536,-9918.759623,612.876398
2774.824774,-370.102971,-11843.295072,1149.143247
2774.825101,222.061783,-10214.842000,-842.705048
2774.825429,888.247130,-8142.265362,-2068.457845
2774.825756,1628.453072,-7994.224174,-1608.800546
2774.826084,1480.411884,-10140.821405,919.314598
2774.826411,740.205942,-12139.377449,1915.238745
2774.826739,592.164754,-11843.295072,536.266849
2774.827066,814.226536,-9030.512492,-1149.143247
2774.827394,1406.391290,-8068.244768,-1915.238745
2774.827721,592.164754,-9622.677246,-766.095498
2774.828049,-296.082377,-11917.315666,459.657299
2774.828377,-296.082377,-11917.315666,-153.219100
2774.828704,0.000000,-9770.718434,-1608.800546
2774.829032,888.247130,-8586.388927,-1378.971896
2774.829359,296.082377,-8438.347739,383.047749
2774.829687,148.041188,-10066.800811,536.266849
2774.830014,74.020594,-11103.089130,1225.752797
2774.830342,222.061783,-9770.718434,-459.657299
2774.830669,296.082377,-7105.977043,-1225.752797
2774.830997,148.041188,-7624.121203,-306.438199
2774.831324,518.144159,-10658.965565,-229.828649
2774.831652,296.082377,-12509.480420,229.828649
2774.831979,814.226536,-12213.398043,-766.095498
2774.832307,1776.494261,-9030.512492,-1225.752797
2774.832634,1776.494261,-7476.080014,-153.219100
2774.832962,1184.329507,-9622.677246,1378.971896
2774.833290,296.082377,-11991.336260,2068.457845
2774.833617,148.041188,-10807.006753,76.609550
2774.833945,518.144159,-7698.141797,-1225.752797
2774.834272,296.082377,-5699.585753,-919.314598
2774.834600,74.020594,-7031.956449,995.924147
2774.834927,-370.102971,-9844.739029,1608.800546
2774.835255,-518.144159,-11621.233289,919.314598
2774.835582,518.144159,-10214.842000,-1225.752797
2774.835910,666.185348,-7920.203579,-2145.067394
2774.836237,740.205942,-8808.450710,-995.924147
2774.836565,0.000000,-10807.006753,1072.533697
2774.836892,-518.144159,-11547.212695,1378.971896
2774.837220,0.000000,-10658.965565,-383.047749
2774.837548,666.185348,-8290.306550,-1378.971896
2774.837875,962.267725,-7994.224174,-536.266849
2774.838203,74.020594,-9622.677246,1302.362347
2774.838530,-296.082377,-11843.295072,1532.190996
2774.838858,-518.144159,-11177.109724,-842.705048
2774.839185,0.000000,-8586.388927,-2298.286494
2774.839513,-518.144159,-7328.038826,-2374.896044
2774.839840,-740.205942,-9696.697840,-689.485948
2774.840168,-148.041188,-11991.336260,459.657299
2774.840495,222.061783,-12657.521608,229.828649
2774.840823,1776.494261,-9622.677246,-1302.362347
2774.841150,2072.576638,-7772.162391,-612.876398
2774.841478,814.226536,-8956.491898,536.266849
2774.841806,0.000000,-10881.027347,1072.533697
2774.842133,-444.123565,-11325.150913,0.000000
2774.842461,-296.082377,-9696.697840,-1608.800546
2774.842788,962.267725,-8216.285956,-1455.581446
2774.843116,962.267725,-8734.430116,919.314598
2774.843443,-296.082377,-9696.697840,1072.533697
2774.843771,-740.205942,-11399.171507,766.095498
2774.844098,0.000000,-10362.883188,-1149.143247
2774.844426,0.000000,-7476.080014,-1915.238745
2774.844753,814.226536,-7105.977043,-919.314598
2774.845081,1036.288319,-9474.636058,1685.410096
2774.845408,1036.288319,-11621.233289,3064.381992
2774.845736,1036.288319,-10658.965565,1455.581446
2774.846063,666.185348,-8068.244768,-383.047749
2774.846391,370.102971,-7402.059420,-1378.971896
2774.846719,0.000000,-8956.491898,-1225.752797
2774.847046,-1036.288319,-11843.295072,-306.438199
2774.847374,-666.185348,-12583.501014,-306.438199
2774.847701,1258.350101,-9400.615463,-1302.362347
2774.848029,2664.741391,-7179.997637,-612.876398
2774.848356,1924.535449,-8734.430116,1378.971896
2774.848684,444.123565,-10584.944971,2068.457845
2774.849011,148.041188,-10881.027347,919.314598
2774.849339,444.123565,-9252.574275,-995.924147
2774.849666,814.226536,-7624.121203,-1225.752797
2774.849994,666.185348,-7994.224174,153.219100
2774.850321,296.082377,-10066.800811,612.876398
2774.850649,0.000000,-12879.583391,459.657299
2774.850977,296.082377,-12435.459826,-1225.752797
2774.851304,666.185348,-9474.636058,-2834.553343
2774.851632,1258.350101,-7846.182985,-1991.848295
2774.851959,740.205942,-9622.677246,-229.828649
2774.852287,666.185348,-11991.336260,1915.238745
2774.852614,888.247130,-11695.253884,766.095498
2774.852942,222.061783,-8586.388927,-383.047749
2774.853269,0.000000,-6735.874072,-1302.362347
2774.853597,-814.226536,-7920.203579,-995.924147
2774.853924,-1628.453072,-11325.150913,0.000000
2774.854252,-1554.432478,-11843.295072,-612.876398
2774.854579,-1184.329507,-9326.594869,-2604.724693
2774.854907,370.102971,-7402.059420,-2221.676944
2774.855235,592.164754,-8216.285956,-689.485948
2774.855562,0.000000,-10436.903782,1225.752797
2774.855890,444.123565,-12509.480420,1608.800546
2774.856217,666.185348,-10584.944971,306.438199
2774.856545,1628.453072,-8068.244768,-766.095498
2774.856872,1110.308913,-7105.977043,153.219100
2774.857200,-1110.308913,-9548.656652,842.705048
2774.857527,-1332.370696,-11177.109724,1762.019645
2774.857855,-814.226536,-9844.739029,-1149.143247
2774.858182,-962.267725,-7994.224174,-1991.848295
2774.858510,0.000000,-8364.327145,-1378.971896
2774.858837,-296.082377,-8882.471304,536.266849
2774.859165,-592.164754,-11325.150913,1532.190996
2774.859492,-296.082377,-11843.295072,229.828649
2774.859820,296.082377,-9474.636058,-1302.362347
2774.860148,370.102971,-7476.080014,-1455.581446
2774.860475,370.102971,-8956.491898,0.000000
2774.860803,148.041188,-11399.171507,1302.362347
2774.861130,444.123565,-11843.295072,536.266849
2774.861458,888.247130,-10436.903782,-459.657299
2774.861785,1110.308913,-7772.162391,-1608.800546
2774.862113,592.164754,-8142.265362,-1149.143247
2774.862440,444.123565,-10807.006753,76.609550
2774.862768,370.102971,-11473.192101,536.266849
2774.863095,962.267725,-10214.842000,0.000000
2774.863423,1554.432478,-7846.182985,-842.705048
2774.863750,2368.659014,-7476.080014,0.000000
2774.864078,1332.370696,-9770.718434,459.657299
2774.864406,0.000000,-11177.109724,689.485948
2774.864733,0.000000,-10436.903782,-612.876398
2774.865061,518.144159,-8586.388927,-1991.848295
2774.865388,296.082377,-7920.203579,-1838.629195
2774.865716,-296.082377,-9696.697840,76.609550
2774.866043,0.000000,-12361.439231,766.095498
2774.866371,814.226536,-11843.295072,-536.266849
2774.866698,1110.308913,-8808.450710,-1455.581446
2774.867026,1554.432478,-7402.059420,-1225.752797
2774.867353,814.226536,-8660.409521,459.657299
2774.867681,592.164754,-11177.109724,1532.190996
2774.868008,1036.288319,-11843.295072,919.314598
2774.868336,1110.308913,-9474.636058,229.828649
2774.868664,1406.391290,-7179.997637,-919.314598
2774.868991,1776.494261,-7624.121203,-383.047749
2774.869319,740.205942,-11177.109724,919.314598
2774.869648,0.000000,-13027.624579,1072.533697
2774.869976,370.102971,-11103.089130,-689.485948
2774.870303,666.185348,-8290.306550,-1685.410096
2774.870631,0.000000,-7920.203579,-919.314598
2774.870958,-1332.370696,-9104.533087,766.095498
2774.871286,-1554.432478,-10584.944971,1072.533697
2774.871614,-1258.350101,-10214.842000,306.438199
2774.871941,-740.205942,-7698.141797,-1378.971896
2774.872269,-296.082377,-7179.997637,-1608.800546
2774.872596,-740.205942,-9030.512492,689.485948
2774.872924,-1036.288319,-11177.109724,1072.533697
2774.873251,-1480.411884,-11325.150913,229.828649
2774.873579,-814.226536,-9622.677246,-1838.629195
2774.873907,74.020594,-7698.141797,-2528.115143
2774.874234,1184.329507,-9474.636058,-1455.581446
2774.874562,592.164754,-12361.439231,689.485948
2774.874889,666.185348,-12731.542202,1378.971896
2774.875217,1110.308913,-9844.739029,153.219100
2774.875544,1480.411884,-6735.874072,-995.924147
2774.875872,740.205942,-7179.997637,-766.095498
2774.876200,-518.144159,-9474.636058,689.485948
2774.876527,-1036.288319,-11325.150913,536.266849
2774.876855,-444.123565,-10510.924376,-1225.752797
2774.877182,814.226536,-8216.285956,-2221.676944
2774.877510,444.123565,-8364.327145,-1302.362347
2774.877837,-370.102971,-10140.821405,1302.362347
2774.878165,0.000000,-12213.398043,1378.971896
2774.878493,222.061783,-11399.171507,-383.047749
2774.878820,518.144159,-7994.224174,-1991.848295
2774.879148,888.247130,-7254.018232,-1455.581446
2774.879475,370.102971,-9178.553681,689.485948
2774.879803,0.000000,-11399.171507,2757.943793
2774.880130,518.144159,-11325.150913,689.485948
2774.880458,1036.288319,-9474.636058,-1455.581446
2774.880785,1406.391290,-7846.182985,-1838.629195
2774.881113,1480.411884,-8438.347739,-306.438199
2774.881441,962.267725,-10807.006753,1685.410096
2774.881768,962.267725,-11917.315666,1685.410096
2774.882096,1110.308913,-9548.656652,0.000000
2774.882423,1332.370696,-7031.956449,-919.314598
2774.882751,518.144159,-7328.038826,0.000000
2774.883078,0.000000,-9474.636058,766.095498
2774.883406,74.020594,-11399.171507,612.876398
2774.883734,444.123565,-11103.089130,-459.657299
2774.884061,1258.350101,-8438.347739,-1225.752797
2774.884389,1776.494261,-8216.285956,-536.266849
2774.884716,888.247130,-10881.027347,919.314598
2774.885044,222.061783,-11917.315666,1302.362347
2774.885371,148.041188,-11251.130318,76.609550
2774.885699,962.267725,-8512.368333,-1072.533697
2774.886027,888.247130,-7402.059420,-536.266849
2774.886354,296.082377,-8586.388927,919.314598
2774.886682,-222.061783,-10436.903782,1225.752797
2774.887009,-370.102971,-11251.130318,459.657299
2774.887337,-222.061783,-9548.656652,-1838.629195
2774.887664,0.000000,-7402.059420,-2528.115143
2774.887992,296.082377,-8216.285956,-1149.143247
2774.888320,148.041188,-11621.233289,536.266849
2774.888647,0.000000,-12583.501014,536.266849
2774.888975,814.226536,-10436.903782,-1225.752797
2774.889302,814.226536,-7698.141797,-1378.971896
2774.889630,592.164754,-8586.388927,-842.705048
2774.889957,-296.082377,-10510.924376,229.828649
2774.890285,-1554.432478,-12213.398043,1302.362347
2774.890612,-962.267725,-10362.883188,0.000000
2774.890940,444.123565,-8438.347739,-1455.581446
2774.891268,888.247130,-8068.244768,-1455.581446
2774.891595,-592.164754,-9178.553681,1072.533697
2774.891923,-1406.391290,-10807.006753,612.876398
2774.892250,-814.226536,-11103.089130,-229.828649
2774.892578,-222.061783,-8290.306550,-1991.848295
2774.892905,0.000000,-6809.894666,-1838.629195
2774.893233,-296.082377,-8142.265362,1072.533697
2774.893561,370.102971,-11473.192101,2145.067394
2774.893888,666.185348,-12583.501014,1225.752797
2774.894216,962.267725,-9548.656652,-1149.143247
2774.894543,814.226536,-7624.121203,-2068.457845
2774.894871,962.267725,-8808.450710,-995.924147
2774.895198,296.082377,-10955.047942,229.828649
2774.895526,-148.041188,-12213.398043,995.924147
2774.895854,888.247130,-10510.924376,-995.924147
2774.896181,1258.350101,-7105.977043,-1685.410096
2774.896509,1110.308913,-7698.141797,0.000000
2774.896836,222.061783,-10140.821405,1455.581446
2774.897164,-592.164754,-11251.130318,1685.410096
2774.897491,0.000000,-10066.800811,-689.485948
2774.897819,814.226536,-7772.162391,-2374.896044
2774.898147,962.267725,-7179.997637,-842.705048
2774.898474,814.226536,-9252.574275,306.438199
2774.898802,222.061783,-11843.295072,1685.410096
2774.899129,666.185348,-12287.418637,0.000000
2774.899457,1184.329507,-9622.677246,-1915.238745
2774.899784,1184.329507,-7772.162391,-1532.190996
2774.900112,370.102971,-8290.306550,76.609550
2774.900439,444.123565,-10362.883188,2145.067394
2774.900767,518.144159,-11769.274478,919.314598
2774.901095,1776.494261,-9696.697840,-612.876398
2774.901422,1332.370696,-7624.121203,-919.314598
2774.901750,888.247130,-7624.121203,0.000000
2774.902077,0.000000,-10362.883188,842.705048
2774.902405,-666.185348,-12361.439231,1072.533697
2774.902732,74.020594,-10807.006753,-995.924147
2774.903060,1702.473667,-8808.450710,-1991.848295
2774.903388,1406.391290,-8808.450710,-919.314598
2774.903715,1110.308913,-10436.903782,919.314598
2774.904043,74.020594,-11325.150913,1685.410096
2774.904370,74.020594,-10140.821405,229.828649
2774.904698,0.000000,-7698.141797,-1072.533697
2774.905025,0.000000,-7105.977043,-1149.143247
2774.905353,0.000000,-8808.450710,536.266849
2774.905681,-740.205942,-10807.006753,612.876398
2774.906008,-1406.391290,-10732.986159,536.266849
2774.906336,-666.185348,-8734.430116,-1762.019645
2774.906663,0.000000,-7624.121203,-1915.238745
2774.906991,-222.061783,-9400.615463,-842.705048
2774.907318,-222.061783,-11843.295072,1149.143247
2774.907646,0.000000,-12139.377449,153.219100
2774.907974,444.123565,-10066.800811,-1149.143247
2774.908301,888.247130,-8068.244768,-1532.190996
2774.908629,148.041188,-8512.368333,-306.438199
2774.908956,-296.082377,-10658.965565,229.828649
2774.909284,-666.185348,-11695.253884,995.924147
2774.909611,0.000000,-9622.677246,-1532.190996
2774.909939,814.226536,-7624.121203,-2221.676944
2774.910266,1036.288319,-8068.244768,-995.924147
2774.910594,148.041188,-9696.697840,612.876398
2774.910922,148.041188,-11917.315666,1072.533697
2774.911249,814.226536,-11621.233289,-612.876398
2774.911577,1554.432478,-8586.388927,-1915.238745
2774.911904,1554.432478,-7698.141797,-1225.752797
2774.912232,1184.329507,-9992.780217,689.485948
2774.912559,-444.123565,-11917.315666,2145.067394
2774.912887,-962.267725,-11473.192101,459.657299
2774.913215,-592.164754,-8734.430116,-1838.629195
2774.913542,-148.041188,-7179.997637,-2451.505594
2774.913870,-222.061783,-8956.491898,-612.876398
2774.914197,-888.247130,-10807.006753,1608.800546
2774.914525,0.000000,-12065.356855,1762.019645
2774.914852,74.020594,-9992.780217,-153.219100
2774.915180,444.123565,-7105.977043,-995.924147
2774.915508,1036.288319,-7476.080014,0.000000
2774.915835,222.061783,-10066.800811,1608.800546
2774.916163,-370.102971,-11769.274478,1762.019645
2774.916490,0.000000,-10510.924376,-459.657299
2774.916818,1110.308913,-8216.285956,-1991.848295
2774.917145,1776.494261,-7846.182985,-2451.505594
2774.917473,1036.288319,-9474.636058,-612.876398
2774.917801,0.000000,-11843.295072,766.095498
2774.918128,962.267725,-11917.315666,306.438199
2774.918456,2664.741391,-9178.553681,-1149.143247
2774.918783,2738.761985,-7698.141797,-229.828649
2774.919111,1036.288319,-9548.656652,2757.943793
2774.919438,74.020594,-11473.192101,2374.896044
2774.919766,-296.082377,-11177.109724,229.828649
2774.920093,-592.164754,-9178.553681,-2298.286494
2774.920421,-148.041188,-7402.059420,-2221.676944
2774.920749,-444.123565,-8068.244768,-306.438199
2774.921076,-740.205942,-11103.089130,1149.143247
2774.921404,-518.144159,-12583.501014,459.657299
2774.921731,888.247130,-11769.274478,-1838.629195
2774.922059,666.185348,-8068.244768,-2757.943793
2774.922386,444.123565,-7920.203579,-1455.581446
2774.922714,-222.061783,-10066.800811,536.266849
2774.923042,222.061783,-11991.336260,1838.629195
2774.923369,148.041188,-10732.986159,842.705048
2774.923697,962.267725,-7846.182985,-1149.143247
2774.924024,740.205942,-7624.121203,-842.705048
2774.924352,370.102971,-9178.553681,383.047749
2774.924679,-666.185348,-11177.109724,919.314598
2774.925007,-444.123565,-11251.130318,-383.047749
2774.925335,444.123565,-8660.409521,-1915.238745
2774.925662,1406.391290,-7328.038826,-1149.143247
2774.925990,370.102971,-9326.594869,1225.752797
2774.926317,0.000000,-11473.192101,2451.505594
2774.926645,-296.082377,-11695.253884,1072.533697
2774.926972,-222.061783,-9400.615463,-1378.971896
2774.927300,-666.185348,-6587.832884,-2221.676944
2774.927628,-1110.308913,-7624.121203,-766.095498
2774.927955,-1850.514855,-10584.944971,612.876398
2774.928283,-1480.411884,-11843.295072,383.047749
2774.928610,0.000000,-9844.739029,-1072.533697
2774.928938,1036.288319,-8290.306550,-2298.286494
2774.929265,1184.329507,-9252.574275,-766.095498
2774.929593,222.061783,-10955.047942,1072.533697
2774.929920,370.102971,-11917.315666,919.314598
2774.930248,1406.391290,-11325.150913,0.000000
2774.930576,2072.576638,-8290.306550,-1762.019645
2774.930903,2442.679609,-7105.977043,-1072.533697
2774.931231,1776.494261,-9178.553681,689.485948
2774.931558,1258.350101,-11695.253884,1838.629195
2774.931886,444.123565,-11547.212695,919.314598
2774.932213,148.041188,-8882.471304,-1532.190996
2774.932541,148.041188,-7105.977043,-2451.505594
2774.932869,-148.041188,-8808.450710,-1608.800546
2774.933196,-1036.288319,-12139.377449,536.266849
2774.933524,-888.247130,-12583.501014,153.219100
2774.933851,1110.308913,-9844.739029,-919.314598
2774.934179,1924.535449,-7772.162391,-1149.143247
2774.934506,1036.288319,-8364.327145,612.876398
2774.934834,222.061783,-9918.759623,2068.457845
2774.935162,-518.144159,-11029.068536,1225.752797
2774.935489,0.000000,-9252.574275,-766.095498
2774.935817,518.144159,-7476.080014,-1762.019645
2774.936144,148.041188,-7920.203579,-383.047749
2774.936472,0.000000,-9770.718434,1455.581446
2774.936799,296.082377,-11991.336260,1378.971896
2774.937127,888.247130,-11917.315666,0.000000
2774.937455,1850.514855,-9178.553681,-1608.800546
2774.937782,1628.453072,-7550.100608,-919.314598
2774.938110,1036.288319,-8808.450710,1149.143247
2774.938437,0.000000,-10881.027347,2221.676944
2774.938765,-296.082377,-10732.986159,766.095498
2774.939092,0.000000,-8586.388927,-1378.971896
2774.939420,0.000000,-7994.224174,-2068.457845
2774.939747,0.000000,-10140.821405,-766.095498
2774.940075,-296.082377,-12139.377449,383.047749
2774.940403,-1406.391290,-11843.295072,0.000000
2774.940730,-666.185348,-9474.636058,-1532.190996
2774.941058,-814.226536,-7402.059420,-2298.286494
2774.941385,-592.164754,-8068.244768,-1378.971896
2774.941713,-592.164754,-9918.759623,383.047749
2774.942040,-222.061783,-11843.295072,1455.581446
2774.942368,296.082377,-10436.903782,-995.924147
2774.942696,740.205942,-8586.388927,-1149.143247
2774.943023,888.247130,-8364.327145,-995.924147
2774.943351,-222.061783,-10510.924376,536.266849
2774.943678,-518.144159,-11991.336260,536.266849
2774.944006,444.123565,-11177.109724,-766.095498
2774.944333,1406.391290,-9326.594869,-2374.896044
2774.944661,1480.411884,-7476.080014,-1608.800546
2774.944989,888.247130,-8438.347739,536.266849
2774.945316,74.020594,-10732.986159,2221.676944
2774.945644,0.000000,-10436.903782,1072.533697
2774.945971,222.061783,-8438.347739,-612.876398
2774.946299,296.082377,-7105.977043,-1149.143247
2774.946626,0.000000,-8364.327145,0.000000
2774.946954,-296.082377,-10436.903782,1225.752797
2774.947282,-740.205942,-11769.274478,995.924147
2774.947609,-518.144159,-9992.780217,-689.485948
2774.947937,148.041188,-7772.162391,-2145.067394
2774.948264,222.061783,-8364.327145,-1762.019645
2774.948592,0.000000,-10658.965565,459.657299
2774.948919,-962.267725,-12139.377449,1838.629195
2774.949247,962.267725,-10288.862594,0.000000
2774.949574,1480.411884,-7105.977043,-995.924147
2774.949902,1924.535449,-7698.141797,-995.924147
2774.950230,666.185348,-10288.862594,919.314598
2774.950557,444.123565,-11769.274478,1378.971896
2774.950885,592.164754,-10584.944971,-383.047749
2774.951212,962.267725,-9992.780217,-1685.410096
2774.951540,1628.453072,-8438.347739,-1532.190996
2774.951867,518.144159,-8956.491898,-306.438199
2774.952195,0.000000,-10807.006753,842.705048
2774.952523,1258.350101,-12731.542202,0.000000
2774.952850,1406.391290,-10510.924376,-842.705048
2774.953178,1184.329507,-7624.121203,-995.924147
2774.953505,592.164754,-8142.265362,536.266849
2774.953833,74.020594,-11103.089130,1072.533697
2774.954160,296.082377,-12139.377449,536.266849
2774.954488,444.123565,-9622.677246,-919.314598
2774.954816,370.102971,-7254.018232,-2145.067394
2774.955143,666.185348,-7920.203579,-1225.752797
2774.955471,0.000000,-10658.965565,1225.752797
2774.955798,-222.061783,-12583.501014,1378.971896
2774.956126,0.000000,-10807.006753,-153.219100
2774.956453,518.144159,-8364.327145,-1608.800546
2774.956781,0.000000,-7328.038826,-689.485948
2774.957109,0.000000,-9844.739029,1302.362347
2774.957436,-814.226536,-11325.150913,2298.286494
2774.957764,-1332.370696,-10362.883188,383.047749
2774.958091,-592.164754,-7772.162391,-2068.457845
2774.958419,370.102971,-6957.935855,-2221.676944
2774.958746,222.061783,-8438.347739,-306.438199
2774.959074,-1406.391290,-10658.965565,2068.457845
2774.959401,-1702.473667,-11695.253884,1072.533697
2774.959729,0.000000,-9622.677246,-1608.800546
2774.960057,592.164754,-7328.038826,-2834.553343
2774.960384,444.123565,-8808.450710,0.000000
2774.960712,0.000000,-11843.295072,1838.629195
2774.961039,518.144159,-11843.295072,1378.971896
2774.961367,1110.308913,-9696.697840,-1072.533697
2774.961694,444.123565,-7402.059420,-1838.629195
2774.962022,0.000000,-7550.100608,-842.705048
2774.962350,-666.185348,-9178.553681,76.609550
2774.962677,-444.123565,-12287.418637,76.609550
2774.963005,-666.185348,-11473.192101,-995.924147
2774.963332,666.185348,-8660.409521,-2068.457845
2774.963660,1332.370696,-8364.327145,-842.705048
2774.963987,1480.411884,-10955.047942,766.095498
2774.964315,814.226536,-12657.521608,1762.019645
2774.964643,444.123565,-11251.130318,229.828649
2774.964970,1406.391290,-8882.471304,-2451.505594
2774.965298,1554.432478,-7402.059420,-2068.457845
2774.965625,1184.329507,-7846.182985,153.219100
2774.965953,0.000000,-10658.965565,2145.067394
2774.966280,-222.061783,-12213.398043,1455.581446
2774.966608,740.205942,-9992.780217,-1072.533697
2774.966936,1776.494261,-7624.121203,-1915.238745
2774.967263,1110.308913,-8734.430116,-229.828649
2774.967591,148.041188,-10214.842000,1149.143247
2774.967918,888.247130,-11547.212695,1455.581446
2774.968246,1036.288319,-9622.677246,383.047749
2774.968573,962.267725,-7031.956449,-689.485948
2774.968901,444.123565,-6735.874072,-383.047749
2774.969228,-444.123565,-9474.636058,1225.752797
2774.969556,-814.226536,-11843.295072,1072.533697
2774.969884,74.020594,-10584.944971,-1302.362347
2774.970211,1258.350101,-8586.388927,-2145.067394
2774.970539,962.267725,-8216.285956,-1608.800546
2774.970866,814.226536,-10214.842000,689.485948
2774.971194,0.000000,-11695.253884,1915.238745
2774.971521,370.102971,-11473.192101,612.876398
2774.971849,1258.350101,-9178.553681,-766.095498
2774.972176,1258.350101,-7254.018232,-842.705048
2774.972504,1110.308913,-7624.121203,536.266849
2774.972832,-370.102971,-10214.842000,1302.362347
2774.973159,-1332.370696,-11399.171507,842.705048
2774.973487,-888.247130,-9474.636058,-995.924147
2774.973814,0.000000,-7550.100608,-2221.676944
2774.974142,-296.082377,-8660.409521,-1915.238745
2774.974469,0.000000,-11547.212695,306.438199
2774.974797,74.020594,-11991.336260,689.485948
2774.975124,296.082377,-10436.903782,-459.657299
2774.975452,740.205942,-7772.162391,-1302.362347
2774.975779,222.061783,-7105.977043,-1149.143247
2774.976107,-1036.288319,-10140.821405,842.705048
2774.976435,-1332.370696,-12953.603985,1378.971896
2774.976762,74.020594,-11991.336260,-919.314598
2774.977090,592.164754,-8660.409521,-1991.848295
2774.977417,962.267725,-8216.285956,-1225.752797
2774.977745,0.000000,-9622.677246,536.266849
2774.978072,-370.102971,-11473.192101,1072.533697
2774.978400,0.000000,-11325.150913,0.000000
2774.978727,888.247130,-9178.553681,-1225.752797
2774.979055,518.144159,-6513.812290,-1685.410096
2774.979383,444.123565,-7254.018232,383.047749
2774.979710,296.082377,-10362.883188,2451.505594
2774.980038,370.102971,-12139.377449,1685.410096
2774.980365,518.144159,-10362.883188,-459.657299
2774.980693,1036.288319,-8216.285956,-2221.676944
2774.981020,888.247130,-8364.327145,-1685.410096
2774.981348,-370.102971,-10214.842000,0.000000
2774.981675,-1110.308913,-11843.295072,919.314598
2774.982003,-296.082377,-9844.739029,-383.047749
2774.982330,370.102971,-7402.059420,-1378.971896
2774.982658,592.164754,-7105.977043,-1072.533697
2774.982986,148.041188,-9252.574275,842.705048
2774.983313,296.082377,-10881.027347,1149.143247
2774.983641,148.041188,-10955.047942,0.000000
2774.983968,370.102971,-9104.533087,-1072.533697
2774.984296,518.144159,-7105.977043,-1225.752797
2774.984623,1110.308913,-8882.471304,-306.438199
2774.984951,592.164754,-12287.418637,919.314598
2774.985278,666.185348,-13027.624579,459.657299
2774.985606,1628.453072,-10955.047942,-995.924147
2774.985933,2368.659014,-7846.182985,-1838.629195
2774.986261,1850.514855,-8734.430116,-612.876398
2774.986589,1110.308913,-10436.903782,1532.190996
2774.986916,666.185348,-11325.150913,1991.848295
2774.987244,962.267725,-9992.780217,0.000000
2774.987571,2146.597232,-7698.141797,-1455.581446
2774.987899,814.226536,-7624.121203,-612.876398
2774.988226,-666.185348,-9622.677246,1532.190996
2774.988554,-1628.453072,-11177.109724,1915.238745
2774.988881,-740.205942,-11103.089130,-459.657299
2774.989209,-148.041188,-8142.265362,-2451.505594
2774.989536,296.082377,-7698.141797,-1762.019645
2774.989864,0.000000,-9992.780217,842.705048
2774.990192,0.000000,-11547.212695,2374.896044
2774.990519,0.000000,-10955.047942,919.314598
2774.990847,74.020594,-8956.491898,-995.924147
2774.991174,-518.144159,-7105.977043,-1072.533697
2774.991502,-592.164754,-7994.224174,-383.047749
2774.991829,-962.267725,-10732.986159,995.924147
2774.992157,-888.247130,-11621.233289,689.485948
2774.992484,592.164754,-9622.677246,-1072.533697
2774.992812,1332.370696,-7624.121203,-1225.752797
2774.993139,962.267725,-8068.244768,-1072.533697
2774.993467,0.000000,-10510.924376,919.314598
2774.993795,-370.102971,-11991.336260,1149.143247
2774.994122,0.000000,-10140.821405,0.000000
2774.994450,370.102971,-7254.018232,-1685.410096
2774.994777,222.061783,-7772.162391,-612.876398
2774.995105,0.000000,-10436.903782,536.266849
2774.995432,0.000000,-12213.398043,842.705048
2774.995760,-370.102971,-10807.006753,-1072.533697
2774.996087,-444.123565,-8290.306550,-2834.553343
2774.996415,0.000000,-7698.141797,-2451.505594
2774.996742,0.000000,-9474.636058,-229.828649
2774.997070,-296.082377,-11695.253884,1685.410096
2774.997398,740.205942,-11843.295072,1225.752797
2774.997725,1776.494261,-9252.574275,-1225.752797
2774.998053,1850.514855,-7550.100608,-1532.190996
2774.998380,962.267725,-9178.553681,153.219100
2774.998708,0.000000,-11769.274478,1149.143247
2774.999035,0.000000,-11843.295072,306.438199
2774.999363,666.185348,-9400.615463,-1685.410096
2774.999690,1554.432478,-7254.018232,-2451.505594
2775.000018,1036.288319,-8438.347739,-229.828649
2775.000345,0.000000,-10436.903782,1685.410096
2775.000673,74.020594,-11695.253884,1378.971896
2775.001001,666.185348,-9992.780217,-229.828649
2775.001328,814.226536,-7254.018232,-1149.143247
2775.001656,1036.288319,-6291.750507,-766.095498
2775.001983,740.205942,-9252.574275,842.705048
2775.002311,-592.164754,-11991.336260,2221.676944
2775.002638,-518.144159,-10955.047942,153.219100
2775.002966,-1110.308913,-7994.224174,-2451.505594
2775.003293,0.000000,-7624.121203,-2911.162892
2775.003621,444.123565,-9474.636058,-1991.848295
2775.003948,0.000000,-12435.459826,995.924147
2775.004276,814.226536,-12731.542202,1072.533697
2775.004604,1702.473667,-9474.636058,-1225.752797
2775.004931,1776.494261,-7402.059420,-1608.800546
2775.005259,592.164754,-8438.347739,689.485948
2775.005586,222.061783,-10732.986159,1838.629195
2775.005914,518.144159,-11769.274478,842.705048
2775.006241,370.102971,-9548.656652,-1149.143247
2775.006569,1110.308913,-8068.244768,-1685.410096
2775.006896,814.226536,-8364.327145,-536.266849
2775.007224,0.000000,-10436.903782,1149.143247
2775.007551,-592.164754,-11917.315666,842.705048
2775.007879,0.000000,-11177.109724,-995.924147
2775.008207,1036.288319,-8142.265362,-2145.067394
2775.008534,1480.411884,-7624.121203,-1072.533697
2775.008862,370.102971,-9696.697840,2068.457845
2775.009189,-592.164754,-11621.233289,2681.334243
2775.009517,-666.185348,-9992.780217,1302.362347
2775.009844,-592.164754,-7328.038826,-1915.238745
2775.010172,-962.267725,-7031.956449,-2374.896044
2775.010499,-444.123565,-9252.574275,-459.657299
2775.010827,-444.123565,-11325.150913,689.485948
2775.011154,222.061783,-11251.130318,919.314598
2775.011482,370.102971,-9474.636058,-1762.019645
2775.011810,888.247130,-8142.265362,-1149.143247
2775.012137,814.226536,-9030.512492,0.000000
2775.012465,222.061783,-11177.109724,1149.143247
2775.012792,370.102971,-11547.212695,1302.362347
2775.013120,1554.432478,-9622.677246,-995.924147
2775.013447,1258.350101,-7624.121203,-1072.533697
2775.013775,666.185348,-8290.306550,-306.438199
2775.014102,-592.164754,-10214.842000,612.876398
2775.014430,-962.267725,-11917.315666,689.485948
2775.014757,-592.164754,-10732.986159,-1149.143247
2775.015085,444.123565,-8660.409521,-2451.505594
2775.015413,1110.308913,-8068.244768,-995.924147
2775.015740,814.226536,-11325.150913,766.095498
2775.016068,148.041188,-12583.501014,2221.676944
2775.016395,962.267725,-10807.006753,0.000000
2775.016723,814.226536,-7920.203579,-1608.800546
2775.017050,148.041188,-6661.853478,-1762.019645
2775.017378,-296.082377,-8586.388927,76.609550
2775.017705,-370.102971,-11251.130318,1608.800546
2775.018033,0.000000,-10584.944971,383.047749
2775.018360,0.000000,-9030.512492,-689.485948
2775.018688,-666.185348,-7698.141797,-1685.410096
2775.019016,-370.102971,-8808.450710,-1149.143247
2775.019343,0.000000,-11029.068536,0.000000
2775.019671,148.041188,-12879.583391,536.266849
2775.019998,1554.432478,-11473.192101,153.219100
2775.020326,3034.844362,-8882.471304,-536.266849
2775.020653,1998.556043,-7698.141797,383.047749
2775.020981,814.226536,-9992.780217,1378.971896
2775.021308,-296.082377,-11399.171507,842.705048
2775.021636,0.000000,-10066.800811,-766.095498
2775.021963,370.102971,-7402.059420,-2221.676944
2775.022291,74.020594,-7402.059420,-995.924147
2775.022619,370.102971,-10362.883188,689.485948
2775.022946,296.082377,-11325.150913,1608.800546
2775.023274,518.144159,-11251.130318,689.485948
2775.023601,370.102971,-9326.594869,-1302.362347
2775.023929,888.247130,-8364.327145,-1608.800546
2775.024256,444.123565,-9474.636058,-612.876398
2775.024584,0.000000,-11917.315666,842.705048
2775.024911,0.000000,-11103.089130,919.314598
2775.025239,-370.102971,-8956.491898,-1149.143247
2775.025566,-222.061783,-7846.182985,-1915.238745
2775.025894,-592.164754,-8956.491898,-1225.752797
2775.026222,-740.205942,-11325.150913,229.828649
2775.026549,148.041188,-12287.418637,612.876398
2775.026877,666.185348,-10066.800811,-842.705048
2775.027204,666.185348,-7105.977043,-766.095498
2775.027532,1110.308913,-7031.956449,306.438199
2775.027859,814.226536,-9770.718434,842.705048
2775.028187,0.000000,-11399.171507,1302.362347
2775.028514,74.020594,-10584.944971,0.000000
2775.028842,666.185348,-8734.430116,-1225.752797
2775.029169,1110.308913,-8512.368333,-536.266849
2775.029497,592.164754,-9622.677246,-306.438199
2775.029825,-962.267725,-11547.212695,1685.410096
2775.030152,0.000000,-11917.315666,0.000000
2775.030480,666.185348,-9252.574275,-2298.286494
2775.030807,888.247130,-7624.121203,-2145.067394
2775.031135,444.123565,-8660.409521,612.876398
2775.031462,0.000000,-9992.780217,3294.210641
2775.031790,296.082377,-9918.759623,1991.848295
2775.032117,222.061783,-9400.615463,-766.095498
2775.032445,74.020594,-7994.224174,-2145.067394
2775.032772,-148.041188,-8364.327145,-1302.362347
2775.033100,-592.164754,-10436.903782,-153.219100
2775.033428,-740.205942,-11843.295072,153.219100
2775.033755,0.000000,-11029.068536,-689.485948
2775.034083,1554.432478,-9474.636058,-1072.533697
2775.034410,1850.514855,-8068.244768,-1225.752797
2775.034738,1480.411884,-9770.718434,76.609550
2775.035065,370.102971,-11769.274478,1762.019645
2775.035393,518.144159,-10510.924376,995.924147
2775.035720,888.247130,-7994.224174,-1149.143247
2775.036048,518.144159,-6735.874072,-1149.143247
2775.036375,0.000000,-9252.574275,0.000000
2775.036703,-370.102971,-11843.295072,1532.190996
2775.037031,-888.247130,-11029.068536,229.828649
2775.037358,-740.205942,-9252.574275,-2298.286494
2775.037686,-370.102971,-8882.471304,-2528.115143
2775.038013,-740.205942,-9474.636058,-612.876398
2775.038341,-592.164754,-10955.047942,766.095498
2775.038668,444.123565,-11991.336260,0.000000
2775.038996,222.061783,-10658.965565,-919.314598
2775.039323,888.247130,-8068.244768,-1072.533697
2775.039651,74.020594,-7772.162391,76.609550
2775.039978,-740.205942,-10066.800811,1225.752797
2775.040306,518.144159,-12213.398043,919.314598
2775.040634,1110.308913,-10807.006753,-1302.362347
2775.040961,1258.350101,-8438.347739,-1302.362347
2775.041289,1776.494261,-8438.347739,-153.219100
2775.041616,962.267725,-9622.677246,995.924147
2775.041944,0.000000,-11177.109724,2068.457845
2775.042271,222.061783,-10955.047942,842.705048
2775.042599,1480.411884,-8512.368333,-919.314598
2775.042926,1110.308913,-7476.080014,-766.095498
2775.043254,148.041188,-9474.636058,1532.190996
2775.043581,0.000000,-9844.739029,1762.019645
2775.043909,-222.061783,-10362.883188,612.876398
2775.044237,-814.226536,-8882.471304,-1455.581446
2775.044564,-814.226536,-7624.121203,-2145.067394
2775.044892,-370.102971,-8512.368333,-1532.190996
2775.045219,-296.082377,-11103.089130,612.876398
2775.045547,-370.102971,-12805.562797,995.924147
2775.045874,-444.123565,-10658.965565,-995.924147
2775.046202,-148.041188,-8142.265362,-2068.457845
2775.046529,1184.329507,-8734.430116,-2068.457845
2775.046857,1110.308913,-11177.109724,-306.438199
2775.047184,1036.288319,-12287.418637,1302.362347
2775.047512,1406.391290,-10288.862594,0.000000
2775.047840,1850.514855,-8216.285956,-1302.362347
2775.048167,1998.556043,-8512.368333,-995.924147
2775.048495,592.164754,-9474.636058,536.266849
2775.048822,222.061783,-11399.171507,919.314598
2775.049150,518.144159,-11547.212695,-689.485948
2775.049477,814.226536,-9326.594869,-1915.238745
2775.049805,962.267725,-8290.306550,-842.705048
2775.050132,74.020594,-9030.512492,1225.752797
2775.050460,-222.061783,-10214.842000,1225.752797
2775.050787,-222.061783,-10955.047942,842.705048
2775.051115,-518.144159,-9030.512492,-1455.581446
2775.051443,0.000000,-7476.080014,-2145.067394
2775.051770,0.000000,-8068.244768,-766.095498
2775.052098,-296.082377,-10140.821405,1302.362347
2775.052425,-296.082377,-12361.439231,612.876398
2775.052753,-222.061783,-10066.800811,459.657299
2775.053080,518.144159,-7920.203579,-1225.752797
2775.053408,666.185348,-8364.327145,-842.705048
2775.053735,592.164754,-9992.780217,1072.533697
2775.054063,666.185348,-11103.089130,1378.971896
2775.054390,1036.288319,-9844.739029,612.876398
2775.054718,962.267725,-8068.244768,-995.924147
2775.055046,888.247130,-8068.244768,-1532.190996
2775.055373,740.205942,-9326.594869,0.000000
2775.055701,-518.144159,-11251.130318,842.705048
2775.056028,0.000000,-11547.212695,0.000000
2775.056356,444.123565,-9844.739029,-1608.800546
2775.056683,962.267725,-8364.327145,-1685.410096
2775.057011,222.061783,-9104.533087,0.000000
2775.057338,-518.144159,-11547.212695,1838.629195
2775.057666,-666.185348,-11473.192101,1302.362347
2775.057993,0.000000,-9252.574275,-919.314598
2775.058321,296.082377,-7550.100608,-1991.848295
2775.058649,-222.061783,-8956.491898,-229.828649
2775.058976,-666.185348,-10658.965565,1378.971896
2775.059304,148.041188,-11399.171507,1685.410096
2775.059631,666.185348,-10362.883188,-1762.019645
2775.059959,888.247130,-9030.512492,-2068.457845
2775.060286,444.123565,-8364.327145,-306.438199
2775.060614,74.020594,-9474.636058,1149.143247
2775.060941,518.144159,-11251.130318,1532.190996
2775.061269,592.164754,-10214.842000,0.000000
2775.061596,814.226536,-7994.224174,-919.314598
2775.061924,518.144159,-7031.956449,-1072.533697
2775.062252,0.000000,-7920.203579,153.219100
2775.062579,-1332.370696,-11325.150913,842.705048
2775.062907,-370.102971,-12213.398043,0.000000
2775.063234,888.247130,-9474.636058,-1762.019645
2775.063562,2220.617826,-8438.347739,-1762.019645
2775.063889,1406.391290,-9622.677246,0.000000
2775.064217,962.267725,-11399.171507,2068.457845
2775.064544,296.082377,-11177.109724,842.705048
2775.064872,370.102971,-8882.471304,-1072.533697
2775.065199,222.061783,-6735.874072,-1302.362347
2775.065527,-148.041188,-7402.059420,-306.438199
2775.065855,-592.164754,-9992.780217,1378.971896
2775.066182,148.041188,-11991.336260,536.266849
2775.066510,222.061783,-10955.047942,-1378.971896
2775.066837,0.000000,-9326.594869,-1915.238745
2775.067165,148.041188,-9178.553681,-2298.286494
2775.067492,0.000000,-10362.883188,-995.924147
2775.067820,-148.041188,-12287.418637,459.657299
2775.068147,148.041188,-11621.233289,0.000000
2775.068475,1480.411884,-8956.491898,-995.924147
2775.068802,1110.308913,-7846.182985,-536.266849
2775.069130,0.000000,-9104.533087,-306.438199
2775.069458,-1406.391290,-10881.027347,1225.752797
2775.069785,-666.185348,-10732.986159,0.000000
2775.070113,0.000000,-8660.409521,-1762.019645
2775.070440,666.185348,-7698.141797,-1762.019645
2775.070768,0.000000,-8660.409521,383.047749
2775.071095,296.082377,-10955.047942,2451.505594
2775.071423,444.123565,-11325.150913,1149.143247
2775.071750,666.185348,-10214.842000,-612.876398
2775.072078,1036.288319,-8290.306550,-842.705048
2775.072405,962.267725,-7624.121203,-229.828649
2775.072733,888.247130,-9844.739029,919.314598
2775.073061,518.144159,-11695.253884,2145.067394
2775.073388,444.123565,-10510.924376,-459.657299
2775.073716,962.267725,-8364.327145,-1455.581446
2775.074043,666.185348,-8660.409521,-1149.143247
2775.074371,74.020594,-9548.656652,0.000000
2775.074698,370.102971,-11547.212695,842.705048
2775.075026,222.061783,-10955.047942,229.828649
2775.075354,1258.350101,-8808.450710,-306.438199
2775.075681,1628.453072,-7772.162391,-995.924147
2775.076009,592.164754,-9252.574275,1225.752797
2775.076336,-296.082377,-10658.965565,1608.800546
2775.076664,0.000000,-10658.965565,612.876398
2775.076992,296.082377,-9400.615463,-1072.533697
2775.077319,962.267725,-8216.285956,-1532.190996
2775.077647,0.000000,-9622.677246,153.219100
2775.077974,-296.082377,-11029.068536,1225.752797
2775.078302,148.041188,-11917.315666,-229.828649
2775.078629,444.123565,-10436.903782,-1685.410096
2775.078957,296.082377,-7846.182985,-1762.019645
2775.079285,0.000000,-7772.162391,0.000000
2775.079612,222.061783,-10066.800811,1149.143247
2775.079940,444.123565,-11695.253884,2068.457845
2775.080267,296.082377,-10807.006753,0.000000
2775.080595,-222.061783,-8882.471304,-1302.362347
2775.080922,-444.123565,-8216.285956,-1378.971896
2775.081250,-370.102971,-9844.739029,-459.657299
2775.081578,-740.205942,-11843.295072,76.609550
2775.081905,-222.061783,-11547.212695,0.000000
2775.082233,814.226536,-9400.615463,-1455.581446
2775.082560,1332.370696,-8216.285956,-1149.143247
2775.082888,444.123565,-9178.553681,383.047749
2775.083215,-740.205942,-10510.924376,1378.971896
2775.083543,0.000000,-10362.883188,536.266849
2775.083871,1036.288319,-8660.409521,-995.924147
2775.084198,1850.514855,-8068.244768,-919.314598
2775.084526,1110.308913,-8512.368333,536.266849
2775.084853,370.102971,-10214.842000,689.485948
2775.085181,-148.041188,-11843.295072,842.705048
2775.085508,-1036.288319,-9770.718434,-1608.800546
2775.085836,-222.061783,-8068.244768,-2834.553343
2775.086164,-296.082377,-8068.244768,-1685.410096
2775.086491,0.000000,-9770.718434,153.219100
2775.086819,444.123565,-11621.233289,1532.190996
2775.087146,222.061783,-11399.171507,1072.533697
2775.087474,0.000000,-8216.285956,-612.876398
2775.087801,0.000000,-7105.977043,-1149.143247
2775.088129,-740.205942,-8808.450710,-383.047749
2775.088457,-592.164754,-11325.150913,842.705048
2775.088784,0.000000,-11769.274478,612.876398
2775.089112,222.061783,-9696.697840,-995.924147
2775.089439,370.102971,-8586.388927,-2298.286494
2775.089767,370.102971,-9474.636058,-1455.581446
2775.090094,0.000000,-11177.109724,0.000000
2775.090422,74.020594,-11843.295072,612.876398
2775.090750,1850.514855,-9992.780217,-153.219100
2775.091077,2886.803174,-7994.224174,-229.828649
2775.091405,1924.535449,-8734.430116,1149.143247
2775.091732,666.185348,-10362.883188,2604.724693
2775.092060,444.123565,-11177.109724,1608.800546
2775.092387,0.000000,-9844.739029,-1149.143247
2775.092715,0.000000,-7698.141797,-2528.115143
2775.093043,0.000000,-7698.141797,-1455.581446
2775.093370,74.020594,-9844.739029,459.657299
2775.093698,814.226536,-11695.253884,2374.896044
2775.094025,1036.288319,-11473.192101,383.047749
2775.094353,1258.350101,-8586.388927,-995.924147
2775.094681,444.123565,-7105.977043,-1149.143247
2775.095008,0.000000,-8438.347739,229.828649
2775.095336,222.061783,-10584.944971,1455.581446
2775.095663,74.020594,-10214.842000,1225.752797
2775.095991,518.144159,-8438.347739,-459.657299
2775.096318,1110.308913,-8734.430116,-689.485948
2775.096646,518.144159,-9326.594869,-383.047749
2775.096974,-296.082377,-10658.965565,229.828649
2775.097301,-222.061783,-11399.171507,229.828649
2775.097629,666.185348,-9844.739029,-1302.362347
2775.097956,1036.288319,-7994.224174,-1378.971896
2775.098284,0.000000,-8586.388927,153.219100
2775.098611,-296.082377,-11103.089130,1915.238745
2775.098939,1184.329507,-12139.377449,612.876398
2775.099267,518.144159,-10066.800811,-1149.143247
2775.099594,-222.061783,-8586.388927,-1991.848295
2775.099922,-444.123565,-8364.327145,-1302.362347
2775.100249,-518.144159,-10066.800811,-306.438199
2775.100577,-1406.391290,-11991.336260,0.000000
2775.100904,-814.226536,-12065.356855,-1072.533697
2775.101232,0.000000,-9474.636058,-1455.581446
2775.101560,592.164754,-9474.636058,-1302.362347
2775.101887,370.102971,-9992.780217,612.876398
2775.102215,296.082377,-10955.047942,1455.581446
2775.102542,222.061783,-10881.027347,612.876398
2775.102870,444.123565,-8956.491898,-995.924147
2775.103197,1258.350101,-7254.018232,-995.924147
2775.103525,592.164754,-7254.018232,306.438199
2775.103853,0.000000,-10066.800811,1762.019645
2775.104180,222.061783,-11103.089130,1532.190996
2775.104508,814.226536,-9178.553681,0.000000
2775.104835,888.247130,-7846.182985,-995.924147
2775.105163,-222.061783,-8068.244768,153.219100
2775.105490,-1258.350101,-9252.574275,1149.143247
2775.105818,-1480.411884,-10362.883188,1072.533697
2775.106146,-1036.288319,-9992.780217,-689.485948
2775.106473,222.061783,-8290.306550,-1225.752797
2775.106801,1406.391290,-8438.347739,-306.438199
2775.107128,1480.411884,-10288.862594,766.095498
2775.107456,74.020594,-11917.315666,1149.143247
2775.107783,0.000000,-11177.109724,-383.047749
2775.108111,592.164754,-9326.594869,-2451.505594
2775.108439,444.123565,-8216.285956,-1915.238745
2775.108766,222.061783,-8364.327145,0.000000
2775.109094,1110.308913,-10510.924376,1608.800546
2775.109421,2072.576638,-12435.459826,1455.581446
2775.109749,2146.597232,-10732.986159,0.000000
2775.110076,1480.411884,-8808.450710,-1455.581446
2775.110404,962.267725,-9252.574275,-995.924147
2775.110732,-592.164754,-10436.903782,-229.828649
2775.111059,-888.247130,-11621.233289,0.000000
2775.111387,-592.164754,-9770.718434,-995.924147
2775.111714,666.185348,-8660.409521,-1762.019645
2775.112042,740.205942,-9844.739029,-766.095498
2775.112369,-518.144159,-11695.253884,1072.533697
2775.112697,74.020594,-11991.336260,842.705048
2775.113025,444.123565,-10362.883188,-1149.143247
2775.113352,0.000000,-8068.244768,-1762.019645
2775.113680,74.020594,-6809.894666,-766.095498
2775.114007,370.102971,-7920.203579,919.314598
2775.114335,1036.288319,-10584.944971,1838.629195
2775.114663,666.185348,-11251.130318,1149.143247
2775.114990,518.144159,-9178.553681,0.000000
2775.115318,222.061783,-8068.244768,-1455.581446
2775.115645,148.041188,-8734.430116,-229.828649
2775.115973,0.000000,-10732.986159,689.485948
2775.116300,444.123565,-11621.233289,459.657299
2775.116628,1554.432478,-9918.759623,-689.485948
2775.116956,1850.514855,-8364.327145,-842.705048
2775.117283,1406.391290,-8660.409521,536.266849
2775.117611,148.041188,-9178.553681,1991.848295
2775.117938,0.000000,-9844.739029,689.485948
2775.118266,-370.102971,-9326.594869,-612.876398
2775.118593,0.000000,-7994.224174,-1685.410096
2775.118921,-962.267725,-8142.265362,-1072.533697
2775.119249,-592.164754,-9770.718434,0.000000
2775.119576,-296.082377,-11325.150913,459.657299
2775.119904,0.000000,-11399.171507,-612.876398
2775.120231,444.123565,-8512.368333,-1838.629195
2775.120559,1258.350101,-8438.347739,-1378.971896
2775.120886,1184.329507,-10066.800811,76.609550
2775.121214,814.226536,-11547.212695,1378.971896
2775.121542,814.226536,-11769.274478,766.095498
2775.121869,888.247130,-9770.718434,-459.657299
2775.122197,814.226536,-8438.347739,-1302.362347
2775.122524,0.000000,-8808.450710,-459.657299
2775.122852,-296.082377,-10732.986159,76.609550
2775.123179,74.020594,-11843.295072,0.000000
2775.123507,592.164754,-10362.883188,-612.876398
2775.123835,1184.329507,-8882.471304,-2145.067394
2775.124162,666.185348,-8142.265362,612.876398
2775.124490,0.000000,-9178.553681,1225.752797
2775.124817,148.041188,-11325.150913,1072.533697
2775.125145,518.144159,-10140.821405,0.000000
2775.125472,222.061783,-8512.368333,-1072.533697
2775.125800,0.000000,-8364.327145,-612.876398
2775.126128,-1184.329507,-9622.677246,689.485948
2775.126455,-1036.288319,-10955.047942,1072.533697
2775.126783,-444.123565,-10214.842000,-1072.533697
2775.127110,370.102971,-9252.574275,-1838.629195
2775.127438,148.041188,-8216.285956,-919.314598
2775.127765,0.000000,-8660.409521,536.266849
2775.128093,-296.082377,-10807.006753,1378.971896
2775.128421,-518.144159,-10881.027347,1149.143247
2775.128748,-148.041188,-9400.615463,-1072.533697
2775.129076,-296.082377,-7624.121203,-689.485948
2775.129403,-222.061783,-8586.388927,0.000000
2775.129731,-296.082377,-11029.068536,612.876398
2775.130058,-740.205942,-11251.130318,0.000000
2775.130386,-740.205942,-9992.780217,-2145.067394
2775.130714,148.041188,-9178.553681,-2221.676944
2775.131041,666.185348,-9252.574275,-689.485948
2775.131369,222.061783,-10066.800811,459.657299
2775.131696,296.082377,-11547.212695,1072.533697
2775.132024,814.226536,-10214.842000,0.000000
2775.132352,1110.308913,-8438.347739,-1455.581446
2775.132679,814.226536,-8512.368333,-689.485948
2775.133007,370.102971,-9918.759623,153.219100
2775.133334,814.226536,-11103.089130,766.095498
2775.133662,592.164754,-10584.944971,-229.828649
2775.133989,518.144159,-9326.594869,-1532.190996
2775.134317,444.123565,-8142.265362,-1302.362347
2775.134645,0.000000,-8882.471304,76.609550
2775.134972,0.000000,-10881.027347,612.876398
2775.135300,740.205942,-12435.459826,-536.266849
2775.135627,1110.308913,-10140.821405,-766.095498
2775.135955,740.205942,-7846.182985,-536.266849
2775.136282,1110.308913,-8290.306550,76.609550
2775.136610,592.164754,-10140.821405,995.924147
2775.136938,518.144159,-11029.068536,995.924147
2775.137265,370.102971,-9400.615463,-1149.143247
2775.137593,1406.391290,-8586.388927,-1378.971896
2775.137920,740.205942,-8438.347739,0.000000
2775.138248,-518.144159,-9548.656652,1149.143247
2775.138575,-1554.432478,-10436.903782,1302.362347
2775.138903,-592.164754,-10066.800811,-612.876398
2775.139231,962.267725,-8586.388927,-2068.457845
2775.139558,1110.308913,-8660.409521,-766.095498
2775.139886,962.267725,-9770.718434,536.266849
2775.140213,888.247130,-10362.883188,1915.238745
2775.140541,1332.370696,-10510.924376,153.219100
2775.140868,518.144159,-9252.574275,-1378.971896
2775.141196,0.000000,-8290.306550,-1532.190996
2775.141524,-518.144159,-9030.512492,-689.485948
2775.141851,-148.041188,-11177.109724,-612.876398
2775.142179,888.247130,-11843.295072,-1149.143247
2775.142506,814.226536,-10066.800811,-842.705048
2775.142834,1258.350101,-9030.512492,-153.219100
2775.143161,888.247130,-9252.574275,536.266849
2775.143489,222.061783,-10140.821405,1149.143247
2775.143817,222.061783,-11103.089130,229.828649
2775.144144,0.000000,-9770.718434,-766.095498
2775.144472,740.205942,-8364.327145,-919.314598
2775.144799,0.000000,-8734.430116,536.266849
2775.145127,-370.102971,-9844.739029,1302.362347
2775.145454,-148.041188,-11547.212695,76.609550
2775.145782,370.102971,-11547.212695,-1378.971896
2775.146110,740.205942,-9252.574275,-1915.238745
2775.146437,666.185348,-8068.244768,-766.095498
2775.146765,148.041188,-9252.574275,1149.143247
2775.147092,-962.267725,-10362.883188,2911.162892
2775.147420,-740.205942,-9622.677246,1072.533697
2775.147747,-592.164754,-7550.100608,-1225.752797
2775.148075,-666.185348,-7402.059420,-1608.800546
2775.148403,-444.123565,-8956.491898,-459.657299
2775.148730,-592.164754,-10732.986159,459.657299
2775.149058,-740.205942,-11991.336260,229.828649
2775.149385,-370.102971,-10584.944971,-1225.752797
2775.149713,296.082377,-9400.615463,-2374.896044
2775.150040,-370.102971,-8956.491898,-995.924147
2775.150368,-666.185348,-10510.924376,383.047749
2775.150696,222.061783,-11917.315666,536.266849
2775.151023,1184.329507,-10732.986159,-383.047749
2775.151351,888.247130,-8586.388927,-306.438199
2775.151678,296.082377,-7476.080014,612.876398
2775.152006,-296.082377,-8882.471304,612.876398
2775.152334,-888.247130,-10140.821405,306.438199
2775.152661,-296.082377,-9992.780217,-1455.581446
2775.152989,814.226536,-9104.533087,-1685.410096
2775.153316,1850.514855,-9326.594869,0.000000
2775.153644,1554.432478,-10288.862594,1685.410096
2775.153971,2072.576638,-11547.212695,919.314598
2775.154299,1998.556043,-10807.006753,612.876398
2775.154627,1702.473667,-8808.450710,-995.924147
2775.154954,1036.288319,-7402.059420,-1455.581446
2775.155282,-222.061783,-8438.347739,0.000000
2775.155609,0.000000,-10955.047942,383.047749
2775.155937,444.123565,-11547.212695,383.047749
2775.156264,814.226536,-10362.883188,-919.314598
2775.156592,1184.329507,-9030.512492,-1302.362347
2775.156920,962.267725,-9474.636058,-459.657299
2775.157247,1036.288319,-10362.883188,0.000000
2775.157575,1554.432478,-11399.171507,76.609550
2775.157902,1850.514855,-10362.883188,229.828649
2775.158230,1628.453072,-8216.285956,383.047749
2775.158557,1110.308913,-7994.224174,1378.971896
2775.158885,740.205942,-8882.471304,1532.190996
2775.159213,444.123565,-10436.903782,995.924147
2775.159540,518.144159,-10436.903782,-689.485948
2775.159868,444.123565,-9474.636058,-1685.410096
2775.160195,962.267725,-9030.512492,-1072.533697
2775.160523,888.247130,-9474.636058,306.438199
2775.160850,-148.041188,-10807.006753,766.095498
2775.161178,-222.061783,-10288.862594,229.828649
2775.161506,0.000000,-8734.430116,-1225.752797
2775.161833,0.000000,-8438.347739,-1149.143247
2775.162161,-592.164754,-9178.553681,229.828649
2775.162488,-592.164754,-10658.965565,842.705048
2775.162816,-444.123565,-10807.006753,459.657299
2775.163143,-296.082377,-9548.656652,-1072.533697
2775.163471,-296.082377,-8660.409521,-1608.800546
2775.163799,148.041188,-8660.409521,-995.924147
2775.164126,370.102971,-10436.903782,612.876398
2775.164454,444.123565,-12139.377449,612.876398
2775.164781,1110.308913,-11399.171507,-229.828649
2775.165109,1036.288319,-8882.471304,-306.438199
2775.165436,888.247130,-8660.409521,-766.095498
2775.165764,-370.102971,-9104.533087,689.485948
2775.166092,-518.144159,-10288.862594,842.705048
2775.166419,-962.267725,-10362.883188,-459.657299
2775.166747,-740.205942,-9252.574275,-1149.143247
2775.167074,-592.164754,-8512.368333,-995.924147
2775.167402,-1406.391290,-8734.430116,459.657299
2775.167729,-1850.514855,-10955.047942,536.266849
2775.168057,-814.226536,-12139.377449,0.000000
2775.168385,-370.102971,-9474.636058,-1608.800546
2775.168712,-296.082377,-7476.080014,-1685.410096
2775.169040,-296.082377,-8068.244768,0.000000
2775.169367,-370.102971,-10214.842000,1685.410096
2775.169695,0.000000,-11103.089130,1225.752797
2775.170023,296.082377,-9844.739029,0.000000
2775.170350,592.164754,-8438.347739,-1302.362347
2775.170678,1110.308913,-8734.430116,-1455.581446
2775.171005,370.102971,-10140.821405,0.000000
2775.171333,-592.164754,-11029.068536,459.657299
2775.171660,-148.041188,-10955.047942,-459.657299
2775.171988,1184.329507,-9622.677246,-1532.190996
2775.172315,1702.473667,-8808.450710,-536.266849
2775.172643,1258.350101,-8956.491898,919.314598
2775.172970,1110.308913,-9918.759623,1532.190996
2775.173298,740.205942,-10066.800811,995.924147
2775.173626,814.226536,-8882.471304,-919.314598
2775.173953,592.164754,-8512.368333,-995.924147
2775.174281,370.102971,-9104.533087,536.266849
2775.174608,444.123565,-10584.944971,1378.971896
2775.174936,1258.350101,-11621.233289,-536.266849
2775.175263,1036.288319,-10140.821405,-1608.800546
2775.175591,1184.329507,-9030.512492,-1532.190996
2775.175918,814.226536,-9178.553681,-153.219100
2775.176246,1258.350101,-10436.903782,766.095498
2775.176574,1850.514855,-11621.233289,612.876398
2775.176901,1776.494261,-9992.780217,76.609550
2775.177229,1554.432478,-7994.224174,0.000000
2775.177556,888.247130,-7846.182985,459.657299
2775.177884,148.041188,-9696.697840,919.314598
2775.178211,0.000000,-11769.274478,459.657299
2775.178539,370.102971,-10658.965565,-1072.533697
2775.178866,370.102971,-9326.594869,-1608.800546
2775.179194,666.185348,-9178.553681,-1072.533697
2775.179521,444.123565,-9400.615463,536.266849
2775.179849,0.000000,-10140.821405,1455.581446
2775.180177,0.000000,-10807.006753,766.095498
2775.180504,740.205942,-8882.471304,-689.485948
2775.180832,74.020594,-7846.182985,0.000000
2775.181159,-888.247130,-8660.409521,1608.800546
2775.181487,-1998.556043,-9400.615463,995.924147
2775.181814,-2442.679609,-9696.697840,-229.828649
2775.182142,-1628.453072,-9474.636058,-2451.505594
2775.182469,-518.144159,-8364.327145,-2834.553343
2775.182797,-666.185348,-8734.430116,-1149.143247
2775.183124,-666.185348,-10584.944971,1302.362347
2775.183452,370.102971,-11547.212695,612.876398
2775.183780,1776.494261,-10658.965565,-919.314598
2775.184107,148.041188,-8512.368333,-842.705048
2775.184435,0.000000,-8438.347739,-306.438199
2775.184762,148.041188,-9474.636058,0.000000
2775.185090,0.000000,-11547.212695,76.609550
2775.185417,0.000000,-11177.109724,0.000000
2775.185745,222.061783,-8956.491898,-919.314598
2775.186072,592.164754,-8734.430116,-536.266849
2775.186400,0.000000,-9770.718434,383.047749
2775.186728,0.000000,-11325.150913,153.219100
2775.187055,0.000000,-10140.821405,-383.047749
2775.187383,518.144159,-8808.450710,-1532.190996
2775.187710,666.185348,-9030.512492,-153.219100
2775.188038,296.082377,-8808.450710,1302.362347
2775.188365,0.000000,-9770.718434,2221.676944
2775.188693,518.144159,-11029.068536,536.266849
2775.189020,518.144159,-9400.615463,-1685.410096
2775.189348,666.185348,-7772.162391,-1762.019645
2775.189675,0.000000,-8808.450710,0.000000
2775.190003,-814.226536,-9696.697840,1225.752797
2775.190331,-148.041188,-11103.089130,766.095498
2775.190658,666.185348,-9918.759623,-1149.143247
2775.190986,666.185348,-8734.430116,-1302.362347
2775.191313,1036.288319,-9178.553681,0.000000
2775.191641,740.205942,-9622.677246,995.924147
2775.191968,1258.350101,-10807.006753,1072.533697
2775.192296,1850.514855,-11177.109724,0.000000
2775.192623,1628.453072,-9770.718434,-612.876398
2775.192951,1554.432478,-8290.306550,229.828649
2775.193278,1332.370696,-8438.347739,229.828649
2775.193606,666.185348,-10807.006753,383.047749
2775.193934,592.164754,-11843.295072,153.219100
2775.194261,814.226536,-9474.636058,-1225.752797
2775.194589,1258.350101,-8364.327145,-612.876398
2775.194916,740.205942,-9252.574275,229.828649
2775.195244,296.082377,-9770.718434,153.219100
2775.195571,148.041188,-10214.842000,536.266849
2775.195899,518.144159,-8660.409521,-383.047749
2775.196226,1258.350101,-8512.368333,-919.314598
2775.196554,444.123565,-9178.553681,0.000000
2775.196881,-518.144159,-9178.553681,995.924147
2775.197209,-592.164754,-10658.965565,536.266849
2775.197537,-518.144159,-9696.697840,-1302.362347
2775.197864,-296.082377,-9326.594869,-1915.238745
2775.198192,-1258.350101,-10362.883188,-842.705048
2775.198519,-666.185348,-10584.944971,153.219100
2775.198847,666.185348,-11473.192101,-229.828649
2775.199174,1036.288319,-12065.356855,-383.047749
2775.199502,-148.041188,-8734.430116,-612.876398
2775.199829,-592.164754,-6883.915261,612.876398
2775.200157,-296.082377,-7846.182985,536.266849
2775.200485,-592.164754,-9844.739029,229.828649
2775.200812,-888.247130,-10436.903782,0.000000
2775.201140,-444.123565,-8956.491898,-919.314598
2775.201467,666.185348,-8882.471304,-919.314598
2775.201795,0.000000,-10362.883188,0.000000
2775.202122,-740.205942,-10732.986159,995.924147
2775.202450,296.082377,-11251.130318,0.000000
2775.202777,592.164754,-9918.759623,-1149.143247
2775.203105,1332.370696,-8882.471304,-1378.971896
2775.203432,1036.288319,-8660.409521,0.000000
2775.203760,74.020594,-9474.636058,1608.800546
2775.204088,-814.226536,-10584.944971,1455.581446
2775.204415,-1110.308913,-9770.718434,-842.705048
2775.204743,-1554.432478,-8364.327145,-1762.019645
2775.205070,-962.267725,-8216.285956,-2068.457845
2775.205398,0.000000,-10066.800811,-612.876398
2775.205725,518.144159,-11695.253884,0.000000
2775.206053,1332.370696,-10955.047942,0.000000
2775.206380,2590.720797,-9696.697840,-1225.752797
2775.206708,1850.514855,-8512.368333,-306.438199
2775.207035,1480.411884,-8512.368333,842.705048
2775.207363,740.205942,-10066.800811,1455.581446
2775.207691,666.185348,-10732.986159,612.876398
2775.208018,888.247130,-9400.615463,-766.095498
2775.208346,1036.288319,-8882.471304,-536.266849
2775.208673,0.000000,-9252.574275,459.657299
2775.209001,-370.102971,-10584.944971,766.095498
2775.209328,444.123565,-11325.150913,0.000000
2775.209656,-74.020594,-9770.718434,-766.095498
2775.209983,222.061783,-8364.327145,-995.924147
2775.210311,666.185348,-8586.388927,306.438199
2775.210639,296.082377,-9992.780217,1608.800546
2775.210966,296.082377,-10732.986159,1149.143247
2775.211294,370.102971,-10362.883188,-459.657299
2775.211621,370.102971,-9104.533087,-1072.533697
2775.211949,592.164754,-8216.285956,-995.924147
2775.212276,74.020594,-9178.553681,0.000000
2775.212604,-518.144159,-10955.047942,842.705048
2775.212931,814.226536,-11917.315666,0.000000
2775.213259,2146.597232,-9918.759623,-1685.410096
2775.213586,1628.453072,-8586.388927,-1225.752797
2775.213914,1480.411884,-9474.636058,536.266849
2775.214242,518.144159,-9918.759623,1915.238745
2775.214569,0.000000,-10288.862594,919.314598
2775.214897,0.000000,-9178.553681,-919.314598
2775.215224,0.000000,-8586.388927,-842.705048
2775.215552,0.000000,-8956.491898,459.657299
2775.215879,-444.123565,-9548.656652,612.876398
2775.216207,-666.185348,-11399.171507,0.000000
2775.216534,-814.226536,-10288.862594,-1608.800546
2775.216862,-888.247130,-8586.388927,-2221.676944
2775.217189,-740.205942,-8438.347739,-1225.752797
2775.217517,-518.144159,-9696.697840,229.828649
2775.217845,370.102971,-11251.130318,995.924147
2775.218172,814.226536,-10140.821405,153.219100
2775.218500,666.185348,-8808.450710,-1225.752797
2775.218827,740.205942,-8290.306550,-689.485948
2775.219155,0.000000,-8808.450710,-229.828649
2775.219482,0.000000,-10658.965565,229.828649
2775.219810,592.164754,-10807.006753,-766.095498
2775.220137,1110.308913,-9770.718434,-1149.143247
2775.220465,1628.453072,-9548.656652,0.000000
2775.220792,296.082377,-9844.739029,1532.190996
2775.221120,0.000000,-9992.780217,1072.533697
2775.221448,-148.041188,-11251.130318,153.219100
2775.221775,0.000000,-9474.636058,-1455.581446
2775.222103,-370.102971,-8068.244768,-1225.752797
2775.222430,-370.102971,-8364.327145,-536.266849
2775.222758,-296.082377,-9844.739029,536.266849
2775.223085,-444.123565,-10362.883188,1532.190996
2775.223413,0.000000,-9474.636058,-995.924147
2775.223740,-370.102971,-8882.471304,-1915.238745
2775.224068,-666.185348,-9326.594869,-995.924147
2775.224396,-1110.308913,-9548.656652,0.000000
2775.224723,-666.185348,-10288.862594,76.609550
2775.225051,592.164754,-11325.150913,-536.266849
2775.225378,1184.329507,-9474.636058,-383.047749
2775.225706,1332.370696,-9178.553681,0.000000
2775.226033,1406.391290,-9770.718434,995.924147
2775.226361,1628.453072,-11103.089130,1225.752797
2775.226688,1776.494261,-11325.150913,-612.876398
2775.227016,888.247130,-9992.780217,-995.924147
2775.227343,-148.041188,-8068.244768,-1225.752797
2775.227671,1036.288319,-8512.368333,-459.657299
2775.227999,592.164754,-10436.903782,689.485948
2775.228326,666.185348,-11177.109724,689.485948
2775.228654,1332.370696,-10214.842000,-153.219100
2775.228981,1480.411884,-8956.491898,-383.047749
2775.229309,1110.308913,-8882.471304,306.438199
2775.229636,296.082377,-9474.636058,919.314598
2775.229964,-222.061783,-10140.821405,1532.190996
2775.230291,-148.041188,-9030.512492,153.219100
2775.230619,148.041188,-8364.327145,-766.095498
2775.230946,0.000000,-8660.409521,-383.047749
2775.231274,-518.144159,-9474.636058,459.657299
2775.231602,-592.164754,-11251.130318,689.485948
2775.231929,740.205942,-10881.027347,-2298.286494
2775.232257,888.247130,-8660.409521,-1225.752797
2775.232584,814.226536,-8364.327145,-459.657299
2775.232912,74.020594,-9252.574275,842.705048
2775.233239,0.000000,-10140.821405,1455.581446
2775.233567,370.102971,-10362.883188,153.219100
2775.233894,0.000000,-9252.574275,-919.314598
2775.234222,0.000000,-8956.491898,-1149.143247
2775.234550,592.164754,-9548.656652,-689.485948
2775.234877,296.082377,-11029.068536,-306.438199
2775.235205,296.082377,-12361.439231,-383.047749
2775.235532,592.164754,-10807.006753,-1532.190996
2775.235860,592.164754,-9178.553681,-1762.019645
2775.236187,740.205942,-9030.512492,-536.266849
2775.236515,-444.123565,-9918.759623,1225.752797
2775.236842,74.020594,-11103.089130,612.876398
2775.237170,666.185348,-9844.739029,-153.219100
2775.237497,592.164754,-8290.306550,-1762.019645
2775.237825,-370.102971,-8216.285956,-1302.362347
2775.238153,-518.144159,-9474.636058,-153.219100
2775.238480,-296.082377,-10436.903782,0.000000
2775.238808,0.000000,-10288.862594,0.000000
2775.239135,814.226536,-9548.656652,-842.705048
2775.239463,592.164754,-9474.636058,76.609550
2775.239790,740.205942,-9622.677246,459.657299
2775.240118,74.020594,-10658.965565,689.485948
2775.240445,-740.205942,-11695.253884,0.000000
2775.240773,74.020594,-10140.821405,-1378.971896
2775.241100,1110.308913,-8216.285956,-2221.676944
2775.241428,444.123565,-7920.203579,766.095498
2775.241756,-444.123565,-9474.636058,1991.848295
2775.242083,-370.102971,-10881.027347,1302.362347
2775.242411,74.020594,-9030.512492,-1072.533697
2775.242738,0.000000,-7550.100608,-2068.457845
2775.243066,0.000000,-8438.347739,-536.266849
2775.243393,0.000000,-10362.883188,1149.143247
2775.243721,888.247130,-10881.027347,1302.362347
2775.244048,1776.494261,-10658.965565,76.609550
2775.244376,1554.432478,-9474.636058,-842.705048
2775.244703,1332.370696,-9474.636058,153.219100
2775.245031,518.144159,-9178.553681,383.047749
2775.245359,0.000000,-10140.821405,0.000000
2775.245686,0.000000,-10436.903782,-306.438199
2775.246014,888.247130,-9030.512492,-2145.067394
2775.246341,1258.350101,-8586.388927,-536.266849
2775.246669,814.226536,-9622.677246,306.438199
2775.246996,740.205942,-11325.150913,459.657299
2775.247324,814.226536,-12139.377449,-383.047749
2775.247651,962.267725,-10214.842000,-2068.457845
2775.247979,814.226536,-7624.121203,-1608.800546
2775.248307,1332.370696,-8216.285956,0.000000
2775.248634,1184.329507,-10362.883188,1532.190996
2775.248962,518.144159,-11621.233289,1532.190996
2775.249289,962.267725,-10066.800811,-459.657299
2775.249617,444.123565,-9400.615463,-1838.629195
2775.249944,-222.061783,-9252.574275,-919.314598
2775.250272,-222.061783,-9844.739029,-306.438199
2775.250599,-296.082377,-10732.986159,536.266849
2775.250927,370.102971,-9918.759623,153.219100
2775.251254,666.185348,-8364.327145,-536.266849
2775.251582,370.102971,-7772.162391,76.609550
2775.251910,0.000000,-8364.327145,1072.533697
2775.252237,-888.247130,-10362.883188,2145.067394
2775.252565,-1036.288319,-10436.903782,536.266849
2775.252892,-518.144159,-8142.265362,-1225.752797
2775.253220,-148.041188,-8438.347739,-1225.752797
2775.253547,0.000000,-9696.697840,0.000000
2775.253875,-296.082377,-10881.027347,995.924147
2775.254202,74.020594,-11399.171507,306.438199
2775.254530,1184.329507,-9992.780217,-766.095498
2775.254857,962.267725,-9030.512492,-919.314598
2775.255185,740.205942,-8364.327145,229.828649
2775.255513,740.205942,-9474.636058,306.438199
2775.255840,592.164754,-10732.986159,919.314598
2775.256168,740.205942,-9844.739029,-689.485948
2775.256495,296.082377,-8364.327145,-1378.971896
2775.256823,0.000000,-8586.388927,-306.438199
2775.257150,74.020594,-10140.821405,153.219100
2775.257478,0.000000,-11991.336260,-612.876398
2775.257805,0.000000,-10881.027347,-1685.410096
2775.258133,148.041188,-9252.574275,-2451.505594
2775.258461,222.061783,-9030.512492,-1149.143247
2775.258788,-296.082377,-9622.677246,0.000000
2775.259116,-666.185348,-10955.047942,842.705048
2775.259443,148.041188,-10881.027347,459.657299
2775.259771,814.226536,-8660.409521,-1532.190996
2775.260098,-296.082377,-8512.368333,-689.485948
2775.260426,0.000000,-9104.533087,76.609550
2775.260753,222.061783,-10510.924376,306.438199
2775.261081,592.164754,-11843.295072,0.000000
2775.261408,1258.350101,-10436.903782,-1455.581446
2775.261736,1850.514855,-9104.533087,-1378.971896
2775.262064,1776.494261,-8586.388927,689.485948
2775.262391,1406.391290,-9918.759623,1685.410096
2775.262719,888.247130,-10436.903782,2068.457845
2775.263046,1628.453072,-9326.594869,459.657299
2775.263374,1406.391290,-7550.100608,-536.266849
2775.263701,518.144159,-8142.265362,0.000000
2775.264029,-370.102971,-9030.512492,995.924147
2775.264356,-962.267725,-10288.862594,1762.019645
2775.264684,-888.247130,-9918.759623,-766.095498
2775.265011,-148.041188,-8290.306550,-2374.896044
2775.265339,296.082377,-8586.388927,-995.924147
2775.265667,370.102971,-9622.677246,1072.533697
2775.265994,0.000000,-10584.944971,1225.752797
2775.266322,-370.102971,-10214.842000,536.266849
2775.266649,-962.267725,-9104.533087,-1149.143247
2775.266977,-1110.308913,-8068.244768,-1915.238745
2775.267304,-888.247130,-8956.491898,-1455.581446
2775.267632,-370.102971,-10807.006753,0.000000
2775.267959,444.123565,-11991.336260,0.000000
2775.268287,2146.597232,-11177.109724,-919.314598
2775.268614,2516.700203,-9622.677246,-1302.362347
2775.268942,1628.453072,-9474.636058,-306.438199
2775.269270,814.226536,-9474.636058,612.876398
2775.269597,518.144159,-10881.027347,153.219100
2775.269925,888.247130,-9992.780217,-1302.362347
2775.270252,1184.329507,-8216.285956,-1225.752797
2775.270580,518.144159,-8808.450710,383.047749
2775.270907,370.102971,-10807.006753,1455.581446
2775.271235,-148.041188,-11621.233289,1302.362347
2775.271562,0.000000,-10436.903782,-766.095498
2775.271890,0.000000,-8956.491898,-3064.381992
2775.272218,-814.226536,-8660.409521,-1608.800546
2775.272545,-370.102971,-8808.450710,0.000000
2775.272872,-222.061783,-10658.965565,1455.581446
2775.273200,0.000000,-10955.047942,2068.457845
2775.273527,888.247130,-9844.739029,153.219100
2775.273855,814.226536,-8290.306550,0.000000
2775.274182,148.041188,-8956.491898,689.485948
2775.274510,0.000000,-9474.636058,383.047749
2775.274837,0.000000,-9548.656652,229.828649
2775.275165,-444.123565,-8734.430116,0.000000
2775.275492,222.061783,-7550.100608,-459.657299
2775.275820,740.205942,-8290.306550,1302.362347
2775.276147,370.102971,-9844.739029,1149.143247
2775.276475,148.041188,-10881.027347,0.000000
2775.276802,148.041188,-9622.677246,-1149.143247
2775.277130,444.123565,-8882.471304,-1608.800546
2775.277457,370.102971,-9326.594869,-459.657299
2775.277785,592.164754,-10584.944971,1302.362347
2775.278112,1110.308913,-10436.903782,1225.752797
2775.278440,1776.494261,-10955.047942,0.000000
2775.278767,1406.391290,-9844.739029,-1149.143247
2775.279095,222.061783,-9474.636058,-1072.533697
2775.279422,-148.041188,-9622.677246,-612.876398
2775.279750,-370.102971,-11029.068536,-383.047749
2775.280077,444.123565,-11029.068536,-1149.143247
2775.280405,740.205942,-9622.677246,-1302.362347
2775.280732,1406.391290,-8660.409521,-229.828649
2775.281060,1554.432478,-8882.471304,459.657299
2775.281387,1628.453072,-10362.883188,1072.533697
2775.281715,1258.350101,-11029.068536,612.876398
2775.282042,962.267725,-9992.780217,-306.438199
2775.282369,888.247130,-8364.327145,-995.924147
2775.282697,370.102971,-8512.368333,-612.876398
2775.283024,-222.061783,-11029.068536,0.000000
2775.283352,0.000000,-11695.253884,153.219100
2775.283679,296.082377,-10658.965565,-536.266849
2775.284007,222.061783,-9400.615463,-612.876398
2775.284334,0.000000,-8882.471304,76.609550
2775.284662,-222.061783,-9252.574275,689.485948
2775.284989,-444.123565,-9474.636058,1225.752797
2775.285317,-740.205942,-9252.574275,306.438199
2775.285644,-1184.329507,-7624.121203,-995.924147
2775.285972,-666.185348,-7550.100608,-383.047749
2775.286299,-370.102971,-8734.430116,383.047749
2775.286627,-296.082377,-11177.109724,919.314598
2775.286954,-296.082377,-11547.212695,153.219100
2775.287282,592.164754,-10140.821405,-2528.115143
2775.287609,666.185348,-9622.677246,-2451.505594
2775.287937,296.082377,-9548.656652,-536.266849
2775.288264,444.123565,-9696.697840,459.657299
2775.288592,222.061783,-11177.109724,1149.143247
2775.288919,888.247130,-10436.903782,229.828649
2775.289247,1628.453072,-9474.636058,-1532.190996
2775.289574,814.226536,-8808.450710,-995.924147
2775.289902,0.000000,-9252.574275,-229.828649
2775.290229,-666.185348,-10584.944971,-383.047749
2775.290557,-666.185348,-10955.047942,-919.314598
2775.290884,74.020594,-8586.388927,-1915.238745
2775.291211,0.000000,-8364.327145,-612.876398
2775.291539,666.185348,-10732.986159,459.657299
2775.291866,1036.288319,-12213.398043,842.705048
2775.292194,592.164754,-11399.171507,76.609550
2775.292521,740.205942,-9030.512492,-1455.581446
2775.292849,0.000000,-7772.162391,-1225.752797
2775.293176,0.000000,-8290.306550,306.438199
2775.293504,-370.102971,-9400.615463,1532.190996
2775.293831,-296.082377,-10362.883188,459.657299
2775.294159,740.205942,-9622.677246,-306.438199
2775.294486,148.041188,-8512.368333,-1378.971896
2775.294814,296.082377,-9030.512492,0.000000
2775.295141,222.061783,-9918.759623,766.095498
2775.295469,0.000000,-10658.965565,995.924147
2775.295796,740.205942,-10584.944971,0.000000
2775.296124,1702.473667,-8808.450710,-612.876398
2775.296451,1776.494261,-8438.347739,612.876398
2775.296779,1258.350101,-9178.553681,1991.848295
2775.297106,444.123565,-10658.965565,1532.190996
2775.297434,0.000000,-10288.862594,153.219100
2775.297761,148.041188,-8438.347739,-2221.676944
2775.298089,-296.082377,-8364.327145,-1532.190996
2775.298416,0.000000,-9474.636058,-612.876398
2775.298744,148.041188,-10436.903782,1455.581446
2775.299071,444.123565,-11399.171507,0.000000
2775.299399,888.247130,-9474.636058,-1149.143247
2775.299726,888.247130,-8660.409521,-919.314598
2775.300054,814.226536,-8956.491898,-153.219100
2775.300381,444.123565,-10362.883188,842.705048
2775.300708,0.000000,-11843.295072,306.438199
2775.301036,370.102971,-10807.006753,-1302.362347
2775.301363,296.082377,-9400.615463,-2451.505594
2775.301691,-296.082377,-9400.615463,-229.828649
2775.302018,0.000000,-9844.739029,229.828649
2775.302346,-592.164754,-11547.212695,229.828649
2775.302673,148.041188,-11399.171507,-1149.143247
2775.303001,592.164754,-8586.388927,-2145.067394
2775.303328,222.061783,-7772.162391,-842.705048
2775.303656,592.164754,-9474.636058,1072.533697
2775.303983,444.123565,-10732.986159,1455.581446
2775.304311,296.082377,-10214.842000,766.095498
2775.304638,296.082377,-8586.388927,-919.314598
2775.304966,666.185348,-8586.388927,-1072.533697
2775.305293,666.185348,-9474.636058,0.000000
2775.305621,-296.082377,-10288.862594,1225.752797
2775.305948,-1184.329507,-9992.780217,459.657299
2775.306276,-370.102971,-9326.594869,-1991.848295
2775.306603,74.020594,-8216.285956,-2298.286494
2775.306931,-518.144159,-8290.306550,0.000000
2775.307258,-592.164754,-9696.697840,1685.410096
2775.307586,296.082377,-11177.109724,1225.752797
2775.307913,666.185348,-10066.800811,-459.657299
2775.308241,0.000000,-8216.285956,-612.876398
2775.308568,-296.082377,-8586.388927,0.000000
2775.308896,222.061783,-9696.697840,306.438199
2775.309223,74.020594,-11029.068536,0.000000
2775.309550,-370.102971,-10955.047942,-459.657299
2775.309878,-222.061783,-8956.491898,-1378.971896
2775.310205,-370.102971,-9178.553681,-1302.362347
2775.310533,0.000000,-9992.780217,-842.705048
2775.310860,74.020594,-11325.150913,-153.219100
2775.311188,444.123565,-11473.192101,306.438199
2775.311515,962.267725,-9474.636058,0.000000
2775.311843,1702.473667,-8364.327145,-612.876398
2775.312170,1258.350101,-9400.615463,689.485948
2775.312498,370.102971,-10066.800811,1072.533697
2775.312825,518.144159,-10881.027347,0.000000
2775.313153,296.082377,-9030.512492,-2221.676944
2775.313480,0.000000,-7994.224174,-2528.115143
2775.313808,0.000000,-9178.553681,-842.705048
2775.314135,444.123565,-10658.965565,995.924147
2775.314463,740.205942,-11103.089130,1378.971896
2775.314790,1776.494261,-10436.903782,-459.657299
