#time,accel_x,accel_y,accel_z
3109.323177,-148.041188,-9992.780217,-383.047749
3109.323504,-148.041188,-9400.615463,-612.876398
3109.323832,222.061783,-9918.759623,-383.047749
3109.324159,296.082377,-9844.739029,-536.266849
3109.324487,518.144159,-10288.862594,153.219100
3109.324814,518.144159,-10066.800811,0.000000
3109.325141,592.164754,-9992.780217,0.000000
3109.325469,370.102971,-9474.636058,153.219100
3109.325796,222.061783,-9474.636058,229.828649
3109.326124,0.000000,-9178.553681,0.000000
3109.326451,-222.061783,-8734.430116,459.657299
3109.326779,370.102971,-9474.636058,-766.095498
3109.327106,0.000000,-9770.718434,-459.657299
3109.327433,74.020594,-9770.718434,-229.828649
3109.327761,148.041188,-9918.759623,-459.657299
3109.328088,962.267725,-10658.965565,0.000000
3109.328416,888.247130,-10140.821405,76.609550
3109.328743,740.205942,-9992.780217,-536.266849
3109.329071,222.061783,-9400.615463,0.000000
3109.329398,518.144159,-9622.677246,306.438199
3109.329725,74.020594,-9252.574275,0.000000
3109.330053,74.020594,-8956.491898,0.000000
3109.330380,0.000000,-8956.491898,0.000000
3109.330708,74.020594,-9622.677246,0.000000
3109.331035,74.020594,-9696.697840,-229.828649
3109.331363,222.061783,-10510.924376,-459.657299
3109.331690,444.123565,-10140.821405,-306.438199
3109.332017,592.164754,-10214.842000,0.000000
3109.332345,592.164754,-10066.800811,229.828649
3109.332672,666.185348,-9696.697840,0.000000
3109.333000,444.123565,-9548.656652,153.219100
3109.333327,0.000000,-9400.615463,0.000000
3109.333655,0.000000,-9400.615463,229.828649
3109.333982,-444.123565,-9252.574275,-306.438199
3109.334309,-148.041188,-9474.636058,-612.876398
3109.334637,0.000000,-9844.739029,-536.266849
3109.334964,0.000000,-9548.656652,-766.095498
3109.335292,222.061783,-9696.697840,-153.219100
3109.335619,740.205942,-9918.759623,-383.047749
3109.335947,740.205942,-9770.718434,153.219100
3109.336274,592.164754,-9696.697840,76.609550
3109.336601,370.102971,-9474.636058,76.609550
3109.336929,296.082377,-9548.656652,306.438199
3109.337256,296.082377,-9326.594869,229.828649
3109.337584,148.041188,-8882.471304,-306.438199
3109.337911,814.226536,-9178.553681,-306.438199
3109.338239,1850.514855,-9326.594869,-842.705048
3109.338566,2664.741391,-9252.574275,-612.876398
3109.338893,3478.967927,-9400.615463,-306.438199
3109.339221,4737.318029,-9622.677246,-229.828649
3109.339548,5995.668130,-10214.842000,0.000000
3109.339876,6809.894666,-10066.800811,0.000000
3109.340203,7105.977043,-9548.656652,-383.047749
3109.340531,7328.038826,-9548.656652,0.000000
3109.340858,7402.059420,-9696.697840,0.000000
3109.341185,7550.100608,-10362.883188,0.000000
3109.341513,7550.100608,-10140.821405,76.609550
3109.341840,8586.388927,-9104.533087,-306.438199
3109.342168,9474.636058,-9474.636058,0.000000
3109.342495,9770.718434,-9326.594869,-612.876398
3109.342823,10881.027347,-8734.430116,0.000000
3109.343150,11695.253884,-9178.553681,153.219100
3109.343477,11473.192101,-9696.697840,459.657299
3109.343805,11547.212695,-9696.697840,995.924147
3109.344132,11029.068536,-9252.574275,383.047749
3109.344460,11029.068536,-8808.450710,612.876398
3109.344787,11621.233289,-9400.615463,919.314598
3109.345114,12731.542202,-10066.800811,153.219100
3109.345442,13619.789333,-10510.924376,536.266849
3109.345769,14211.954086,-9918.759623,459.657299
3109.346097,14285.974681,-9104.533087,153.219100
3109.346424,13841.851115,-8956.491898,229.828649
3109.346752,13471.748144,-8956.491898,306.438199
3109.347079,13471.748144,-9104.533087,1149.143247
3109.347406,13841.851115,-9844.739029,1532.190996
3109.347734,13545.768739,-9844.739029,1455.581446
3109.348061,12953.603985,-9252.574275,1149.143247
3109.348389,11769.274478,-8512.368333,1378.971896
3109.348716,10881.027347,-8586.388927,919.314598
3109.349044,10658.965565,-9030.512492,689.485948
3109.349371,10807.006753,-10436.903782,-842.705048
3109.349698,9844.739029,-10288.862594,-995.924147
3109.350026,9104.533087,-9770.718434,-459.657299
3109.350353,8660.409521,-9178.553681,0.000000
3109.350681,8586.388927,-9104.533087,153.219100
3109.351008,9844.739029,-9548.656652,306.438199
3109.351336,10658.965565,-11325.150913,0.000000
3109.351663,9918.759623,-10881.027347,383.047749
3109.351990,9474.636058,-9770.718434,0.000000
3109.352318,8512.368333,-8512.368333,306.438199
3109.352645,7772.162391,-9030.512492,229.828649
3109.352973,7846.182985,-9770.718434,-459.657299
3109.353300,8068.244768,-11103.089130,-995.924147
3109.353628,7476.080014,-11177.109724,0.000000
3109.353955,7920.203579,-9770.718434,-612.876398
3109.354282,7328.038826,-9252.574275,-383.047749
3109.354610,6217.729913,-10140.821405,383.047749
3109.354937,5551.544565,-10214.842000,0.000000
3109.355265,7254.018232,-9918.759623,-1225.752797
3109.355592,8290.306550,-8438.347739,-995.924147
3109.355920,7254.018232,-8438.347739,1455.581446
3109.356247,4811.338623,-8364.327145,2604.724693
3109.356574,2294.638420,-8586.388927,2528.115143
3109.356902,2960.823768,-8956.491898,-842.705048
3109.357229,5699.585753,-10510.924376,-3983.696590
3109.357557,5255.462188,-11917.315666,-2374.896044
3109.357884,4441.235652,-10807.006753,536.266849
3109.358212,3997.112087,-9622.677246,766.095498
3109.358539,4515.256246,-10436.903782,0.000000
3109.358866,1776.494261,-9104.533087,-459.657299
3109.359194,444.123565,-6143.709319,-459.657299
3109.359521,1036.288319,-5699.585753,-842.705048
3109.359849,2960.823768,-7698.141797,-842.705048
3109.360176,3330.926739,-9104.533087,689.485948
3109.360504,3552.988522,-8734.430116,1915.238745
3109.360831,4959.379811,-9252.574275,919.314598
3109.361158,6587.832884,-9474.636058,-766.095498
3109.361486,5625.565159,-10362.883188,-995.924147
3109.361813,5255.462188,-11621.233289,0.000000
3109.362141,6365.771101,-11103.089130,-612.876398
3109.362468,5477.523971,-10732.986159,76.609550
3109.362795,2442.679609,-11399.171507,1838.629195
3109.363123,1998.556043,-11251.130318,2451.505594
3109.363450,2812.782580,-9844.739029,-766.095498
3109.363778,1406.391290,-9252.574275,-2068.457845
3109.364105,-1702.473667,-8512.368333,-1838.629195
3109.364433,0.000000,-9400.615463,-459.657299
3109.364760,1110.308913,-8290.306550,229.828649
3109.365087,592.164754,-8734.430116,76.609550
3109.365415,74.020594,-9770.718434,229.828649
3109.365742,1258.350101,-9474.636058,-919.314598
3109.366070,1702.473667,-10362.883188,-995.924147
3109.366397,1480.411884,-12139.377449,-842.705048
3109.366725,1554.432478,-12213.398043,-306.438199
3109.367052,1110.308913,-11029.068536,612.876398
3109.367379,592.164754,-11103.089130,76.609550
3109.367707,814.226536,-9992.780217,-1225.752797
3109.368034,-222.061783,-8956.491898,-766.095498
3109.368362,-1332.370696,-9770.718434,76.609550
3109.368689,148.041188,-8512.368333,-612.876398
3109.369017,2220.617826,-7179.997637,-995.924147
3109.369344,1258.350101,-9104.533087,2681.334243
3109.369671,518.144159,-9252.574275,4136.915689
3109.369999,962.267725,-6513.812290,842.705048
3109.370326,-518.144159,-8660.409521,-612.876398
3109.370654,-1554.432478,-11621.233289,-153.219100
3109.370981,-1110.308913,-10066.800811,-1072.533697
3109.371309,-1998.556043,-9696.697840,-383.047749
3109.371636,-2368.659014,-12435.459826,919.314598
3109.371963,-2072.576638,-11547.212695,-1302.362347
3109.372291,-4367.215058,-9474.636058,-919.314598
3109.372618,-5033.400406,-9918.759623,229.828649
3109.372946,-2368.659014,-6217.729913,-1762.019645
3109.373273,-814.226536,-6439.791695,-2145.067394
3109.373601,-1850.514855,-10066.800811,2298.286494
3109.373928,444.123565,-8956.491898,2604.724693
3109.374255,2664.741391,-7031.956449,-229.828649
3109.374583,222.061783,-9400.615463,612.876398
3109.374910,-296.082377,-12583.501014,766.095498
3109.375238,1184.329507,-11621.233289,-2298.286494
3109.375565,518.144159,-13323.706956,-1762.019645
3109.375893,0.000000,-14359.995275,-306.438199
3109.376220,444.123565,-11325.150913,-1915.238745
3109.376547,-2146.597232,-9770.718434,-612.876398
3109.376875,-3108.864956,-10584.944971,766.095498
3109.377202,-1776.494261,-7031.956449,-2451.505594
3109.377530,-1628.453072,-5403.503377,-3140.991542
3109.377857,-1554.432478,-8364.327145,766.095498
3109.378185,2442.679609,-7624.121203,842.705048
3109.378512,4219.173869,-6513.812290,229.828649
3109.378839,2368.659014,-10584.944971,1608.800546
3109.379167,3701.029710,-12139.377449,1455.581446
3109.379494,5107.421000,-11103.089130,-2221.676944
3109.379822,2516.700203,-13397.727550,-842.705048
3109.380149,2368.659014,-15174.221811,459.657299
3109.380476,2812.782580,-11769.274478,-766.095498
3109.380804,296.082377,-10510.924376,383.047749
3109.381131,-962.267725,-10288.862594,842.705048
3109.381459,0.000000,-5921.647536,-612.876398
3109.381786,-1258.350101,-4515.256246,76.609550
3109.382114,-1110.308913,-6661.853478,1762.019645
3109.382441,1998.556043,-5107.421000,995.924147
3109.382768,2590.720797,-4885.359217,383.047749
3109.383096,1184.329507,-9400.615463,2604.724693
3109.383423,2886.803174,-10584.944971,1762.019645
3109.383751,5921.647536,-11769.274478,-1991.848295
3109.384078,3182.885551,-15026.180623,383.047749
3109.384406,2220.617826,-16654.633695,306.438199
3109.384733,518.144159,-12139.377449,-2374.896044
3109.385060,-3627.009116,-10066.800811,-1991.848295
3109.385388,-4589.276840,-10288.862594,-1915.238745
3109.385715,-2960.823768,-6587.832884,-2834.553343
3109.386043,-2664.741391,-5625.565159,0.000000
3109.386370,-1110.308913,-7550.100608,2298.286494
3109.386698,1924.535449,-6587.832884,536.266849
3109.387025,1702.473667,-5625.565159,306.438199
3109.387353,962.267725,-9474.636058,1838.629195
3109.387680,2294.638420,-10066.800811,306.438199
3109.388008,3108.864956,-10436.903782,-1302.362347
3109.388336,1850.514855,-14211.954086,459.657299
3109.388663,1850.514855,-15100.201217,689.485948
3109.388991,1110.308913,-12065.356855,-1991.848295
3109.389318,-2072.576638,-12879.583391,-383.047749
3109.389646,-4959.379811,-11621.233289,-383.047749
3109.389974,-3404.947333,-7031.956449,-3830.477490
3109.390301,-4737.318029,-6957.935855,-2911.162892
3109.390629,-3627.009116,-7846.182985,-612.876398
3109.390956,888.247130,-5329.482782,-842.705048
3109.391284,740.205942,-4515.256246,1685.410096
3109.391612,296.082377,-9178.553681,4903.011187
3109.391939,2886.803174,-9622.677246,2451.505594
3109.392267,3923.091493,-9622.677246,-383.047749
3109.392594,1110.308913,-13471.748144,1149.143247
3109.392922,1628.453072,-14878.139434,-536.266849
3109.393250,0.000000,-10066.800811,-1915.238745
3109.393577,-4367.215058,-10436.903782,0.000000
3109.393905,-3849.070898,-11547.212695,-1149.143247
3109.394232,-2590.720797,-9252.574275,-3753.867940
3109.394560,-3923.091493,-8586.388927,-1762.019645
3109.394888,-666.185348,-8364.327145,229.828649
3109.395215,2442.679609,-5551.544565,-229.828649
3109.395543,1110.308913,-6587.832884,1302.362347
3109.395870,1036.288319,-8068.244768,3830.477490
3109.396198,4367.215058,-6513.812290,536.266849
3109.396526,4811.338623,-9474.636058,-995.924147
3109.396853,3701.029710,-14285.974681,1838.629195
3109.397181,3775.050304,-12509.480420,0.000000
3109.397508,1332.370696,-11177.109724,-2221.676944
3109.397836,-2072.576638,-14878.139434,-766.095498
3109.398163,-2294.638420,-13397.727550,-2528.115143
3109.398491,-1554.432478,-8882.471304,-3830.477490
3109.398819,-2146.597232,-9548.656652,-1378.971896
3109.399146,148.041188,-8956.491898,-306.438199
3109.399474,2368.659014,-5477.523971,-1072.533697
3109.399801,1110.308913,-6883.915261,2298.286494
3109.400129,1480.411884,-8290.306550,3753.867940
3109.400457,4441.235652,-7624.121203,1225.752797
3109.400784,4293.194464,-8882.471304,-229.828649
3109.401112,2590.720797,-14137.933492,612.876398
3109.401439,3256.906145,-13249.686362,-1302.362347
3109.401767,1776.494261,-11547.212695,-2145.067394
3109.402095,-1924.535449,-13323.706956,842.705048
3109.402422,-1850.514855,-11843.295072,0.000000
3109.402750,-1702.473667,-9030.512492,-2145.067394
3109.403077,-3775.050304,-9400.615463,0.000000
3109.403405,-3552.988522,-6735.874072,-612.876398
3109.403733,-2442.679609,-4219.173869,-1762.019645
3109.404060,-3552.988522,-5477.523971,1838.629195
3109.404388,-1184.329507,-6809.894666,3064.381992
3109.404715,3256.906145,-7105.977043,153.219100
3109.405043,4145.153275,-10436.903782,383.047749
3109.405371,3997.112087,-13989.892304,1072.533697
3109.405698,3775.050304,-12139.377449,-842.705048
3109.406026,1406.391290,-11843.295072,-919.314598
3109.406353,-1702.473667,-14582.057057,612.876398
3109.406681,-1036.288319,-10732.986159,-612.876398
3109.407009,-1480.411884,-7624.121203,-1378.971896
3109.407336,-3775.050304,-9178.553681,383.047749
3109.407664,-2738.761985,-7698.141797,383.047749
3109.407991,-1628.453072,-6069.688724,-1378.971896
3109.408319,-3997.112087,-6883.915261,919.314598
3109.408647,-1480.411884,-7402.059420,766.095498
3109.408974,2664.741391,-7846.182985,-1072.533697
3109.409302,2146.597232,-11029.068536,153.219100
3109.409629,2886.803174,-13027.624579,919.314598
3109.409957,5477.523971,-11325.150913,-2221.676944
3109.410285,3034.844362,-13989.892304,-919.314598
3109.410612,222.061783,-15988.448347,1838.629195
3109.410940,666.185348,-9992.780217,-306.438199
3109.411267,-1258.350101,-8142.265362,-1378.971896
3109.411595,-3627.009116,-10436.903782,383.047749
3109.411923,-3701.029710,-7254.018232,-995.924147
3109.412250,-5329.482782,-4441.235652,-1608.800546
3109.412578,-5847.626942,-7179.997637,383.047749
3109.412905,-1110.308913,-7698.141797,-1072.533697
3109.413233,1480.411884,-6513.812290,-3140.991542
3109.413561,2072.576638,-11695.253884,1915.238745
3109.413888,4737.318029,-12805.562797,2911.162892
3109.414216,6661.853478,-9770.718434,-919.314598
3109.414543,3404.947333,-10955.047942,306.438199
3109.414871,962.267725,-12583.501014,1838.629195
3109.415199,1776.494261,-9326.594869,-229.828649
3109.415526,-518.144159,-8290.306550,-229.828649
3109.415854,-3108.864956,-10658.965565,995.924147
3109.416181,-2886.803174,-8438.347739,-536.266849
3109.416509,-2886.803174,-5699.585753,-383.047749
3109.416837,-2220.617826,-7550.100608,842.705048
3109.417164,518.144159,-8734.430116,-383.047749
3109.417492,2368.659014,-7772.162391,-1302.362347
3109.417819,2886.803174,-10955.047942,1149.143247
3109.418147,3775.050304,-10732.986159,1532.190996
3109.418475,5033.400406,-8512.368333,-919.314598
3109.418802,2812.782580,-11695.253884,1378.971896
3109.419130,1406.391290,-12509.480420,2068.457845
3109.419457,1480.411884,-9326.594869,-1608.800546
3109.419785,-962.267725,-10510.924376,-1378.971896
3109.420112,-1924.535449,-12583.501014,459.657299
3109.420440,-740.205942,-10140.821405,-2528.115143
3109.420768,-3330.926739,-8216.285956,-1149.143247
3109.421095,-2960.823768,-7179.997637,995.924147
3109.421423,740.205942,-7698.141797,-612.876398
3109.421750,592.164754,-9770.718434,-306.438199
3109.422078,370.102971,-11251.130318,1838.629195
3109.422406,3034.844362,-8956.491898,689.485948
3109.422733,4219.173869,-7846.182985,-1455.581446
3109.423061,1480.411884,-12879.583391,919.314598
3109.423388,592.164754,-12139.377449,1378.971896
3109.423716,666.185348,-7920.203579,-1532.190996
3109.424044,-1406.391290,-10140.821405,-1072.533697
3109.424371,-1924.535449,-12213.398043,-689.485948
3109.424699,-1924.535449,-8512.368333,-1762.019645
3109.425026,-3997.112087,-8216.285956,612.876398
3109.425354,-3627.009116,-9696.697840,2451.505594
3109.425682,-296.082377,-9030.512492,-842.705048
3109.426009,-370.102971,-7994.224174,-536.266849
3109.426337,-296.082377,-8438.347739,1149.143247
3109.426664,1998.556043,-8364.327145,-383.047749
3109.426992,2442.679609,-8660.409521,-1838.629195
3109.427320,2072.576638,-11843.295072,995.924147
3109.427647,2960.823768,-10362.883188,919.314598
3109.427975,3330.926739,-6883.915261,0.000000
3109.428302,0.000000,-10584.944971,1762.019645
3109.428630,-1258.350101,-13249.686362,2145.067394
3109.428958,-888.247130,-9474.636058,-1838.629195
3109.429285,-3256.906145,-8808.450710,-1991.848295
3109.429613,-3404.947333,-10214.842000,0.000000
3109.429940,-1184.329507,-8586.388927,-1455.581446
3109.430268,-666.185348,-9178.553681,-306.438199
3109.430596,0.000000,-10362.883188,536.266849
3109.430923,2516.700203,-9178.553681,-2068.457845
3109.431251,3552.988522,-8290.306550,-2757.943793
3109.431578,2442.679609,-11251.130318,306.438199
3109.431906,4293.194464,-12065.356855,919.314598
3109.432234,4071.132681,-9474.636058,-612.876398
3109.432561,814.226536,-11621.233289,1455.581446
3109.432889,1258.350101,-11769.274478,536.266849
3109.433216,1776.494261,-9030.512492,-1838.629195
3109.433544,-1628.453072,-9474.636058,0.000000
3109.433872,-2738.761985,-10140.821405,2068.457845
3109.434199,-888.247130,-7179.997637,-1149.143247
3109.434527,-962.267725,-8586.388927,-306.438199
3109.434854,-1258.350101,-10362.883188,76.609550
3109.435182,518.144159,-7846.182985,-1532.190996
3109.435510,1850.514855,-7920.203579,-2451.505594
3109.435837,1036.288319,-11325.150913,612.876398
3109.436165,3552.988522,-9104.533087,306.438199
3109.436492,4959.379811,-7624.121203,-536.266849
3109.436820,3034.844362,-12583.501014,2681.334243
3109.437148,2368.659014,-11917.315666,2834.553343
3109.437475,2072.576638,-8068.244768,-919.314598
3109.437803,-2294.638420,-8808.450710,-306.438199
3109.438130,-4219.173869,-10510.924376,383.047749
3109.438458,-4293.194464,-8068.244768,-1225.752797
3109.438786,-4515.256246,-9178.553681,-1302.362347
3109.439113,-3256.906145,-10881.027347,-1149.143247
3109.439441,1184.329507,-8068.244768,-4826.401637
3109.439768,814.226536,-9474.636058,-2834.553343
3109.440096,444.123565,-11843.295072,2068.457845
3109.440424,4589.276840,-9178.553681,536.266849
3109.440751,5107.421000,-8586.388927,76.609550
3109.441079,1554.432478,-11547.212695,2911.162892
3109.441406,1776.494261,-9696.697840,1455.581446
3109.441734,444.123565,-7624.121203,0.000000
3109.442062,-3478.967927,-11621.233289,766.095498
3109.442389,-3330.926739,-12139.377449,-229.828649
3109.442717,-2294.638420,-9030.512492,-2604.724693
3109.443044,-3330.926739,-10658.965565,-1532.190996
3109.443372,-1258.350101,-11251.130318,-919.314598
3109.443699,296.082377,-7994.224174,-2987.772442
3109.444027,-1258.350101,-8882.471304,-383.047749
3109.444355,0.000000,-9548.656652,1455.581446
3109.444682,3627.009116,-5847.626942,0.000000
3109.445010,3478.967927,-7550.100608,2451.505594
3109.445337,1924.535449,-11103.089130,5515.887586
3109.445665,2442.679609,-8438.347739,2298.286494
3109.445993,-370.102971,-7994.224174,-919.314598
3109.446320,-2146.597232,-12657.521608,-1225.752797
3109.446648,-814.226536,-11843.295072,-2145.067394
3109.446975,-962.267725,-9770.718434,-2451.505594
3109.447303,-1776.494261,-10955.047942,689.485948
3109.447631,-222.061783,-9622.677246,0.000000
3109.447958,-592.164754,-7624.121203,-2451.505594
3109.448286,-3034.844362,-9178.553681,76.609550
3109.448613,74.020594,-8068.244768,306.438199
3109.448941,4145.153275,-4811.338623,-1608.800546
3109.449269,3108.864956,-9548.656652,689.485948
3109.449596,2442.679609,-12731.542202,3753.867940
3109.449924,3701.029710,-8512.368333,995.924147
3109.450251,1258.350101,-7402.059420,-842.705048
3109.450579,-1110.308913,-13249.686362,-306.438199
3109.450907,0.000000,-12139.377449,-2221.676944
3109.451234,-370.102971,-10140.821405,-2451.505594
3109.451562,-814.226536,-13249.686362,0.000000
3109.451889,1036.288319,-12731.542202,-1149.143247
3109.452217,1184.329507,-9770.718434,-2298.286494
3109.452545,-592.164754,-9178.553681,-612.876398
3109.452872,0.000000,-8068.244768,-229.828649
3109.453200,3552.988522,-6217.729913,-2374.896044
3109.453527,2220.617826,-9400.615463,229.828649
3109.453855,1998.556043,-9770.718434,2451.505594
3109.454183,4441.235652,-7254.018232,1302.362347
3109.454510,1332.370696,-8956.491898,1838.629195
3109.454838,-888.247130,-13619.789333,3064.381992
3109.455165,1110.308913,-12509.480420,-612.876398
3109.455493,-444.123565,-11251.130318,-2451.505594
3109.455821,-2590.720797,-12213.398043,-919.314598
3109.456148,-1776.494261,-9992.780217,-1302.362347
3109.456476,-2664.741391,-7254.018232,-1225.752797
3109.456803,-3849.070898,-7254.018232,689.485948
3109.457131,-148.041188,-6735.874072,-766.095498
3109.457459,2516.700203,-5921.647536,-1149.143247
3109.457786,1998.556043,-8808.450710,995.924147
3109.458114,1998.556043,-8808.450710,3294.210641
3109.458441,2368.659014,-7105.977043,1302.362347
3109.458769,370.102971,-10510.924376,1072.533697
3109.459097,0.000000,-13175.665768,0.000000
3109.459424,2220.617826,-10510.924376,-1915.238745
3109.459752,1110.308913,-10658.965565,-1532.190996
3109.460079,-1554.432478,-13323.706956,1072.533697
3109.460407,-2072.576638,-11029.068536,306.438199
3109.460735,-2220.617826,-8364.327145,-1991.848295
3109.461062,-2886.803174,-9770.718434,-2221.676944
3109.461390,-1998.556043,-8438.347739,-1915.238745
3109.461717,518.144159,-6735.874072,-2451.505594
3109.462045,1332.370696,-8660.409521,306.438199
3109.462373,1850.514855,-9474.636058,1608.800546
3109.462700,2960.823768,-7846.182985,842.705048
3109.463028,2368.659014,-11177.109724,1762.019645
3109.463355,2664.741391,-14359.995275,1685.410096
3109.463683,3701.029710,-11917.315666,-1838.629195
3109.464011,1702.473667,-11473.192101,-1915.238745
3109.464338,-1480.411884,-13471.748144,612.876398
3109.464666,-2812.782580,-10732.986159,-766.095498
3109.464993,-4737.318029,-8438.347739,-2604.724693
3109.465321,-5403.503377,-9474.636058,-1915.238745
3109.465648,-1850.514855,-7402.059420,-3447.429741
3109.465976,1036.288319,-6217.729913,-2681.334243
3109.466304,148.041188,-9474.636058,2221.676944
3109.466631,2220.617826,-8956.491898,2911.162892
3109.466959,3552.988522,-4811.338623,1685.410096
3109.467286,1554.432478,-8586.388927,1915.238745
3109.467614,1776.494261,-11547.212695,1378.971896
3109.467942,2960.823768,-9548.656652,-689.485948
3109.468269,1480.411884,-11695.253884,76.609550
3109.468597,-592.164754,-14211.954086,1532.190996
3109.468924,-370.102971,-10140.821405,-842.705048
3109.469252,-1850.514855,-9326.594869,-1608.800546
3109.469580,-2812.782580,-11029.068536,-536.266849
3109.469907,-518.144159,-6957.935855,-2834.553343
3109.470235,740.205942,-5847.626942,-2298.286494
3109.470562,148.041188,-7698.141797,2068.457845
3109.470890,2368.659014,-7328.038826,2911.162892
3109.471218,1702.473667,-4885.359217,1762.019645
3109.471545,0.000000,-9030.512492,2068.457845
3109.471873,1702.473667,-11621.233289,306.438199
3109.472200,2812.782580,-11325.150913,-2987.772442
3109.472528,518.144159,-14359.995275,-1455.581446
3109.472856,888.247130,-15692.365970,-919.314598
3109.473183,1850.514855,-11251.130318,-2298.286494
3109.473511,-518.144159,-10732.986159,-536.266849
3109.473838,-1776.494261,-11029.068536,1378.971896
3109.474166,-444.123565,-7402.059420,-1302.362347
3109.474494,-1480.411884,-7550.100608,-1455.581446
3109.474821,-962.267725,-8956.491898,459.657299
3109.475149,1406.391290,-6513.812290,766.095498
3109.475476,814.226536,-6069.688724,1532.190996
3109.475804,-222.061783,-10510.924376,3447.429741
3109.476132,1998.556043,-11251.130318,153.219100
3109.476459,2368.659014,-9696.697840,-3217.601092
3109.476787,444.123565,-13175.665768,-1532.190996
3109.477114,-814.226536,-13545.768739,536.266849
3109.477442,-1776.494261,-9918.759623,536.266849
3109.477770,-2442.679609,-10140.821405,536.266849
3109.478097,-1332.370696,-11103.089130,-689.485948
3109.478425,370.102971,-8438.347739,-1685.410096
3109.478752,0.000000,-7846.182985,536.266849
3109.479080,296.082377,-6957.935855,1685.410096
3109.479408,1184.329507,-5477.523971,-229.828649
3109.479735,0.000000,-6365.771101,306.438199
3109.480063,-888.247130,-8216.285956,1762.019645
3109.480390,1702.473667,-7772.162391,153.219100
3109.480718,3330.926739,-9030.512492,-1455.581446
3109.481046,1850.514855,-14878.139434,229.828649
3109.481373,1110.308913,-14656.077652,306.438199
3109.481701,592.164754,-11251.130318,-1608.800546
3109.482028,-1258.350101,-11843.295072,-1762.019645
3109.482356,-444.123565,-10807.006753,-1608.800546
3109.482684,222.061783,-7698.141797,-1915.238745
3109.483011,-1110.308913,-8068.244768,612.876398
3109.483339,-962.267725,-8734.430116,2221.676944
3109.483666,518.144159,-7031.956449,-229.828649
3109.483994,-1850.514855,-6957.935855,-536.266849
3109.484322,-2368.659014,-8956.491898,842.705048
3109.484649,666.185348,-9030.512492,-1302.362347
3109.484977,1850.514855,-10584.944971,-2145.067394
3109.485304,2738.761985,-14434.015869,0.000000
3109.485632,3552.988522,-13101.645173,-153.219100
3109.485960,2146.597232,-11251.130318,306.438199
3109.486287,-814.226536,-12657.521608,1378.971896
3109.486615,-1036.288319,-11917.315666,0.000000
3109.486942,-592.164754,-7550.100608,-2911.162892
3109.487270,-1036.288319,-8142.265362,-2221.676944
3109.487597,-296.082377,-8882.471304,842.705048
3109.487925,444.123565,-6291.750507,612.876398
3109.488253,0.000000,-6809.894666,2451.505594
3109.488580,444.123565,-8290.306550,2604.724693
3109.488908,2220.617826,-7402.059420,-536.266849
3109.489235,2516.700203,-9030.512492,-383.047749
3109.489563,1406.391290,-12731.542202,995.924147
3109.489891,1924.535449,-11695.253884,689.485948
3109.490218,1554.432478,-9252.574275,-383.047749
3109.490546,-1406.391290,-12361.439231,1225.752797
3109.490873,-1776.494261,-12065.356855,0.000000
3109.491201,-518.144159,-9400.615463,-3217.601092
3109.491528,0.000000,-10510.924376,-2604.724693
3109.491856,1184.329507,-10584.944971,-1532.190996
3109.492184,1850.514855,-6735.874072,76.609550
3109.492511,0.000000,-7772.162391,2221.676944
3109.492839,-666.185348,-8808.450710,2451.505594
3109.493166,962.267725,-6957.935855,-1378.971896
3109.493494,962.267725,-8956.491898,-2298.286494
3109.493821,666.185348,-11917.315666,-689.485948
3109.494149,518.144159,-9770.718434,-919.314598
3109.494477,444.123565,-10214.842000,-383.047749
3109.494804,-962.267725,-13175.665768,766.095498
3109.495132,-222.061783,-12139.377449,-306.438199
3109.495459,518.144159,-10214.842000,-1608.800546
3109.495787,0.000000,-11843.295072,0.000000
3109.496114,888.247130,-9918.759623,0.000000
3109.496442,370.102971,-6809.894666,-383.047749
3109.496770,-1628.453072,-7105.977043,1838.629195
3109.497097,-1702.473667,-7698.141797,2834.553343
3109.497425,740.205942,-5921.647536,0.000000
3109.497752,666.185348,-8142.265362,-919.314598
3109.498080,666.185348,-12287.418637,0.000000
3109.498408,1702.473667,-10214.842000,-995.924147
3109.498735,222.061783,-9696.697840,0.000000
3109.499063,-592.164754,-11917.315666,2145.067394
3109.499390,1184.329507,-11103.089130,153.219100
3109.499718,592.164754,-8512.368333,-995.924147
3109.500045,74.020594,-10584.944971,536.266849
3109.500373,518.144159,-10066.800811,0.000000
3109.500701,-1406.391290,-7920.203579,0.000000
3109.501028,-2664.741391,-9030.512492,1685.410096
3109.501356,222.061783,-7846.182985,0.000000
3109.501683,2072.576638,-7179.997637,-2451.505594
3109.502011,1406.391290,-11325.150913,-766.095498
3109.502338,1332.370696,-12435.459826,0.000000
3109.502666,2368.659014,-9030.512492,-1991.848295
3109.502994,814.226536,-9178.553681,-536.266849
3109.503321,-740.205942,-11769.274478,919.314598
3109.503649,74.020594,-9474.636058,689.485948
3109.503976,962.267725,-9400.615463,-383.047749
3109.504304,740.205942,-12805.562797,-536.266849
3109.504631,592.164754,-11991.336260,-1072.533697
3109.504959,-962.267725,-8808.450710,-536.266849
3109.505287,-2146.597232,-9178.553681,842.705048
3109.505614,-814.226536,-8364.327145,-536.266849
3109.505942,1480.411884,-7994.224174,-2604.724693
3109.506269,666.185348,-10362.883188,-1378.971896
3109.506597,1110.308913,-10955.047942,229.828649
3109.506924,1850.514855,-7402.059420,-153.219100
3109.507252,962.267725,-9474.636058,1072.533697
3109.507580,-222.061783,-11621.233289,2221.676944
3109.507907,962.267725,-8068.244768,0.000000
3109.508235,1332.370696,-8512.368333,-1378.971896
3109.508562,-148.041188,-11991.336260,1225.752797
3109.508890,592.164754,-10140.821405,1225.752797
3109.509217,296.082377,-7994.224174,306.438199
3109.509545,-1702.473667,-9622.677246,1991.848295
3109.509873,0.000000,-9844.739029,536.266849
3109.510200,222.061783,-7254.018232,-2451.505594
3109.510528,0.000000,-10140.821405,-1149.143247
3109.510855,-296.082377,-10436.903782,-612.876398
3109.511183,666.185348,-6735.874072,-2221.676944
3109.511510,-518.144159,-8142.265362,-536.266849
3109.511838,-814.226536,-10658.965565,1302.362347
3109.512166,1702.473667,-8586.388927,0.000000
3109.512493,1184.329507,-9104.533087,0.000000
3109.512821,0.000000,-11769.274478,1608.800546
3109.513148,1110.308913,-10584.944971,-306.438199
3109.513476,-592.164754,-10362.883188,-766.095498
3109.513804,-2516.700203,-12065.356855,459.657299
3109.514131,74.020594,-10436.903782,-2221.676944
3109.514459,1776.494261,-9252.574275,-4213.525239
3109.514786,888.247130,-11843.295072,-536.266849
3109.515114,1406.391290,-10288.862594,76.609550
3109.515441,1628.453072,-6513.812290,-995.924147
3109.515769,222.061783,-9844.739029,842.705048
3109.516097,444.123565,-10214.842000,1608.800546
3109.516424,1258.350101,-7031.956449,-842.705048
3109.516752,-666.185348,-9474.636058,842.705048
3109.517079,-1850.514855,-11695.253884,2221.676944
3109.517407,-592.164754,-10658.965565,-766.095498
3109.517734,-1480.411884,-10658.965565,-1225.752797
3109.518062,-592.164754,-11695.253884,229.828649
3109.518390,1998.556043,-10214.842000,-1149.143247
3109.518717,2516.700203,-10732.986159,-689.485948
3109.519045,1480.411884,-12139.377449,1225.752797
3109.519372,1480.411884,-8068.244768,-842.705048
3109.519700,1406.391290,-4071.132681,-1838.629195
3109.520027,-592.164754,-9178.553681,1302.362347
3109.520355,-666.185348,-8216.285956,2451.505594
3109.520683,1036.288319,-4367.215058,229.828649
3109.521010,296.082377,-8586.388927,612.876398
3109.521338,148.041188,-12509.480420,1378.971896
3109.521665,296.082377,-9252.574275,-306.438199
3109.521993,-296.082377,-10140.821405,306.438199
3109.522320,-814.226536,-13397.727550,612.876398
3109.522648,1184.329507,-11547.212695,-2451.505594
3109.522976,296.082377,-9844.739029,-2604.724693
3109.523303,-814.226536,-11399.171507,-612.876398
3109.523631,222.061783,-8660.409521,-995.924147
3109.523958,814.226536,-6957.935855,-1225.752797
3109.524286,-222.061783,-9770.718434,842.705048
3109.524613,1406.391290,-8290.306550,-459.657299
3109.524941,2146.597232,-6661.853478,-1072.533697
3109.525269,888.247130,-10362.883188,1455.581446
3109.525596,1406.391290,-11103.089130,2451.505594
3109.525924,2146.597232,-8956.491898,842.705048
3109.526251,0.000000,-10732.986159,1149.143247
3109.526579,-1406.391290,-13471.748144,459.657299
3109.526907,-222.061783,-12065.356855,-2451.505594
3109.527234,222.061783,-12509.480420,-3294.210641
3109.527562,-888.247130,-12953.603985,-995.924147
3109.527889,74.020594,-8364.327145,-2068.457845
3109.528217,444.123565,-7328.038826,-1915.238745
3109.528544,74.020594,-9696.697840,689.485948
3109.528872,1406.391290,-6809.894666,536.266849
3109.529200,1554.432478,-4515.256246,1378.971896
3109.529527,0.000000,-8364.327145,4213.525239
3109.529855,814.226536,-9474.636058,2987.772442
3109.530182,1184.329507,-8216.285956,306.438199
3109.530510,-1998.556043,-10807.006753,1915.238745
3109.530837,-1332.370696,-12065.356855,459.657299
3109.531165,814.226536,-10807.006753,-2911.162892
3109.531493,-814.226536,-12361.439231,-2834.553343
3109.531820,-1554.432478,-12657.521608,-1608.800546
3109.532148,0.000000,-8216.285956,-2681.334243
3109.532475,370.102971,-7698.141797,-2145.067394
3109.532803,0.000000,-9030.512492,459.657299
3109.533130,1258.350101,-5921.647536,1762.019645
3109.533458,1184.329507,-4737.318029,1225.752797
3109.533786,740.205942,-9918.759623,2911.162892
3109.534113,1480.411884,-10510.924376,1149.143247
3109.534441,1258.350101,-8290.306550,-536.266849
3109.534768,-518.144159,-11473.192101,612.876398
3109.535096,0.000000,-12879.583391,-612.876398
3109.535423,888.247130,-11991.336260,-2911.162892
3109.535751,444.123565,-14211.954086,-2221.676944
3109.536079,518.144159,-13471.748144,-1762.019645
3109.536406,740.205942,-9696.697840,-2911.162892
3109.536734,74.020594,-9252.574275,-1762.019645
3109.537061,-518.144159,-9844.739029,612.876398
3109.537389,296.082377,-6513.812290,0.000000
3109.537716,1258.350101,-5033.400406,-383.047749
3109.538044,-444.123565,-8290.306550,2987.772442
3109.538372,1036.288319,-8216.285956,1762.019645
3109.538699,814.226536,-7624.121203,1072.533697
3109.539027,-1184.329507,-12139.377449,2374.896044
3109.539354,444.123565,-12139.377449,76.609550
3109.539682,1406.391290,-10881.027347,-2374.896044
3109.540010,-740.205942,-13323.706956,-1302.362347
3109.540337,0.000000,-13249.686362,-1532.190996
3109.540665,888.247130,-7846.182985,-2757.943793
3109.540992,0.000000,-8956.491898,-766.095498
3109.541320,-222.061783,-8364.327145,1072.533697
3109.541647,1480.411884,-4071.132681,612.876398
3109.541975,1776.494261,-5107.421000,1532.190996
3109.542303,888.247130,-8660.409521,2068.457845
3109.542630,1332.370696,-8142.265362,1532.190996
3109.542958,-740.205942,-7402.059420,919.314598
3109.543285,-2960.823768,-11695.253884,2068.457845
3109.543613,-1776.494261,-13027.624579,-919.314598
3109.543940,-444.123565,-12361.439231,-4213.525239
3109.544268,-296.082377,-15100.201217,-2834.553343
3109.544596,666.185348,-13027.624579,-2834.553343
3109.544923,2442.679609,-10140.821405,-2068.457845
3109.545251,1110.308913,-11399.171507,-383.047749
3109.545578,518.144159,-8956.491898,612.876398
3109.545906,1184.329507,-4441.235652,-1838.629195
3109.546233,0.000000,-7031.956449,-612.876398
3109.546561,-148.041188,-9622.677246,1532.190996
3109.546889,666.185348,-6365.771101,0.000000
3109.547216,-370.102971,-7328.038826,1149.143247
3109.547544,-1554.432478,-12879.583391,1685.410096
3109.547871,888.247130,-13249.686362,-306.438199
3109.548199,1850.514855,-12953.603985,-2374.896044
3109.548526,0.000000,-15396.283594,-995.924147
3109.548854,296.082377,-11547.212695,-1762.019645
3109.549182,296.082377,-7772.162391,-2757.943793
3109.549509,-1776.494261,-9030.512492,306.438199
3109.549837,-888.247130,-6957.935855,1762.019645
3109.550164,1036.288319,-4441.235652,306.438199
3109.550492,814.226536,-7105.977043,1378.971896
3109.550819,592.164754,-8290.306550,2451.505594
3109.551147,1850.514855,-6439.791695,1532.190996
3109.551475,0.000000,-7994.224174,1762.019645
3109.551802,-370.102971,-11103.089130,2528.115143
3109.552130,1628.453072,-9992.780217,689.485948
3109.552457,1924.535449,-11547.212695,-842.705048
3109.552785,-962.267725,-13693.809927,536.266849
3109.553112,-1258.350101,-11843.295072,-1608.800546
3109.553440,-1702.473667,-8808.450710,-2834.553343
3109.553768,-1628.453072,-10214.842000,-1455.581446
3109.554095,-148.041188,-8438.347739,-766.095498
3109.554423,666.185348,-6439.791695,-2068.457845
3109.554750,1554.432478,-8808.450710,0.000000
3109.555078,2738.761985,-8512.368333,1149.143247
3109.555406,2146.597232,-6587.832884,1072.533697
3109.555733,-444.123565,-8882.471304,2451.505594
3109.556061,-370.102971,-11621.233289,1838.629195
3109.556388,1554.432478,-11251.130318,-2298.286494
3109.556716,1480.411884,-14211.954086,-3753.867940
3109.557043,-222.061783,-16432.571912,-612.876398
3109.557371,666.185348,-11991.336260,-1302.362347
3109.557699,0.000000,-9770.718434,-2987.772442
3109.558026,-1998.556043,-11843.295072,-2451.505594
3109.558354,-592.164754,-8956.491898,-3370.820191
3109.558681,1480.411884,-5847.626942,-3753.867940
3109.559009,1554.432478,-8586.388927,229.828649
3109.559336,1554.432478,-7920.203579,2681.334243
3109.559664,1554.432478,-5847.626942,2604.724693
3109.559992,-370.102971,-8956.491898,3677.258390
3109.560319,666.185348,-11621.233289,1225.752797
3109.560647,2220.617826,-9400.615463,-1762.019645
3109.560974,444.123565,-12435.459826,-1225.752797
3109.561302,-518.144159,-13101.645173,842.705048
3109.561629,444.123565,-10658.965565,-842.705048
3109.561957,-1110.308913,-8438.347739,-919.314598
3109.562285,-1850.514855,-9918.759623,766.095498
3109.562612,0.000000,-7328.038826,-536.266849
3109.562940,666.185348,-5921.647536,-995.924147
3109.563267,0.000000,-8956.491898,1455.581446
3109.563595,518.144159,-7624.121203,1991.848295
3109.563922,148.041188,-5403.503377,459.657299
3109.564250,-888.247130,-7994.224174,1532.190996
3109.564578,222.061783,-10362.883188,1072.533697
3109.564905,1406.391290,-10436.903782,-995.924147
3109.565233,666.185348,-13471.748144,-536.266849
3109.565560,-222.061783,-14359.995275,0.000000
3109.565888,-962.267725,-11325.150913,-2451.505594
3109.566215,-962.267725,-11399.171507,-2451.505594
3109.566543,-1998.556043,-11843.295072,-995.924147
3109.566871,370.102971,-8364.327145,-2528.115143
3109.567198,1628.453072,-6957.935855,-2451.505594
3109.567526,444.123565,-8290.306550,1072.533697
3109.567853,1850.514855,-7402.059420,1838.629195
3109.568181,1998.556043,-5847.626942,919.314598
3109.568509,222.061783,-9918.759623,2145.067394
3109.568836,296.082377,-11769.274478,612.876398
3109.569164,1554.432478,-11473.192101,-2528.115143
3109.569491,-296.082377,-14285.974681,-1455.581446
3109.569819,-1850.514855,-13915.871710,-229.828649
3109.570146,-888.247130,-9844.739029,-1991.848295
3109.570474,-1776.494261,-10955.047942,-1762.019645
3109.570802,-1258.350101,-10807.006753,-919.314598
3109.571129,1406.391290,-7328.038826,-2374.896044
3109.571457,1332.370696,-7105.977043,-459.657299
3109.571784,740.205942,-7550.100608,1991.848295
3109.572112,1628.453072,-4959.379811,1838.629195
3109.572439,1036.288319,-5403.503377,1225.752797
3109.572767,-444.123565,-9252.574275,2528.115143
3109.573095,1406.391290,-9474.636058,459.657299
3109.573422,2368.659014,-10140.821405,-1149.143247
3109.573750,444.123565,-14285.974681,153.219100
3109.574077,740.205942,-13471.748144,459.657299
3109.574405,592.164754,-10066.800811,-612.876398
3109.574732,-1480.411884,-10732.986159,-306.438199
3109.575060,-666.185348,-11473.192101,-689.485948
3109.575388,0.000000,-6217.729913,-2221.676944
3109.575715,-666.185348,-5255.462188,-1225.752797
3109.576043,0.000000,-7624.121203,842.705048
3109.576370,1184.329507,-6661.853478,689.485948
3109.576698,740.205942,-6069.688724,1455.581446
3109.577025,1036.288319,-9696.697840,1532.190996
3109.577353,2368.659014,-11473.192101,-1225.752797
3109.577681,2886.803174,-12953.603985,-2221.676944
3109.578008,1850.514855,-15470.304188,-612.876398
3109.578336,1184.329507,-13545.768739,229.828649
3109.578663,1480.411884,-10807.006753,-612.876398
3109.578991,-666.185348,-11695.253884,0.000000
3109.579318,-2738.761985,-9992.780217,-306.438199
3109.579646,-2146.597232,-7031.956449,-2451.505594
3109.579974,-1554.432478,-7920.203579,-2068.457845
3109.580301,-222.061783,-8808.450710,-306.438199
3109.580629,1554.432478,-6439.791695,-153.219100
3109.580956,1110.308913,-7328.038826,1302.362347
3109.581284,1184.329507,-10066.800811,2068.457845
3109.581611,3627.009116,-10214.842000,229.828649
3109.581939,2442.679609,-11621.233289,-229.828649
3109.582267,-740.205942,-13397.727550,1072.533697
3109.582594,74.020594,-10807.006753,0.000000
3109.582922,222.061783,-10214.842000,-919.314598
3109.583249,-2368.659014,-12065.356855,383.047749
3109.583577,-2146.597232,-9474.636058,-229.828649
3109.583905,-592.164754,-6439.791695,-2298.286494
3109.584232,-1332.370696,-8068.244768,-1302.362347
3109.584560,-444.123565,-9030.512492,0.000000
3109.584887,518.144159,-4811.338623,-153.219100
3109.585215,296.082377,-6143.709319,1225.752797
3109.585542,1702.473667,-10288.862594,2681.334243
3109.585870,2738.761985,-9548.656652,995.924147
3109.586198,2590.720797,-11991.336260,0.000000
3109.586525,1036.288319,-14730.098246,919.314598
3109.586853,518.144159,-11547.212695,-1378.971896
3109.587181,-962.267725,-10288.862594,-2451.505594
3109.587509,-2812.782580,-12509.480420,-1072.533697
3109.587836,-1702.473667,-9474.636058,-1762.019645
3109.588164,-1258.350101,-5921.647536,-2451.505594
3109.588492,-518.144159,-8956.491898,-766.095498
3109.588820,1110.308913,-9622.677246,383.047749
3109.589148,2368.659014,-5625.565159,-153.219100
3109.589476,1628.453072,-7772.162391,1455.581446
3109.589803,1332.370696,-11325.150913,2221.676944
3109.590131,3256.906145,-9992.780217,76.609550
3109.590459,2072.576638,-11769.274478,0.000000
3109.590787,-518.144159,-13915.871710,229.828649
3109.591115,0.000000,-10881.027347,-1072.533697
3109.591442,-888.247130,-11325.150913,-1072.533697
3109.591770,-2442.679609,-12731.542202,536.266849
3109.592098,-1406.391290,-8216.285956,-766.095498
3109.592426,0.000000,-6661.853478,-1532.190996
3109.592754,-888.247130,-9104.533087,995.924147
3109.593082,592.164754,-7994.224174,1455.581446
3109.593409,1776.494261,-4589.276840,0.000000
3109.593737,888.247130,-7550.100608,1302.362347
3109.594065,1702.473667,-9770.718434,2145.067394
3109.594393,3997.112087,-8956.491898,0.000000
3109.594721,2516.700203,-11843.295072,0.000000
3109.595048,592.164754,-13989.892304,766.095498
3109.595376,666.185348,-10807.006753,-2451.505594
3109.595704,-2294.638420,-10214.842000,-1608.800546
3109.596032,-4515.256246,-11473.192101,383.047749
3109.596360,-3256.906145,-7846.182985,-2528.115143
3109.596688,-1850.514855,-8734.430116,-2604.724693
3109.597015,0.000000,-10955.047942,0.000000
3109.597343,2072.576638,-7550.100608,919.314598
3109.597671,2886.803174,-6069.688724,1302.362347
3109.597999,814.226536,-9400.615463,2451.505594
3109.598327,2738.761985,-10807.006753,689.485948
3109.598655,3701.029710,-8956.491898,-2451.505594
3109.598982,1628.453072,-12583.501014,-1302.362347
3109.599310,296.082377,-14063.912898,306.438199
3109.599638,1258.350101,-9104.533087,-2068.457845
3109.599966,-222.061783,-11251.130318,-1072.533697
3109.600294,-2442.679609,-12953.603985,919.314598
3109.600621,-888.247130,-8364.327145,-1072.533697
3109.600949,-518.144159,-8068.244768,-919.314598
3109.601277,-888.247130,-10140.821405,612.876398
3109.601605,222.061783,-7031.956449,153.219100
3109.601933,0.000000,-4663.297435,536.266849
3109.602261,0.000000,-8290.306550,2451.505594
3109.602588,2072.576638,-8364.327145,766.095498
3109.602916,3330.926739,-8734.430116,-1072.533697
3109.603244,2072.576638,-13545.768739,0.000000
3109.603572,1406.391290,-14359.995275,0.000000
3109.603900,1554.432478,-10807.006753,-1532.190996
3109.604228,-962.267725,-9770.718434,-229.828649
3109.604555,-2294.638420,-9844.739029,1149.143247
3109.604883,-740.205942,-6735.874072,-459.657299
3109.605211,74.020594,-7179.997637,306.438199
3109.605539,-1184.329507,-9474.636058,2145.067394
3109.605867,-444.123565,-7624.121203,612.876398
3109.606194,-1554.432478,-5847.626942,-383.047749
3109.606522,-962.267725,-8586.388927,842.705048
3109.606850,1184.329507,-9474.636058,-306.438199
3109.607178,2960.823768,-11251.130318,-2604.724693
3109.607506,2072.576638,-14063.912898,-995.924147
3109.607834,2664.741391,-13101.645173,-1302.362347
3109.608161,2294.638420,-11177.109724,-1532.190996
3109.608489,-1480.411884,-12213.398043,536.266849
3109.608817,-2886.803174,-9474.636058,919.314598
3109.609145,-962.267725,-7105.977043,-2374.896044
3109.609473,-666.185348,-9844.739029,-1072.533697
3109.609800,-1628.453072,-10955.047942,1378.971896
3109.610128,222.061783,-6439.791695,842.705048
3109.610456,74.020594,-6883.915261,229.828649
3109.610784,-444.123565,-10436.903782,1762.019645
3109.611112,1702.473667,-9326.594869,-766.095498
3109.611440,2738.761985,-9622.677246,-2604.724693
3109.611767,1406.391290,-12731.542202,-766.095498
3109.612095,1924.535449,-10732.986159,-536.266849
3109.612423,2220.617826,-9178.553681,-612.876398
3109.612751,-1110.308913,-12509.480420,2068.457845
3109.613079,-1554.432478,-10658.965565,1455.581446
3109.613407,-370.102971,-6587.832884,-1302.362347
3109.613734,-1554.432478,-9178.553681,-536.266849
3109.614062,-1184.329507,-9474.636058,459.657299
3109.614390,-592.164754,-5921.647536,689.485948
3109.614718,-962.267725,-6291.750507,2221.676944
3109.615046,-444.123565,-8808.450710,2604.724693
3109.615373,2146.597232,-8512.368333,-842.705048
3109.615701,3478.967927,-10362.883188,-1685.410096
3109.616029,2294.638420,-12805.562797,383.047749
3109.616357,3404.947333,-10066.800811,-459.657299
3109.616685,1998.556043,-8364.327145,-1532.190996
3109.617013,-1332.370696,-11843.295072,995.924147
3109.617340,-1258.350101,-9844.739029,153.219100
3109.617668,-1406.391290,-8068.244768,-1149.143247
3109.617996,-2590.720797,-10955.047942,0.000000
3109.618324,-2590.720797,-9844.739029,0.000000
3109.618652,-2442.679609,-5699.585753,-1838.629195
3109.618980,-1110.308913,-8364.327145,-306.438199
3109.619307,444.123565,-10362.883188,842.705048
3109.619635,3182.885551,-8734.430116,-995.924147
3109.619963,3849.070898,-10732.986159,-1915.238745
3109.620291,2516.700203,-13323.706956,0.000000
3109.620619,2516.700203,-10658.965565,-2298.286494
3109.620946,2664.741391,-10436.903782,-2451.505594
3109.621274,-518.144159,-13101.645173,842.705048
3109.621602,148.041188,-9696.697840,0.000000
3109.621930,296.082377,-7994.224174,-1685.410096
3109.622258,-2368.659014,-11843.295072,1302.362347
3109.622586,-3034.844362,-9326.594869,1378.971896
3109.622913,-2146.597232,-6291.750507,-153.219100
3109.623241,-3108.864956,-8364.327145,153.219100
3109.623569,-1184.329507,-8660.409521,76.609550
3109.623897,1776.494261,-7846.182985,-1915.238745
3109.624225,1628.453072,-10807.006753,-842.705048
3109.624552,1480.411884,-12435.459826,612.876398
3109.624880,4219.173869,-8956.491898,-1838.629195
3109.625208,2294.638420,-9474.636058,-1225.752797
3109.625536,-962.267725,-12953.603985,1608.800546
3109.625864,1332.370696,-8586.388927,612.876398
3109.626192,518.144159,-6661.853478,-766.095498
3109.626519,-1924.535449,-10658.965565,1915.238745
3109.626847,-962.267725,-8586.388927,1991.848295
3109.627175,-444.123565,-6291.750507,1762.019645
3109.627503,-1184.329507,-10288.862594,2451.505594
3109.627831,148.041188,-9622.677246,459.657299
3109.628159,1480.411884,-7254.018232,-3370.820191
3109.628486,518.144159,-9992.780217,-1915.238745
3109.628814,444.123565,-11399.171507,-1302.362347
3109.629142,2146.597232,-8068.244768,-2298.286494
3109.629470,1184.329507,-10066.800811,-1378.971896
3109.629798,518.144159,-12509.480420,2068.457845
3109.630125,2516.700203,-10658.965565,-612.876398
3109.630453,2442.679609,-11399.171507,-766.095498
3109.630781,-592.164754,-12657.521608,1455.581446
3109.631109,0.000000,-8586.388927,459.657299
3109.631437,-222.061783,-7031.956449,0.000000
3109.631765,-1184.329507,-10510.924376,2298.286494
3109.632092,148.041188,-8956.491898,612.876398
3109.632420,148.041188,-7846.182985,-1532.190996
3109.632748,-814.226536,-12361.439231,-1685.410096
3109.633076,518.144159,-12361.439231,-2145.067394
3109.633404,2072.576638,-8438.347739,-3753.867940
3109.633732,888.247130,-10214.842000,-1378.971896
3109.634059,0.000000,-11695.253884,1378.971896
3109.634387,2220.617826,-7772.162391,306.438199
3109.634715,1258.350101,-8512.368333,1608.800546
3109.635043,-1258.350101,-10881.027347,2528.115143
3109.635371,-1258.350101,-7994.224174,1225.752797
3109.635698,-1554.432478,-7698.141797,229.828649
3109.636026,-1554.432478,-11103.089130,1302.362347
3109.636354,222.061783,-8660.409521,-689.485948
3109.636682,666.185348,-9252.574275,-1378.971896
3109.637010,-148.041188,-11843.295072,0.000000
3109.637338,1110.308913,-9844.739029,-1532.190996
3109.637665,2146.597232,-7846.182985,-2757.943793
3109.637993,74.020594,-9548.656652,0.000000
3109.638321,74.020594,-9030.512492,1532.190996
3109.638649,2738.761985,-6809.894666,-229.828649
3109.638977,888.247130,-9474.636058,842.705048
3109.639304,-518.144159,-11991.336260,1991.848295
3109.639632,-666.185348,-9252.574275,0.000000
3109.639960,-1406.391290,-9252.574275,-766.095498
3109.640288,-1406.391290,-11621.233289,76.609550
3109.640616,296.082377,-9622.677246,-1532.190996
3109.640944,592.164754,-9992.780217,-1532.190996
3109.641271,74.020594,-13175.665768,-76.609550
3109.641599,1406.391290,-9992.780217,-2145.067394
3109.641927,814.226536,-7994.224174,-3140.991542
3109.642255,148.041188,-10955.047942,0.000000
3109.642583,1406.391290,-9178.553681,0.000000
3109.642911,2590.720797,-6365.771101,-459.657299
3109.643238,222.061783,-10584.944971,1608.800546
3109.643566,-370.102971,-11177.109724,2528.115143
3109.643894,0.000000,-8216.285956,0.000000
3109.644222,-1702.473667,-10362.883188,536.266849
3109.644550,-2368.659014,-12213.398043,536.266849
3109.644877,-296.082377,-9030.512492,-1762.019645
3109.645205,666.185348,-9400.615463,-2451.505594
3109.645533,1258.350101,-12731.542202,229.828649
3109.645861,1554.432478,-9548.656652,-229.828649
3109.646189,1850.514855,-6957.935855,-1685.410096
3109.646517,-296.082377,-9326.594869,0.000000
3109.646844,1702.473667,-7624.121203,-995.924147
3109.647172,1924.535449,-6735.874072,-459.657299
3109.647500,1332.370696,-10510.924376,2681.334243
3109.647828,1850.514855,-9992.780217,2604.724693
3109.648156,1998.556043,-8364.327145,612.876398
3109.648484,74.020594,-10436.903782,1838.629195
3109.648811,-1332.370696,-11621.233289,2451.505594
3109.649139,-888.247130,-9326.594869,-842.705048
3109.649467,-1554.432478,-11769.274478,-2374.896044
3109.649795,-2072.576638,-12879.583391,-2528.115143
3109.650123,666.185348,-9252.574275,-4136.915689
3109.650450,814.226536,-8586.388927,-2834.553343
3109.650778,0.000000,-10955.047942,1455.581446
3109.651106,1628.453072,-8364.327145,383.047749
3109.651434,3330.926739,-7254.018232,-1455.581446
3109.651762,1406.391290,-10510.924376,766.095498
3109.652090,962.267725,-9252.574275,1302.362347
3109.652417,888.247130,-6661.853478,229.828649
3109.652745,-518.144159,-10732.986159,1532.190996
3109.653073,-444.123565,-12583.501014,1991.848295
3109.653401,1184.329507,-11029.068536,-766.095498
3109.653729,0.000000,-13027.624579,-766.095498
3109.654056,-444.123565,-13767.830521,-1378.971896
3109.654384,0.000000,-8808.450710,-3830.477490
3109.654712,-1406.391290,-7846.182985,-3140.991542
3109.655040,-1998.556043,-9622.677246,0.000000
3109.655368,592.164754,-5699.585753,229.828649
3109.655696,1924.535449,-5773.606348,689.485948
3109.656023,666.185348,-10066.800811,3983.696590
3109.656351,1332.370696,-8586.388927,2451.505594
3109.656679,962.267725,-7105.977043,153.219100
3109.657007,-1554.432478,-10732.986159,1149.143247
3109.657335,0.000000,-11473.192101,842.705048
3109.657663,1406.391290,-9030.512492,-1302.362347
3109.657990,666.185348,-12065.356855,842.705048
3109.658318,222.061783,-12139.377449,306.438199
3109.658646,-370.102971,-7698.141797,-2604.724693
3109.658974,-2738.761985,-8956.491898,-2681.334243
3109.659302,-2294.638420,-9992.780217,-1225.752797
3109.659629,1850.514855,-7031.956449,-1608.800546
3109.659957,2294.638420,-7846.182985,0.000000
3109.660285,444.123565,-10362.883188,3370.820191
3109.660613,1776.494261,-8364.327145,1455.581446
3109.660941,1332.370696,-7402.059420,76.609550
3109.661269,-1258.350101,-11251.130318,1532.190996
3109.661596,-962.267725,-11843.295072,689.485948
3109.661924,74.020594,-9474.636058,-2298.286494
3109.662252,-296.082377,-13249.686362,-1149.143247
3109.662580,0.000000,-13323.706956,-1455.581446
3109.662908,296.082377,-9696.697840,-2604.724693
3109.663236,-962.267725,-11029.068536,-766.095498
3109.663563,74.020594,-10436.903782,-612.876398
3109.663891,2368.659014,-6883.915261,-2757.943793
3109.664219,1924.535449,-7994.224174,-536.266849
3109.664547,74.020594,-8734.430116,3677.258390
3109.664875,814.226536,-5995.668130,2145.067394
3109.665202,0.000000,-6957.935855,766.095498
3109.665530,-1332.370696,-11769.274478,1532.190996
3109.665858,666.185348,-11991.336260,-459.657299
3109.666186,1110.308913,-11325.150913,-1915.238745
3109.666514,-592.164754,-13323.706956,0.000000
3109.666842,296.082377,-10288.862594,-383.047749
3109.667169,1258.350101,-7994.224174,-2374.896044
3109.667497,-1702.473667,-10214.842000,153.219100
3109.667825,-148.041188,-8956.491898,536.266849
3109.668153,2516.700203,-5773.606348,-1149.143247
3109.668481,1702.473667,-7846.182985,919.314598
3109.668808,0.000000,-8438.347739,2681.334243
3109.669136,1036.288319,-4811.338623,2145.067394
3109.669464,-296.082377,-7328.038826,995.924147
3109.669792,-666.185348,-12435.459826,1302.362347
3109.670120,1184.329507,-11029.068536,-1302.362347
3109.670448,888.247130,-11029.068536,-1915.238745
3109.670775,-1036.288319,-13693.809927,229.828649
3109.671103,-518.144159,-10807.006753,-612.876398
3109.671431,-592.164754,-8956.491898,-2298.286494
3109.671759,-888.247130,-11769.274478,-1302.362347
3109.672087,740.205942,-9622.677246,-1991.848295
3109.672415,2442.679609,-6809.894666,-2298.286494
3109.672742,1110.308913,-9252.574275,306.438199
3109.673070,222.061783,-9474.636058,1838.629195
3109.673398,444.123565,-6513.812290,76.609550
3109.673726,370.102971,-9104.533087,-689.485948
3109.674054,666.185348,-11843.295072,306.438199
3109.674381,3182.885551,-11251.130318,-1532.190996
3109.674709,2368.659014,-12583.501014,-306.438199
3109.675037,-740.205942,-14508.036463,2451.505594
3109.675365,-1110.308913,-10807.006753,0.000000
3109.675693,-2516.700203,-9178.553681,-3600.648841
3109.676021,-3701.029710,-10658.965565,-2068.457845
3109.676348,-1110.308913,-7920.203579,-3753.867940
3109.676676,1184.329507,-7031.956449,-2757.943793
3109.677004,74.020594,-10955.047942,1838.629195
3109.677332,1258.350101,-9030.512492,2911.162892
3109.677660,2516.700203,-5255.462188,536.266849
3109.677988,1258.350101,-8660.409521,1378.971896
3109.678315,1554.432478,-10881.027347,1225.752797
3109.678643,3182.885551,-8142.265362,-1378.971896
3109.678971,1036.288319,-10066.800811,689.485948
3109.679299,74.020594,-13101.645173,3447.429741
3109.679627,814.226536,-9474.636058,1685.410096
3109.679954,-666.185348,-8586.388927,229.828649
3109.680282,-2294.638420,-11177.109724,-306.438199
3109.680610,0.000000,-9030.512492,-3677.258390
3109.680938,74.020594,-6587.832884,-4366.744339
3109.681266,-1184.329507,-8438.347739,-383.047749
3109.681594,222.061783,-7031.956449,1455.581446
3109.681921,1406.391290,-5551.544565,1685.410096
3109.682249,666.185348,-9548.656652,2911.162892
3109.682577,2442.679609,-12213.398043,76.609550
3109.682905,3701.029710,-10288.862594,-2221.676944
3109.683233,2516.700203,-14434.015869,-306.438199
3109.683560,888.247130,-14211.954086,995.924147
3109.683888,74.020594,-9178.553681,-919.314598
3109.684216,-740.205942,-9992.780217,-1149.143247
3109.684544,-1554.432478,-11621.233289,76.609550
3109.684872,-296.082377,-8068.244768,-2757.943793
3109.685200,-1036.288319,-7105.977043,-2834.553343
3109.685527,-2368.659014,-11103.089130,-153.219100
3109.685855,-222.061783,-8956.491898,0.000000
3109.686183,518.144159,-7402.059420,-306.438199
3109.686511,-222.061783,-10362.883188,1685.410096
3109.686839,1184.329507,-9474.636058,766.095498
3109.687167,3701.029710,-9400.615463,-919.314598
3109.687494,1998.556043,-12731.542202,1685.410096
3109.687822,0.000000,-12731.542202,1762.019645
3109.688150,-592.164754,-9326.594869,-612.876398
3109.688478,-2516.700203,-9474.636058,-995.924147
3109.688806,-2516.700203,-10362.883188,-1302.362347
3109.689133,0.000000,-8068.244768,-2681.334243
3109.689461,-444.123565,-8290.306550,-1072.533697
3109.689789,-444.123565,-9548.656652,2451.505594
3109.690117,1924.535449,-6439.791695,536.266849
3109.690445,1628.453072,-6587.832884,536.266849
3109.690772,-666.185348,-9474.636058,2451.505594
3109.691100,444.123565,-7994.224174,383.047749
3109.691428,1702.473667,-7402.059420,-1838.629195
3109.691756,370.102971,-12879.583391,383.047749
3109.692084,0.000000,-12953.603985,689.485948
3109.692412,-518.144159,-10214.842000,-842.705048
3109.692739,-814.226536,-12361.439231,-383.047749
3109.693067,-740.205942,-11769.274478,-1915.238745
3109.693395,0.000000,-7772.162391,-3370.820191
3109.693723,-518.144159,-8438.347739,-536.266849
3109.694051,0.000000,-8808.450710,1762.019645
3109.694378,1554.432478,-7031.956449,1225.752797
3109.694706,592.164754,-7179.997637,1225.752797
3109.695034,-296.082377,-10658.965565,2298.286494
3109.695362,1702.473667,-9474.636058,-919.314598
3109.695690,1924.535449,-9622.677246,-2528.115143
3109.696017,-148.041188,-14285.974681,229.828649
3109.696345,222.061783,-12953.603985,0.000000
3109.696673,-370.102971,-9326.594869,-1532.190996
3109.697001,-1776.494261,-10955.047942,-536.266849
3109.697329,-2072.576638,-10807.006753,-536.266849
3109.697657,-592.164754,-7624.121203,-1608.800546
3109.697984,-740.205942,-7772.162391,76.609550
3109.698312,222.061783,-8586.388927,1149.143247
3109.698640,1702.473667,-7031.956449,612.876398
3109.698968,666.185348,-7402.059420,1685.410096
3109.699296,888.247130,-9030.512492,1915.238745
3109.699623,1998.556043,-8364.327145,-995.924147
3109.699951,2368.659014,-10140.821405,-1762.019645
3109.700279,1554.432478,-13767.830521,383.047749
3109.700607,1998.556043,-10955.047942,-383.047749
3109.700935,2220.617826,-9326.594869,-1072.533697
3109.701263,-814.226536,-11177.109724,1302.362347
3109.701590,-1332.370696,-9548.656652,1608.800546
3109.701918,-888.247130,-7179.997637,-1225.752797
3109.702246,-2294.638420,-9844.739029,-1378.971896
3109.702574,-1406.391290,-9178.553681,-842.705048
3109.702902,518.144159,-5921.647536,-1762.019645
3109.703229,296.082377,-8660.409521,766.095498
3109.703557,888.247130,-10436.903782,2145.067394
3109.703885,3404.947333,-9326.594869,-383.047749
3109.704213,4293.194464,-12213.398043,-2221.676944
3109.704541,2294.638420,-14804.118840,-689.485948
3109.704868,1998.556043,-10362.883188,-1378.971896
3109.705196,296.082377,-7846.182985,-919.314598
3109.705524,-1776.494261,-11103.089130,1378.971896
3109.705852,-814.226536,-9474.636058,612.876398
3109.706180,1258.350101,-7994.224174,-1072.533697
3109.706508,-740.205942,-10658.965565,1149.143247
3109.706835,-1036.288319,-10732.986159,1072.533697
3109.707163,0.000000,-6809.894666,-1532.190996
3109.707491,-1628.453072,-7846.182985,-1225.752797
3109.707819,-1110.308913,-9326.594869,306.438199
3109.708147,2072.576638,-7624.121203,-1149.143247
3109.708474,2220.617826,-11029.068536,153.219100
3109.708802,1332.370696,-14063.912898,2451.505594
3109.709130,2294.638420,-10066.800811,-383.047749
3109.709458,518.144159,-9030.512492,-919.314598
3109.709786,-1850.514855,-11325.150913,919.314598
3109.710113,-1184.329507,-8438.347739,306.438199
3109.710441,148.041188,-7179.997637,-919.314598
3109.710769,-444.123565,-9622.677246,1915.238745
3109.711097,222.061783,-8216.285956,2068.457845
3109.711425,0.000000,-5107.421000,459.657299
3109.711753,-2886.803174,-9696.697840,1455.581446
3109.712080,-1258.350101,-11029.068536,306.438199
3109.712408,2368.659014,-8734.430116,-3600.648841
3109.712736,1924.535449,-12139.377449,-2911.162892
3109.713064,962.267725,-12583.501014,306.438199
3109.713392,1924.535449,-8956.491898,-766.095498
3109.713719,1036.288319,-9844.739029,229.828649
3109.714047,-592.164754,-12065.356855,1455.581446
3109.714375,-1258.350101,-7920.203579,-995.924147
3109.714703,-1036.288319,-7920.203579,-1762.019645
3109.715031,-1258.350101,-11029.068536,459.657299
3109.715358,370.102971,-9844.739029,-766.095498
3109.715686,0.000000,-8142.265362,76.609550
3109.716014,-888.247130,-11103.089130,2374.896044
3109.716342,1628.453072,-10881.027347,0.000000
3109.716670,3627.009116,-9252.574275,-3753.867940
3109.716998,0.000000,-11991.336260,-995.924147
3109.717325,-888.247130,-11029.068536,-612.876398
3109.717653,740.205942,-6809.894666,-2451.505594
3109.717981,-296.082377,-9474.636058,-1149.143247
3109.718309,-1776.494261,-11769.274478,842.705048
3109.718637,74.020594,-9030.512492,0.000000
3109.718964,370.102971,-9474.636058,0.000000
3109.719292,370.102971,-11917.315666,1149.143247
3109.719620,740.205942,-7402.059420,-229.828649
3109.719948,-222.061783,-6365.771101,1225.752797
3109.720276,-370.102971,-9400.615463,2834.553343
3109.720603,2294.638420,-9548.656652,459.657299
3109.720931,2812.782580,-7846.182985,-1991.848295
3109.721259,1110.308913,-11991.336260,459.657299
3109.721587,740.205942,-10362.883188,229.828649
3109.721915,1406.391290,-6809.894666,-1915.238745
3109.722243,-296.082377,-10510.924376,-919.314598
3109.722570,-518.144159,-11029.068536,0.000000
3109.722898,592.164754,-7920.203579,-1225.752797
3109.723226,0.000000,-9474.636058,229.828649
3109.723554,-666.185348,-10955.047942,2374.896044
3109.723882,296.082377,-8364.327145,1302.362347
3109.724209,0.000000,-8364.327145,766.095498
3109.724537,-444.123565,-10362.883188,1302.362347
3109.724865,1554.432478,-9400.615463,-1762.019645
3109.725193,2072.576638,-9770.718434,-3064.381992
3109.725521,0.000000,-13101.645173,-1072.533697
3109.725848,444.123565,-11251.130318,-1915.238745
3109.726176,1036.288319,-8364.327145,-2681.334243
3109.726504,-222.061783,-10955.047942,-383.047749
3109.726832,148.041188,-10140.821405,0.000000
3109.727160,1776.494261,-7698.141797,-689.485948
3109.727488,-592.164754,-10807.006753,2068.457845
3109.727815,-1332.370696,-11103.089130,2911.162892
3109.728143,-222.061783,-7031.956449,229.828649
3109.728471,-222.061783,-8364.327145,-383.047749
3109.728799,-2368.659014,-10955.047942,1762.019645
3109.729127,-444.123565,-8364.327145,76.609550
3109.729454,0.000000,-9770.718434,-2681.334243
3109.729782,-1258.350101,-13471.748144,-2298.286494
3109.730110,74.020594,-9844.739029,-3370.820191
3109.730438,1628.453072,-7476.080014,-3294.210641
3109.730766,1110.308913,-11473.192101,995.924147
3109.731093,1554.432478,-9696.697840,1762.019645
3109.731421,2812.782580,-6661.853478,1149.143247
3109.731749,666.185348,-9548.656652,2681.334243
3109.732077,-370.102971,-9400.615463,2451.505594
3109.732405,-370.102971,-5551.544565,229.828649
3109.732733,-2368.659014,-7994.224174,842.705048
3109.733060,-2442.679609,-11029.068536,842.705048
3109.733388,814.226536,-8512.368333,-1915.238745
3109.733716,2368.659014,-11547.212695,-2451.505594
3109.734044,296.082377,-13767.830521,-459.657299
3109.734372,1332.370696,-9104.533087,-2451.505594
3109.734699,666.185348,-7179.997637,-2987.772442
3109.735027,-962.267725,-11029.068536,-306.438199
3109.735355,296.082377,-8290.306550,383.047749
3109.735683,2294.638420,-5847.626942,-612.876398
3109.736011,-222.061783,-9622.677246,3447.429741
3109.736338,444.123565,-11029.068536,3294.210641
3109.736666,1110.308913,-8734.430116,0.000000
3109.736994,-370.102971,-11695.253884,153.219100
3109.737322,-592.164754,-13027.624579,-229.828649
3109.737650,1258.350101,-9918.759623,-2911.162892
3109.737978,962.267725,-11103.089130,-1838.629195
3109.738305,1332.370696,-12361.439231,76.609550
3109.738633,2590.720797,-8512.368333,-1302.362347
3109.738961,962.267725,-7328.038826,-689.485948
3109.739289,-1924.535449,-9252.574275,612.876398
3109.739617,-1628.453072,-7031.956449,-1302.362347
3109.739944,-518.144159,-6587.832884,-995.924147
3109.740272,-518.144159,-10807.006753,3217.601092
3109.740600,1480.411884,-10288.862594,1608.800546
3109.740928,1998.556043,-8882.471304,919.314598
3109.741256,666.185348,-12583.501014,2604.724693
3109.741583,1332.370696,-12509.480420,1149.143247
3109.741911,1702.473667,-9844.739029,-2145.067394
3109.742239,-962.267725,-10658.965565,-2068.457845
3109.742567,-1036.288319,-11177.109724,-2528.115143
3109.742895,518.144159,-6661.853478,-3370.820191
3109.743223,-148.041188,-7846.182985,-1685.410096
3109.743550,-1480.411884,-9918.759623,1991.848295
3109.743878,0.000000,-7105.977043,536.266849
3109.744206,666.185348,-6587.832884,-1072.533697
3109.744534,-814.226536,-9918.759623,689.485948
3109.744862,592.164754,-8734.430116,919.314598
3109.745189,962.267725,-8660.409521,1378.971896
3109.745517,222.061783,-12509.480420,2298.286494
3109.745845,444.123565,-11917.315666,842.705048
3109.746173,1110.308913,-11769.274478,-1455.581446
3109.746501,222.061783,-13841.851115,-1608.800546
3109.746829,-296.082377,-12583.501014,-2451.505594
3109.747156,592.164754,-8068.244768,-5132.839837
3109.747484,-592.164754,-9326.594869,-3064.381992
3109.747812,-1924.535449,-9252.574275,229.828649
3109.748140,74.020594,-4219.173869,0.000000
3109.748468,0.000000,-5847.626942,229.828649
3109.748795,-296.082377,-11547.212695,2987.772442
3109.749123,1184.329507,-9326.594869,1149.143247
3109.749451,1184.329507,-7698.141797,229.828649
3109.749779,-814.226536,-11399.171507,2068.457845
3109.750107,1036.288319,-11843.295072,689.485948
3109.750434,2664.741391,-10881.027347,-1532.190996
3109.750762,1184.329507,-14063.912898,0.000000
3109.751090,1406.391290,-12139.377449,-1608.800546
3109.751418,1924.535449,-8290.306550,-3753.867940
3109.751746,-1110.308913,-9696.697840,-1532.190996
3109.752074,-1924.535449,-8216.285956,0.000000
3109.752401,740.205942,-4441.235652,-2681.334243
3109.752729,222.061783,-7698.141797,0.000000
3109.753057,0.000000,-10436.903782,3600.648841
3109.753385,2738.761985,-7254.018232,2834.553343
3109.753713,2516.700203,-6809.894666,2298.286494
3109.754040,296.082377,-12213.398043,4136.915689
3109.754368,1924.535449,-11547.212695,689.485948
3109.754696,1628.453072,-10732.986159,-2374.896044
3109.755024,0.000000,-14137.933492,-1685.410096
3109.755352,-296.082377,-11843.295072,-2451.505594
3109.755679,0.000000,-8586.388927,-3294.210641
3109.756007,-814.226536,-10214.842000,-995.924147
3109.756335,-296.082377,-9474.636058,-459.657299
3109.756663,518.144159,-5995.668130,-1608.800546
3109.756991,-666.185348,-8808.450710,153.219100
3109.757319,-296.082377,-9548.656652,1302.362347
3109.757646,1406.391290,-6661.853478,-536.266849
3109.757974,370.102971,-8882.471304,1302.362347
3109.758302,0.000000,-12213.398043,4290.134789
3109.758630,2220.617826,-11251.130318,153.219100
3109.758958,2294.638420,-11991.336260,-2451.505594
3109.759285,0.000000,-15248.242405,-1072.533697
3109.759613,-222.061783,-11843.295072,-2911.162892
3109.759941,-1036.288319,-7772.162391,-3983.696590
3109.760269,-3034.844362,-8956.491898,-1302.362347
3109.760597,-2146.597232,-6513.812290,-383.047749
3109.760924,296.082377,-4663.297435,-995.924147
3109.761252,296.082377,-9252.574275,2604.724693
3109.761580,740.205942,-9548.656652,3217.601092
3109.761908,1036.288319,-6143.709319,1302.362347
3109.762236,-1110.308913,-8216.285956,1762.019645
3109.762564,-888.247130,-10955.047942,1838.629195
3109.762891,1702.473667,-9770.718434,-1149.143247
3109.763219,814.226536,-12583.501014,-919.314598
3109.763547,-518.144159,-15174.221811,0.000000
3109.763875,1036.288319,-10807.006753,-2068.457845
3109.764203,222.061783,-8808.450710,-2987.772442
3109.764530,-2146.597232,-11399.171507,-383.047749
3109.764858,-1702.473667,-7698.141797,-919.314598
3109.765186,0.000000,-3849.070898,-2451.505594
3109.765514,-222.061783,-7105.977043,0.000000
3109.765842,444.123565,-7105.977043,2451.505594
3109.766169,1184.329507,-4663.297435,1991.848295
3109.766497,-888.247130,-9844.739029,2987.772442
3109.766825,592.164754,-13323.706956,1225.752797
3109.767153,4071.132681,-11991.336260,-3370.820191
3109.767481,2442.679609,-14656.077652,-1915.238745
3109.767809,0.000000,-15692.365970,1225.752797
3109.768136,1554.432478,-10584.944971,-1685.410096
3109.768464,962.267725,-8956.491898,-1838.629195
3109.768792,-1702.473667,-11251.130318,-229.828649
3109.769120,-1184.329507,-7402.059420,-1762.019645
3109.769448,296.082377,-5329.482782,-2528.115143
3109.769775,-962.267725,-9030.512492,689.485948
3109.770103,444.123565,-8290.306550,612.876398
3109.770431,1332.370696,-5921.647536,0.000000
3109.770759,296.082377,-9252.574275,3370.820191
3109.771087,1776.494261,-11621.233289,2145.067394
3109.771414,4663.297435,-11473.192101,-995.924147
3109.771742,2146.597232,-13989.892304,306.438199
3109.772070,296.082377,-12879.583391,1225.752797
3109.772398,1998.556043,-9104.533087,-2068.457845
3109.772726,0.000000,-10066.800811,-842.705048
3109.773054,-2738.761985,-10732.986159,1149.143247
3109.773381,-1332.370696,-5995.668130,-1915.238745
3109.773709,0.000000,-6957.935855,-2911.162892
3109.774037,-740.205942,-9548.656652,-383.047749
3109.774365,-518.144159,-5995.668130,1149.143247
3109.774693,0.000000,-4589.276840,1838.629195
3109.775020,-222.061783,-9696.697840,3907.087040
3109.775348,2072.576638,-11843.295072,1838.629195
3109.775676,2368.659014,-10658.965565,-842.705048
3109.776004,370.102971,-13841.851115,1149.143247
3109.776332,444.123565,-13323.706956,1225.752797
3109.776659,1554.432478,-8734.430116,-2451.505594
3109.776987,-1480.411884,-10807.006753,-1915.238745
3109.777315,-2590.720797,-11325.150913,-1302.362347
3109.777643,-370.102971,-6365.771101,-3524.039291
3109.777971,-296.082377,-7624.121203,-2987.772442
3109.778299,-1184.329507,-10288.862594,306.438199
3109.778626,296.082377,-7179.997637,306.438199
3109.778954,1480.411884,-6587.832884,1072.533697
3109.779282,814.226536,-10881.027347,2298.286494
3109.779610,2368.659014,-11769.274478,689.485948
3109.779938,2294.638420,-11325.150913,0.000000
3109.780265,296.082377,-14211.954086,1685.410096
3109.780593,222.061783,-12657.521608,0.000000
3109.780921,-148.041188,-9104.533087,-3064.381992
3109.781249,-3108.864956,-11103.089130,-612.876398
3109.781577,-3034.844362,-10140.821405,-612.876398
3109.781904,0.000000,-5033.400406,-4060.306139
3109.782232,148.041188,-8364.327145,-3447.429741
3109.782560,-1702.473667,-10658.965565,1225.752797
3109.782888,0.000000,-5477.523971,995.924147
3109.783216,666.185348,-5699.585753,842.705048
3109.783544,-444.123565,-10955.047942,1991.848295
3109.783871,2368.659014,-10584.944971,76.609550
3109.784199,3627.009116,-10807.006753,306.438199
3109.784527,1110.308913,-14359.995275,2145.067394
3109.784855,1702.473667,-11917.315666,842.705048
3109.785183,1258.350101,-8956.491898,-1072.533697
3109.785510,-2294.638420,-10140.821405,-153.219100
3109.785838,-1850.514855,-9474.636058,-1149.143247
3109.786166,444.123565,-5995.668130,-4136.915689
3109.786494,-1480.411884,-6735.874072,-995.924147
3109.786822,-1184.329507,-8734.430116,1302.362347
3109.787149,1850.514855,-4959.379811,612.876398
3109.787477,2294.638420,-7179.997637,1225.752797
3109.787805,2072.576638,-12805.562797,2911.162892
3109.788133,3552.988522,-11325.150913,306.438199
3109.788461,2812.782580,-11029.068536,-689.485948
3109.788789,1924.535449,-14285.974681,0.000000
3109.789116,1036.288319,-11473.192101,-306.438199
3109.789444,0.000000,-10658.965565,-1608.800546
3109.789772,-1480.411884,-12583.501014,459.657299
3109.790100,-962.267725,-9178.553681,-1225.752797
3109.790427,0.000000,-5921.647536,-3140.991542
3109.790755,-296.082377,-9992.780217,-306.438199
3109.791083,-814.226536,-8882.471304,919.314598
3109.791411,1036.288319,-3330.926739,-536.266849
3109.791738,666.185348,-5995.668130,229.828649
3109.792066,370.102971,-10955.047942,2145.067394
3109.792394,1406.391290,-10658.965565,536.266849
3109.792721,1850.514855,-12583.501014,-536.266849
3109.793049,1184.329507,-15470.304188,153.219100
3109.793377,2368.659014,-12361.439231,-689.485948
3109.793705,296.082377,-10658.965565,-1302.362347
3109.794032,-2590.720797,-11917.315666,842.705048
3109.794360,-1258.350101,-8216.285956,-1072.533697
3109.794688,666.185348,-5107.421000,-2911.162892
3109.795015,-2146.597232,-8290.306550,459.657299
3109.795343,-2368.659014,-7624.121203,1915.238745
3109.795671,0.000000,-3034.844362,842.705048
3109.795998,148.041188,-7698.141797,459.657299
3109.796326,666.185348,-11325.150913,383.047749
3109.796654,2590.720797,-10214.842000,-1225.752797
3109.796982,1702.473667,-12657.521608,-383.047749
3109.797309,1554.432478,-15692.365970,842.705048
3109.797637,2664.741391,-11103.089130,-689.485948
3109.797965,518.144159,-9474.636058,-689.485948
3109.798292,-3108.864956,-11251.130318,1608.800546
3109.798620,-592.164754,-7920.203579,-536.266849
3109.798948,74.020594,-6365.771101,-1991.848295
3109.799276,-1924.535449,-9474.636058,-153.219100
3109.799603,-1258.350101,-8290.306550,-306.438199
3109.799931,518.144159,-5329.482782,-1455.581446
3109.800259,666.185348,-8438.347739,0.000000
3109.800586,962.267725,-10732.986159,0.000000
3109.800914,2294.638420,-10955.047942,-842.705048
3109.801242,2368.659014,-13619.789333,459.657299
3109.801570,962.267725,-14285.974681,612.876398
3109.801897,1258.350101,-10658.965565,-1149.143247
3109.802225,-1184.329507,-10214.842000,76.609550
3109.802553,-2664.741391,-10732.986159,766.095498
3109.802880,-592.164754,-7476.080014,-1225.752797
3109.803208,296.082377,-7846.182985,-1915.238745
3109.803536,-518.144159,-10584.944971,383.047749
3109.803863,-148.041188,-7772.162391,306.438199
3109.804191,814.226536,-5477.523971,-1302.362347
3109.804519,444.123565,-9622.677246,536.266849
3109.804847,740.205942,-9844.739029,842.705048
3109.805174,3775.050304,-9474.636058,-1455.581446
3109.805502,2590.720797,-13249.686362,76.609550
3109.805830,1850.514855,-12879.583391,1532.190996
3109.806157,1924.535449,-9030.512492,459.657299
3109.806485,-370.102971,-10732.986159,1225.752797
3109.806813,-2886.803174,-9622.677246,1378.971896
3109.807141,-1036.288319,-6587.832884,-2298.286494
3109.807468,-962.267725,-7105.977043,-1762.019645
3109.807796,-1184.329507,-10288.862594,536.266849
3109.808124,592.164754,-7476.080014,0.000000
3109.808451,1480.411884,-6291.750507,-689.485948
3109.808779,370.102971,-9844.739029,1608.800546
3109.809107,1850.514855,-9696.697840,0.000000
3109.809435,2738.761985,-9844.739029,-2298.286494
3109.809762,1406.391290,-13693.809927,0.000000
3109.810090,1776.494261,-13027.624579,0.000000
3109.810418,2294.638420,-9252.574275,-995.924147
3109.810745,-222.061783,-11695.253884,1455.581446
3109.811073,-1924.535449,-10955.047942,1302.362347
3109.811401,-222.061783,-7031.956449,-2221.676944
3109.811728,-740.205942,-9474.636058,-3064.381992
3109.812056,-1776.494261,-11177.109724,-689.485948
3109.812384,-962.267725,-6365.771101,-306.438199
3109.812712,-518.144159,-5329.482782,0.000000
3109.813039,-370.102971,-10066.800811,1762.019645
3109.813367,1776.494261,-9474.636058,0.000000
3109.813695,3478.967927,-10362.883188,-1915.238745
3109.814022,1702.473667,-14359.995275,459.657299
3109.814350,592.164754,-11177.109724,-153.219100
3109.814678,666.185348,-8586.388927,-1455.581446
3109.815006,-1702.473667,-11621.233289,153.219100
3109.815333,-2516.700203,-9844.739029,689.485948
3109.815661,-1184.329507,-6217.729913,-536.266849
3109.815989,-962.267725,-9548.656652,0.000000
3109.816316,-740.205942,-11251.130318,1225.752797
3109.816644,962.267725,-6587.832884,-229.828649
3109.816972,-518.144159,-7031.956449,766.095498
3109.817300,296.082377,-9918.759623,1302.362347
3109.817627,3182.885551,-8660.409521,-1455.581446
3109.817955,2738.761985,-8734.430116,-1455.581446
3109.818283,296.082377,-11103.089130,1302.362347
3109.818610,-222.061783,-11029.068536,0.000000
3109.818938,222.061783,-11029.068536,-1608.800546
3109.819266,-1036.288319,-11843.295072,-612.876398
3109.819593,-296.082377,-9844.739029,0.000000
3109.819921,1258.350101,-7920.203579,-306.438199
3109.820249,148.041188,-11325.150913,995.924147
3109.820577,-444.123565,-10658.965565,1532.190996
3109.820904,1036.288319,-4293.194464,-689.485948
3109.821232,0.000000,-6439.791695,0.000000
3109.821560,-148.041188,-11325.150913,1455.581446
3109.821887,1850.514855,-9104.533087,-995.924147
3109.822215,2072.576638,-10584.944971,-2068.457845
3109.822543,148.041188,-14434.015869,-1225.752797
3109.822871,1184.329507,-11547.212695,-2604.724693
3109.823198,518.144159,-9844.739029,-2451.505594
3109.823526,-814.226536,-11621.233289,229.828649
3109.823854,74.020594,-9474.636058,-229.828649
3109.824181,1184.329507,-8068.244768,-306.438199
3109.824509,-740.205942,-10881.027347,2681.334243
3109.824837,-1036.288319,-8364.327145,3370.820191
3109.825165,-148.041188,-4219.173869,995.924147
3109.825492,-1332.370696,-8068.244768,306.438199
3109.825820,-222.061783,-10362.883188,-536.266849
3109.826148,1998.556043,-9030.512492,-3600.648841
3109.826475,2146.597232,-11843.295072,-2451.505594
3109.826803,1480.411884,-13619.789333,-229.828649
3109.827131,1628.453072,-9178.553681,-1302.362347
3109.827459,888.247130,-8660.409521,-612.876398
3109.827786,-666.185348,-11177.109724,1685.410096
3109.828114,74.020594,-8512.368333,689.485948
3109.828442,222.061783,-7698.141797,995.924147
3109.828769,-1850.514855,-10362.883188,3140.991542
3109.829097,-1702.473667,-8364.327145,2298.286494
3109.829425,-1110.308913,-5477.523971,-153.219100
3109.829752,-1850.514855,-8808.450710,-153.219100
3109.830080,-222.061783,-10584.944971,-1225.752797
3109.830408,3182.885551,-9474.636058,-3677.258390
3109.830736,2738.761985,-12361.439231,-2298.286494
3109.831063,1776.494261,-13767.830521,76.609550
3109.831391,2664.741391,-10066.800811,-1225.752797
3109.831719,1036.288319,-10288.862594,-766.095498
3109.832046,-1184.329507,-10807.006753,306.438199
3109.832374,518.144159,-7846.182985,536.266849
3109.832702,1332.370696,-8364.327145,306.438199
3109.833030,-740.205942,-11547.212695,3524.039291
3109.833357,-1480.411884,-8290.306550,2604.724693
3109.833685,-962.267725,-6365.771101,0.000000
3109.834013,-1480.411884,-10658.965565,0.000000
3109.834340,0.000000,-10732.986159,-2068.457845
3109.834668,1480.411884,-9474.636058,-2757.943793
3109.834996,1110.308913,-12287.418637,-1838.629195
3109.835324,1776.494261,-12731.542202,-1149.143247
3109.835651,1628.453072,-8660.409521,-1685.410096
3109.835979,-814.226536,-9400.615463,153.219100
3109.836307,-1850.514855,-11177.109724,612.876398
3109.836634,74.020594,-7846.182985,-1378.971896
3109.836962,518.144159,-8734.430116,-1532.190996
3109.837290,-1702.473667,-10214.842000,2911.162892
3109.837617,-518.144159,-8216.285956,3677.258390
3109.837945,296.082377,-7994.224174,2145.067394
3109.838273,-592.164754,-11103.089130,1378.971896
3109.838601,592.164754,-9844.739029,-1608.800546
3109.838928,1998.556043,-8290.306550,-3907.087040
3109.839256,148.041188,-11103.089130,-1378.971896
3109.839584,-518.144159,-9474.636058,-1378.971896
3109.839911,1036.288319,-6809.894666,-1915.238745
3109.840239,296.082377,-9844.739029,76.609550
3109.840567,-740.205942,-10955.047942,2221.676944
3109.840895,1110.308913,-8142.265362,0.000000
3109.841222,370.102971,-10140.821405,0.000000
3109.841550,-814.226536,-11029.068536,1455.581446
3109.841878,0.000000,-7550.100608,306.438199
3109.842205,74.020594,-8512.368333,842.705048
3109.842533,222.061783,-11621.233289,2221.676944
3109.842861,2294.638420,-10881.027347,306.438199
3109.843189,3108.864956,-10066.800811,-2068.457845
3109.843516,1998.556043,-13545.768739,-1455.581446
3109.843844,1776.494261,-10436.903782,-1532.190996
3109.844172,1258.350101,-7624.121203,-3140.991542
3109.844499,-1554.432478,-10362.883188,-1455.581446
3109.844827,-1184.329507,-8808.450710,-536.266849
3109.845155,296.082377,-5107.421000,-1225.752797
3109.845482,-666.185348,-10584.944971,1838.629195
3109.845810,-1332.370696,-12287.418637,3753.867940
3109.846138,962.267725,-9104.533087,766.095498
3109.846466,518.144159,-9696.697840,1532.190996
3109.846793,444.123565,-12287.418637,1532.190996
3109.847121,1554.432478,-10288.862594,-995.924147
3109.847449,1406.391290,-9696.697840,-1915.238745
3109.847776,592.164754,-12213.398043,-1149.143247
3109.848104,666.185348,-9252.574275,-2451.505594
3109.848432,-518.144159,-7254.018232,-2681.334243
3109.848760,-3108.864956,-10510.924376,-153.219100
3109.849087,-2146.597232,-7402.059420,-1072.533697
3109.849415,666.185348,-6069.688724,-1838.629195
3109.849743,-666.185348,-10584.944971,1608.800546
3109.850070,-518.144159,-9992.780217,4136.915689
3109.850398,1850.514855,-6365.771101,2451.505594
3109.850726,2368.659014,-10214.842000,2068.457845
3109.851054,888.247130,-12065.356855,2145.067394
3109.851381,1110.308913,-9178.553681,-689.485948
3109.851709,814.226536,-10288.862594,-2068.457845
3109.852037,0.000000,-13693.809927,-2221.676944
3109.852364,814.226536,-11621.233289,-4290.134789
3109.852692,-148.041188,-9474.636058,-4290.134789
3109.853020,-1776.494261,-10584.944971,-1455.581446
3109.853347,-222.061783,-7179.997637,-2068.457845
3109.853675,1406.391290,-6661.853478,-2068.457845
3109.854003,-444.123565,-11251.130318,2528.115143
3109.854331,-592.164754,-8512.368333,4290.134789
3109.854658,1628.453072,-5477.523971,2757.943793
3109.854986,1036.288319,-11251.130318,3064.381992
3109.855314,-592.164754,-11843.295072,2604.724693
3109.855641,1184.329507,-9178.553681,-1608.800546
3109.855969,444.123565,-12287.418637,-2987.772442
3109.856297,74.020594,-14582.057057,-4136.915689
3109.856625,148.041188,-9474.636058,-5132.839837
3109.856952,-962.267725,-8290.306550,-2757.943793
3109.857280,-1850.514855,-9474.636058,-306.438199
3109.857608,666.185348,-7550.100608,-766.095498
3109.857935,1480.411884,-7179.997637,689.485948
3109.858263,0.000000,-10066.800811,3294.210641
3109.858591,888.247130,-7772.162391,3140.991542
3109.858919,1850.514855,-6291.750507,2451.505594
3109.859246,-370.102971,-10955.047942,3677.258390
3109.859574,740.205942,-11251.130318,2298.286494
3109.859902,1924.535449,-9400.615463,-1608.800546
3109.860229,740.205942,-12583.501014,-1685.410096
3109.860557,592.164754,-14434.015869,-1838.629195
3109.860885,1480.411884,-9400.615463,-3983.696590
3109.861212,222.061783,-8438.347739,-3140.991542
3109.861540,-2442.679609,-9696.697840,-383.047749
3109.861868,-1702.473667,-6439.791695,-995.924147
3109.862196,-666.185348,-6661.853478,-1302.362347
3109.862523,-1110.308913,-9844.739029,919.314598
3109.862851,296.082377,-7179.997637,919.314598
3109.863179,1850.514855,-8364.327145,1762.019645
3109.863506,1850.514855,-14211.954086,4290.134789
3109.863834,2664.741391,-13175.665768,2298.286494
3109.864162,3108.864956,-11399.171507,-2068.457845
3109.864490,444.123565,-14359.995275,-1838.629195
3109.864817,-1110.308913,-12805.562797,-2757.943793
3109.865145,-814.226536,-7254.018232,-4443.353888
3109.865473,-1850.514855,-8438.347739,-3140.991542
3109.865800,-2664.741391,-9104.533087,-689.485948
3109.866128,0.000000,-5699.585753,-766.095498
3109.866456,740.205942,-6883.915261,306.438199
3109.866784,-888.247130,-9918.759623,2451.505594
3109.867111,-592.164754,-7402.059420,2451.505594
3109.867439,222.061783,-7105.977043,842.705048
3109.867767,-518.144159,-10807.006753,2604.724693
3109.868094,2368.659014,-10955.047942,995.924147
3109.868422,3701.029710,-11251.130318,229.828649
3109.868750,1480.411884,-15248.242405,1608.800546
3109.869078,1110.308913,-13545.768739,229.828649
3109.869405,1702.473667,-8512.368333,-3677.258390
3109.869733,-1998.556043,-7846.182985,-2528.115143
3109.870061,-2442.679609,-8142.265362,-1838.629195
3109.870388,-814.226536,-5477.523971,-1762.019645
3109.870716,-444.123565,-7031.956449,536.266849
3109.871044,-666.185348,-8068.244768,2757.943793
3109.871371,592.164754,-5255.462188,2145.067394
3109.871699,-444.123565,-8142.265362,2911.162892
3109.872027,0.000000,-12583.501014,2145.067394
3109.872355,1924.535449,-11473.192101,-459.657299
3109.872682,3478.967927,-12509.480420,-2374.896044
3109.873010,2294.638420,-16062.468941,-383.047749
3109.873338,1850.514855,-12583.501014,-689.485948
3109.873665,2146.597232,-9178.553681,-2451.505594
3109.873993,-1406.391290,-10214.842000,-2145.067394
3109.874321,-2368.659014,-9474.636058,-2145.067394
3109.874649,-1776.494261,-5995.668130,-3830.477490
3109.874976,-1924.535449,-7994.224174,-2145.067394
3109.875304,-1924.535449,-8660.409521,536.266849
3109.875632,0.000000,-6217.729913,459.657299
3109.875959,1184.329507,-9844.739029,2528.115143
3109.876287,2294.638420,-13323.706956,3294.210641
3109.876615,3627.009116,-11473.192101,689.485948
3109.876943,3182.885551,-12509.480420,-306.438199
3109.877270,1184.329507,-13989.892304,459.657299
3109.877598,888.247130,-9918.759623,-1608.800546
3109.877926,-296.082377,-7772.162391,-2604.724693
3109.878253,-2368.659014,-9918.759623,-2068.457845
3109.878581,-2590.720797,-8660.409521,-1072.533697
3109.878909,0.000000,-7179.997637,-2911.162892
3109.879236,-518.144159,-8142.265362,-995.924147
3109.879564,-740.205942,-7476.080014,1072.533697
3109.879892,1110.308913,-5181.441594,1378.971896
3109.880220,888.247130,-8586.388927,2451.505594
3109.880547,1850.514855,-11029.068536,3064.381992
3109.880875,2886.803174,-9030.512492,2145.067394
3109.881203,3775.050304,-11843.295072,1149.143247
3109.881530,1110.308913,-14137.933492,2068.457845
3109.881858,296.082377,-10140.821405,-766.095498
3109.882186,-888.247130,-9400.615463,-2911.162892
3109.882514,-2960.823768,-11103.089130,-2145.067394
3109.882841,-2664.741391,-8586.388927,-3753.867940
3109.883169,-2072.576638,-5921.647536,-2757.943793
3109.883497,-2146.597232,-9178.553681,-842.705048
3109.883824,-1036.288319,-8142.265362,459.657299
3109.884152,1554.432478,-6217.729913,306.438199
3109.884480,1702.473667,-9844.739029,2298.286494
3109.884808,2886.803174,-11621.233289,2757.943793
3109.885135,3849.070898,-10510.924376,229.828649
3109.885463,2368.659014,-12361.439231,536.266849
3109.885791,370.102971,-13545.768739,459.657299
3109.886118,222.061783,-10214.842000,-1838.629195
3109.886446,0.000000,-10584.944971,-2604.724693
3109.886774,-1924.535449,-12065.356855,-2221.676944
3109.887101,-370.102971,-8438.347739,-3294.210641
3109.887429,74.020594,-7402.059420,-2451.505594
3109.887757,-2516.700203,-8956.491898,0.000000
3109.888085,-3034.844362,-6883.915261,689.485948
3109.888412,-1480.411884,-5773.606348,-383.047749
3109.888740,-222.061783,-9770.718434,0.000000
3109.889068,2368.659014,-10658.965565,-229.828649
3109.889395,4219.173869,-11251.130318,919.314598
3109.889723,4219.173869,-14508.036463,3140.991542
3109.890051,3775.050304,-14434.015869,1302.362347
3109.890379,2738.761985,-10288.862594,-995.924147
3109.890706,-518.144159,-9400.615463,-1838.629195
3109.891034,-2590.720797,-9178.553681,-1532.190996
3109.891362,-1850.514855,-5477.523971,-2604.724693
3109.891689,-2368.659014,-5403.503377,-1838.629195
3109.892017,-3108.864956,-7550.100608,1838.629195
3109.892345,-1258.350101,-5847.626942,1762.019645
3109.892672,1332.370696,-6513.812290,1072.533697
3109.893000,1702.473667,-10510.924376,1915.238745
3109.893328,2812.782580,-10955.047942,612.876398
3109.893655,3478.967927,-9178.553681,-459.657299
3109.893983,1628.453072,-12139.377449,919.314598
3109.894311,2146.597232,-13619.789333,689.485948
3109.894638,2368.659014,-11177.109724,153.219100
3109.894966,0.000000,-11325.150913,0.000000
3109.895294,-962.267725,-12065.356855,-842.705048
3109.895622,0.000000,-9104.533087,-3370.820191
3109.895949,-1554.432478,-8142.265362,-2911.162892
3109.896277,-2590.720797,-8660.409521,-612.876398
3109.896605,-1480.411884,-4737.318029,-842.705048
3109.896932,666.185348,-5773.606348,-383.047749
3109.897260,1110.308913,-9548.656652,1762.019645
3109.897588,1332.370696,-9844.739029,1225.752797
3109.897915,2590.720797,-11991.336260,459.657299
3109.898243,2516.700203,-15322.262999,153.219100
3109.898571,2368.659014,-13693.809927,-383.047749
3109.898898,2220.617826,-11029.068536,-536.266849
3109.899226,0.000000,-11621.233289,-689.485948
3109.899554,-814.226536,-10436.903782,-995.924147
3109.899881,0.000000,-7772.162391,-2681.334243
3109.900209,-1406.391290,-8882.471304,-689.485948
3109.900537,-3404.947333,-8216.285956,1072.533697
3109.900864,-2368.659014,-4515.256246,-536.266849
3109.901192,-962.267725,-6217.729913,-306.438199
3109.901520,0.000000,-9474.636058,1378.971896
3109.901847,1998.556043,-8586.388927,153.219100
3109.902175,3330.926739,-10658.965565,842.705048
3109.902503,2886.803174,-13841.851115,2145.067394
3109.902830,2368.659014,-11547.212695,459.657299
3109.903158,1406.391290,-9178.553681,-306.438199
3109.903486,-888.247130,-10584.944971,-459.657299
3109.903813,-2664.741391,-9474.636058,-612.876398
3109.904141,-1406.391290,-7994.224174,-1915.238745
3109.904469,-1924.535449,-10140.821405,-1225.752797
3109.904796,-1924.535449,-10584.944971,-536.266849
3109.905124,-1036.288319,-6291.750507,-1225.752797
3109.905452,-592.164754,-7476.080014,0.000000
3109.905780,148.041188,-9696.697840,1302.362347
3109.906107,3108.864956,-8808.450710,459.657299
3109.906435,2738.761985,-9918.759623,612.876398
3109.906763,1924.535449,-13249.686362,1608.800546
3109.907090,2590.720797,-11029.068536,689.485948
3109.907418,2516.700203,-10066.800811,0.000000
3109.907746,-518.144159,-11695.253884,689.485948
3109.908073,-888.247130,-10807.006753,-1072.533697
3109.908401,-370.102971,-8808.450710,-2298.286494
3109.908729,-1850.514855,-10362.883188,-1225.752797
3109.909056,-1850.514855,-9622.677246,-306.438199
3109.909384,-666.185348,-6883.915261,-995.924147
3109.909712,-1258.350101,-8290.306550,306.438199
3109.910039,370.102971,-9548.656652,306.438199
3109.910367,3256.906145,-8586.388927,-306.438199
3109.910695,3552.988522,-10584.944971,383.047749
3109.911022,2442.679609,-12879.583391,1532.190996
3109.911350,1850.514855,-9918.759623,383.047749
3109.911678,1036.288319,-9030.512492,-536.266849
3109.912005,-1554.432478,-10807.006753,0.000000
3109.912333,-814.226536,-9400.615463,-229.828649
3109.912661,0.000000,-8364.327145,-1225.752797
3109.912988,-592.164754,-10658.965565,-383.047749
3109.913316,-666.185348,-9400.615463,459.657299
3109.913644,-666.185348,-6883.915261,0.000000
3109.913971,-2294.638420,-8586.388927,842.705048
3109.914299,-2368.659014,-9252.574275,-689.485948
3109.914627,1036.288319,-8734.430116,-3600.648841
3109.914954,2220.617826,-11029.068536,-2757.943793
3109.915282,1776.494261,-13397.727550,-306.438199
3109.915610,3256.906145,-11473.192101,842.705048
3109.915938,2664.741391,-11621.233289,1302.362347
3109.916265,222.061783,-11991.336260,689.485948
3109.916593,0.000000,-9474.636058,-1685.410096
3109.916921,-370.102971,-8882.471304,-1608.800546
3109.917248,-1702.473667,-9992.780217,612.876398
3109.917576,-1258.350101,-7550.100608,1072.533697
3109.917904,-666.185348,-5699.585753,76.609550
3109.918231,-666.185348,-8808.450710,1762.019645
3109.918559,1554.432478,-10066.800811,459.657299
3109.918887,2442.679609,-8438.347739,-1532.190996
3109.919214,1036.288319,-11473.192101,-612.876398
3109.919542,666.185348,-11103.089130,-919.314598
3109.919870,1480.411884,-8068.244768,-1455.581446
3109.920197,518.144159,-10510.924376,0.000000
3109.920525,222.061783,-11473.192101,2451.505594
3109.920853,1332.370696,-9474.636058,1762.019645
3109.921180,814.226536,-9992.780217,995.924147
3109.921508,-444.123565,-11251.130318,919.314598
3109.921836,-592.164754,-6809.894666,-459.657299
3109.922163,-962.267725,-5995.668130,-995.924147
3109.922491,-1998.556043,-8438.347739,766.095498
3109.922819,370.102971,-7920.203579,-229.828649
3109.923146,2294.638420,-8586.388927,-612.876398
3109.923474,666.185348,-11769.274478,0.000000
3109.923802,-1776.494261,-11473.192101,-689.485948
3109.924129,-666.185348,-8438.347739,-2987.772442
3109.924457,296.082377,-11325.150913,-2451.505594
3109.924785,444.123565,-11991.336260,-459.657299
3109.925112,1850.514855,-9844.739029,229.828649
3109.925440,1776.494261,-11473.192101,1685.410096
3109.925768,962.267725,-11917.315666,2221.676944
3109.926096,0.000000,-7328.038826,689.485948
3109.926423,-2146.597232,-7179.997637,0.000000
3109.926751,-2072.576638,-9770.718434,-306.438199
3109.927079,0.000000,-9178.553681,-2068.457845
3109.927406,2072.576638,-9918.759623,-2757.943793
3109.927734,1406.391290,-12657.521608,-689.485948
3109.928062,1554.432478,-11177.109724,0.000000
3109.928389,2516.700203,-9030.512492,-766.095498
3109.928717,444.123565,-11621.233289,-689.485948
3109.929045,-888.247130,-9918.759623,-995.924147
3109.929372,740.205942,-7402.059420,-612.876398
3109.929700,0.000000,-9548.656652,1072.533697
3109.930028,-370.102971,-11029.068536,2757.943793
3109.930355,0.000000,-7846.182985,2068.457845
3109.930683,-962.267725,-8808.450710,689.485948
3109.931011,-1036.288319,-10881.027347,0.000000
3109.931338,1850.514855,-8808.450710,-3370.820191
3109.931666,2220.617826,-8142.265362,-2451.505594
3109.931994,592.164754,-10881.027347,76.609550
3109.932321,148.041188,-9400.615463,0.000000
3109.932649,592.164754,-7846.182985,-766.095498
3109.932977,-814.226536,-9844.739029,459.657299
3109.933304,-296.082377,-8512.368333,383.047749
3109.933632,888.247130,-7402.059420,306.438199
3109.933960,148.041188,-11547.212695,1608.800546
3109.934287,0.000000,-11621.233289,1378.971896
3109.934615,0.000000,-7476.080014,0.000000
3109.934943,-370.102971,-9548.656652,536.266849
3109.935270,222.061783,-11399.171507,919.314598
3109.935598,592.164754,-9252.574275,-1685.410096
3109.935926,1036.288319,-10584.944971,-2221.676944
3109.936254,518.144159,-11399.171507,-1838.629195
3109.936581,518.144159,-8364.327145,-3140.991542
3109.936909,0.000000,-7624.121203,-2451.505594
3109.937237,-1480.411884,-10955.047942,229.828649
3109.937564,-888.247130,-9474.636058,919.314598
3109.937892,1702.473667,-8660.409521,229.828649
3109.938220,444.123565,-11621.233289,2451.505594
3109.938547,296.082377,-10436.903782,2068.457845
3109.938875,814.226536,-8216.285956,995.924147
3109.939203,1036.288319,-11103.089130,766.095498
3109.939530,740.205942,-11621.233289,229.828649
3109.939858,1628.453072,-9252.574275,-1455.581446
3109.940186,0.000000,-9770.718434,-995.924147
3109.940513,-1480.411884,-11695.253884,-1532.190996
3109.940841,-296.082377,-7624.121203,-3983.696590
3109.941169,-296.082377,-7846.182985,-3830.477490
3109.941496,-1998.556043,-11473.192101,-153.219100
3109.941824,74.020594,-9474.636058,229.828649
3109.942152,1776.494261,-8142.265362,459.657299
3109.942479,962.267725,-11399.171507,2068.457845
3109.942807,1332.370696,-9474.636058,2604.724693
3109.943135,1776.494261,-5995.668130,1991.848295
3109.943462,666.185348,-9992.780217,2604.724693
3109.943790,1258.350101,-11399.171507,1532.190996
3109.944118,2220.617826,-9178.553681,-459.657299
3109.944445,1480.411884,-10214.842000,-995.924147
3109.944773,148.041188,-11177.109724,-2221.676944
3109.945101,0.000000,-7328.038826,-3370.820191
3109.945428,-1924.535449,-8438.347739,-3140.991542
3109.945756,-2738.761985,-10214.842000,-1838.629195
3109.946084,-1258.350101,-6735.874072,-1608.800546
3109.946412,0.000000,-7328.038826,153.219100
3109.946739,222.061783,-10362.883188,4060.306139
3109.947067,1998.556043,-9178.553681,3600.648841
3109.947395,2960.823768,-9622.677246,2221.676944
3109.947722,1628.453072,-11917.315666,2374.896044
3109.948050,2442.679609,-11621.233289,0.000000
3109.948378,2442.679609,-10066.800811,-1915.238745
3109.948705,592.164754,-11399.171507,-383.047749
3109.949033,148.041188,-10658.965565,-459.657299
3109.949361,148.041188,-7105.977043,-2298.286494
3109.949688,-2738.761985,-8290.306550,-2604.724693
3109.950016,-4441.235652,-9844.739029,-2145.067394
3109.950344,-1924.535449,-7105.977043,-2451.505594
3109.950671,-370.102971,-8512.368333,-229.828649
3109.950999,296.082377,-11399.171507,3064.381992
3109.951327,1776.494261,-10436.903782,3600.648841
3109.951654,2442.679609,-9474.636058,2528.115143
3109.951982,2516.700203,-12287.418637,2451.505594
3109.952310,2368.659014,-10214.842000,0.000000
3109.952637,888.247130,-10066.800811,-1302.362347
3109.952965,-1480.411884,-12731.542202,-1072.533697
3109.953293,-1850.514855,-11473.192101,-2757.943793
3109.953620,-518.144159,-8142.265362,-4903.011187
3109.953948,-666.185348,-10214.842000,-2757.943793
3109.954276,-518.144159,-8882.471304,-842.705048
3109.954603,518.144159,-5847.626942,-689.485948
3109.954931,-888.247130,-8512.368333,1225.752797
3109.955259,-962.267725,-9400.615463,2834.553343
3109.955586,1480.411884,-7105.977043,1915.238745
3109.955914,1554.432478,-8512.368333,2757.943793
3109.956242,1184.329507,-12361.439231,2987.772442
3109.956570,2072.576638,-11547.212695,-229.828649
3109.956897,2442.679609,-12139.377449,-2451.505594
3109.957225,1332.370696,-15174.221811,-2298.286494
3109.957553,222.061783,-11177.109724,-3140.991542
3109.957880,-296.082377,-7031.956449,-3600.648841
3109.958208,-1924.535449,-8882.471304,-2451.505594
3109.958536,-1480.411884,-7920.203579,-995.924147
3109.958863,0.000000,-5995.668130,-383.047749
3109.959191,0.000000,-7624.121203,2374.896044
3109.959519,0.000000,-9400.615463,3524.039291
3109.959846,1332.370696,-7402.059420,2528.115143
3109.960174,1184.329507,-8808.450710,2221.676944
3109.960502,1184.329507,-10955.047942,1532.190996
3109.960829,2812.782580,-10584.944971,-536.266849
3109.961157,2960.823768,-12731.542202,-1072.533697
3109.961485,1036.288319,-14508.036463,459.657299
3109.961812,1036.288319,-10658.965565,-1685.410096
3109.962140,222.061783,-8660.409521,-3217.601092
3109.962468,-1702.473667,-9400.615463,-2528.115143
3109.962795,-2220.617826,-7105.977043,-2604.724693
3109.963123,-1110.308913,-5477.523971,-2145.067394
3109.963451,-1184.329507,-8512.368333,1608.800546
3109.963778,-1036.288319,-9474.636058,2374.896044
3109.964106,-148.041188,-7179.997637,1991.848295
3109.964434,0.000000,-9696.697840,2451.505594
3109.964761,888.247130,-11103.089130,1915.238745
3109.965089,3182.885551,-9844.739029,-612.876398
3109.965417,2738.761985,-13767.830521,-766.095498
3109.965744,3256.906145,-15174.221811,229.828649
3109.966072,2220.617826,-9918.759623,-842.705048
3109.966400,-666.185348,-8512.368333,-1302.362347
3109.966728,-3997.112087,-9918.759623,-2374.896044
3109.967055,-3552.988522,-7402.059420,-4519.963438
3109.967383,-1924.535449,-5551.544565,-4903.011187
3109.967711,-1850.514855,-9622.677246,-1072.533697
3109.968038,0.000000,-10658.965565,2681.334243
3109.968366,2516.700203,-7698.141797,2757.943793
3109.968694,2072.576638,-10807.006753,4213.525239
3109.969021,2368.659014,-11399.171507,2068.457845
3109.969349,3552.988522,-10140.821405,-1149.143247
3109.969677,2220.617826,-12879.583391,-383.047749
3109.970004,444.123565,-12361.439231,229.828649
3109.970332,222.061783,-7846.182985,-1302.362347
3109.970660,-962.267725,-8438.347739,-995.924147
3109.970987,-1480.411884,-11029.068536,-1149.143247
3109.971315,-1036.288319,-8512.368333,-3294.210641
3109.971643,-1258.350101,-6809.894666,-3294.210641
3109.971970,-2886.803174,-8512.368333,-306.438199
3109.972298,-1924.535449,-7624.121203,0.000000
3109.972626,-592.164754,-6291.750507,1225.752797
3109.972953,0.000000,-9326.594869,3140.991542
3109.973281,2960.823768,-11103.089130,3370.820191
3109.973609,5181.441594,-11547.212695,1455.581446
3109.973936,4441.235652,-14359.995275,995.924147
3109.974264,2516.700203,-13101.645173,229.828649
3109.974592,1406.391290,-7994.224174,-1915.238745
3109.974919,-888.247130,-9030.512492,-2068.457845
3109.975247,-2442.679609,-10214.842000,-1915.238745
3109.975575,-1258.350101,-6513.812290,-3294.210641
3109.975903,-592.164754,-7772.162391,-1991.848295
3109.976230,-962.267725,-10066.800811,995.924147
3109.976558,-962.267725,-7105.977043,1072.533697
3109.976886,-518.144159,-6809.894666,1378.971896
3109.977213,-962.267725,-9474.636058,2374.896044
3109.977541,3330.926739,-10955.047942,306.438199
3109.977869,5329.482782,-11843.295072,-153.219100
3109.978196,3627.009116,-14508.036463,2221.676944
3109.978524,2442.679609,-13545.768739,2374.896044
3109.978852,1184.329507,-9178.553681,-689.485948
3109.979179,-1480.411884,-10436.903782,-2145.067394
3109.979507,-4515.256246,-8512.368333,-3140.991542
3109.979835,-3478.967927,-5551.544565,-5439.278036
3109.980162,-3108.864956,-7772.162391,-3830.477490
3109.980490,-1850.514855,-10881.027347,-306.438199
3109.980818,0.000000,-7254.018232,1608.800546
3109.981145,1036.288319,-7698.141797,3524.039291
3109.981473,1332.370696,-11029.068536,3907.087040
3109.981801,3627.009116,-11029.068536,995.924147
3109.982128,4145.153275,-10140.821405,-383.047749
3109.982456,1628.453072,-12213.398043,995.924147
3109.982784,-814.226536,-11695.253884,842.705048
3109.983111,1184.329507,-10584.944971,-1302.362347
3109.983439,-1258.350101,-11843.295072,-1455.581446
3109.983767,-2294.638420,-10066.800811,-1991.848295
3109.984094,-592.164754,-7994.224174,-4136.915689
3109.984422,-1110.308913,-8290.306550,-3064.381992
3109.984750,-3182.885551,-8438.347739,-459.657299
3109.985077,-370.102971,-6143.709319,459.657299
3109.985405,-222.061783,-6661.853478,2911.162892
3109.985733,0.000000,-9918.759623,3983.696590
3109.986061,2590.720797,-9918.759623,2068.457845
3109.986388,3256.906145,-10881.027347,1532.190996
3109.986716,1850.514855,-14211.954086,995.924147
3109.987044,2294.638420,-11991.336260,-842.705048
3109.987371,1258.350101,-9622.677246,-2451.505594
3109.987699,-1406.391290,-11769.274478,-995.924147
3109.988027,-1110.308913,-9696.697840,-1685.410096
3109.988354,-148.041188,-7105.977043,-3447.429741
3109.988682,-2146.597232,-7846.182985,-2145.067394
3109.989010,-740.205942,-8364.327145,-459.657299
3109.989337,-666.185348,-5625.565159,0.000000
3109.989665,-222.061783,-8142.265362,1532.190996
3109.989993,1184.329507,-11325.150913,1762.019645
3109.990320,2442.679609,-10807.006753,0.000000
3109.990648,2368.659014,-11843.295072,1149.143247
3109.990976,1628.453072,-13175.665768,1608.800546
3109.991303,1184.329507,-10436.903782,-306.438199
3109.991631,1702.473667,-10955.047942,-766.095498
3109.991959,666.185348,-12361.439231,0.000000
3109.992286,0.000000,-8882.471304,-1302.362347
3109.992614,296.082377,-6735.874072,-2604.724693
3109.992942,-1332.370696,-8586.388927,-1378.971896
3109.993269,-1924.535449,-7624.121203,766.095498
3109.993597,-740.205942,-5477.523971,-1149.143247
3109.993925,-1110.308913,-8882.471304,306.438199
3109.994252,1036.288319,-11251.130318,689.485948
3109.994580,3552.988522,-10510.924376,-229.828649
3109.994908,3478.967927,-13323.706956,2298.286494
3109.995235,2886.803174,-13471.748144,2911.162892
3109.995563,3404.947333,-9844.739029,919.314598
3109.995891,1110.308913,-8660.409521,-459.657299
3109.996219,-962.267725,-10658.965565,-306.438199
3109.996546,-296.082377,-7698.141797,-1225.752797
3109.996874,0.000000,-5773.606348,-1762.019645
3109.997202,-2146.597232,-9178.553681,-536.266849
3109.997529,-1480.411884,-8216.285956,-919.314598
3109.997857,370.102971,-7031.956449,-1378.971896
3109.998185,-148.041188,-10066.800811,612.876398
3109.998512,666.185348,-11621.233289,612.876398
3109.998840,2294.638420,-9918.759623,0.000000
3109.999168,1184.329507,-11695.253884,612.876398
3109.999495,740.205942,-12435.459826,842.705048
3109.999823,1924.535449,-9696.697840,76.609550
3110.000151,518.144159,-10066.800811,536.266849
3110.000478,-1184.329507,-10732.986159,1302.362347
3110.000806,-444.123565,-9178.553681,-1608.800546
3110.001134,-1184.329507,-8586.388927,-2757.943793
3110.001461,-2886.803174,-10658.965565,-766.095498
3110.001789,-1998.556043,-7402.059420,-1149.143247
3110.002117,222.061783,-5033.400406,-1685.410096
3110.002444,-296.082377,-8512.368333,1225.752797
3110.002772,0.000000,-10584.944971,2221.676944
3110.003100,740.205942,-10955.047942,919.314598
3110.003427,1480.411884,-11991.336260,536.266849
3110.003755,1924.535449,-11843.295072,306.438199
3110.004083,2146.597232,-9844.739029,153.219100
3110.004410,-222.061783,-11177.109724,1455.581446
3110.004738,-518.144159,-10955.047942,1072.533697
3110.005066,370.102971,-6957.935855,-2145.067394
3110.005394,0.000000,-7994.224174,-2834.553343
3110.005721,-2812.782580,-9326.594869,-153.219100
3110.006049,-3182.885551,-6217.729913,-459.657299
3110.006377,-666.185348,-5847.626942,-1532.190996
3110.006704,370.102971,-9696.697840,-612.876398
3110.007032,2146.597232,-10658.965565,229.828649
3110.007360,3256.906145,-10140.821405,1225.752797
3110.007687,2886.803174,-12731.542202,2068.457845
3110.008015,2442.679609,-12213.398043,229.828649
3110.008343,2072.576638,-9696.697840,-2145.067394
3110.008670,-1110.308913,-10362.883188,-995.924147
3110.008998,-2220.617826,-10881.027347,536.266849
3110.009326,-592.164754,-7846.182985,-1608.800546
3110.009653,444.123565,-10881.027347,-1532.190996
3110.009981,-592.164754,-12287.418637,-995.924147
3110.010309,-444.123565,-7994.224174,-1685.410096
3110.010636,0.000000,-7105.977043,-1149.143247
3110.010964,814.226536,-9696.697840,0.000000
3110.011292,1998.556043,-9252.574275,0.000000
3110.011619,1850.514855,-9474.636058,1455.581446
3110.011947,1184.329507,-12435.459826,2987.772442
3110.012275,1924.535449,-11843.295072,1225.752797
3110.012602,1036.288319,-9992.780217,153.219100
3110.012930,-814.226536,-10955.047942,689.485948
3110.013258,-1184.329507,-9252.574275,0.000000
3110.013585,814.226536,-7031.956449,-2298.286494
3110.013913,444.123565,-9474.636058,-995.924147
3110.014241,0.000000,-11251.130318,1455.581446
3110.014569,666.185348,-6439.791695,919.314598
3110.014896,222.061783,-5773.606348,459.657299
3110.015224,-296.082377,-8956.491898,1225.752797
3110.015552,666.185348,-9622.677246,-306.438199
3110.015879,1998.556043,-10214.842000,-842.705048
3110.016207,592.164754,-12657.521608,0.000000
3110.016535,0.000000,-11769.274478,-536.266849
3110.016862,-1036.288319,-9622.677246,-383.047749
3110.017190,-3627.009116,-9696.697840,383.047749
3110.017518,-2294.638420,-8142.265362,-995.924147
3110.017845,222.061783,-7846.182985,-1762.019645
3110.018173,962.267725,-11473.192101,1072.533697
3110.018501,592.164754,-10288.862594,1685.410096
3110.018828,1406.391290,-6587.832884,-306.438199
3110.019156,1184.329507,-7179.997637,-459.657299
3110.019484,0.000000,-10214.842000,-995.924147
3110.019811,592.164754,-10732.986159,-1532.190996
3110.020139,1110.308913,-11621.233289,-1915.238745
3110.020467,1110.308913,-13397.727550,-2145.067394
3110.020794,888.247130,-11917.315666,-1838.629195
3110.021122,74.020594,-11917.315666,0.000000
3110.021450,0.000000,-11843.295072,1225.752797
3110.021777,888.247130,-8512.368333,-306.438199
3110.022105,814.226536,-8734.430116,-1532.190996
3110.022433,296.082377,-10955.047942,-766.095498
3110.022760,666.185348,-7105.977043,383.047749
3110.023088,888.247130,-4737.318029,995.924147
3110.023416,592.164754,-7254.018232,1685.410096
3110.023744,1258.350101,-9992.780217,383.047749
3110.024071,3182.885551,-10732.986159,-1378.971896
3110.024399,2960.823768,-12731.542202,-1608.800546
3110.024727,2368.659014,-13175.665768,-919.314598
3110.025054,1850.514855,-9770.718434,-689.485948
3110.025382,-1110.308913,-8808.450710,689.485948
3110.025710,-2368.659014,-9696.697840,1072.533697
3110.026037,-296.082377,-7402.059420,0.000000
3110.026365,-148.041188,-7179.997637,0.000000
3110.026693,-1480.411884,-9622.677246,2834.553343
3110.027020,0.000000,-7920.203579,1455.581446
3110.027348,666.185348,-6069.688724,0.000000
3110.027676,-666.185348,-9474.636058,-383.047749
3110.028003,888.247130,-10584.944971,-689.485948
3110.028331,2220.617826,-9400.615463,-1762.019645
3110.028659,1702.473667,-11843.295072,-306.438199
3110.028986,74.020594,-12731.542202,76.609550
3110.029314,-962.267725,-10288.862594,-306.438199
3110.029642,-2368.659014,-10288.862594,229.828649
3110.029969,-1702.473667,-10362.883188,995.924147
3110.030297,0.000000,-7402.059420,-689.485948
3110.030625,-1036.288319,-8956.491898,459.657299
3110.030952,-1924.535449,-12139.377449,1838.629195
3110.031280,-370.102971,-8808.450710,306.438199
3110.031608,-296.082377,-6735.874072,-1072.533697
3110.031935,-1332.370696,-9252.574275,-612.876398
3110.032263,666.185348,-10955.047942,-919.314598
3110.032591,2368.659014,-10955.047942,-2298.286494
3110.032918,2220.617826,-12731.542202,-1072.533697
3110.033246,1776.494261,-12361.439231,-995.924147
3110.033574,1332.370696,-9622.677246,-842.705048
3110.033902,-592.164754,-10214.842000,842.705048
3110.034229,-666.185348,-9918.759623,536.266849
3110.034557,-814.226536,-6809.894666,-1532.190996
3110.034885,-2294.638420,-7920.203579,0.000000
3110.035212,-1628.453072,-10881.027347,1608.800546
3110.035540,74.020594,-7920.203579,1149.143247
3110.035868,1110.308913,-7254.018232,459.657299
3110.036195,1702.473667,-11103.089130,766.095498
3110.036523,2590.720797,-11251.130318,-1225.752797
3110.036851,3330.926739,-10066.800811,-2374.896044
3110.037178,1850.514855,-10955.047942,-1762.019645
3110.037506,1480.411884,-9844.739029,-1225.752797
3110.037834,1406.391290,-8882.471304,-766.095498
3110.038161,-1184.329507,-11103.089130,842.705048
3110.038489,-2146.597232,-9252.574275,536.266849
3110.038817,-888.247130,-6957.935855,-612.876398
3110.039144,-296.082377,-9400.615463,842.705048
3110.039472,-1036.288319,-8956.491898,1838.629195
3110.039800,0.000000,-6143.709319,1378.971896
3110.040127,1406.391290,-7254.018232,1455.581446
3110.040455,2960.823768,-11325.150913,1455.581446
3110.040783,4663.297435,-10881.027347,-383.047749
3110.041110,3404.947333,-9844.739029,-536.266849
3110.041438,2072.576638,-12139.377449,0.000000
3110.041766,1406.391290,-10807.006753,-2757.943793
3110.042093,-296.082377,-9178.553681,-2987.772442
3110.042421,-3404.947333,-10510.924376,-1532.190996
3110.042749,-3552.988522,-9770.718434,-1302.362347
3110.043077,-2146.597232,-8364.327145,-1455.581446
3110.043404,-2664.741391,-10436.903782,1072.533697
3110.043732,-1554.432478,-8586.388927,2068.457845
3110.044060,740.205942,-6513.812290,1072.533697
3110.044387,2516.700203,-9622.677246,2451.505594
3110.044715,3701.029710,-12213.398043,2451.505594
3110.045043,4663.297435,-10955.047942,-612.876398
3110.045370,3923.091493,-11177.109724,-1608.800546
3110.045698,888.247130,-11399.171507,-1225.752797
3110.046026,222.061783,-8808.450710,-1915.238745
3110.046353,-1110.308913,-9770.718434,-2834.553343
3110.046681,-4145.153275,-11621.233289,-1915.238745
3110.047009,-3627.009116,-9474.636058,-2451.505594
3110.047336,-1480.411884,-8882.471304,-2068.457845
3110.047664,-1110.308913,-11177.109724,1608.800546
3110.047992,0.000000,-9474.636058,3140.991542
3110.048319,222.061783,-6439.791695,3753.867940
3110.048647,888.247130,-8438.347739,2911.162892
3110.048975,3330.926739,-10362.883188,306.438199
3110.049302,3552.988522,-8660.409521,-842.705048
3110.049630,2368.659014,-10066.800811,0.000000
3110.049958,1110.308913,-11843.295072,0.000000
3110.050285,1480.411884,-9548.656652,-2145.067394
3110.050613,-592.164754,-9326.594869,-3983.696590
3110.050941,-3034.844362,-11029.068536,-1608.800546
3110.051268,-2812.782580,-7994.224174,-689.485948
3110.051596,-1406.391290,-8068.244768,-459.657299
3110.051924,-1924.535449,-10066.800811,1685.410096
3110.052252,-1628.453072,-7179.997637,2451.505594
3110.052579,-296.082377,-5033.400406,1991.848295
3110.052907,1184.329507,-8586.388927,2528.115143
3110.053235,3627.009116,-11399.171507,1685.410096
3110.053562,3775.050304,-10881.027347,-1149.143247
3110.053890,2812.782580,-13323.706956,-1378.971896
3110.054218,1702.473667,-13323.706956,-2451.505594
3110.054545,2072.576638,-9252.574275,-3983.696590
3110.054873,148.041188,-8660.409521,-2681.334243
3110.055201,-2812.782580,-10066.800811,-1072.533697
3110.055528,-2590.720797,-8142.265362,-766.095498
3110.055856,-2146.597232,-7920.203579,-459.657299
3110.056184,-1480.411884,-10288.862594,1762.019645
3110.056511,666.185348,-7994.224174,2451.505594
3110.056839,1554.432478,-7328.038826,2451.505594
3110.057167,1184.329507,-11695.253884,3064.381992
3110.057494,2960.823768,-12213.398043,689.485948
3110.057822,3997.112087,-10584.944971,-2451.505594
3110.058150,2590.720797,-11917.315666,-1685.410096
3110.058477,370.102971,-12583.501014,-766.095498
3110.058805,370.102971,-9844.739029,-2145.067394
3110.059133,-592.164754,-10066.800811,-2604.724693
3110.059460,-2442.679609,-9844.739029,-1915.238745
3110.059788,-1924.535449,-6069.688724,-2451.505594
3110.060116,-1776.494261,-6809.894666,766.095498
3110.060443,-1184.329507,-9326.594869,3830.477490
3110.060771,-148.041188,-7179.997637,3217.601092
3110.061099,-148.041188,-6883.915261,2221.676944
3110.061427,666.185348,-10436.903782,2681.334243
3110.061754,2664.741391,-11029.068536,536.266849
3110.062082,3256.906145,-11325.150913,-995.924147
3110.062410,1110.308913,-12361.439231,-766.095498
3110.062737,1184.329507,-12435.459826,-2911.162892
3110.063065,1258.350101,-9992.780217,-4673.182538
3110.063393,-1406.391290,-10362.883188,-2911.162892
3110.063720,-2590.720797,-8438.347739,-1532.190996
3110.064048,-1628.453072,-6809.894666,-1991.848295
3110.064376,-1776.494261,-8808.450710,153.219100
3110.064703,-1998.556043,-8734.430116,2528.115143
3110.065031,-1702.473667,-6439.791695,2298.286494
3110.065359,-592.164754,-7698.141797,2681.334243
3110.065686,1998.556043,-12213.398043,2451.505594
3110.066014,3923.091493,-11251.130318,153.219100
3110.066342,4589.276840,-10584.944971,-1532.190996
3110.066669,2664.741391,-13767.830521,153.219100
3110.066997,3108.864956,-12213.398043,-612.876398
3110.067325,2146.597232,-8586.388927,-3140.991542
3110.067652,-1258.350101,-9400.615463,-1991.848295
3110.067980,-2664.741391,-8216.285956,-2145.067394
3110.068308,-2368.659014,-7031.956449,-2374.896044
3110.068635,-3108.864956,-9400.615463,0.000000
3110.068963,-3404.947333,-9400.615463,919.314598
3110.069291,-2146.597232,-6883.915261,459.657299
3110.069618,-1110.308913,-7328.038826,2911.162892
3110.069946,1406.391290,-10732.986159,2528.115143
3110.070274,5107.421000,-11325.150913,1455.581446
3110.070602,6143.709319,-12361.439231,1762.019645
3110.070929,4737.318029,-14582.057057,2911.162892
3110.071257,3701.029710,-11621.233289,-306.438199
3110.071585,1332.370696,-7031.956449,-2834.553343
3110.071912,-2294.638420,-8290.306550,-3677.258390
3110.072240,-3627.009116,-8290.306550,-3983.696590
3110.072568,-2368.659014,-6957.935855,-3600.648841
3110.072895,-2590.720797,-9400.615463,-536.266849
3110.073223,-1480.411884,-9622.677246,1838.629195
3110.073551,-296.082377,-7179.997637,2911.162892
3110.073878,-148.041188,-8808.450710,3370.820191
3110.074206,666.185348,-10955.047942,2374.896044
3110.074534,3775.050304,-11251.130318,0.000000
3110.074861,4737.318029,-12287.418637,-1149.143247
3110.075189,4219.173869,-14508.036463,306.438199
3110.075517,3182.885551,-11769.274478,459.657299
3110.075844,1776.494261,-9400.615463,-1225.752797
3110.076172,-962.267725,-11029.068536,-2834.553343
3110.076500,-2072.576638,-8068.244768,-4443.353888
3110.076827,-2072.576638,-6809.894666,-4749.792088
3110.077155,-3627.009116,-8586.388927,-1378.971896
3110.077483,-3552.988522,-7402.059420,1225.752797
3110.077810,-1998.556043,-6069.688724,1685.410096
3110.078138,-740.205942,-9178.553681,3140.991542
3110.078466,2072.576638,-10732.986159,2374.896044
3110.078793,4663.297435,-9992.780217,1072.533697
3110.079121,5033.400406,-11769.274478,1302.362347
3110.079449,3108.864956,-13323.706956,1072.533697
3110.079777,1628.453072,-10732.986159,-229.828649
3110.080104,-740.205942,-7254.018232,-2528.115143
3110.080432,-2664.741391,-9030.512492,-3140.991542
3110.080760,-2368.659014,-8660.409521,-3677.258390
3110.081087,-2072.576638,-7772.162391,-3447.429741
3110.081415,-3330.926739,-10436.903782,0.000000
3110.081743,-2664.741391,-7920.203579,1532.190996
3110.082070,-814.226536,-5625.565159,1608.800546
3110.082398,-370.102971,-7772.162391,3064.381992
3110.082726,1480.411884,-9696.697840,2757.943793
3110.083053,4071.132681,-9696.697840,1455.581446
3110.083381,4145.153275,-12213.398043,1225.752797
3110.083709,2294.638420,-14508.036463,766.095498
3110.084036,1332.370696,-11399.171507,-1455.581446
3110.084364,0.000000,-9474.636058,-2451.505594
3110.084692,-1332.370696,-11695.253884,-3217.601092
3110.085019,-962.267725,-9844.739029,-3830.477490
3110.085347,-814.226536,-8808.450710,-3370.820191
3110.085675,-2220.617826,-8734.430116,-229.828649
3110.086002,-1628.453072,-6809.894666,1225.752797
3110.086330,-1554.432478,-5625.565159,2298.286494
3110.086658,-444.123565,-8808.450710,2298.286494
3110.086985,1480.411884,-9696.697840,1225.752797
3110.087313,2664.741391,-11177.109724,536.266849
3110.087641,4515.256246,-14211.954086,76.609550
3110.087968,3552.988522,-13101.645173,1072.533697
3110.088296,1850.514855,-10214.842000,0.000000
3110.088624,444.123565,-9696.697840,-995.924147
3110.088951,-592.164754,-10436.903782,-2374.896044
3110.089279,-296.082377,-9104.533087,-3830.477490
3110.089607,-1554.432478,-7624.121203,-2221.676944
3110.089935,-1924.535449,-9252.574275,-536.266849
3110.090262,-2294.638420,-6069.688724,919.314598
3110.090590,-1258.350101,-6513.812290,2298.286494
3110.090918,888.247130,-9622.677246,2681.334243
3110.091245,2590.720797,-9474.636058,1455.581446
3110.091573,3256.906145,-9400.615463,1072.533697
3110.091900,3034.844362,-12657.521608,1532.190996
3110.092228,2664.741391,-13323.706956,1532.190996
3110.092556,1332.370696,-9104.533087,612.876398
3110.092883,-962.267725,-8956.491898,-229.828649
3110.093211,-666.185348,-11473.192101,-1915.238745
3110.093538,1110.308913,-9474.636058,-4366.744339
3110.093866,-296.082377,-9030.512492,-2987.772442
3110.094194,-2738.761985,-8216.285956,383.047749
3110.094521,-2294.638420,-5995.668130,76.609550
3110.094849,-1628.453072,-7105.977043,459.657299
3110.095176,-1776.494261,-10436.903782,766.095498
3110.095504,-148.041188,-9622.677246,-306.438199
3110.095832,1184.329507,-10955.047942,76.609550
3110.096159,2294.638420,-14211.954086,1225.752797
3110.096487,2664.741391,-12509.480420,536.266849
3110.096814,1702.473667,-9622.677246,-459.657299
3110.097142,962.267725,-11251.130318,-383.047749
3110.097469,-370.102971,-11251.130318,-842.705048
3110.097797,-296.082377,-8586.388927,-2528.115143
3110.098125,-740.205942,-8142.265362,-2834.553343
3110.098452,-2294.638420,-8808.450710,-1225.752797
3110.098780,-1480.411884,-7772.162391,-766.095498
3110.099107,-1036.288319,-8364.327145,536.266849
3110.099435,0.000000,-9178.553681,1072.533697
3110.099763,1554.432478,-8660.409521,76.609550
3110.100090,2368.659014,-11695.253884,1149.143247
3110.100418,3404.947333,-14211.954086,2604.724693
3110.100745,3552.988522,-10881.027347,2221.676944
3110.101073,1702.473667,-8512.368333,995.924147
3110.101401,-296.082377,-10436.903782,0.000000
3110.101728,-740.205942,-9770.718434,-1225.752797
3110.102056,-1110.308913,-6661.853478,-2681.334243
3110.102383,-2220.617826,-9622.677246,-2757.943793
3110.102711,-2294.638420,-10140.821405,-2298.286494
3110.103039,-666.185348,-8068.244768,-2298.286494
3110.103366,0.000000,-8438.347739,766.095498
3110.103694,740.205942,-9030.512492,1532.190996
3110.104021,1924.535449,-9326.594869,536.266849
3110.104349,1924.535449,-11843.295072,842.705048
3110.104676,1258.350101,-11621.233289,459.657299
3110.105004,888.247130,-9992.780217,153.219100
3110.105332,518.144159,-10214.842000,306.438199
3110.105659,-962.267725,-10732.986159,0.000000
3110.105987,-1480.411884,-9474.636058,-612.876398
3110.106314,-370.102971,-9030.512492,-3064.381992
3110.106642,-444.123565,-11177.109724,-2145.067394
3110.106970,0.000000,-9474.636058,-919.314598
3110.107297,74.020594,-6809.894666,-153.219100
3110.107625,444.123565,-8290.306550,1532.190996
3110.107952,1406.391290,-8882.471304,1455.581446
3110.108280,1998.556043,-8142.265362,1149.143247
3110.108608,1110.308913,-9696.697840,1762.019645
3110.108935,1998.556043,-12065.356855,1455.581446
3110.109263,2590.720797,-11473.192101,0.000000
3110.109590,148.041188,-11177.109724,153.219100
3110.109918,-1332.370696,-11399.171507,-383.047749
3110.110246,-518.144159,-9548.656652,-2221.676944
3110.110573,-518.144159,-8438.347739,-2298.286494
3110.110901,-814.226536,-9918.759623,-612.876398
3110.111228,-666.185348,-7994.224174,76.609550
3110.111556,-888.247130,-6439.791695,306.438199
3110.111884,-1184.329507,-8882.471304,842.705048
3110.112211,814.226536,-8956.491898,229.828649
3110.112539,1702.473667,-8364.327145,0.000000
3110.112866,2072.576638,-11991.336260,995.924147
3110.113194,2072.576638,-12435.459826,1149.143247
3110.113521,1480.411884,-10658.965565,-766.095498
3110.113849,740.205942,-11251.130318,-689.485948
3110.114177,-1480.411884,-11177.109724,229.828649
3110.114504,-1924.535449,-9326.594869,-995.924147
3110.114832,-1554.432478,-9696.697840,-1762.019645
3110.115159,-1406.391290,-10955.047942,-1532.190996
3110.115487,-666.185348,-8216.285956,-1532.190996
3110.115815,0.000000,-7624.121203,306.438199
3110.116142,-296.082377,-9178.553681,1302.362347
3110.116470,1184.329507,-9400.615463,-306.438199
3110.116797,1406.391290,-9104.533087,-1072.533697
3110.117125,814.226536,-10066.800811,-689.485948
3110.117453,666.185348,-11399.171507,-459.657299
3110.117780,740.205942,-10658.965565,76.609550
3110.118108,74.020594,-11473.192101,383.047749
3110.118435,-740.205942,-10732.986159,229.828649
3110.118763,148.041188,-8660.409521,-1149.143247
3110.119091,444.123565,-9548.656652,-689.485948
3110.119418,370.102971,-10362.883188,306.438199
3110.119746,148.041188,-6735.874072,-383.047749
3110.120073,74.020594,-6661.853478,153.219100
3110.120401,666.185348,-9844.739029,995.924147
3110.120728,1480.411884,-9030.512492,229.828649
3110.121056,1036.288319,-9326.594869,-229.828649
3110.121384,444.123565,-11843.295072,-306.438199
3110.121711,1110.308913,-10658.965565,-2528.115143
3110.122039,-222.061783,-9178.553681,-2145.067394
3110.122366,-1776.494261,-10066.800811,459.657299
3110.122694,-1184.329507,-9992.780217,383.047749
3110.123022,1184.329507,-9474.636058,306.438199
3110.123349,1406.391290,-10436.903782,919.314598
