#time,accel_x,accel_y,accel_z
2325.490972,814.226536,-10288.862594,-459.657299
2325.491300,1036.288319,-10362.883188,0.000000
2325.491627,888.247130,-9844.739029,306.438199
2325.491955,1036.288319,-9326.594869,229.828649
2325.492282,296.082377,-9104.533087,766.095498
2325.492610,148.041188,-9030.512492,612.876398
2325.492937,0.000000,-9252.574275,0.000000
2325.493265,74.020594,-9400.615463,-153.219100
2325.493592,-296.082377,-9474.636058,-536.266849
2325.493920,0.000000,-9770.718434,-612.876398
2325.494247,0.000000,-10288.862594,-306.438199
2325.494575,74.020594,-10140.821405,-383.047749
2325.494902,740.205942,-9918.759623,536.266849
2325.495230,518.144159,-10066.800811,536.266849
2325.495557,518.144159,-9548.656652,229.828649
2325.495885,296.082377,-9104.533087,229.828649
2325.496212,148.041188,-9030.512492,306.438199
2325.496539,-296.082377,-8586.388927,0.000000
2325.496867,-296.082377,-8438.347739,76.609550
2325.497194,148.041188,-9474.636058,-766.095498
2325.497522,-148.041188,-9696.697840,-766.095498
2325.497849,0.000000,-9918.759623,-766.095498
2325.498177,148.041188,-9992.780217,-536.266849
2325.498504,592.164754,-9622.677246,-919.314598
2325.498832,1110.308913,-10140.821405,-536.266849
2325.499159,296.082377,-9696.697840,459.657299
2325.499487,666.185348,-9474.636058,-612.876398
2325.499814,370.102971,-9474.636058,-306.438199
2325.500142,74.020594,-9326.594869,-229.828649
2325.500469,148.041188,-9474.636058,-536.266849
2325.500797,74.020594,-9770.718434,-612.876398
2325.501124,0.000000,-9918.759623,-766.095498
2325.501452,814.226536,-10510.924376,-919.314598
2325.501779,148.041188,-10436.903782,-612.876398
2325.502107,370.102971,-10510.924376,-689.485948
2325.502434,814.226536,-10584.944971,-536.266849
2325.502762,666.185348,-10288.862594,0.000000
2325.503089,666.185348,-9474.636058,0.000000
2325.503417,444.123565,-9104.533087,306.438199
2325.503744,370.102971,-8882.471304,612.876398
2325.504072,148.041188,-8586.388927,0.000000
2325.504399,222.061783,-8808.450710,0.000000
2325.504727,740.205942,-9178.553681,-536.266849
2325.505054,1702.473667,-9474.636058,-229.828649
2325.505382,2664.741391,-9178.553681,153.219100
2325.505709,3627.009116,-9178.553681,689.485948
2325.506037,4737.318029,-9770.718434,229.828649
2325.506364,5255.462188,-10066.800811,383.047749
2325.506692,5699.585753,-8956.491898,459.657299
2325.507019,6291.750507,-8808.450710,0.000000
2325.507347,5847.626942,-9918.759623,383.047749
2325.507674,5995.668130,-10214.842000,689.485948
2325.508002,6365.771101,-9844.739029,229.828649
2325.508329,6809.894666,-9326.594869,0.000000
2325.508657,7254.018232,-9992.780217,229.828649
2325.508984,7550.100608,-9770.718434,0.000000
2325.509312,7846.182985,-9548.656652,0.000000
2325.509639,8290.306550,-9178.553681,0.000000
2325.509967,8956.491898,-9104.533087,-383.047749
2325.510294,8586.388927,-9622.677246,612.876398
2325.510621,7476.080014,-8660.409521,689.485948
2325.510949,8142.265362,-8660.409521,0.000000
2325.511276,7328.038826,-10140.821405,-459.657299
2325.511604,7476.080014,-11251.130318,-689.485948
2325.511931,7179.997637,-10881.027347,-919.314598
2325.512259,6439.791695,-10436.903782,-536.266849
2325.512586,6217.729913,-9918.759623,-842.705048
2325.512914,6439.791695,-9622.677246,-842.705048
2325.513241,6735.874072,-9178.553681,-612.876398
2325.513569,7254.018232,-8734.430116,612.876398
2325.513896,8586.388927,-8734.430116,995.924147
2325.514224,8882.471304,-9400.615463,995.924147
2325.514551,8364.327145,-10436.903782,1225.752797
2325.514879,6513.812290,-10140.821405,689.485948
2325.515206,3923.091493,-10288.862594,153.219100
2325.515534,2590.720797,-11399.171507,-766.095498
2325.515861,740.205942,-11473.192101,-1762.019645
2325.516189,-296.082377,-10955.047942,-995.924147
2325.516516,-1554.432478,-10807.006753,-459.657299
2325.516844,-1924.535449,-10140.821405,306.438199
2325.517171,-2146.597232,-8512.368333,842.705048
2325.517499,-2812.782580,-7105.977043,-229.828649
2325.517826,-2960.823768,-5403.503377,612.876398
2325.518154,-962.267725,-5403.503377,-306.438199
2325.518481,-370.102971,-7402.059420,76.609550
2325.518809,518.144159,-9326.594869,1072.533697
2325.519136,1480.411884,-11103.089130,536.266849
2325.519464,666.185348,-12139.377449,0.000000
2325.519791,-740.205942,-12805.562797,-612.876398
2325.520119,-1850.514855,-13323.706956,-1378.971896
2325.520446,-2960.823768,-12805.562797,-1685.410096
2325.520774,-2960.823768,-11473.192101,-1455.581446
2325.521101,-3478.967927,-10066.800811,-306.438199
2325.521429,-4219.173869,-7846.182985,919.314598
2325.521756,-4515.256246,-6661.853478,842.705048
2325.522084,-4367.215058,-5699.585753,153.219100
2325.522411,-4367.215058,-5699.585753,0.000000
2325.522739,-3404.947333,-7402.059420,-1302.362347
2325.523066,-1554.432478,-9400.615463,-1762.019645
2325.523394,74.020594,-10584.944971,-1532.190996
2325.523721,370.102971,-11843.295072,-766.095498
2325.524048,666.185348,-13249.686362,-689.485948
2325.524376,814.226536,-13175.665768,-995.924147
2325.524703,296.082377,-13545.768739,-1608.800546
2325.525031,-74.020594,-12509.480420,-1608.800546
2325.525358,-518.144159,-10140.821405,-1072.533697
2325.525686,-1258.350101,-8364.327145,-306.438199
2325.526013,-2220.617826,-7179.997637,612.876398
2325.526341,-962.267725,-5995.668130,306.438199
2325.526668,-518.144159,-6365.771101,536.266849
2325.526996,592.164754,-7105.977043,612.876398
2325.527323,2442.679609,-6883.915261,612.876398
2325.527651,3775.050304,-8364.327145,383.047749
2325.527978,4959.379811,-10288.862594,689.485948
2325.528306,4811.338623,-11621.233289,536.266849
2325.528633,5181.441594,-12805.562797,0.000000
2325.528961,4293.194464,-12361.439231,76.609550
2325.529288,3552.988522,-11991.336260,-842.705048
2325.529616,1850.514855,-11843.295072,-2068.457845
2325.529943,1110.308913,-10288.862594,-1149.143247
2325.530271,1184.329507,-8512.368333,-153.219100
2325.530598,2368.659014,-8216.285956,153.219100
2325.530926,2442.679609,-8142.265362,612.876398
2325.531253,3627.009116,-7328.038826,1838.629195
2325.531581,4367.215058,-6365.771101,1915.238745
2325.531908,4219.173869,-7105.977043,2374.896044
2325.532236,4589.276840,-9178.553681,2068.457845
2325.532563,4737.318029,-10288.862594,1302.362347
2325.532891,3701.029710,-11621.233289,459.657299
2325.533218,1554.432478,-13027.624579,-306.438199
2325.533546,148.041188,-13323.706956,-1302.362347
2325.533873,-2146.597232,-12879.583391,-2834.553343
2325.534201,-3552.988522,-11547.212695,-2757.943793
2325.534528,-3552.988522,-10288.862594,-2604.724693
2325.534856,-2516.700203,-9696.697840,-1149.143247
2325.535183,-1776.494261,-8808.450710,229.828649
2325.535511,-222.061783,-6883.915261,1302.362347
2325.535838,-222.061783,-6661.853478,2298.286494
2325.536166,-592.164754,-6883.915261,1608.800546
2325.536493,-666.185348,-7254.018232,1685.410096
2325.536821,-814.226536,-9104.533087,689.485948
2325.537148,-518.144159,-10658.965565,153.219100
2325.537475,-814.226536,-11251.130318,-306.438199
2325.537803,-1776.494261,-12287.418637,-1685.410096
2325.538130,-2960.823768,-12657.521608,-1532.190996
2325.538458,-3034.844362,-12213.398043,-3370.820191
2325.538785,-4515.256246,-10362.883188,-2451.505594
2325.539113,-4589.276840,-9252.574275,-1608.800546
2325.539440,-4441.235652,-7105.977043,-919.314598
2325.539768,-3997.112087,-6661.853478,0.000000
2325.540095,-3256.906145,-7254.018232,919.314598
2325.540423,-2368.659014,-7624.121203,536.266849
2325.540750,-962.267725,-7846.182985,229.828649
2325.541078,-888.247130,-8438.347739,689.485948
2325.541405,-518.144159,-9474.636058,-229.828649
2325.541733,74.020594,-10140.821405,-612.876398
2325.542060,222.061783,-10807.006753,-689.485948
2325.542388,1258.350101,-11843.295072,-1302.362347
2325.542715,1776.494261,-12731.542202,-1762.019645
2325.543043,1850.514855,-12805.562797,-2221.676944
2325.543370,962.267725,-11769.274478,-1072.533697
2325.543698,1406.391290,-10658.965565,-689.485948
2325.544025,1776.494261,-9326.594869,-536.266849
2325.544353,2516.700203,-8512.368333,-153.219100
2325.544680,3034.844362,-7772.162391,689.485948
2325.545008,3256.906145,-7698.141797,1378.971896
2325.545335,2738.761985,-7846.182985,1455.581446
2325.545663,3256.906145,-8364.327145,1072.533697
2325.545990,3108.864956,-9474.636058,459.657299
2325.546318,2664.741391,-10214.842000,0.000000
2325.546645,2960.823768,-10955.047942,-689.485948
2325.546973,3034.844362,-11843.295072,-1532.190996
2325.547300,2590.720797,-12361.439231,-1915.238745
2325.547628,2368.659014,-11473.192101,-766.095498
2325.547955,1406.391290,-10140.821405,229.828649
2325.548283,1184.329507,-9178.553681,1072.533697
2325.548610,1998.556043,-8068.244768,1072.533697
2325.548938,2294.638420,-7179.997637,1149.143247
2325.549265,1480.411884,-7254.018232,1762.019645
2325.549593,1850.514855,-7476.080014,2068.457845
2325.549920,2072.576638,-8808.450710,1455.581446
2325.550248,1480.411884,-8956.491898,306.438199
2325.550575,814.226536,-9992.780217,0.000000
2325.550903,518.144159,-10658.965565,-766.095498
2325.551230,518.144159,-11029.068536,-995.924147
2325.551557,74.020594,-10658.965565,-919.314598
2325.551885,0.000000,-10881.027347,-383.047749
2325.552212,-888.247130,-9696.697840,229.828649
2325.552540,-1110.308913,-9548.656652,-766.095498
2325.552867,-1110.308913,-9252.574275,-995.924147
2325.553195,-1332.370696,-9030.512492,-842.705048
2325.553522,-1184.329507,-8586.388927,-459.657299
2325.553850,-1702.473667,-8882.471304,-612.876398
2325.554177,-1554.432478,-10066.800811,0.000000
2325.554505,-1776.494261,-9474.636058,-383.047749
2325.554832,-1554.432478,-9178.553681,-612.876398
2325.555160,-1998.556043,-9844.739029,-383.047749
2325.555487,-2146.597232,-10732.986159,-383.047749
2325.555815,-1924.535449,-10584.944971,-1302.362347
2325.556142,-1924.535449,-10436.903782,-1608.800546
2325.556470,-1924.535449,-10140.821405,-2068.457845
2325.556797,-1998.556043,-10066.800811,-2451.505594
2325.557125,-2072.576638,-10584.944971,-1608.800546
2325.557452,-1776.494261,-10510.924376,-919.314598
2325.557780,-1036.288319,-9548.656652,-842.705048
2325.558107,-222.061783,-8734.430116,-306.438199
2325.558435,148.041188,-8882.471304,1455.581446
2325.558762,74.020594,-8142.265362,1455.581446
2325.559090,0.000000,-7920.203579,1302.362347
2325.559417,-444.123565,-8290.306550,1302.362347
2325.559745,0.000000,-8882.471304,536.266849
2325.560072,0.000000,-9326.594869,0.000000
2325.560400,0.000000,-9992.780217,-229.828649
2325.560727,370.102971,-11103.089130,-459.657299
2325.561055,814.226536,-11177.109724,-1762.019645
2325.561382,740.205942,-10288.862594,-1149.143247
2325.561710,1480.411884,-9992.780217,-306.438199
2325.562037,1850.514855,-9178.553681,612.876398
2325.562365,2516.700203,-8586.388927,1608.800546
2325.562692,2590.720797,-7994.224174,2145.067394
2325.563019,3478.967927,-8660.409521,1378.971896
2325.563347,3108.864956,-8512.368333,1225.752797
2325.563674,1776.494261,-8734.430116,1149.143247
2325.564002,1998.556043,-10214.842000,0.000000
2325.564329,1406.391290,-10881.027347,-842.705048
2325.564657,1110.308913,-11103.089130,-842.705048
2325.564984,1998.556043,-12509.480420,-1455.581446
2325.565312,2516.700203,-12731.542202,-919.314598
2325.565639,2886.803174,-11029.068536,-919.314598
2325.565967,2220.617826,-10066.800811,306.438199
2325.566294,2590.720797,-10066.800811,459.657299
2325.566622,2072.576638,-9104.533087,229.828649
2325.566949,1776.494261,-8808.450710,0.000000
2325.567277,888.247130,-9030.512492,76.609550
2325.567604,370.102971,-9770.718434,0.000000
2325.567932,814.226536,-10658.965565,-536.266849
2325.568259,-370.102971,-10510.924376,-842.705048
2325.568587,-888.247130,-10214.842000,-612.876398
2325.568914,0.000000,-10510.924376,-459.657299
2325.569242,-222.061783,-10510.924376,229.828649
2325.569569,-296.082377,-9400.615463,459.657299
2325.569897,0.000000,-9474.636058,0.000000
2325.570224,0.000000,-9104.533087,-306.438199
2325.570552,0.000000,-8734.430116,459.657299
2325.570879,-962.267725,-8808.450710,0.000000
2325.571207,-2146.597232,-8660.409521,229.828649
2325.571534,-2294.638420,-8956.491898,-383.047749
2325.571862,-1480.411884,-8956.491898,-1149.143247
2325.572189,-1924.535449,-9104.533087,-689.485948
2325.572517,-1628.453072,-9844.739029,536.266849
2325.572844,-666.185348,-9252.574275,229.828649
2325.573172,-1332.370696,-8660.409521,1149.143247
2325.573499,-1184.329507,-8808.450710,536.266849
2325.573827,-666.185348,-8956.491898,0.000000
2325.574154,-1406.391290,-9474.636058,0.000000
2325.574481,-1554.432478,-10362.883188,-766.095498
2325.574809,-1110.308913,-9696.697840,-1532.190996
2325.575136,-1702.473667,-9770.718434,-1532.190996
2325.575464,-1702.473667,-10066.800811,-1302.362347
2325.575791,-1184.329507,-9548.656652,-1225.752797
2325.576119,-370.102971,-9992.780217,-766.095498
2325.576446,222.061783,-9992.780217,-383.047749
2325.576774,1110.308913,-9548.656652,-612.876398
2325.577101,296.082377,-9474.636058,383.047749
2325.577429,370.102971,-9844.739029,1455.581446
2325.577756,296.082377,-9844.739029,0.000000
2325.578084,518.144159,-10732.986159,-612.876398
2325.578411,370.102971,-11621.233289,-1072.533697
2325.578739,666.185348,-11325.150913,-1225.752797
2325.579066,888.247130,-11029.068536,-1225.752797
2325.579394,1036.288319,-10140.821405,-612.876398
2325.579721,1184.329507,-9252.574275,-306.438199
2325.580049,1406.391290,-9474.636058,-612.876398
2325.580376,2368.659014,-9696.697840,229.828649
2325.580704,3034.844362,-8660.409521,689.485948
2325.581031,3256.906145,-8364.327145,919.314598
2325.581359,2294.638420,-9104.533087,1532.190996
2325.581686,1924.535449,-9918.759623,1302.362347
2325.582014,814.226536,-9474.636058,919.314598
2325.582341,592.164754,-8882.471304,306.438199
2325.582669,814.226536,-10066.800811,-536.266849
2325.582996,1406.391290,-10436.903782,-383.047749
2325.583324,1776.494261,-9474.636058,306.438199
2325.583651,1406.391290,-8808.450710,1225.752797
2325.583979,2146.597232,-8882.471304,766.095498
2325.584306,1332.370696,-8660.409521,0.000000
2325.584634,1110.308913,-8512.368333,0.000000
2325.584961,518.144159,-8512.368333,153.219100
2325.585289,1036.288319,-8882.471304,0.000000
2325.585616,1406.391290,-9326.594869,-229.828649
2325.585943,592.164754,-10288.862594,0.000000
2325.586271,1184.329507,-11029.068536,-306.438199
2325.586598,666.185348,-9844.739029,229.828649
2325.586926,-296.082377,-10066.800811,-459.657299
2325.587253,-518.144159,-11177.109724,-995.924147
2325.587581,296.082377,-11029.068536,-1532.190996
2325.587908,0.000000,-9918.759623,-995.924147
2325.588236,0.000000,-10362.883188,0.000000
2325.588563,-518.144159,-10510.924376,-229.828649
2325.588891,-1184.329507,-9622.677246,-383.047749
2325.589218,-1258.350101,-8734.430116,-995.924147
2325.589546,-1776.494261,-9104.533087,-1532.190996
2325.589873,-1480.411884,-9622.677246,-1072.533697
2325.590201,-740.205942,-9548.656652,-383.047749
2325.590528,-592.164754,-9696.697840,-229.828649
2325.590856,-518.144159,-10732.986159,229.828649
2325.591183,-1036.288319,-10584.944971,0.000000
2325.591511,-1702.473667,-10807.006753,-689.485948
2325.591838,-2072.576638,-10510.924376,-1149.143247
2325.592166,-1702.473667,-10362.883188,-1532.190996
2325.592493,-1776.494261,-9992.780217,-766.095498
2325.592821,-1850.514855,-9326.594869,306.438199
2325.593148,-1258.350101,-8068.244768,1378.971896
2325.593476,-962.267725,-6809.894666,612.876398
2325.593803,-518.144159,-7476.080014,229.828649
2325.594131,370.102971,-7772.162391,0.000000
2325.594458,962.267725,-8512.368333,0.000000
2325.594786,1258.350101,-9622.677246,383.047749
2325.595113,888.247130,-10510.924376,536.266849
2325.595441,666.185348,-10732.986159,766.095498
2325.595768,370.102971,-10881.027347,306.438199
2325.596096,148.041188,-10584.944971,612.876398
2325.596423,0.000000,-10807.006753,-995.924147
2325.596751,148.041188,-9844.739029,-612.876398
2325.597078,74.020594,-8956.491898,-229.828649
2325.597405,222.061783,-8660.409521,0.000000
2325.597733,1258.350101,-9030.512492,153.219100
2325.598060,1998.556043,-8734.430116,-1072.533697
2325.598388,2664.741391,-9474.636058,-612.876398
2325.598715,2886.803174,-9992.780217,-612.876398
2325.599043,3330.926739,-10584.944971,-306.438199
2325.599370,2960.823768,-11103.089130,153.219100
2325.599698,3108.864956,-11547.212695,76.609550
2325.600025,2664.741391,-11251.130318,-229.828649
2325.600353,2220.617826,-10584.944971,0.000000
2325.600680,1924.535449,-11103.089130,-536.266849
2325.601008,1110.308913,-9992.780217,-383.047749
2325.601335,814.226536,-9104.533087,-383.047749
2325.601663,518.144159,-9030.512492,-153.219100
2325.601990,518.144159,-9474.636058,-383.047749
2325.602318,814.226536,-9844.739029,0.000000
2325.602645,1184.329507,-9696.697840,-842.705048
2325.602973,1110.308913,-8512.368333,-306.438199
2325.603300,1258.350101,-8956.491898,306.438199
2325.603628,1406.391290,-9030.512492,766.095498
2325.603955,1110.308913,-9474.636058,1302.362347
2325.604283,518.144159,-10066.800811,536.266849
2325.604610,-222.061783,-9622.677246,76.609550
2325.604938,-1406.391290,-9844.739029,-306.438199
2325.605265,-2220.617826,-9992.780217,-1149.143247
2325.605593,-2368.659014,-10214.842000,-1302.362347
2325.605920,-2220.617826,-10362.883188,-1225.752797
2325.606248,-1480.411884,-10140.821405,-766.095498
2325.606575,-1258.350101,-9400.615463,0.000000
2325.606903,-740.205942,-9326.594869,306.438199
2325.607230,-666.185348,-8068.244768,306.438199
2325.607558,0.000000,-7920.203579,919.314598
2325.607885,0.000000,-8586.388927,0.000000
2325.608213,0.000000,-9622.677246,306.438199
2325.608540,-370.102971,-10214.842000,0.000000
2325.608868,-740.205942,-10955.047942,-612.876398
2325.609195,-1628.453072,-11399.171507,-919.314598
2325.609522,-2146.597232,-11621.233289,-842.705048
2325.609850,-2072.576638,-11547.212695,-1685.410096
2325.610177,-1850.514855,-10214.842000,-1072.533697
2325.610505,-1258.350101,-9474.636058,-306.438199
2325.610832,-444.123565,-8956.491898,612.876398
2325.611160,222.061783,-7994.224174,842.705048
2325.611487,814.226536,-7476.080014,306.438199
2325.611815,1332.370696,-8290.306550,-995.924147
2325.612142,962.267725,-8808.450710,0.000000
2325.612470,666.185348,-9770.718434,-383.047749
2325.612797,444.123565,-10584.944971,-1149.143247
2325.613125,962.267725,-11029.068536,-1225.752797
2325.613452,1036.288319,-11177.109724,-1072.533697
2325.613780,1110.308913,-11251.130318,-383.047749
2325.614107,1628.453072,-10510.924376,76.609550
2325.614435,1258.350101,-9400.615463,76.609550
2325.614762,888.247130,-8586.388927,612.876398
2325.615090,1628.453072,-8142.265362,536.266849
2325.615417,1332.370696,-7846.182985,153.219100
2325.615745,1332.370696,-8068.244768,76.609550
2325.616072,1332.370696,-9178.553681,-383.047749
2325.616400,1702.473667,-9400.615463,0.000000
2325.616727,1554.432478,-9400.615463,-612.876398
2325.617055,1110.308913,-9918.759623,-1149.143247
2325.617382,2072.576638,-10732.986159,-995.924147
2325.617710,2368.659014,-10881.027347,-383.047749
2325.618037,1998.556043,-10584.944971,229.828649
2325.618365,1406.391290,-10584.944971,383.047749
2325.618692,1036.288319,-9696.697840,229.828649
2325.619020,296.082377,-9622.677246,76.609550
2325.619347,-740.205942,-9326.594869,-229.828649
2325.619675,-962.267725,-9548.656652,-919.314598
2325.620002,-370.102971,-9992.780217,-1378.971896
2325.620330,-148.041188,-9770.718434,-1149.143247
2325.620657,296.082377,-9696.697840,-612.876398
2325.620984,1406.391290,-9844.739029,-383.047749
2325.621312,1184.329507,-10066.800811,459.657299
2325.621639,1036.288319,-10140.821405,0.000000
2325.621967,888.247130,-10362.883188,0.000000
2325.622294,592.164754,-9770.718434,0.000000
2325.622622,-296.082377,-9992.780217,0.000000
2325.622949,-1924.535449,-10288.862594,383.047749
2325.623277,-2072.576638,-11029.068536,-153.219100
2325.623604,-2590.720797,-9992.780217,0.000000
2325.623932,-3034.844362,-9030.512492,-1149.143247
2325.624259,-2368.659014,-8512.368333,-689.485948
2325.624587,-1258.350101,-8882.471304,76.609550
2325.624914,-814.226536,-7920.203579,689.485948
2325.625242,148.041188,-8068.244768,612.876398
2325.625569,370.102971,-8882.471304,153.219100
2325.625897,370.102971,-9104.533087,536.266849
2325.626224,0.000000,-9252.574275,229.828649
2325.626552,-148.041188,-10362.883188,-229.828649
2325.626879,0.000000,-10584.944971,-1149.143247
2325.627207,74.020594,-10584.944971,-995.924147
2325.627534,0.000000,-10807.006753,-459.657299
2325.627862,74.020594,-10362.883188,306.438199
2325.628189,-222.061783,-9844.739029,229.828649
2325.628517,-296.082377,-9030.512492,76.609550
2325.628844,814.226536,-8734.430116,153.219100
2325.629172,1554.432478,-8808.450710,0.000000
2325.629499,1480.411884,-9178.553681,76.609550
2325.629827,1258.350101,-9548.656652,76.609550
2325.630154,1110.308913,-9992.780217,-995.924147
2325.630482,888.247130,-9770.718434,-1072.533697
2325.630809,666.185348,-9696.697840,-1302.362347
2325.631137,666.185348,-10288.862594,-1072.533697
2325.631464,1036.288319,-10955.047942,-766.095498
2325.631792,1702.473667,-11029.068536,-536.266849
2325.632119,1258.350101,-10362.883188,0.000000
2325.632446,814.226536,-9770.718434,612.876398
2325.632774,666.185348,-9474.636058,919.314598
2325.633101,370.102971,-9622.677246,0.000000
2325.633429,444.123565,-10214.842000,-612.876398
2325.633756,888.247130,-9770.718434,-459.657299
2325.634084,1036.288319,-8956.491898,0.000000
2325.634411,888.247130,-8364.327145,536.266849
2325.634739,592.164754,-8586.388927,383.047749
2325.635066,1406.391290,-9326.594869,-766.095498
2325.635394,1110.308913,-10066.800811,-459.657299
2325.635721,1258.350101,-9622.677246,-612.876398
2325.636049,1850.514855,-9992.780217,229.828649
2325.636376,1110.308913,-10214.842000,842.705048
2325.636704,0.000000,-9844.739029,1302.362347
2325.637031,-148.041188,-10584.944971,766.095498
2325.637359,-1258.350101,-10066.800811,76.609550
2325.637686,-888.247130,-9178.553681,-689.485948
2325.638014,-1332.370696,-8586.388927,0.000000
2325.638341,-1110.308913,-8882.471304,229.828649
2325.638669,-666.185348,-8734.430116,-153.219100
2325.638996,148.041188,-9326.594869,-1302.362347
2325.639324,814.226536,-9622.677246,-1915.238745
2325.639651,1184.329507,-10140.821405,-1302.362347
2325.639979,370.102971,-10362.883188,-995.924147
2325.640306,74.020594,-11325.150913,-306.438199
2325.640634,444.123565,-11029.068536,-612.876398
2325.640961,666.185348,-10436.903782,-612.876398
2325.641289,148.041188,-10436.903782,-689.485948
2325.641616,0.000000,-10214.842000,383.047749
2325.641944,-814.226536,-8956.491898,459.657299
2325.642271,-1110.308913,-9252.574275,-536.266849
2325.642599,-666.185348,-9178.553681,-689.485948
2325.642926,-296.082377,-9178.553681,-1149.143247
2325.643254,222.061783,-9696.697840,-919.314598
2325.643581,370.102971,-10214.842000,-383.047749
2325.643908,296.082377,-9696.697840,0.000000
2325.644236,518.144159,-9844.739029,153.219100
2325.644563,0.000000,-8512.368333,-536.266849
2325.644891,-518.144159,-8216.285956,0.000000
2325.645218,-222.061783,-9104.533087,536.266849
2325.645546,0.000000,-9474.636058,612.876398
2325.645873,-296.082377,-9252.574275,383.047749
2325.646201,-518.144159,-9696.697840,536.266849
2325.646528,-1110.308913,-9844.739029,0.000000
2325.646856,-222.061783,-10362.883188,-1072.533697
2325.647183,592.164754,-10955.047942,-1378.971896
2325.647511,444.123565,-10584.944971,-1302.362347
2325.647838,1110.308913,-10066.800811,-459.657299
2325.648166,1406.391290,-9178.553681,1149.143247
2325.648493,1036.288319,-7772.162391,1149.143247
2325.648821,2072.576638,-8734.430116,1072.533697
2325.649148,1850.514855,-8882.471304,0.000000
2325.649476,1628.453072,-9474.636058,0.000000
2325.649803,1332.370696,-9474.636058,0.000000
2325.650131,296.082377,-9844.739029,0.000000
2325.650458,0.000000,-11547.212695,459.657299
2325.650786,-1036.288319,-11843.295072,612.876398
2325.651113,-444.123565,-11621.233289,-766.095498
2325.651441,0.000000,-11177.109724,-919.314598
2325.651768,0.000000,-10510.924376,-995.924147
2325.652096,592.164754,-9178.553681,-459.657299
2325.652423,666.185348,-8438.347739,689.485948
2325.652751,888.247130,-7624.121203,766.095498
2325.653078,1702.473667,-8512.368333,-612.876398
2325.653406,1850.514855,-9400.615463,-689.485948
2325.653733,1998.556043,-8882.471304,-766.095498
2325.654061,1332.370696,-9770.718434,-229.828649
2325.654388,962.267725,-10362.883188,383.047749
2325.654716,592.164754,-10214.842000,0.000000
2325.655043,444.123565,-10510.924376,76.609550
2325.655371,222.061783,-9844.739029,689.485948
2325.655699,444.123565,-9992.780217,766.095498
2325.656026,518.144159,-9474.636058,306.438199
2325.656354,0.000000,-8660.409521,0.000000
2325.656681,-296.082377,-8808.450710,-536.266849
2325.657009,148.041188,-8808.450710,-536.266849
2325.657337,-444.123565,-9474.636058,-612.876398
2325.657664,-444.123565,-9326.594869,-1072.533697
2325.657992,0.000000,-10066.800811,-1072.533697
2325.658320,0.000000,-10066.800811,-1532.190996
2325.658647,-296.082377,-9622.677246,-306.438199
2325.658975,0.000000,-9474.636058,229.828649
2325.659303,0.000000,-9992.780217,536.266849
2325.659630,0.000000,-9474.636058,689.485948
2325.659958,-518.144159,-9474.636058,1225.752797
2325.660285,-962.267725,-9252.574275,153.219100
2325.660613,-444.123565,-10066.800811,-229.828649
2325.660941,-666.185348,-10658.965565,-919.314598
2325.661268,-666.185348,-10658.965565,-1302.362347
2325.661596,74.020594,-10288.862594,-1455.581446
2325.661924,222.061783,-9474.636058,-536.266849
2325.662251,296.082377,-8956.491898,306.438199
2325.662579,888.247130,-9030.512492,0.000000
2325.662907,888.247130,-9252.574275,536.266849
2325.663234,666.185348,-9474.636058,459.657299
2325.663562,296.082377,-9252.574275,766.095498
2325.663889,0.000000,-9326.594869,153.219100
2325.664217,-1036.288319,-9992.780217,536.266849
2325.664545,-2072.576638,-10881.027347,76.609550
2325.664872,-1776.494261,-10288.862594,-459.657299
2325.665200,-1258.350101,-10214.842000,-383.047749
2325.665528,-370.102971,-9992.780217,-383.047749
2325.665855,148.041188,-8660.409521,153.219100
2325.666183,1184.329507,-8734.430116,459.657299
2325.666511,1924.535449,-8956.491898,766.095498
2325.666838,2294.638420,-8660.409521,459.657299
2325.667166,2516.700203,-8364.327145,76.609550
2325.667493,1850.514855,-8882.471304,229.828649
2325.667821,888.247130,-9696.697840,306.438199
2325.668149,814.226536,-10066.800811,-459.657299
2325.668476,814.226536,-9918.759623,-689.485948
2325.668804,814.226536,-10955.047942,-536.266849
2325.669132,1332.370696,-10955.047942,-306.438199
2325.669459,888.247130,-10214.842000,153.219100
2325.669787,444.123565,-9474.636058,-306.438199
2325.670115,518.144159,-9178.553681,229.828649
2325.670442,1110.308913,-8956.491898,-689.485948
2325.670770,1110.308913,-9178.553681,-689.485948
2325.671097,1184.329507,-9326.594869,-306.438199
2325.671425,296.082377,-8956.491898,-612.876398
2325.671753,444.123565,-9400.615463,-306.438199
2325.672080,0.000000,-9696.697840,-612.876398
2325.672408,-518.144159,-9696.697840,-919.314598
2325.672736,0.000000,-10436.903782,-766.095498
2325.673063,888.247130,-11399.171507,-766.095498
2325.673391,1036.288319,-11177.109724,229.828649
2325.673719,666.185348,-9844.739029,766.095498
2325.674046,666.185348,-9474.636058,1225.752797
2325.674374,148.041188,-9770.718434,536.266849
2325.674701,0.000000,-10214.842000,-536.266849
2325.675029,-296.082377,-9548.656652,-995.924147
2325.675357,-592.164754,-8734.430116,-1072.533697
2325.675684,0.000000,-8660.409521,-842.705048
2325.676012,370.102971,-9030.512492,459.657299
2325.676340,888.247130,-8882.471304,76.609550
2325.676667,888.247130,-9548.656652,0.000000
2325.676995,444.123565,-9918.759623,76.609550
2325.677323,-222.061783,-9474.636058,153.219100
2325.677650,-962.267725,-9844.739029,383.047749
2325.677978,-1850.514855,-10584.944971,1072.533697
2325.678305,-1924.535449,-10658.965565,0.000000
2325.678633,-1554.432478,-10584.944971,0.000000
2325.678961,-2072.576638,-9474.636058,-383.047749
2325.679288,-1924.535449,-8290.306550,0.000000
2325.679616,-1036.288319,-8512.368333,-383.047749
2325.679944,-370.102971,-8438.347739,-383.047749
2325.680271,518.144159,-7994.224174,-919.314598
2325.680599,2072.576638,-8512.368333,76.609550
2325.680927,2368.659014,-9770.718434,306.438199
2325.681254,2294.638420,-9992.780217,995.924147
2325.681582,1406.391290,-10881.027347,153.219100
2325.681909,518.144159,-11251.130318,-383.047749
2325.682237,222.061783,-11029.068536,-919.314598
2325.682565,444.123565,-10658.965565,-766.095498
2325.682892,296.082377,-10510.924376,-306.438199
2325.683220,-518.144159,-9770.718434,689.485948
2325.683548,0.000000,-9696.697840,536.266849
2325.683875,0.000000,-9030.512492,0.000000
2325.684203,296.082377,-8882.471304,-842.705048
2325.684531,962.267725,-8512.368333,-995.924147
2325.684858,1110.308913,-9992.780217,-689.485948
2325.685186,1776.494261,-10510.924376,-229.828649
2325.685513,1702.473667,-9400.615463,229.828649
2325.685841,1036.288319,-8586.388927,842.705048
2325.686169,814.226536,-9326.594869,536.266849
2325.686496,814.226536,-9992.780217,0.000000
2325.686824,740.205942,-10362.883188,0.000000
2325.687152,296.082377,-10140.821405,-383.047749
2325.687479,0.000000,-9770.718434,-229.828649
2325.687807,-444.123565,-10362.883188,-306.438199
2325.688135,0.000000,-10140.821405,153.219100
2325.688462,0.000000,-10140.821405,-919.314598
2325.688790,666.185348,-10288.862594,-1225.752797
2325.689117,1036.288319,-9252.574275,-995.924147
2325.689445,1258.350101,-8586.388927,0.000000
2325.689773,1406.391290,-8438.347739,766.095498
2325.690100,962.267725,-8438.347739,919.314598
2325.690428,888.247130,-8956.491898,76.609550
2325.690756,518.144159,-10066.800811,0.000000
2325.691083,0.000000,-9844.739029,-536.266849
2325.691411,-296.082377,-10140.821405,-229.828649
2325.691739,-740.205942,-11473.192101,0.000000
2325.692066,-1332.370696,-11843.295072,-459.657299
2325.692394,-1332.370696,-11103.089130,0.000000
2325.692721,-1850.514855,-9770.718434,-995.924147
2325.693049,-1184.329507,-9104.533087,-919.314598
2325.693377,-444.123565,-8586.388927,0.000000
2325.693704,74.020594,-8290.306550,459.657299
2325.694032,444.123565,-7846.182985,459.657299
2325.694360,1110.308913,-8364.327145,0.000000
2325.694687,1406.391290,-9326.594869,-383.047749
2325.695015,962.267725,-9992.780217,-229.828649
2325.695343,0.000000,-10881.027347,-689.485948
2325.695670,222.061783,-11325.150913,-459.657299
2325.695998,592.164754,-11399.171507,-612.876398
2325.696325,888.247130,-11251.130318,-306.438199
2325.696653,0.000000,-10658.965565,306.438199
2325.696981,74.020594,-9400.615463,612.876398
2325.697308,0.000000,-8586.388927,1072.533697
2325.697636,-518.144159,-8068.244768,153.219100
2325.697964,-370.102971,-7698.141797,-919.314598
2325.698291,74.020594,-8216.285956,-995.924147
2325.698619,666.185348,-9474.636058,-1149.143247
2325.698947,814.226536,-10288.862594,-536.266849
2325.699274,814.226536,-10288.862594,-689.485948
2325.699602,592.164754,-10140.821405,-1149.143247
2325.699929,222.061783,-10436.903782,-766.095498
2325.700257,148.041188,-10066.800811,0.000000
2325.700585,370.102971,-9770.718434,612.876398
2325.700912,222.061783,-9770.718434,689.485948
2325.701240,0.000000,-9030.512492,229.828649
2325.701568,74.020594,-8882.471304,-459.657299
2325.701895,222.061783,-10066.800811,-459.657299
2325.702223,518.144159,-10732.986159,-919.314598
2325.702551,814.226536,-10584.944971,-1455.581446
2325.702878,1480.411884,-9696.697840,-1302.362347
2325.703206,2072.576638,-9474.636058,-612.876398
2325.703533,2368.659014,-9178.553681,536.266849
2325.703861,2664.741391,-9326.594869,766.095498
2325.704189,2220.617826,-9326.594869,766.095498
2325.704516,1258.350101,-9696.697840,76.609550
2325.704844,518.144159,-9548.656652,76.609550
2325.705172,-518.144159,-9918.759623,383.047749
2325.705499,-1554.432478,-10362.883188,-306.438199
2325.705827,-2146.597232,-10658.965565,-689.485948
2325.706155,-2294.638420,-10732.986159,-1762.019645
2325.706482,-1702.473667,-10288.862594,-1225.752797
2325.706810,-1036.288319,-9696.697840,-1072.533697
2325.707137,74.020594,-9474.636058,-383.047749
2325.707465,962.267725,-8882.471304,536.266849
2325.707793,1628.453072,-8512.368333,766.095498
2325.708120,1480.411884,-8808.450710,689.485948
2325.708448,1406.391290,-9178.553681,229.828649
2325.708776,962.267725,-9104.533087,229.828649
2325.709103,0.000000,-9252.574275,-306.438199
2325.709431,-740.205942,-10807.006753,-306.438199
2325.709759,-370.102971,-11029.068536,-766.095498
2325.710086,-444.123565,-10732.986159,-306.438199
2325.710414,-962.267725,-10214.842000,306.438199
2325.710741,-962.267725,-9548.656652,536.266849
2325.711069,-518.144159,-9326.594869,-229.828649
2325.711397,-814.226536,-8364.327145,0.000000
2325.711724,-222.061783,-8216.285956,-306.438199
2325.712052,962.267725,-9030.512492,-689.485948
2325.712380,888.247130,-9844.739029,-306.438199
2325.712707,222.061783,-9992.780217,459.657299
2325.713035,148.041188,-9696.697840,-1532.190996
2325.713363,-518.144159,-9770.718434,-919.314598
2325.713690,0.000000,-10732.986159,-1532.190996
2325.714018,0.000000,-10510.924376,-536.266849
2325.714345,444.123565,-10362.883188,536.266849
2325.714673,1110.308913,-10362.883188,612.876398
2325.715001,518.144159,-9548.656652,1072.533697
2325.715328,518.144159,-9326.594869,689.485948
2325.715656,222.061783,-9474.636058,0.000000
2325.715984,296.082377,-9918.759623,-919.314598
2325.716311,444.123565,-9770.718434,-1225.752797
2325.716639,296.082377,-8956.491898,-1302.362347
2325.716967,814.226536,-9474.636058,-842.705048
2325.717294,962.267725,-9474.636058,-842.705048
2325.717622,1258.350101,-9622.677246,0.000000
2325.717949,1702.473667,-10140.821405,229.828649
2325.718277,1406.391290,-9918.759623,229.828649
2325.718605,814.226536,-9844.739029,306.438199
2325.718932,0.000000,-9548.656652,1072.533697
2325.719260,-666.185348,-9474.636058,919.314598
2325.719588,-666.185348,-9844.739029,0.000000
2325.719915,-1110.308913,-10436.903782,0.000000
2325.720243,-1110.308913,-9622.677246,-766.095498
2325.720571,0.000000,-9474.636058,-689.485948
2325.720898,0.000000,-8586.388927,-383.047749
2325.721226,740.205942,-8956.491898,0.000000
2325.721553,1480.411884,-9326.594869,-306.438199
2325.721881,1776.494261,-9844.739029,-536.266849
2325.722209,2368.659014,-9622.677246,0.000000
2325.722536,2146.597232,-9252.574275,0.000000
2325.722864,814.226536,-10436.903782,536.266849
2325.723192,296.082377,-10807.006753,459.657299
2325.723519,296.082377,-10436.903782,229.828649
2325.723847,-370.102971,-10510.924376,-306.438199
2325.724174,0.000000,-10436.903782,0.000000
2325.724502,-444.123565,-9252.574275,76.609550
2325.724830,-1110.308913,-8734.430116,-383.047749
2325.725157,0.000000,-9400.615463,-689.485948
2325.725485,370.102971,-9252.574275,-919.314598
2325.725813,1332.370696,-9548.656652,-536.266849
2325.726140,1184.329507,-10214.842000,0.000000
2325.726468,1406.391290,-10436.903782,0.000000
2325.726796,1036.288319,-9696.697840,-1149.143247
2325.727123,0.000000,-9400.615463,0.000000
2325.727451,-888.247130,-9030.512492,0.000000
2325.727778,-1036.288319,-9474.636058,229.828649
2325.728106,-888.247130,-9844.739029,0.000000
2325.728434,-296.082377,-10436.903782,-459.657299
2325.728761,296.082377,-9326.594869,-842.705048
2325.729089,0.000000,-9474.636058,-383.047749
2325.729417,-296.082377,-10066.800811,0.000000
2325.729744,444.123565,-10436.903782,-919.314598
2325.730072,666.185348,-9844.739029,-1225.752797
2325.730400,592.164754,-9252.574275,-995.924147
2325.730727,1184.329507,-8956.491898,76.609550
2325.731055,1110.308913,-8364.327145,536.266849
2325.731382,518.144159,-9104.533087,459.657299
2325.731710,592.164754,-9844.739029,536.266849
2325.732038,0.000000,-10066.800811,-459.657299
2325.732365,-740.205942,-9622.677246,-536.266849
2325.732693,-1184.329507,-9770.718434,-536.266849
2325.733021,-1036.288319,-10732.986159,-612.876398
2325.733348,-814.226536,-11695.253884,-459.657299
2325.733676,-296.082377,-11251.130318,0.000000
2325.734004,-592.164754,-10140.821405,-766.095498
2325.734331,148.041188,-9474.636058,-612.876398
2325.734659,592.164754,-9030.512492,0.000000
2325.734986,592.164754,-7920.203579,0.000000
2325.735314,1332.370696,-8364.327145,0.000000
2325.735642,2146.597232,-9326.594869,76.609550
2325.735969,2072.576638,-9474.636058,306.438199
2325.736297,1702.473667,-9474.636058,919.314598
2325.736625,370.102971,-9918.759623,229.828649
2325.736952,0.000000,-10658.965565,-383.047749
2325.737280,0.000000,-11695.253884,-536.266849
2325.737608,592.164754,-11621.233289,-153.219100
2325.737935,1258.350101,-9992.780217,153.219100
2325.738263,666.185348,-8956.491898,-306.438199
2325.738590,444.123565,-8660.409521,612.876398
2325.738918,296.082377,-8808.450710,-153.219100
2325.739246,666.185348,-8364.327145,-766.095498
2325.739573,814.226536,-8512.368333,-1149.143247
2325.739901,1628.453072,-9622.677246,-612.876398
2325.740229,1628.453072,-10214.842000,-459.657299
2325.740556,1406.391290,-10436.903782,383.047749
2325.740884,518.144159,-9918.759623,689.485948
2325.741212,370.102971,-9992.780217,0.000000
2325.741539,-222.061783,-9844.739029,0.000000
2325.741867,0.000000,-9770.718434,76.609550
2325.742194,0.000000,-9548.656652,153.219100
2325.742522,0.000000,-9474.636058,459.657299
2325.742850,-370.102971,-9696.697840,459.657299
2325.743177,0.000000,-9844.739029,-919.314598
2325.743505,-518.144159,-9844.739029,-1685.410096
2325.743833,-148.041188,-10436.903782,-2221.676944
2325.744160,0.000000,-10288.862594,-1915.238745
2325.744488,370.102971,-9770.718434,-1072.533697
2325.744816,222.061783,-9474.636058,0.000000
2325.745143,296.082377,-9178.553681,766.095498
2325.745471,444.123565,-9474.636058,383.047749
2325.745798,0.000000,-9696.697840,383.047749
2325.746126,-518.144159,-9030.512492,0.000000
2325.746454,-1110.308913,-9178.553681,-306.438199
2325.746781,-1184.329507,-9992.780217,0.000000
2325.747109,-962.267725,-11177.109724,0.000000
2325.747437,-1036.288319,-11473.192101,-306.438199
2325.747764,-1184.329507,-9918.759623,-842.705048
2325.748092,-592.164754,-9622.677246,-919.314598
2325.748420,148.041188,-9548.656652,-766.095498
2325.748747,518.144159,-8586.388927,383.047749
2325.749075,1184.329507,-8142.265362,383.047749
2325.749402,1702.473667,-8512.368333,689.485948
2325.749730,1184.329507,-8586.388927,1072.533697
2325.750058,666.185348,-8512.368333,536.266849
2325.750385,-1110.308913,-9178.553681,306.438199
2325.750713,-1332.370696,-10436.903782,-306.438199
2325.751041,-222.061783,-10955.047942,-1532.190996
2325.751368,370.102971,-11029.068536,-842.705048
2325.751696,370.102971,-10362.883188,76.609550
2325.752024,1036.288319,-9622.677246,995.924147
2325.752351,888.247130,-9400.615463,459.657299
2325.752679,666.185348,-9326.594869,0.000000
2325.753006,1480.411884,-8808.450710,-536.266849
2325.753334,2072.576638,-8438.347739,-383.047749
2325.753662,2072.576638,-9252.574275,229.828649
2325.753989,1480.411884,-9844.739029,76.609550
2325.754317,1036.288319,-10066.800811,0.000000
2325.754645,444.123565,-9918.759623,-306.438199
2325.754972,0.000000,-10362.883188,-995.924147
2325.755300,0.000000,-10955.047942,-689.485948
2325.755628,74.020594,-10658.965565,0.000000
2325.755955,444.123565,-9992.780217,306.438199
2325.756283,444.123565,-9252.574275,229.828649
2325.756611,74.020594,-8882.471304,1302.362347
2325.756938,444.123565,-9104.533087,0.000000
2325.757266,222.061783,-8808.450710,-1149.143247
2325.757594,222.061783,-9918.759623,-1455.581446
2325.757921,518.144159,-10140.821405,-1455.581446
2325.758249,888.247130,-9474.636058,-995.924147
2325.758577,740.205942,-9696.697840,0.000000
2325.758904,1110.308913,-10140.821405,-1302.362347
2325.759232,1554.432478,-10066.800811,306.438199
2325.759560,1480.411884,-9844.739029,0.000000
2325.759887,740.205942,-9474.636058,612.876398
2325.760215,444.123565,-9326.594869,536.266849
2325.760543,-222.061783,-9622.677246,612.876398
2325.760870,-1332.370696,-10140.821405,229.828649
2325.761198,-1480.411884,-10584.944971,-1225.752797
2325.761526,-1702.473667,-10362.883188,-995.924147
2325.761853,-1850.514855,-9104.533087,-1532.190996
2325.762181,-592.164754,-9696.697840,-1302.362347
2325.762509,444.123565,-9770.718434,-612.876398
2325.762836,1036.288319,-9252.574275,76.609550
2325.763164,814.226536,-9474.636058,459.657299
2325.763492,1110.308913,-9474.636058,612.876398
2325.763819,1036.288319,-9030.512492,76.609550
2325.764147,0.000000,-9400.615463,0.000000
2325.764475,-888.247130,-10362.883188,0.000000
2325.764802,-962.267725,-10732.986159,0.000000
2325.765130,-370.102971,-10807.006753,-306.438199
2325.765458,148.041188,-10362.883188,-306.438199
2325.765786,-370.102971,-9844.739029,-383.047749
2325.766113,444.123565,-8660.409521,306.438199
2325.766441,0.000000,-9030.512492,0.000000
2325.766769,888.247130,-9474.636058,153.219100
2325.767096,1776.494261,-8808.450710,0.000000
2325.767424,1554.432478,-8882.471304,306.438199
2325.767752,1184.329507,-9770.718434,536.266849
2325.768079,666.185348,-9918.759623,-612.876398
2325.768407,-148.041188,-9548.656652,0.000000
2325.768735,-370.102971,-9548.656652,-1378.971896
2325.769062,-962.267725,-10510.924376,-536.266849
2325.769390,-518.144159,-9622.677246,-229.828649
2325.769718,0.000000,-9474.636058,0.000000
2325.770045,148.041188,-9770.718434,76.609550
2325.770373,814.226536,-9770.718434,-1149.143247
2325.770701,740.205942,-8956.491898,0.000000
2325.771028,814.226536,-9622.677246,-536.266849
2325.771356,1184.329507,-10214.842000,-689.485948
2325.771684,1480.411884,-9918.759623,-919.314598
2325.772011,1406.391290,-9252.574275,-383.047749
2325.772339,444.123565,-9252.574275,76.609550
2325.772667,1110.308913,-9918.759623,-383.047749
2325.772994,296.082377,-9252.574275,-153.219100
2325.773322,518.144159,-10362.883188,-1378.971896
2325.773650,296.082377,-10214.842000,-612.876398
2325.773977,370.102971,-9548.656652,-306.438199
2325.774305,222.061783,-10584.944971,0.000000
2325.774633,222.061783,-11547.212695,76.609550
2325.774961,-444.123565,-11029.068536,0.000000
2325.775288,0.000000,-9918.759623,-689.485948
2325.775616,0.000000,-9252.574275,-1225.752797
2325.775944,0.000000,-8586.388927,-459.657299
2325.776271,518.144159,-8364.327145,0.000000
2325.776599,888.247130,-9030.512492,76.609550
2325.776927,1184.329507,-9474.636058,-229.828649
2325.777254,888.247130,-9252.574275,-383.047749
2325.777582,666.185348,-9548.656652,229.828649
2325.777910,-296.082377,-9548.656652,459.657299
2325.778237,-518.144159,-10288.862594,0.000000
2325.778565,-296.082377,-10732.986159,0.000000
2325.778893,0.000000,-10732.986159,0.000000
2325.779220,592.164754,-10288.862594,306.438199
2325.779548,0.000000,-9030.512492,1225.752797
2325.779876,-592.164754,-8142.265362,766.095498
2325.780203,-222.061783,-8216.285956,383.047749
2325.780531,148.041188,-8216.285956,-536.266849
2325.780859,814.226536,-8216.285956,-306.438199
2325.781186,1110.308913,-8808.450710,-153.219100
2325.781514,1184.329507,-9992.780217,536.266849
2325.781842,962.267725,-9400.615463,536.266849
2325.782169,592.164754,-10066.800811,383.047749
2325.782497,74.020594,-9918.759623,0.000000
2325.782825,74.020594,-10214.842000,-229.828649
2325.783152,0.000000,-9844.739029,0.000000
2325.783480,-222.061783,-9696.697840,-153.219100
2325.783808,370.102971,-9918.759623,0.000000
2325.784136,74.020594,-9474.636058,-459.657299
2325.784463,296.082377,-9918.759623,-1225.752797
2325.784791,0.000000,-10362.883188,-1378.971896
2325.785119,296.082377,-10807.006753,-2068.457845
2325.785446,740.205942,-11029.068536,-1608.800546
2325.785774,1036.288319,-10288.862594,-995.924147
2325.786102,814.226536,-9696.697840,0.000000
2325.786429,814.226536,-9474.636058,0.000000
2325.786757,444.123565,-9326.594869,229.828649
2325.787085,0.000000,-9400.615463,76.609550
2325.787412,-370.102971,-9252.574275,0.000000
2325.787740,0.000000,-8660.409521,-689.485948
2325.788068,-444.123565,-9770.718434,-306.438199
2325.788395,-666.185348,-11103.089130,76.609550
2325.788723,-148.041188,-11473.192101,-383.047749
2325.789051,0.000000,-11029.068536,-995.924147
2325.789378,222.061783,-9844.739029,-689.485948
2325.789706,740.205942,-8808.450710,-383.047749
2325.790034,1110.308913,-8438.347739,306.438199
2325.790361,1184.329507,-8586.388927,1608.800546
2325.790689,1258.350101,-8068.244768,2221.676944
2325.791017,666.185348,-7994.224174,842.705048
2325.791344,0.000000,-8142.265362,0.000000
2325.791672,-1110.308913,-8660.409521,459.657299
2325.792000,-814.226536,-10066.800811,-459.657299
2325.792327,-370.102971,-11251.130318,-536.266849
2325.792655,148.041188,-10658.965565,-536.266849
2325.792983,666.185348,-9918.759623,0.000000
2325.793310,1110.308913,-10140.821405,153.219100
2325.793638,1554.432478,-9104.533087,689.485948
2325.793966,1036.288319,-8734.430116,0.000000
2325.794294,814.226536,-8882.471304,0.000000
2325.794621,1258.350101,-8808.450710,-459.657299
2325.794949,1036.288319,-9178.553681,-383.047749
2325.795277,0.000000,-9844.739029,76.609550
2325.795604,-518.144159,-10066.800811,76.609550
2325.795932,-222.061783,-10658.965565,-1149.143247
2325.796260,-740.205942,-11399.171507,-1608.800546
2325.796587,-518.144159,-10732.986159,-1072.533697
2325.796915,-296.082377,-10140.821405,-459.657299
2325.797243,0.000000,-10140.821405,536.266849
2325.797570,666.185348,-9474.636058,383.047749
2325.797898,888.247130,-9252.574275,0.000000
2325.798226,0.000000,-9474.636058,-612.876398
2325.798553,148.041188,-9844.739029,-1302.362347
2325.798881,0.000000,-10658.965565,-1685.410096
2325.799209,-222.061783,-10436.903782,-1302.362347
2325.799536,222.061783,-9992.780217,-766.095498
2325.799864,740.205942,-9474.636058,-383.047749
2325.800192,666.185348,-10066.800811,0.000000
2325.800519,1554.432478,-10066.800811,-229.828649
2325.800847,1480.411884,-9474.636058,306.438199
2325.801175,740.205942,-8956.491898,919.314598
2325.801502,296.082377,-8290.306550,1225.752797
2325.801830,-222.061783,-8734.430116,612.876398
2325.802158,-592.164754,-9474.636058,383.047749
2325.802485,-222.061783,-10288.862594,-1225.752797
2325.802813,-444.123565,-9992.780217,-1378.971896
2325.803141,0.000000,-9992.780217,-1685.410096
2325.803469,222.061783,-9844.739029,-919.314598
2325.803796,666.185348,-9104.533087,-306.438199
2325.804124,962.267725,-9104.533087,383.047749
2325.804452,1036.288319,-8808.450710,766.095498
2325.804779,1332.370696,-8734.430116,995.924147
2325.805107,296.082377,-8068.244768,1302.362347
2325.805435,74.020594,-8956.491898,689.485948
2325.805762,296.082377,-10288.862594,0.000000
2325.806090,0.000000,-10807.006753,-689.485948
2325.806418,-148.041188,-11103.089130,-1072.533697
2325.806745,518.144159,-10362.883188,-919.314598
2325.807073,814.226536,-10510.924376,-1532.190996
2325.807401,962.267725,-10288.862594,-995.924147
2325.807728,1776.494261,-9696.697840,-842.705048
2325.808056,1998.556043,-9918.759623,0.000000
2325.808384,2294.638420,-9696.697840,459.657299
2325.808711,1850.514855,-9400.615463,383.047749
2325.809039,814.226536,-9400.615463,-153.219100
2325.809367,-370.102971,-8956.491898,0.000000
2325.809694,-1258.350101,-9622.677246,0.000000
2325.810022,-740.205942,-10214.842000,-459.657299
2325.810350,-1184.329507,-10140.821405,0.000000
2325.810677,-1184.329507,-9548.656652,229.828649
2325.811005,-518.144159,-9474.636058,0.000000
2325.811333,0.000000,-9104.533087,-536.266849
2325.811660,740.205942,-8808.450710,-612.876398
2325.811988,814.226536,-9474.636058,-612.876398
2325.812316,888.247130,-9770.718434,0.000000
2325.812643,1110.308913,-10066.800811,0.000000
2325.812971,592.164754,-9844.739029,0.000000
2325.813299,518.144159,-9474.636058,-153.219100
2325.813627,0.000000,-9252.574275,-229.828649
2325.813954,74.020594,-9770.718434,0.000000
2325.814282,-222.061783,-9474.636058,-1072.533697
2325.814610,370.102971,-9474.636058,-612.876398
2325.814937,74.020594,-9696.697840,-229.828649
2325.815265,370.102971,-9326.594869,612.876398
2325.815593,296.082377,-9474.636058,153.219100
2325.815920,814.226536,-10658.965565,-612.876398
2325.816248,0.000000,-10436.903782,-459.657299
2325.816576,-444.123565,-9844.739029,-689.485948
2325.816903,-888.247130,-9548.656652,-689.485948
2325.817231,-666.185348,-9178.553681,-919.314598
2325.817559,-296.082377,-9474.636058,-306.438199
2325.817886,0.000000,-9400.615463,-306.438199
2325.818214,222.061783,-9770.718434,-383.047749
2325.818542,814.226536,-9770.718434,0.000000
2325.818869,222.061783,-8956.491898,612.876398
2325.819197,-222.061783,-9252.574275,689.485948
2325.819525,-222.061783,-10658.965565,76.609550
2325.819852,296.082377,-10881.027347,-383.047749
2325.820180,592.164754,-10658.965565,-383.047749
2325.820508,1258.350101,-10362.883188,-306.438199
2325.820835,1924.535449,-9770.718434,612.876398
2325.821163,1406.391290,-8660.409521,1149.143247
2325.821491,1036.288319,-8956.491898,689.485948
2325.821818,1332.370696,-9844.739029,-306.438199
2325.822146,1554.432478,-9696.697840,-919.314598
2325.822474,814.226536,-8956.491898,-383.047749
2325.822802,296.082377,-9474.636058,536.266849
2325.823129,148.041188,-10066.800811,1072.533697
2325.823457,-370.102971,-9844.739029,766.095498
2325.823785,-222.061783,-9326.594869,-229.828649
2325.824112,-592.164754,-9326.594869,306.438199
2325.824440,0.000000,-8734.430116,76.609550
2325.824768,518.144159,-8956.491898,-459.657299
2325.825095,148.041188,-9622.677246,-306.438199
2325.825423,814.226536,-9178.553681,-1149.143247
2325.825751,1406.391290,-9178.553681,0.000000
2325.826078,1406.391290,-10214.842000,0.000000
2325.826406,1480.411884,-10658.965565,-919.314598
2325.826734,1480.411884,-10955.047942,-919.314598
2325.827061,740.205942,-10658.965565,-306.438199
2325.827389,444.123565,-10214.842000,-306.438199
2325.827717,666.185348,-9400.615463,383.047749
2325.828044,-222.061783,-8956.491898,-229.828649
2325.828372,-962.267725,-8734.430116,536.266849
2325.828700,-296.082377,-9178.553681,0.000000
2325.829027,-296.082377,-9474.636058,-612.876398
2325.829355,-296.082377,-9622.677246,-1072.533697
2325.829683,-370.102971,-10584.944971,-1838.629195
2325.830010,-296.082377,-11621.233289,-1225.752797
2325.830338,-296.082377,-11399.171507,-1072.533697
2325.830666,0.000000,-10732.986159,-459.657299
2325.830993,-222.061783,-9474.636058,-383.047749
2325.831321,0.000000,-8956.491898,229.828649
2325.831649,296.082377,-9178.553681,612.876398
2325.831977,0.000000,-8660.409521,689.485948
2325.832304,-592.164754,-7920.203579,995.924147
2325.832632,0.000000,-8586.388927,76.609550
2325.832960,-592.164754,-8808.450710,0.000000
2325.833287,-740.205942,-9696.697840,0.000000
2325.833615,0.000000,-10584.944971,-995.924147
2325.833943,592.164754,-10955.047942,-842.705048
2325.834270,1480.411884,-9844.739029,-536.266849
2325.834598,1332.370696,-9252.574275,153.219100
2325.834926,2072.576638,-9622.677246,612.876398
2325.835253,1776.494261,-9400.615463,919.314598
2325.835581,1184.329507,-9178.553681,153.219100
2325.835909,592.164754,-8808.450710,0.000000
2325.836236,222.061783,-8734.430116,0.000000
2325.836564,-296.082377,-9474.636058,76.609550
2325.836892,-1110.308913,-10584.944971,229.828649
2325.837219,-814.226536,-11177.109724,459.657299
2325.837547,0.000000,-10362.883188,-919.314598
2325.837875,-370.102971,-9326.594869,-383.047749
2325.838202,0.000000,-9400.615463,76.609550
2325.838530,1036.288319,-9770.718434,229.828649
2325.838858,1258.350101,-9696.697840,153.219100
2325.839185,1184.329507,-9400.615463,0.000000
2325.839513,1406.391290,-10066.800811,-153.219100
2325.839841,1332.370696,-10436.903782,-536.266849
2325.840168,592.164754,-10955.047942,-1072.533697
2325.840496,0.000000,-11325.150913,-1762.019645
2325.840824,148.041188,-11251.130318,-1378.971896
2325.841151,444.123565,-10436.903782,-995.924147
2325.841479,518.144159,-9474.636058,-306.438199
2325.841807,518.144159,-8882.471304,919.314598
2325.842135,222.061783,-8216.285956,1149.143247
2325.842462,-296.082377,-7624.121203,1149.143247
2325.842790,-592.164754,-7846.182985,612.876398
2325.843118,-296.082377,-8290.306550,0.000000
2325.843445,-296.082377,-9030.512492,-459.657299
2325.843773,-222.061783,-10807.006753,-612.876398
2325.844101,-296.082377,-11325.150913,-1915.238745
2325.844428,-518.144159,-10288.862594,-2221.676944
2325.844756,-370.102971,-10362.883188,-1378.971896
2325.845084,444.123565,-10436.903782,-612.876398
2325.845411,1110.308913,-10066.800811,229.828649
2325.845739,888.247130,-9030.512492,919.314598
2325.846067,296.082377,-7698.141797,689.485948
2325.846394,148.041188,-7772.162391,689.485948
2325.846722,-222.061783,-8438.347739,229.828649
2325.847050,-740.205942,-9252.574275,0.000000
2325.847377,-518.144159,-10436.903782,-842.705048
2325.847705,74.020594,-10140.821405,-1455.581446
2325.848033,888.247130,-10288.862594,-1378.971896
2325.848360,1998.556043,-11251.130318,-919.314598
2325.848688,1554.432478,-11177.109724,76.609550
2325.849016,2072.576638,-10807.006753,919.314598
2325.849343,1850.514855,-10732.986159,0.000000
2325.849671,1258.350101,-10436.903782,-153.219100
2325.849999,666.185348,-9178.553681,76.609550
2325.850326,-962.267725,-8956.491898,229.828649
2325.850654,-1850.514855,-9474.636058,0.000000
2325.850982,-1702.473667,-9696.697840,-306.438199
2325.851310,-1406.391290,-8808.450710,0.000000
2325.851637,-1184.329507,-8734.430116,-153.219100
2325.851965,-518.144159,-9252.574275,383.047749
2325.852293,370.102971,-8808.450710,383.047749
2325.852620,888.247130,-8290.306550,229.828649
2325.852948,1776.494261,-8882.471304,0.000000
2325.853276,2220.617826,-9992.780217,459.657299
2325.853603,1628.453072,-10436.903782,842.705048
2325.853931,814.226536,-10436.903782,689.485948
2325.854259,148.041188,-10807.006753,-689.485948
2325.854586,-296.082377,-10658.965565,-1455.581446
2325.854914,-592.164754,-9992.780217,-1149.143247
2325.855242,-370.102971,-9696.697840,-1302.362347
2325.855569,296.082377,-8956.491898,0.000000
2325.855897,666.185348,-8290.306550,0.000000
2325.856225,0.000000,-7920.203579,689.485948
2325.856552,444.123565,-8364.327145,766.095498
2325.856880,518.144159,-8512.368333,153.219100
2325.857208,518.144159,-9178.553681,-306.438199
2325.857535,370.102971,-11029.068536,-919.314598
2325.857863,444.123565,-11399.171507,-1302.362347
2325.858190,370.102971,-11029.068536,-689.485948
2325.858518,-370.102971,-11029.068536,-1532.190996
2325.858846,-296.082377,-11103.089130,-1225.752797
2325.859173,-222.061783,-10881.027347,-1225.752797
2325.859501,-148.041188,-10288.862594,-995.924147
2325.859828,-222.061783,-8956.491898,153.219100
2325.860156,-370.102971,-8142.265362,383.047749
2325.860483,-296.082377,-7994.224174,1072.533697
2325.860811,0.000000,-8586.388927,459.657299
2325.861138,222.061783,-9918.759623,229.828649
2325.861466,666.185348,-9918.759623,0.000000
2325.861793,1998.556043,-9918.759623,-689.485948
2325.862121,1850.514855,-10140.821405,-153.219100
2325.862448,1702.473667,-10510.924376,-459.657299
2325.862776,1036.288319,-10658.965565,0.000000
2325.863103,1628.453072,-10881.027347,-459.657299
2325.863431,814.226536,-10510.924376,-383.047749
2325.863759,296.082377,-9474.636058,76.609550
2325.864086,-592.164754,-9252.574275,459.657299
2325.864414,-1184.329507,-9104.533087,919.314598
2325.864741,-888.247130,-8512.368333,306.438199
2325.865069,-1258.350101,-7698.141797,-153.219100
2325.865396,-1480.411884,-7994.224174,-536.266849
2325.865724,-222.061783,-8512.368333,229.828649
2325.866051,296.082377,-8142.265362,153.219100
2325.866379,740.205942,-8882.471304,0.000000
2325.866706,1850.514855,-10362.883188,-229.828649
2325.867034,1628.453072,-11177.109724,-612.876398
2325.867361,1332.370696,-10807.006753,229.828649
2325.867689,1184.329507,-11473.192101,-689.485948
2325.868016,888.247130,-11991.336260,-1378.971896
2325.868344,296.082377,-10955.047942,-1072.533697
2325.868672,0.000000,-9992.780217,-459.657299
2325.868999,0.000000,-9178.553681,383.047749
2325.869327,296.082377,-8438.347739,306.438199
2325.869654,370.102971,-7994.224174,459.657299
2325.869982,-666.185348,-7624.121203,306.438199
2325.870309,0.000000,-8216.285956,-229.828649
2325.870637,222.061783,-9622.677246,-842.705048
2325.870964,222.061783,-10510.924376,-919.314598
2325.871292,1036.288319,-11917.315666,-689.485948
2325.871619,1036.288319,-12731.542202,-919.314598
2325.871947,666.185348,-11843.295072,-842.705048
2325.872274,74.020594,-11251.130318,-919.314598
2325.872602,-962.267725,-9918.759623,-536.266849
2325.872930,-1480.411884,-9474.636058,0.000000
2325.873257,-888.247130,-8438.347739,-229.828649
2325.873585,-1110.308913,-7550.100608,612.876398
2325.873912,-1036.288319,-6587.832884,612.876398
2325.874240,-1184.329507,-6957.935855,459.657299
2325.874567,-444.123565,-8586.388927,383.047749
2325.874895,0.000000,-9474.636058,229.828649
2325.875222,1554.432478,-9770.718434,-383.047749
2325.875550,2664.741391,-10658.965565,-459.657299
2325.875877,2886.803174,-11177.109724,536.266849
2325.876205,2812.782580,-9992.780217,1072.533697
2325.876532,1998.556043,-9844.739029,919.314598
2325.876860,666.185348,-10214.842000,306.438199
2325.877187,222.061783,-9770.718434,-612.876398
2325.877515,-444.123565,-9326.594869,-536.266849
2325.877843,-1036.288319,-9252.574275,-306.438199
2325.878170,-1332.370696,-9030.512492,0.000000
2325.878498,-1554.432478,-8290.306550,229.828649
2325.878825,-1184.329507,-8956.491898,0.000000
2325.879153,-296.082377,-8734.430116,-1225.752797
2325.879480,370.102971,-8364.327145,-153.219100
2325.879808,740.205942,-8734.430116,0.000000
2325.880135,1776.494261,-10436.903782,0.000000
2325.880463,1998.556043,-11325.150913,0.000000
2325.880790,1850.514855,-11547.212695,-536.266849
2325.881118,222.061783,-11325.150913,-1302.362347
2325.881445,-592.164754,-11695.253884,-1838.629195
2325.881773,-814.226536,-11843.295072,-2604.724693
2325.882100,-962.267725,-11399.171507,-1685.410096
2325.882428,-962.267725,-10214.842000,-536.266849
2325.882756,0.000000,-10066.800811,536.266849
2325.883083,-518.144159,-7846.182985,1302.362347
2325.883411,-1332.370696,-6439.791695,1685.410096
2325.883738,-740.205942,-6809.894666,536.266849
2325.884066,-296.082377,-7624.121203,153.219100
2325.884393,-296.082377,-8438.347739,0.000000
2325.884721,74.020594,-9548.656652,-153.219100
2325.885048,518.144159,-11621.233289,-766.095498
2325.885376,0.000000,-12509.480420,-1762.019645
2325.885703,-518.144159,-12065.356855,-1532.190996
2325.886031,-518.144159,-11251.130318,-1608.800546
2325.886358,0.000000,-10288.862594,-689.485948
2325.886686,444.123565,-9252.574275,306.438199
2325.887013,592.164754,-7920.203579,1608.800546
2325.887341,592.164754,-6957.935855,1455.581446
2325.887669,962.267725,-6587.832884,1455.581446
2325.887996,740.205942,-6883.915261,766.095498
2325.888324,148.041188,-7476.080014,229.828649
2325.888651,814.226536,-9474.636058,-1072.533697
2325.888979,1850.514855,-10881.027347,-1455.581446
2325.889306,2590.720797,-11251.130318,-995.924147
2325.889634,3182.885551,-12287.418637,-153.219100
2325.889961,3182.885551,-12287.418637,-536.266849
2325.890289,2442.679609,-11843.295072,0.000000
2325.890616,1480.411884,-11177.109724,-383.047749
2325.890944,592.164754,-10140.821405,76.609550
2325.891271,296.082377,-9030.512492,0.000000
2325.891599,-444.123565,-8068.244768,0.000000
2325.891927,-888.247130,-8364.327145,0.000000
2325.892254,-1184.329507,-9030.512492,-229.828649
2325.892582,-1110.308913,-8956.491898,-536.266849
2325.892909,-592.164754,-8882.471304,-1378.971896
2325.893237,74.020594,-8882.471304,-306.438199
2325.893564,1184.329507,-8808.450710,0.000000
2325.893892,1998.556043,-9770.718434,76.609550
2325.894219,2886.803174,-11547.212695,229.828649
2325.894547,2738.761985,-11399.171507,919.314598
2325.894874,1776.494261,-10955.047942,-536.266849
2325.895202,444.123565,-10362.883188,612.876398
2325.895529,-1406.391290,-10362.883188,-306.438199
2325.895857,-1702.473667,-9844.739029,-1149.143247
2325.896184,-1776.494261,-9474.636058,-766.095498
2325.896512,-1850.514855,-9252.574275,0.000000
2325.896840,-888.247130,-8364.327145,-536.266849
2325.897167,-962.267725,-6809.894666,1149.143247
2325.897495,-444.123565,-7105.977043,536.266849
2325.897822,222.061783,-8808.450710,0.000000
2325.898150,814.226536,-9548.656652,-459.657299
2325.898477,592.164754,-9252.574275,-229.828649
2325.898805,1184.329507,-11695.253884,-153.219100
2325.899132,592.164754,-12657.521608,229.828649
2325.899460,0.000000,-11843.295072,-842.705048
2325.899787,-1036.288319,-11473.192101,-1762.019645
2325.900115,-1998.556043,-11103.089130,-1991.848295
2325.900442,-1702.473667,-10362.883188,-1838.629195
2325.900770,-666.185348,-9548.656652,-1225.752797
2325.901097,-592.164754,-8586.388927,536.266849
2325.901425,-296.082377,-7698.141797,2374.896044
2325.901753,1258.350101,-7920.203579,1762.019645
2325.902080,444.123565,-8586.388927,1149.143247
2325.902408,444.123565,-9326.594869,-153.219100
2325.902735,1184.329507,-9696.697840,-1302.362347
2325.903063,1480.411884,-10436.903782,-1302.362347
2325.903390,1332.370696,-11029.068536,-612.876398
2325.903718,1184.329507,-10658.965565,383.047749
2325.904045,592.164754,-10955.047942,0.000000
2325.904373,666.185348,-11325.150913,0.000000
2325.904700,518.144159,-10436.903782,-842.705048
2325.905028,-296.082377,-9252.574275,-459.657299
2325.905355,-370.102971,-8364.327145,229.828649
2325.905683,0.000000,-8586.388927,383.047749
2325.906010,444.123565,-8586.388927,612.876398
2325.906338,148.041188,-8216.285956,383.047749
2325.906666,666.185348,-7698.141797,459.657299
2325.906993,1406.391290,-8216.285956,76.609550
2325.907321,1850.514855,-8882.471304,229.828649
2325.907648,1924.535449,-8956.491898,0.000000
2325.907976,2146.597232,-10807.006753,459.657299
2325.908303,2368.659014,-11621.233289,153.219100
2325.908631,1776.494261,-10584.944971,76.609550
2325.908958,1036.288319,-10214.842000,383.047749
2325.909286,0.000000,-11029.068536,0.000000
2325.909613,-888.247130,-10362.883188,-383.047749
2325.909941,0.000000,-10140.821405,-766.095498
2325.910268,-592.164754,-8882.471304,-536.266849
2325.910596,-222.061783,-7698.141797,0.000000
2325.910924,666.185348,-7772.162391,153.219100
2325.911251,-148.041188,-7994.224174,306.438199
2325.911579,370.102971,-8660.409521,-306.438199
2325.911906,1628.453072,-9474.636058,-306.438199
2325.912234,1258.350101,-9918.759623,-612.876398
2325.912561,1406.391290,-11843.295072,-383.047749
2325.912889,888.247130,-12879.583391,-306.438199
2325.913216,444.123565,-12139.377449,-229.828649
2325.913544,-444.123565,-11473.192101,-919.314598
2325.913871,-962.267725,-10732.986159,-842.705048
2325.914199,-1702.473667,-9622.677246,-229.828649
2325.914526,-1480.411884,-8438.347739,153.219100
2325.914854,-1036.288319,-7624.121203,229.828649
2325.915181,-666.185348,-7994.224174,0.000000
2325.915509,-444.123565,-7550.100608,-383.047749
2325.915837,-740.205942,-7920.203579,536.266849
2325.916164,-888.247130,-9400.615463,-383.047749
2325.916492,296.082377,-10436.903782,-919.314598
2325.916819,1258.350101,-10140.821405,-919.314598
2325.917147,1110.308913,-10881.027347,0.000000
2325.917474,1036.288319,-11177.109724,842.705048
2325.917802,370.102971,-10732.986159,842.705048
2325.918129,0.000000,-10140.821405,0.000000
2325.918457,-962.267725,-9548.656652,0.000000
2325.918784,-1110.308913,-8512.368333,-459.657299
2325.919112,-1036.288319,-8364.327145,-383.047749
2325.919439,-370.102971,-9400.615463,0.000000
2325.919767,-74.020594,-8808.450710,153.219100
2325.920094,148.041188,-8660.409521,76.609550
2325.920422,444.123565,-8364.327145,459.657299
2325.920750,1110.308913,-8660.409521,-229.828649
2325.921077,1480.411884,-8586.388927,0.000000
2325.921405,1776.494261,-9992.780217,-612.876398
2325.921732,1850.514855,-10658.965565,0.000000
2325.922060,1258.350101,-10732.986159,76.609550
2325.922387,296.082377,-10807.006753,-766.095498
2325.922715,0.000000,-11251.130318,-919.314598
2325.923042,-148.041188,-11843.295072,-1378.971896
2325.923370,-444.123565,-11473.192101,-1302.362347
2325.923697,0.000000,-10140.821405,-842.705048
2325.924025,296.082377,-9178.553681,-229.828649
2325.924352,740.205942,-8290.306550,1072.533697
2325.924680,814.226536,-7402.059420,1302.362347
2325.925007,1036.288319,-7698.141797,1302.362347
2325.925335,1702.473667,-8216.285956,153.219100
2325.925663,1628.453072,-8882.471304,0.000000
2325.925990,1628.453072,-9844.739029,0.000000
2325.926318,1258.350101,-11177.109724,-383.047749
2325.926645,1036.288319,-12879.583391,-689.485948
2325.926973,222.061783,-12065.356855,-919.314598
2325.927300,74.020594,-11251.130318,-612.876398
2325.927628,-222.061783,-10288.862594,-459.657299
2325.927955,0.000000,-9252.574275,383.047749
2325.928283,0.000000,-8068.244768,919.314598
2325.928610,0.000000,-6957.935855,1225.752797
2325.928938,148.041188,-6291.750507,995.924147
2325.929265,0.000000,-5995.668130,0.000000
2325.929593,518.144159,-7476.080014,-306.438199
2325.929921,518.144159,-9252.574275,-766.095498
2325.930248,1406.391290,-10584.944971,-1302.362347
2325.930576,2294.638420,-11695.253884,-1685.410096
2325.930903,2590.720797,-12435.459826,-1149.143247
2325.931231,2590.720797,-12731.542202,-689.485948
2325.931558,2368.659014,-11917.315666,153.219100
2325.931886,1480.411884,-10807.006753,459.657299
2325.932213,444.123565,-9992.780217,0.000000
2325.932541,-814.226536,-9104.533087,0.000000
2325.932868,-1554.432478,-8142.265362,-383.047749
2325.933196,-2072.576638,-8438.347739,-689.485948
2325.933523,-2072.576638,-8882.471304,-1072.533697
2325.933851,-962.267725,-9548.656652,-1378.971896
2325.934178,-592.164754,-9252.574275,-689.485948
2325.934506,74.020594,-8808.450710,-612.876398
2325.934834,1036.288319,-9622.677246,-689.485948
2325.935161,1628.453072,-11103.089130,-536.266849
2325.935489,1110.308913,-11103.089130,76.609550
2325.935816,518.144159,-10658.965565,766.095498
2325.936144,-296.082377,-10436.903782,536.266849
2325.936471,-1850.514855,-10066.800811,383.047749
2325.936799,-2516.700203,-10214.842000,-689.485948
2325.937126,-2960.823768,-10214.842000,-995.924147
2325.937454,-2516.700203,-9474.636058,-1072.533697
2325.937781,-1480.411884,-9030.512492,-842.705048
2325.938109,-1184.329507,-7698.141797,-383.047749
2325.938436,-888.247130,-6883.915261,1378.971896
2325.938764,814.226536,-6957.935855,1225.752797
2325.939091,1480.411884,-8216.285956,995.924147
2325.939419,1332.370696,-8956.491898,766.095498
2325.939747,1628.453072,-9770.718434,229.828649
2325.940074,1184.329507,-11843.295072,-229.828649
2325.940402,74.020594,-13175.665768,-766.095498
2325.940729,-962.267725,-12879.583391,-1608.800546
2325.941057,-1036.288319,-11621.233289,-1762.019645
2325.941384,-888.247130,-11103.089130,-1302.362347
2325.941712,-222.061783,-10214.842000,-1072.533697
2325.942039,0.000000,-8956.491898,76.609550
2325.942367,222.061783,-7550.100608,1225.752797
2325.942694,814.226536,-6957.935855,1378.971896
2325.943022,1628.453072,-7179.997637,919.314598
2325.943349,1258.350101,-7402.059420,995.924147
2325.943677,1480.411884,-9030.512492,-612.876398
2325.944004,2516.700203,-10807.006753,-919.314598
2325.944332,2812.782580,-11399.171507,-842.705048
2325.944660,2590.720797,-12361.439231,-1225.752797
2325.944987,1702.473667,-12583.501014,-1072.533697
2325.945315,1258.350101,-12065.356855,-1378.971896
2325.945642,592.164754,-11103.089130,-1225.752797
2325.945970,74.020594,-10066.800811,-306.438199
2325.946297,74.020594,-8512.368333,76.609550
2325.946625,148.041188,-7698.141797,689.485948
2325.946952,370.102971,-8068.244768,536.266849
2325.947280,296.082377,-8586.388927,1072.533697
2325.947607,518.144159,-8290.306550,995.924147
2325.947935,1406.391290,-7550.100608,229.828649
2325.948262,1554.432478,-8660.409521,-842.705048
2325.948590,1406.391290,-9104.533087,0.000000
2325.948918,1702.473667,-10510.924376,-229.828649
2325.949245,2072.576638,-11843.295072,306.438199
2325.949573,1036.288319,-11399.171507,76.609550
2325.949900,592.164754,-11621.233289,-842.705048
2325.950228,-888.247130,-10881.027347,0.000000
2325.950555,-2220.617826,-10214.842000,-612.876398
2325.950883,-1480.411884,-9770.718434,-1149.143247
2325.951210,-2072.576638,-8438.347739,-919.314598
2325.951538,-1776.494261,-7846.182985,-153.219100
2325.951865,-888.247130,-7846.182985,-153.219100
2325.952193,0.000000,-7846.182985,306.438199
2325.952520,296.082377,-7920.203579,536.266849
2325.952848,592.164754,-8956.491898,-612.876398
2325.953175,888.247130,-10436.903782,-766.095498
2325.953503,1184.329507,-11399.171507,-459.657299
2325.953831,1258.350101,-12287.418637,-229.828649
2325.954158,296.082377,-12879.583391,-306.438199
2325.954486,-444.123565,-12583.501014,-383.047749
2325.954813,-1184.329507,-11029.068536,-766.095498
2325.955141,-1776.494261,-10288.862594,-1072.533697
2325.955468,-2294.638420,-9548.656652,-689.485948
2325.955796,-1332.370696,-8882.471304,-153.219100
2325.956123,-1036.288319,-7402.059420,536.266849
2325.956451,-666.185348,-6661.853478,0.000000
2325.956778,444.123565,-7624.121203,153.219100
2325.957106,1184.329507,-8660.409521,0.000000
2325.957434,1406.391290,-9622.677246,-306.438199
2325.957761,1776.494261,-10955.047942,-536.266849
2325.958089,1480.411884,-11029.068536,-995.924147
2325.958416,1480.411884,-11843.295072,-459.657299
2325.958744,370.102971,-11177.109724,0.000000
2325.959071,-296.082377,-10807.006753,-383.047749
2325.959399,-296.082377,-9770.718434,153.219100
2325.959726,-888.247130,-9400.615463,-612.876398
2325.960054,-1332.370696,-8216.285956,-383.047749
2325.960382,-962.267725,-7846.182985,0.000000
2325.960709,0.000000,-8364.327145,0.000000
2325.961037,370.102971,-8586.388927,229.828649
2325.961364,1184.329507,-8364.327145,689.485948
2325.961692,2146.597232,-7994.224174,306.438199
2325.962019,2738.761985,-9104.533087,0.000000
2325.962347,2442.679609,-9622.677246,306.438199
2325.962675,2368.659014,-10436.903782,0.000000
2325.963002,1702.473667,-11103.089130,0.000000
2325.963330,1184.329507,-11251.130318,0.000000
2325.963657,666.185348,-11399.171507,-1225.752797
2325.963985,-962.267725,-11103.089130,-766.095498
2325.964312,-296.082377,-11103.089130,-995.924147
2325.964640,0.000000,-10510.924376,-1302.362347
2325.964967,-74.020594,-9844.739029,-459.657299
2325.965295,518.144159,-8660.409521,229.828649
2325.965623,1110.308913,-7920.203579,229.828649
2325.965950,1332.370696,-7476.080014,536.266849
2325.966278,1184.329507,-7624.121203,1378.971896
2325.966605,1332.370696,-8586.388927,-229.828649
2325.966933,1776.494261,-10436.903782,-612.876398
2325.967260,1702.473667,-10955.047942,-459.657299
2325.967588,370.102971,-11547.212695,-766.095498
2325.967916,-592.164754,-12731.542202,-459.657299
2325.968243,-1628.453072,-12065.356855,-689.485948
2325.968571,-1554.432478,-11029.068536,-995.924147
2325.968898,-1702.473667,-9844.739029,-842.705048
2325.969226,-1850.514855,-8290.306550,536.266849
2325.969553,-1258.350101,-7105.977043,1149.143247
2325.969881,-1184.329507,-6513.812290,1608.800546
2325.970208,-1924.535449,-6809.894666,1302.362347
2325.970536,-222.061783,-6735.874072,-229.828649
2325.970864,-222.061783,-8512.368333,-1225.752797
2325.971191,-370.102971,-9918.759623,-919.314598
2325.971519,592.164754,-11103.089130,-1149.143247
2325.971846,1258.350101,-11547.212695,-1302.362347
2325.972174,1776.494261,-12583.501014,-536.266849
2325.972501,1702.473667,-12435.459826,0.000000
2325.972829,1110.308913,-11251.130318,766.095498
2325.973157,444.123565,-10510.924376,1225.752797
2325.973484,0.000000,-8660.409521,0.000000
2325.973812,-592.164754,-8364.327145,0.000000
2325.974139,-962.267725,-8216.285956,0.000000
2325.974467,-592.164754,-8290.306550,-229.828649
2325.974794,74.020594,-9252.574275,-1302.362347
2325.975122,74.020594,-9992.780217,-1072.533697
2325.975449,592.164754,-9104.533087,-1072.533697
2325.975777,1776.494261,-9918.759623,-2221.676944
2325.976105,1924.535449,-10510.924376,-1225.752797
2325.976432,2072.576638,-10658.965565,0.000000
2325.976760,1998.556043,-11177.109724,766.095498
2325.977087,1406.391290,-10362.883188,1302.362347
2325.977415,666.185348,-9992.780217,689.485948
2325.977742,-1406.391290,-9400.615463,229.828649
2325.978070,-1924.535449,-9622.677246,0.000000
2325.978398,-1406.391290,-10066.800811,-1302.362347
2325.978725,-444.123565,-9918.759623,-1532.190996
2325.979053,0.000000,-9252.574275,-689.485948
2325.979380,444.123565,-8290.306550,229.828649
2325.979708,1332.370696,-7476.080014,383.047749
2325.980035,1998.556043,-7846.182985,1149.143247
2325.980363,1924.535449,-7994.224174,459.657299
2325.980690,2146.597232,-9178.553681,689.485948
2325.981018,2368.659014,-10288.862594,153.219100
2325.981346,1406.391290,-10658.965565,383.047749
2325.981673,-518.144159,-11177.109724,0.000000
2325.982001,-1702.473667,-11991.336260,0.000000
2325.982328,-1850.514855,-11843.295072,-1532.190996
2325.982656,-1628.453072,-10214.842000,-1608.800546
2325.982983,-1702.473667,-9770.718434,-1072.533697
2325.983311,-1480.411884,-8882.471304,229.828649
2325.983639,0.000000,-7920.203579,536.266849
2325.983966,888.247130,-7550.100608,919.314598
2325.984294,888.247130,-7328.038826,153.219100
2325.984621,1702.473667,-8438.347739,0.000000
2325.984949,1702.473667,-8808.450710,-383.047749
2325.985276,1406.391290,-9992.780217,-995.924147
2325.985604,1554.432478,-11695.253884,-1072.533697
2325.985931,1628.453072,-12583.501014,-766.095498
2325.986259,740.205942,-12287.418637,-612.876398
2325.986587,592.164754,-11843.295072,-612.876398
2325.986914,-148.041188,-11325.150913,-612.876398
2325.987242,-888.247130,-9770.718434,612.876398
2325.987569,-888.247130,-8438.347739,153.219100
2325.987897,-592.164754,-7920.203579,229.828649
2325.988224,-296.082377,-7994.224174,229.828649
2325.988552,-592.164754,-8068.244768,0.000000
2325.988880,-1036.288319,-8142.265362,0.000000
2325.989207,74.020594,-8364.327145,-1532.190996
2325.989535,370.102971,-8068.244768,-1532.190996
2325.989862,0.000000,-9474.636058,-612.876398
2325.990190,222.061783,-10584.944971,153.219100
2325.990517,1036.288319,-11251.130318,0.000000
2325.990845,740.205942,-11325.150913,0.000000
2325.991172,-222.061783,-11177.109724,689.485948
2325.991500,-1110.308913,-10066.800811,459.657299
2325.991828,-814.226536,-9548.656652,0.000000
2325.992155,-1110.308913,-10140.821405,-1302.362347
2325.992483,-1480.411884,-9252.574275,-919.314598
2325.992810,-814.226536,-7920.203579,-766.095498
2325.993138,0.000000,-7550.100608,0.000000
2325.993465,1332.370696,-7624.121203,-612.876398
2325.993793,1554.432478,-7624.121203,0.000000
2325.994121,1924.535449,-8956.491898,0.000000
2325.994448,2368.659014,-10362.883188,0.000000
2325.994776,2220.617826,-10658.965565,0.000000
2325.995103,1332.370696,-11251.130318,229.828649
2325.995431,0.000000,-12583.501014,76.609550
2325.995758,-592.164754,-12879.583391,0.000000
2325.996086,-1332.370696,-11769.274478,-1225.752797
2325.996413,-740.205942,-11177.109724,-1072.533697
2325.996741,-962.267725,-9474.636058,-1302.362347
2325.997069,-814.226536,-8364.327145,-306.438199
2325.997396,0.000000,-7476.080014,842.705048
2325.997724,592.164754,-7476.080014,536.266849
2325.998051,1628.453072,-7402.059420,-153.219100
2325.998379,2146.597232,-8068.244768,-459.657299
2325.998706,2442.679609,-8808.450710,0.000000
2325.999034,2294.638420,-10510.924376,306.438199
2325.999362,2072.576638,-11473.192101,459.657299
2325.999689,1924.535449,-11843.295072,0.000000
2326.000017,1554.432478,-11843.295072,-459.657299
2326.000344,296.082377,-11621.233289,-612.876398
2326.000672,0.000000,-10510.924376,-919.314598
2326.000999,-444.123565,-10140.821405,-383.047749
2326.001327,-740.205942,-8438.347739,-153.219100
2326.001654,-592.164754,-7846.182985,383.047749
2326.001982,-222.061783,-7920.203579,76.609550
2326.002310,0.000000,-8290.306550,0.000000
2326.002637,0.000000,-7772.162391,0.000000
2326.002965,592.164754,-7920.203579,-1072.533697
2326.003292,592.164754,-8586.388927,0.000000
2326.003620,222.061783,-9178.553681,0.000000
2326.003947,222.061783,-10066.800811,-153.219100
2326.004275,444.123565,-11325.150913,0.000000
2326.004603,-296.082377,-11473.192101,-383.047749
2326.004930,-1258.350101,-10807.006753,-689.485948
2326.005258,-1184.329507,-11843.295072,-459.657299
2326.005585,-1036.288319,-10807.006753,-1225.752797
2326.005913,-370.102971,-10955.047942,-1302.362347
2326.006240,-222.061783,-10140.821405,-842.705048
2326.006568,148.041188,-9178.553681,-459.657299
2326.006895,444.123565,-7698.141797,0.000000
2326.007223,370.102971,-7476.080014,306.438199
2326.007551,666.185348,-7624.121203,766.095498
2326.007878,962.267725,-8438.347739,306.438199
2326.008206,1406.391290,-9844.739029,-689.485948
2326.008533,740.205942,-10510.924376,0.000000
2326.008861,444.123565,-11547.212695,-383.047749
2326.009188,-296.082377,-12435.459826,-306.438199
2326.009516,-1184.329507,-13397.727550,0.000000
2326.009844,-740.205942,-12213.398043,-1149.143247
2326.010171,-1036.288319,-10288.862594,-612.876398
2326.010499,-1110.308913,-8068.244768,0.000000
2326.010826,-592.164754,-7550.100608,689.485948
2326.011154,0.000000,-6809.894666,1455.581446
2326.011481,74.020594,-6069.688724,766.095498
2326.011809,1036.288319,-6661.853478,536.266849
2326.012136,2072.576638,-7550.100608,153.219100
2326.012464,2220.617826,-8734.430116,0.000000
2326.012792,2220.617826,-10066.800811,306.438199
2326.013119,2146.597232,-11769.274478,0.000000
2326.013447,2442.679609,-12509.480420,0.000000
2326.013774,2294.638420,-12435.459826,-229.828649
2326.014102,1924.535449,-11843.295072,-229.828649
2326.014429,592.164754,-10436.903782,689.485948
2326.014757,-296.082377,-9326.594869,995.924147
2326.015085,-740.205942,-8438.347739,-306.438199
2326.015412,-962.267725,-7698.141797,-459.657299
2326.015740,-888.247130,-7254.018232,-1302.362347
2326.016067,-148.041188,-8364.327145,-1149.143247
2326.016395,814.226536,-9474.636058,-995.924147
2326.016722,1480.411884,-9326.594869,-919.314598
2326.017050,1850.514855,-9696.697840,-1149.143247
2326.017377,2146.597232,-10732.986159,0.000000
2326.017705,1924.535449,-11547.212695,0.000000
2326.018033,1850.514855,-11399.171507,306.438199
2326.018360,888.247130,-11103.089130,76.609550
2326.018688,0.000000,-10658.965565,229.828649
2326.019015,-222.061783,-11547.212695,0.000000
2326.019343,-1184.329507,-11029.068536,-689.485948
2326.019670,-888.247130,-10436.903782,-995.924147
2326.019998,-296.082377,-9770.718434,-1915.238745
2326.020326,-814.226536,-8882.471304,-1302.362347
2326.020653,74.020594,-8438.347739,-153.219100
2326.020981,1258.350101,-7698.141797,1072.533697
2326.021308,740.205942,-6957.935855,1378.971896
2326.021636,814.226536,-8734.430116,995.924147
2326.021963,1110.308913,-10214.842000,229.828649
2326.022291,296.082377,-9696.697840,229.828649
2326.022618,-666.185348,-9918.759623,76.609550
2326.022946,-1554.432478,-11695.253884,-306.438199
2326.023274,-2368.659014,-12509.480420,-536.266849
2326.023601,-2738.761985,-11029.068536,-919.314598
2326.023929,-2220.617826,-10510.924376,-1455.581446
2326.024256,-1702.473667,-9400.615463,-459.657299
2326.024584,-666.185348,-8364.327145,459.657299
2326.024911,-518.144159,-6587.832884,1302.362347
2326.025239,74.020594,-6513.812290,1378.971896
2326.025567,1702.473667,-7994.224174,612.876398
2326.025894,1702.473667,-7846.182985,229.828649
2326.026222,1776.494261,-8808.450710,-536.266849
2326.026549,1036.288319,-10288.862594,-689.485948
2326.026877,888.247130,-12139.377449,-1225.752797
2326.027204,740.205942,-12731.542202,-1072.533697
2326.027532,1110.308913,-13175.665768,-1225.752797
2326.027859,518.144159,-12139.377449,-1072.533697
2326.028187,370.102971,-10881.027347,76.609550
2326.028515,296.082377,-9770.718434,459.657299
2326.028842,0.000000,-7846.182985,383.047749
2326.029170,0.000000,-6735.874072,383.047749
2326.029497,0.000000,-7105.977043,0.000000
2326.029825,0.000000,-7846.182985,0.000000
2326.030152,518.144159,-8882.471304,153.219100
2326.030480,1110.308913,-9104.533087,-383.047749
2326.030808,1554.432478,-9844.739029,-1302.362347
2326.031135,1702.473667,-10955.047942,-1225.752797
2326.031463,1332.370696,-11695.253884,-766.095498
2326.031790,1332.370696,-11917.315666,0.000000
2326.032118,1702.473667,-11843.295072,0.000000
2326.032445,962.267725,-10584.944971,229.828649
2326.032773,-296.082377,-9400.615463,919.314598
2326.033100,-148.041188,-9696.697840,-536.266849
2326.033428,0.000000,-9622.677246,-995.924147
2326.033756,-296.082377,-9474.636058,-612.876398
2326.034083,-296.082377,-8216.285956,-306.438199
2326.034411,814.226536,-7920.203579,-459.657299
2326.034738,1332.370696,-7772.162391,76.609550
2326.035066,1850.514855,-7698.141797,-459.657299
2326.035393,1850.514855,-9992.780217,-1532.190996
2326.035721,2294.638420,-11103.089130,0.000000
2326.036049,1480.411884,-10362.883188,612.876398
2326.036376,740.205942,-10584.944971,919.314598
2326.036704,-296.082377,-11473.192101,459.657299
2326.037031,-1924.535449,-12065.356855,-229.828649
2326.037359,-2220.617826,-11399.171507,-995.924147
2326.037686,-2294.638420,-10881.027347,-1378.971896
2326.038014,-2220.617826,-9104.533087,-1455.581446
2326.038341,-1036.288319,-8438.347739,-842.705048
2326.038669,-888.247130,-7624.121203,612.876398
2326.038997,0.000000,-7698.141797,995.924147
2326.039324,1776.494261,-8142.265362,76.609550
2326.039652,1998.556043,-9104.533087,-766.095498
2326.039979,1850.514855,-9474.636058,-383.047749
2326.040307,1850.514855,-10732.986159,0.000000
2326.040634,1184.329507,-11843.295072,0.000000
2326.040962,666.185348,-11695.253884,76.609550
2326.041290,518.144159,-11843.295072,-612.876398
2326.041617,0.000000,-11399.171507,-1072.533697
2326.041945,-222.061783,-10732.986159,0.000000
2326.042272,-666.185348,-9326.594869,0.000000
2326.042600,-1258.350101,-8216.285956,306.438199
2326.042927,-666.185348,-7624.121203,536.266849
2326.043255,74.020594,-7772.162391,0.000000
2326.043582,0.000000,-8290.306550,0.000000
2326.043910,370.102971,-9326.594869,0.000000
2326.044238,740.205942,-8660.409521,-536.266849
2326.044565,1258.350101,-9696.697840,-1532.190996
2326.044893,74.020594,-9548.656652,-383.047749
2326.045220,-296.082377,-10066.800811,-229.828649
2326.045548,-370.102971,-10807.006753,-459.657299
2326.045875,0.000000,-10955.047942,-689.485948
2326.046203,444.123565,-10288.862594,-1072.533697
2326.046531,-444.123565,-9696.697840,0.000000
2326.046858,-296.082377,-10066.800811,306.438199
2326.047186,0.000000,-10140.821405,-383.047749
2326.047513,74.020594,-10288.862594,0.000000
2326.047841,518.144159,-9104.533087,-383.047749
2326.048168,1480.411884,-8142.265362,-306.438199
2326.048496,1406.391290,-7550.100608,306.438199
2326.048823,1702.473667,-7846.182985,612.876398
2326.049151,1406.391290,-9400.615463,459.657299
2326.049479,1480.411884,-10658.965565,0.000000
2326.049806,740.205942,-9992.780217,-153.219100
2326.050134,444.123565,-10436.903782,-459.657299
2326.050461,-592.164754,-11843.295072,0.000000
2326.050789,-444.123565,-12805.562797,-229.828649
2326.051116,-370.102971,-11917.315666,-995.924147
2326.051444,-1110.308913,-10362.883188,-612.876398
2326.051772,-888.247130,-9326.594869,-153.219100
2326.052099,222.061783,-8512.368333,-229.828649
2326.052427,222.061783,-7476.080014,536.266849
2326.052754,222.061783,-7031.956449,229.828649
2326.053082,1554.432478,-7179.997637,0.000000
2326.053409,1998.556043,-8216.285956,-229.828649
2326.053737,1406.391290,-9474.636058,306.438199
2326.054064,1702.473667,-10732.986159,0.000000
2326.054392,1110.308913,-11769.274478,229.828649
2326.054720,1110.308913,-11843.295072,0.000000
2326.055047,1184.329507,-11769.274478,-306.438199
2326.055375,0.000000,-10288.862594,153.219100
2326.055702,-666.185348,-9104.533087,536.266849
2326.056030,-1110.308913,-8512.368333,995.924147
2326.056357,-962.267725,-8512.368333,-459.657299
2326.056685,-1332.370696,-7698.141797,-766.095498
2326.057013,-1184.329507,-7698.141797,-1378.971896
2326.057340,-592.164754,-9474.636058,-1532.190996
2326.057668,0.000000,-10066.800811,-1225.752797
2326.057995,148.041188,-9622.677246,-842.705048
2326.058322,1258.350101,-10140.821405,-919.314598
2326.058650,1184.329507,-10510.924376,-459.657299
2326.058977,1110.308913,-10288.862594,459.657299
2326.059305,1110.308913,-10658.965565,1149.143247
2326.059632,1184.329507,-10436.903782,995.924147
2326.059959,222.061783,-10140.821405,153.219100
2326.060287,-740.205942,-9992.780217,383.047749
2326.060614,-962.267725,-10214.842000,-1608.800546
2326.060942,-1258.350101,-9992.780217,-1149.143247
2326.061269,-740.205942,-10436.903782,-2451.505594
2326.061597,0.000000,-9474.636058,-2068.457845
2326.061924,592.164754,-8290.306550,-766.095498
2326.062251,962.267725,-8142.265362,153.219100
2326.062579,1554.432478,-8364.327145,766.095498
2326.062906,1850.514855,-8660.409521,612.876398
2326.063234,1036.288319,-9400.615463,153.219100
2326.063561,518.144159,-9844.739029,459.657299
2326.063889,74.020594,-10436.903782,612.876398
2326.064216,-370.102971,-11177.109724,76.609550
2326.064543,-962.267725,-11843.295072,-306.438199
2326.064871,-814.226536,-12065.356855,-766.095498
2326.065198,-296.082377,-10881.027347,-1762.019645
2326.065526,-666.185348,-9326.594869,-1149.143247
2326.065853,-370.102971,-8512.368333,-536.266849
2326.066181,814.226536,-7402.059420,229.828649
2326.066508,1406.391290,-7031.956449,1149.143247
2326.066835,1036.288319,-7031.956449,1455.581446
2326.067163,1406.391290,-7698.141797,383.047749
2326.067490,1554.432478,-9030.512492,-383.047749
2326.067818,444.123565,-10362.883188,-766.095498
2326.068145,74.020594,-11473.192101,-995.924147
2326.068472,518.144159,-12287.418637,-612.876398
2326.068800,1184.329507,-12657.521608,-383.047749
2326.069127,888.247130,-11843.295072,-689.485948
2326.069455,1036.288319,-11177.109724,0.000000
2326.069782,370.102971,-9474.636058,536.266849
2326.070110,370.102971,-7994.224174,1072.533697
2326.070437,222.061783,-7698.141797,229.828649
2326.070764,518.144159,-7920.203579,-229.828649
2326.071092,1110.308913,-8290.306550,-536.266849
2326.071419,1036.288319,-8438.347739,-229.828649
2326.071747,962.267725,-9326.594869,-229.828649
2326.072074,1258.350101,-10214.842000,-1455.581446
2326.072402,296.082377,-11029.068536,-1532.190996
2326.072729,370.102971,-11547.212695,0.000000
2326.073056,592.164754,-10955.047942,153.219100
2326.073384,814.226536,-10807.006753,766.095498
2326.073711,74.020594,-10140.821405,383.047749
2326.074039,-518.144159,-9548.656652,1302.362347
2326.074366,-1332.370696,-9622.677246,-306.438199
2326.074693,-1110.308913,-9326.594869,-995.924147
2326.075021,-1406.391290,-8660.409521,-2374.896044
2326.075348,-1258.350101,-8290.306550,-1838.629195
2326.075676,0.000000,-8142.265362,-689.485948
2326.076003,814.226536,-7920.203579,306.438199
2326.076331,1184.329507,-8364.327145,383.047749
2326.076658,1554.432478,-9548.656652,229.828649
2326.076985,1258.350101,-10658.965565,842.705048
2326.077313,518.144159,-10288.862594,383.047749
2326.077640,74.020594,-10658.965565,612.876398
2326.077968,-370.102971,-11473.192101,229.828649
2326.078295,-1036.288319,-11769.274478,153.219100
2326.078623,-1258.350101,-11769.274478,-536.266849
2326.078950,-1110.308913,-9770.718434,-2528.115143
2326.079277,-962.267725,-9474.636058,-1915.238745
2326.079605,-814.226536,-8882.471304,-1072.533697
2326.079932,-518.144159,-7624.121203,76.609550
2326.080260,814.226536,-7476.080014,459.657299
2326.080587,2294.638420,-8438.347739,306.438199
2326.080915,2442.679609,-8808.450710,766.095498
2326.081242,2516.700203,-8956.491898,689.485948
2326.081569,1998.556043,-10288.862594,842.705048
2326.081897,666.185348,-11843.295072,229.828649
2326.082224,0.000000,-12139.377449,-383.047749
2326.082552,296.082377,-11917.315666,-842.705048
2326.082879,74.020594,-11325.150913,-842.705048
2326.083206,222.061783,-10288.862594,0.000000
2326.083534,0.000000,-9030.512492,459.657299
2326.083861,148.041188,-8586.388927,459.657299
2326.084189,814.226536,-7698.141797,0.000000
2326.084516,1406.391290,-7698.141797,0.000000
2326.084844,1628.453072,-8216.285956,306.438199
2326.085171,1628.453072,-8364.327145,459.657299
2326.085498,1406.391290,-9104.533087,153.219100
2326.085826,962.267725,-9252.574275,0.000000
2326.086153,518.144159,-9992.780217,-536.266849
2326.086481,222.061783,-11177.109724,-459.657299
2326.086808,592.164754,-11251.130318,-306.438199
2326.087136,1036.288319,-11399.171507,-536.266849
2326.087463,370.102971,-10807.006753,306.438199
2326.087790,0.000000,-10436.903782,383.047749
2326.088118,-518.144159,-9178.553681,459.657299
2326.088445,-888.247130,-9474.636058,-612.876398
2326.088773,-814.226536,-9030.512492,-842.705048
2326.089100,-148.041188,-8660.409521,-1149.143247
2326.089427,370.102971,-8142.265362,-459.657299
2326.089755,296.082377,-8290.306550,0.000000
2326.090082,370.102971,-9030.512492,76.609550
2326.090410,592.164754,-9548.656652,-1072.533697
2326.090737,222.061783,-10288.862594,-536.266849
2326.091065,222.061783,-11029.068536,-612.876398
2326.091392,-148.041188,-11251.130318,0.000000
2326.091719,-370.102971,-11843.295072,0.000000
2326.092047,-296.082377,-12509.480420,0.000000
2326.092374,-814.226536,-11621.233289,-612.876398
2326.092702,-1184.329507,-9696.697840,-383.047749
2326.093029,-1036.288319,-8956.491898,-1072.533697
2326.093357,-962.267725,-7994.224174,-842.705048
2326.093684,-296.082377,-7105.977043,153.219100
2326.094011,222.061783,-6587.832884,766.095498
2326.094339,370.102971,-7624.121203,766.095498
2326.094666,1332.370696,-8586.388927,153.219100
2326.094994,1628.453072,-9918.759623,306.438199
2326.095321,1258.350101,-10807.006753,459.657299
2326.095649,444.123565,-11991.336260,76.609550
2326.095976,1184.329507,-12287.418637,-383.047749
2326.096303,740.205942,-11917.315666,-383.047749
2326.096631,222.061783,-10732.986159,0.000000
2326.096958,0.000000,-9696.697840,536.266849
2326.097286,-740.205942,-8660.409521,842.705048
2326.097613,-814.226536,-7476.080014,459.657299
2326.097940,-370.102971,-6661.853478,-536.266849
2326.098268,518.144159,-7105.977043,-612.876398
2326.098595,1480.411884,-7994.224174,-153.219100
2326.098923,1480.411884,-9474.636058,76.609550
2326.099250,1702.473667,-10214.842000,612.876398
2326.099578,2220.617826,-10140.821405,0.000000
2326.099905,1924.535449,-10362.883188,-383.047749
2326.100232,518.144159,-11473.192101,153.219100
2326.100560,666.185348,-11547.212695,153.219100
2326.100887,444.123565,-10955.047942,0.000000
2326.101215,-666.185348,-10881.027347,0.000000
2326.101542,-888.247130,-10436.903782,-612.876398
2326.101870,-518.144159,-9918.759623,-1915.238745
2326.102197,-740.205942,-9400.615463,-1378.971896
2326.102524,-370.102971,-9696.697840,-1685.410096
2326.102852,296.082377,-8808.450710,-1608.800546
2326.103179,1258.350101,-8660.409521,-766.095498
2326.103507,1258.350101,-8586.388927,459.657299
2326.103834,2072.576638,-8956.491898,612.876398
2326.104161,2220.617826,-9622.677246,0.000000
2326.104489,1776.494261,-10140.821405,229.828649
2326.104816,1258.350101,-10732.986159,-842.705048
2326.105144,444.123565,-10807.006753,-383.047749
2326.105471,-148.041188,-11621.233289,-306.438199
2326.105799,-296.082377,-12583.501014,-689.485948
2326.106126,-814.226536,-11843.295072,-919.314598
2326.106453,-1036.288319,-9844.739029,-1225.752797
2326.106781,-1628.453072,-8512.368333,-383.047749
2326.107108,-666.185348,-7550.100608,0.000000
2326.107436,0.000000,-6957.935855,612.876398
2326.107763,518.144159,-6661.853478,995.924147
2326.108091,1036.288319,-7772.162391,689.485948
2326.108418,1184.329507,-8734.430116,536.266849
2326.108745,888.247130,-8882.471304,0.000000
2326.109073,0.000000,-9770.718434,-842.705048
2326.109400,-222.061783,-12435.459826,-1149.143247
2326.109728,0.000000,-12657.521608,-1072.533697
2326.110055,0.000000,-11991.336260,-995.924147
2326.110383,0.000000,-11103.089130,-536.266849
2326.110710,-370.102971,-10362.883188,612.876398
2326.111037,-444.123565,-8956.491898,689.485948
2326.111365,-814.226536,-7402.059420,919.314598
2326.111692,-444.123565,-7105.977043,153.219100
2326.112020,148.041188,-7105.977043,-383.047749
2326.112347,222.061783,-8142.265362,-153.219100
2326.112674,592.164754,-9992.780217,0.000000
2326.113002,518.144159,-10955.047942,0.000000
2326.113329,1110.308913,-11325.150913,-842.705048
2326.113657,814.226536,-11621.233289,-995.924147
2326.113984,740.205942,-11991.336260,-1455.581446
2326.114312,518.144159,-11399.171507,459.657299
2326.114639,666.185348,-10362.883188,919.314598
2326.114966,222.061783,-9474.636058,919.314598
2326.115294,-518.144159,-9104.533087,842.705048
2326.115621,-962.267725,-7920.203579,536.266849
2326.115949,-1702.473667,-7846.182985,-383.047749
2326.116276,-518.144159,-9252.574275,-2145.067394
2326.116604,0.000000,-8586.388927,-1915.238745
2326.116931,740.205942,-8068.244768,-1225.752797
2326.117258,1406.391290,-9326.594869,-229.828649
2326.117586,2516.700203,-10510.924376,689.485948
2326.117913,3108.864956,-10658.965565,76.609550
2326.118241,2220.617826,-10658.965565,459.657299
2326.118568,1702.473667,-10510.924376,536.266849
2326.118896,962.267725,-10658.965565,76.609550
2326.119223,0.000000,-10955.047942,76.609550
2326.119550,-518.144159,-11029.068536,-536.266849
2326.119878,-1184.329507,-11029.068536,-689.485948
2326.120205,-1480.411884,-9474.636058,-1685.410096
2326.120533,-1332.370696,-8660.409521,-1225.752797
2326.120860,-518.144159,-8438.347739,-612.876398
2326.121187,370.102971,-6883.915261,76.609550
2326.121515,1702.473667,-7476.080014,459.657299
2326.121842,2294.638420,-8808.450710,919.314598
2326.122170,2442.679609,-8956.491898,842.705048
2326.122497,2590.720797,-9770.718434,0.000000
2326.122825,1036.288319,-10807.006753,689.485948
2326.123152,222.061783,-11917.315666,-995.924147
2326.123479,-444.123565,-11991.336260,-1225.752797
2326.123807,-666.185348,-11843.295072,-1149.143247
2326.124134,-370.102971,-11325.150913,-1149.143247
2326.124462,222.061783,-10807.006753,0.000000
2326.124789,0.000000,-9400.615463,383.047749
2326.125117,-370.102971,-7550.100608,1302.362347
2326.125444,444.123565,-7698.141797,1072.533697
2326.125771,592.164754,-7254.018232,229.828649
2326.126099,1110.308913,-8142.265362,0.000000
2326.126426,1184.329507,-8956.491898,459.657299
2326.126754,666.185348,-8956.491898,995.924147
2326.127081,888.247130,-10066.800811,-383.047749
2326.127408,518.144159,-11769.274478,-1072.533697
2326.127736,-444.123565,-11399.171507,-689.485948
2326.128063,-370.102971,-11029.068536,-766.095498
2326.128391,0.000000,-10955.047942,-383.047749
2326.128718,-444.123565,-10066.800811,229.828649
2326.129046,-592.164754,-8882.471304,1072.533697
2326.129373,-1110.308913,-8808.450710,766.095498
2326.129700,-666.185348,-8512.368333,76.609550
2326.130028,-592.164754,-9030.512492,-612.876398
2326.130355,-1036.288319,-8808.450710,-1225.752797
2326.130683,0.000000,-9326.594869,-1302.362347
2326.131010,296.082377,-9474.636058,-766.095498
2326.131338,0.000000,-9326.594869,-612.876398
2326.131665,814.226536,-9622.677246,-766.095498
2326.131992,1406.391290,-11029.068536,-612.876398
2326.132320,1184.329507,-11251.130318,-383.047749
2326.132647,444.123565,-11251.130318,153.219100
2326.132975,148.041188,-11251.130318,0.000000
2326.133302,0.000000,-11103.089130,-383.047749
2326.133630,-222.061783,-11399.171507,383.047749
2326.133957,-592.164754,-9474.636058,-612.876398
2326.134284,-666.185348,-8216.285956,-689.485948
2326.134612,148.041188,-8216.285956,-689.485948
2326.134939,814.226536,-7994.224174,-306.438199
2326.135267,814.226536,-7698.141797,459.657299
2326.135594,1110.308913,-8438.347739,689.485948
2326.135921,1406.391290,-9252.574275,459.657299
2326.136249,1184.329507,-10288.862594,0.000000
2326.136576,1110.308913,-10584.944971,-153.219100
2326.136904,814.226536,-11473.192101,0.000000
2326.137231,666.185348,-11843.295072,-153.219100
2326.137559,814.226536,-11547.212695,0.000000
2326.137886,888.247130,-10584.944971,-229.828649
2326.138213,222.061783,-9696.697840,229.828649
2326.138541,-296.082377,-7550.100608,0.000000
2326.138868,222.061783,-7402.059420,-229.828649
2326.139196,518.144159,-7254.018232,153.219100
2326.139523,814.226536,-7698.141797,306.438199
2326.139851,1258.350101,-8216.285956,76.609550
2326.140178,1554.432478,-9474.636058,0.000000
2326.140505,666.185348,-10288.862594,536.266849
2326.140833,148.041188,-10288.862594,383.047749
2326.141160,-222.061783,-9844.739029,-383.047749
2326.141488,-222.061783,-11473.192101,-229.828649
2326.141815,-296.082377,-10807.006753,-306.438199
2326.142142,-296.082377,-10140.821405,153.219100
2326.142470,-444.123565,-10214.842000,689.485948
2326.142797,-592.164754,-9844.739029,0.000000
2326.143125,-814.226536,-9178.553681,-459.657299
2326.143452,-888.247130,-9622.677246,-612.876398
2326.143780,-222.061783,-9770.718434,-1915.238745
2326.144107,-148.041188,-9326.594869,-1302.362347
2326.144434,222.061783,-9252.574275,-766.095498
2326.144762,814.226536,-9474.636058,229.828649
2326.145089,1110.308913,-9474.636058,459.657299
2326.145417,962.267725,-9770.718434,153.219100
2326.145744,370.102971,-9992.780217,-536.266849
2326.146072,0.000000,-9474.636058,-383.047749
2326.146399,-518.144159,-10066.800811,-689.485948
2326.146726,-888.247130,-10807.006753,-612.876398
2326.147054,-814.226536,-11547.212695,-689.485948
2326.147381,-518.144159,-11177.109724,-1302.362347
2326.147709,-592.164754,-10436.903782,-1072.533697
2326.148036,-370.102971,-9622.677246,-383.047749
2326.148364,-148.041188,-8216.285956,0.000000
2326.148691,0.000000,-7105.977043,0.000000
2326.149018,444.123565,-7624.121203,612.876398
2326.149346,1110.308913,-7920.203579,766.095498
2326.149673,1110.308913,-8364.327145,689.485948
2326.150001,814.226536,-8882.471304,689.485948
2326.150328,1258.350101,-10510.924376,-689.485948
2326.150655,740.205942,-11843.295072,-842.705048
2326.150983,222.061783,-11917.315666,-919.314598
2326.151310,1110.308913,-11621.233289,-1302.362347
2326.151638,1554.432478,-11325.150913,-995.924147
2326.151965,1702.473667,-10214.842000,153.219100
2326.152293,1406.391290,-8660.409521,1149.143247
2326.152620,740.205942,-8216.285956,1378.971896
2326.152947,0.000000,-7698.141797,76.609550
2326.153275,222.061783,-7328.038826,-612.876398
2326.153602,444.123565,-8068.244768,-995.924147
2326.153930,74.020594,-9622.677246,0.000000
2326.154257,148.041188,-10732.986159,383.047749
2326.154585,592.164754,-10807.006753,-153.219100
2326.154912,370.102971,-11473.192101,-383.047749
2326.155239,444.123565,-11843.295072,-612.876398
2326.155567,962.267725,-11251.130318,76.609550
2326.155894,666.185348,-9918.759623,766.095498
2326.156222,592.164754,-9474.636058,995.924147
2326.156549,370.102971,-9030.512492,536.266849
2326.156876,-888.247130,-8882.471304,842.705048
2326.157204,-370.102971,-9548.656652,689.485948
2326.157531,-296.082377,-9252.574275,-842.705048
2326.157859,-296.082377,-9474.636058,-1915.238745
2326.158186,0.000000,-9400.615463,-1072.533697
2326.158514,444.123565,-9104.533087,-229.828649
2326.158841,1184.329507,-9770.718434,919.314598
2326.159169,1776.494261,-9696.697840,1608.800546
2326.159496,1702.473667,-9622.677246,1685.410096
2326.159824,888.247130,-9622.677246,766.095498
2326.160151,518.144159,-9844.739029,0.000000
2326.160479,-518.144159,-10436.903782,-306.438199
2326.160806,-1406.391290,-11103.089130,-459.657299
2326.161134,-1628.453072,-11177.109724,-1608.800546
2326.161461,-1850.514855,-9992.780217,-2374.896044
2326.161789,-1628.453072,-9474.636058,-1991.848295
2326.162116,-962.267725,-8586.388927,-1225.752797
2326.162444,0.000000,-8142.265362,-459.657299
2326.162771,0.000000,-7698.141797,306.438199
2326.163099,592.164754,-8290.306550,689.485948
2326.163426,1184.329507,-8734.430116,306.438199
2326.163754,1332.370696,-9770.718434,1072.533697
2326.164082,1036.288319,-10066.800811,153.219100
2326.164409,518.144159,-11547.212695,-842.705048
2326.164737,370.102971,-12657.521608,-995.924147
2326.165064,444.123565,-11843.295072,-1532.190996
2326.165392,814.226536,-11177.109724,-1991.848295
2326.165719,666.185348,-10955.047942,-1072.533697
2326.166047,666.185348,-9844.739029,306.438199
2326.166374,1258.350101,-9030.512492,1072.533697
2326.166702,740.205942,-7920.203579,1149.143247
2326.167029,1184.329507,-7254.018232,766.095498
2326.167357,888.247130,-7179.997637,842.705048
2326.167684,444.123565,-8364.327145,842.705048
2326.168012,370.102971,-9918.759623,306.438199
2326.168339,222.061783,-10510.924376,76.609550
2326.168667,0.000000,-10214.842000,-689.485948
2326.168994,-222.061783,-10955.047942,-766.095498
2326.169322,296.082377,-11325.150913,-459.657299
2326.169650,666.185348,-10584.944971,229.828649
2326.169977,296.082377,-9622.677246,612.876398
2326.170305,444.123565,-9326.594869,766.095498
2326.170632,814.226536,-8734.430116,459.657299
2326.170960,0.000000,-8142.265362,-536.266849
2326.171287,0.000000,-8142.265362,0.000000
2326.171615,-518.144159,-8586.388927,-536.266849
2326.171942,222.061783,-9178.553681,-536.266849
2326.172270,592.164754,-9474.636058,-842.705048
2326.172597,740.205942,-9918.759623,-689.485948
2326.172925,2072.576638,-10955.047942,-306.438199
2326.173252,1924.535449,-11029.068536,0.000000
2326.173580,888.247130,-11325.150913,0.000000
2326.173907,592.164754,-10732.986159,76.609550
2326.174235,518.144159,-10658.965565,0.000000
2326.174562,74.020594,-10584.944971,-919.314598
2326.174890,-1184.329507,-10807.006753,-995.924147
2326.175218,-1850.514855,-9474.636058,-1608.800546
2326.175545,-1554.432478,-8586.388927,-1072.533697
2326.175873,-1702.473667,-8216.285956,-842.705048
2326.176200,-1036.288319,-8290.306550,-919.314598
2326.176528,74.020594,-8364.327145,0.000000
2326.176855,148.041188,-8290.306550,306.438199
2326.177183,814.226536,-9474.636058,459.657299
2326.177510,1776.494261,-10066.800811,536.266849
2326.177838,1036.288319,-9844.739029,612.876398
2326.178165,1258.350101,-11547.212695,-459.657299
2326.178493,888.247130,-11843.295072,-306.438199
2326.178820,296.082377,-11547.212695,-1149.143247
2326.179148,444.123565,-10510.924376,-1225.752797
2326.179475,-222.061783,-9474.636058,-612.876398
2326.179803,-444.123565,-8290.306550,-459.657299
2326.180131,296.082377,-8290.306550,689.485948
2326.180458,444.123565,-8290.306550,919.314598
2326.180786,74.020594,-7328.038826,766.095498
2326.181113,814.226536,-7402.059420,766.095498
2326.181441,518.144159,-8660.409521,766.095498
2326.181768,296.082377,-10066.800811,689.485948
2326.182096,370.102971,-10066.800811,306.438199
2326.182423,444.123565,-10658.965565,-459.657299
2326.182751,-370.102971,-11103.089130,-842.705048
2326.183078,-296.082377,-10658.965565,0.000000
2326.183406,370.102971,-10584.944971,0.000000
2326.183733,666.185348,-10658.965565,229.828649
2326.184061,518.144159,-9622.677246,76.609550
2326.184388,370.102971,-8882.471304,0.000000
2326.184716,444.123565,-8438.347739,306.438199
2326.185043,444.123565,-8734.430116,383.047749
2326.185371,1036.288319,-9252.574275,0.000000
2326.185699,740.205942,-9252.574275,0.000000
2326.186026,814.226536,-9770.718434,76.609550
2326.186354,962.267725,-9992.780217,229.828649
2326.186681,888.247130,-9548.656652,0.000000
2326.187009,0.000000,-9622.677246,-306.438199
2326.187336,-296.082377,-10066.800811,-1378.971896
2326.187664,-296.082377,-10584.944971,-995.924147
2326.187991,-148.041188,-11103.089130,-919.314598
2326.188319,-148.041188,-11029.068536,-919.314598
2326.188646,-740.205942,-11177.109724,-459.657299
2326.188974,-592.164754,-10955.047942,-459.657299
2326.189301,0.000000,-9400.615463,-995.924147
2326.189629,-814.226536,-8216.285956,-1072.533697
2326.189956,0.000000,-7846.182985,0.000000
2326.190284,592.164754,-8290.306550,459.657299
2326.190611,888.247130,-8290.306550,306.438199
2326.190939,888.247130,-8512.368333,76.609550
2326.191267,740.205942,-9326.594869,-459.657299
2326.191594,1110.308913,-10436.903782,-153.219100
2326.191922,0.000000,-10881.027347,-1762.019645
2326.192249,222.061783,-11473.192101,-1532.190996
2326.192577,888.247130,-11325.150913,-1378.971896
2326.192904,1258.350101,-10732.986159,-459.657299
2326.193232,1332.370696,-9844.739029,76.609550
2326.193559,666.185348,-9104.533087,459.657299
2326.193887,148.041188,-8068.244768,1149.143247
2326.194214,148.041188,-7846.182985,306.438199
2326.194542,444.123565,-8438.347739,-306.438199
2326.194869,222.061783,-8290.306550,-383.047749
2326.195197,0.000000,-9252.574275,153.219100
2326.195524,148.041188,-10732.986159,229.828649
2326.195852,370.102971,-11029.068536,0.000000
2326.196180,296.082377,-10732.986159,-1072.533697
2326.196507,296.082377,-10362.883188,0.000000
2326.196835,444.123565,-10732.986159,76.609550
2326.197162,148.041188,-9622.677246,306.438199
2326.197490,-296.082377,-9178.553681,612.876398
2326.197817,-666.185348,-9104.533087,766.095498
2326.198145,-592.164754,-8882.471304,459.657299
2326.198472,-444.123565,-8882.471304,0.000000
2326.198800,-740.205942,-9474.636058,-1149.143247
2326.199127,-370.102971,-10436.903782,-1225.752797
2326.199455,-296.082377,-9918.759623,-766.095498
2326.199782,370.102971,-9622.677246,0.000000
2326.200110,666.185348,-10140.821405,536.266849
2326.200437,1258.350101,-9474.636058,1225.752797
2326.200765,1554.432478,-9548.656652,689.485948
2326.201092,962.267725,-9252.574275,536.266849
2326.201420,-222.061783,-9400.615463,612.876398
2326.201748,-296.082377,-9548.656652,229.828649
2326.202075,-1036.288319,-10066.800811,0.000000
2326.202403,-962.267725,-10732.986159,-1225.752797
2326.202730,-296.082377,-10732.986159,-2068.457845
2326.203058,-370.102971,-10584.944971,-1455.581446
2326.203385,0.000000,-9696.697840,-1072.533697
2326.203713,888.247130,-9104.533087,0.000000
2326.204040,888.247130,-8216.285956,306.438199
2326.204368,1036.288319,-8364.327145,153.219100
2326.204695,1110.308913,-9400.615463,229.828649
2326.205023,1406.391290,-9178.553681,229.828649
2326.205350,1184.329507,-9326.594869,-229.828649
2326.205678,814.226536,-10732.986159,-536.266849
2326.206005,0.000000,-11177.109724,-689.485948
2326.206333,592.164754,-11399.171507,-1302.362347
2326.206661,1258.350101,-10955.047942,-1762.019645
2326.206988,1406.391290,-10658.965565,-842.705048
2326.207316,1480.411884,-9474.636058,459.657299
2326.207643,1924.535449,-8956.491898,1072.533697
2326.207971,1110.308913,-8216.285956,1838.629195
2326.208298,1702.473667,-8364.327145,536.266849
2326.208626,740.205942,-7846.182985,306.438199
2326.208953,0.000000,-9252.574275,76.609550
2326.209281,-444.123565,-10214.842000,-536.266849
2326.209608,-962.267725,-10436.903782,-919.314598
2326.209936,-888.247130,-10436.903782,-995.924147
2326.210263,-444.123565,-10584.944971,-1225.752797
2326.210591,-592.164754,-9770.718434,-153.219100
2326.210918,222.061783,-9474.636058,459.657299
2326.211246,888.247130,-9548.656652,1072.533697
2326.211573,962.267725,-8512.368333,1072.533697
2326.211901,518.144159,-7920.203579,919.314598
2326.212229,148.041188,-8290.306550,689.485948
2326.212556,0.000000,-9178.553681,612.876398
2326.212884,296.082377,-9992.780217,-612.876398
2326.213211,592.164754,-10658.965565,-1225.752797
2326.213539,370.102971,-10732.986159,-995.924147
2326.213866,222.061783,-10140.821405,-766.095498
2326.214194,962.267725,-10066.800811,-153.219100
2326.214521,962.267725,-10288.862594,-459.657299
2326.214849,814.226536,-9622.677246,306.438199
2326.215176,296.082377,-9400.615463,612.876398
2326.215504,222.061783,-9252.574275,0.000000
2326.215831,-296.082377,-9474.636058,-383.047749
2326.216159,-888.247130,-10140.821405,-919.314598
2326.216486,-2072.576638,-10066.800811,-1149.143247
2326.216814,-2220.617826,-10658.965565,-1915.238745
2326.217141,-1332.370696,-10140.821405,-1991.848295
2326.217469,-370.102971,-9400.615463,-1302.362347
2326.217797,0.000000,-9326.594869,-306.438199
2326.218124,1110.308913,-9770.718434,459.657299
2326.218452,1628.453072,-9474.636058,919.314598
2326.218779,1776.494261,-9252.574275,766.095498
2326.219107,814.226536,-9548.656652,459.657299
2326.219434,444.123565,-9474.636058,0.000000
2326.219762,370.102971,-9622.677246,-842.705048
2326.220089,-148.041188,-10955.047942,-689.485948
2326.220417,296.082377,-9770.718434,-995.924147
2326.220744,962.267725,-9696.697840,-459.657299
2326.221072,1406.391290,-10214.842000,76.609550
2326.221399,518.144159,-9326.594869,612.876398
2326.221727,962.267725,-9252.574275,229.828649
2326.222054,444.123565,-8216.285956,0.000000
2326.222382,444.123565,-8660.409521,383.047749
2326.222710,592.164754,-8660.409521,536.266849
2326.223037,222.061783,-9474.636058,842.705048
2326.223365,74.020594,-10066.800811,1072.533697
2326.223692,592.164754,-9918.759623,-995.924147
2326.224020,-518.144159,-9770.718434,-995.924147
2326.224347,-666.185348,-9770.718434,-383.047749
2326.224675,222.061783,-9548.656652,-536.266849
2326.225002,1110.308913,-9474.636058,-229.828649
2326.225330,1554.432478,-10140.821405,536.266849
2326.225657,2442.679609,-9844.739029,612.876398
2326.225985,1184.329507,-9770.718434,1378.971896
2326.226312,888.247130,-9844.739029,459.657299
2326.226640,518.144159,-10066.800811,-689.485948
2326.226967,-666.185348,-10288.862594,-1072.533697
2326.227295,-666.185348,-10140.821405,-766.095498
2326.227622,0.000000,-9918.759623,-995.924147
2326.227950,-222.061783,-9178.553681,-306.438199
2326.228278,-518.144159,-9696.697840,0.000000
2326.228605,-444.123565,-9400.615463,-995.924147
2326.228933,74.020594,-10066.800811,-1302.362347
2326.229260,0.000000,-9918.759623,-689.485948
2326.229588,148.041188,-10362.883188,-383.047749
2326.229915,148.041188,-10732.986159,0.000000
2326.230243,74.020594,-11177.109724,229.828649
2326.230570,444.123565,-10584.944971,76.609550
2326.230898,-296.082377,-10066.800811,0.000000
2326.231225,-592.164754,-9252.574275,0.000000
2326.231553,-444.123565,-8956.491898,-306.438199
2326.231880,0.000000,-8808.450710,-459.657299
2326.232208,0.000000,-8438.347739,0.000000
2326.232535,296.082377,-8956.491898,612.876398
2326.232863,296.082377,-9400.615463,459.657299
2326.233190,370.102971,-9400.615463,-1072.533697
2326.233518,1036.288319,-10732.986159,-842.705048
2326.233846,814.226536,-10288.862594,-1072.533697
2326.234173,1184.329507,-10066.800811,-995.924147
2326.234501,1628.453072,-10362.883188,0.000000
2326.234828,1110.308913,-9474.636058,459.657299
2326.235156,1036.288319,-8660.409521,612.876398
2326.235483,444.123565,-9326.594869,459.657299
2326.235811,0.000000,-8882.471304,-383.047749
2326.236138,0.000000,-9252.574275,-536.266849
2326.236466,0.000000,-9474.636058,0.000000
2326.236793,0.000000,-10214.842000,383.047749
2326.237121,296.082377,-10436.903782,76.609550
2326.237448,0.000000,-9548.656652,-229.828649
2326.237776,-222.061783,-9474.636058,-995.924147
2326.238103,0.000000,-9178.553681,-919.314598
2326.238431,74.020594,-9104.533087,-536.266849
2326.238759,0.000000,-9400.615463,0.000000
2326.239086,222.061783,-9770.718434,229.828649
2326.239414,814.226536,-10362.883188,383.047749
2326.239741,592.164754,-10140.821405,76.609550
2326.240069,148.041188,-10510.924376,-459.657299
2326.240396,370.102971,-11029.068536,-612.876398
2326.240724,370.102971,-10955.047942,-1149.143247
2326.241051,740.205942,-10140.821405,-229.828649
2326.241379,666.185348,-9474.636058,689.485948
2326.241706,592.164754,-8438.347739,1532.190996
2326.242034,1036.288319,-8290.306550,1302.362347
2326.242361,1258.350101,-8438.347739,0.000000
2326.242689,592.164754,-8808.450710,-766.095498
2326.243016,148.041188,-9252.574275,0.000000
2326.243344,-222.061783,-9400.615463,-612.876398
2326.243671,0.000000,-10436.903782,-1149.143247
2326.243999,-518.144159,-10955.047942,-536.266849
2326.244327,-444.123565,-11103.089130,-612.876398
2326.244654,0.000000,-10658.965565,-1608.800546
2326.244982,740.205942,-9918.759623,-459.657299
2326.245309,222.061783,-9030.512492,0.000000
2326.245637,444.123565,-8734.430116,919.314598
2326.245964,222.061783,-8216.285956,842.705048
2326.246292,222.061783,-7772.162391,0.000000
2326.246619,222.061783,-8586.388927,-153.219100
2326.246947,0.000000,-8956.491898,-459.657299
2326.247274,518.144159,-10510.924376,-1378.971896
2326.247602,296.082377,-11177.109724,-995.924147
2326.247929,1110.308913,-11325.150913,-919.314598
2326.248257,1554.432478,-11103.089130,-766.095498
2326.248584,1184.329507,-10140.821405,0.000000
2326.248912,296.082377,-9400.615463,306.438199
2326.249239,592.164754,-9104.533087,0.000000
2326.249567,296.082377,-9400.615463,306.438199
2326.249895,-666.185348,-8586.388927,459.657299
2326.250222,-222.061783,-8882.471304,-153.219100
2326.250550,-296.082377,-9844.739029,-459.657299
2326.250877,-592.164754,-10584.944971,-383.047749
2326.251205,-666.185348,-9770.718434,-1838.629195
2326.251532,0.000000,-9770.718434,-1149.143247
2326.251860,592.164754,-9622.677246,-383.047749
2326.252187,814.226536,-9178.553681,612.876398
2326.252515,1480.411884,-9104.533087,1532.190996
2326.252842,1702.473667,-9252.574275,1838.629195
2326.253170,1406.391290,-9252.574275,1762.019645
2326.253497,74.020594,-9252.574275,1455.581446
2326.253825,-592.164754,-9474.636058,306.438199
2326.254152,-666.185348,-10436.903782,-229.828649
2326.254480,-962.267725,-10584.944971,-1302.362347
2326.254808,-592.164754,-10066.800811,-1302.362347
2326.255135,0.000000,-10066.800811,-919.314598
2326.255463,296.082377,-9474.636058,0.000000
2326.255790,1184.329507,-9104.533087,459.657299
2326.256118,1702.473667,-8438.347739,-536.266849
2326.256445,888.247130,-8512.368333,306.438199
2326.256773,814.226536,-8660.409521,689.485948
2326.257100,666.185348,-9326.594869,0.000000
2326.257428,148.041188,-10214.842000,0.000000
2326.257755,148.041188,-11769.274478,-612.876398
2326.258083,-518.144159,-10584.944971,-1149.143247
2326.258410,-370.102971,-11029.068536,-1072.533697
2326.258738,148.041188,-11695.253884,-1455.581446
2326.259065,148.041188,-10288.862594,-612.876398
2326.259393,444.123565,-9474.636058,0.000000
2326.259720,592.164754,-9252.574275,612.876398
2326.260048,1258.350101,-8956.491898,766.095498
2326.260375,1480.411884,-8956.491898,0.000000
2326.260703,666.185348,-8660.409521,-383.047749
2326.261030,518.144159,-9992.780217,-1838.629195
2326.261358,518.144159,-10732.986159,-1149.143247
2326.261685,370.102971,-10436.903782,-995.924147
2326.262013,444.123565,-10140.821405,-536.266849
2326.262340,888.247130,-10436.903782,-306.438199
2326.262668,592.164754,-10066.800811,0.000000
2326.262995,296.082377,-8734.430116,76.609550
2326.263323,444.123565,-8956.491898,766.095498
2326.263650,592.164754,-8734.430116,1302.362347
2326.263978,444.123565,-8660.409521,766.095498
2326.264305,370.102971,-9622.677246,306.438199
2326.264633,-222.061783,-9770.718434,-229.828649
2326.264961,0.000000,-8956.491898,-1149.143247
2326.265288,-592.164754,-9030.512492,-995.924147
2326.265616,-296.082377,-9622.677246,-842.705048
2326.265943,0.000000,-9844.739029,0.000000
2326.266271,1036.288319,-9844.739029,76.609550
2326.266598,1184.329507,-9844.739029,383.047749
2326.266926,666.185348,-9474.636058,689.485948
2326.267253,-222.061783,-9474.636058,1225.752797
2326.267581,-740.205942,-9400.615463,612.876398
2326.267908,-1332.370696,-9770.718434,-459.657299
2326.268236,-1036.288319,-10214.842000,-1149.143247
2326.268563,-666.185348,-10436.903782,-1302.362347
2326.268891,-148.041188,-10214.842000,-612.876398
2326.269218,370.102971,-9474.636058,-536.266849
2326.269546,740.205942,-9696.697840,-995.924147
2326.269873,814.226536,-9770.718434,-306.438199
2326.270201,666.185348,-9400.615463,-383.047749
2326.270528,1036.288319,-9326.594869,0.000000
2326.270856,888.247130,-9622.677246,306.438199
2326.271183,296.082377,-10140.821405,459.657299
2326.271511,0.000000,-10955.047942,536.266849
2326.271838,-962.267725,-10362.883188,0.000000
2326.272166,-296.082377,-10288.862594,229.828649
2326.272493,74.020594,-10140.821405,-229.828649
2326.272821,-222.061783,-9474.636058,0.000000
2326.273148,-296.082377,-8586.388927,0.000000
2326.273476,222.061783,-8882.471304,-306.438199
2326.273803,222.061783,-9622.677246,306.438199
2326.274131,814.226536,-9030.512492,76.609550
2326.274458,1332.370696,-8734.430116,-459.657299
2326.274786,518.144159,-9178.553681,-306.438199
2326.275113,0.000000,-10066.800811,-536.266849
2326.275441,444.123565,-9992.780217,-1149.143247
2326.275768,444.123565,-9548.656652,-766.095498
2326.276096,222.061783,-9400.615463,0.000000
2326.276423,814.226536,-9844.739029,536.266849
2326.276751,1406.391290,-9474.636058,383.047749
2326.277078,740.205942,-9030.512492,229.828649
2326.277406,1258.350101,-9918.759623,0.000000
2326.277733,1184.329507,-10066.800811,-153.219100
2326.278061,1258.350101,-10510.924376,0.000000
2326.278388,1258.350101,-10955.047942,-1072.533697
2326.278716,666.185348,-9844.739029,-919.314598
2326.279044,370.102971,-9104.533087,-689.485948
2326.279371,666.185348,-9252.574275,-536.266849
2326.279699,518.144159,-9474.636058,-612.876398
2326.280026,666.185348,-9548.656652,0.000000
2326.280354,962.267725,-9474.636058,0.000000
2326.280681,518.144159,-9548.656652,0.000000
2326.281009,-296.082377,-9474.636058,459.657299
2326.281336,74.020594,-10214.842000,229.828649
2326.281664,-296.082377,-11103.089130,-383.047749
2326.281991,-296.082377,-11029.068536,-919.314598
2326.282319,370.102971,-10732.986159,-612.876398
2326.282646,222.061783,-10214.842000,0.000000
2326.282974,-148.041188,-9400.615463,459.657299
2326.283301,-296.082377,-8290.306550,383.047749
2326.283629,296.082377,-9030.512492,536.266849
2326.283956,0.000000,-8438.347739,-459.657299
2326.284284,148.041188,-8882.471304,-306.438199
2326.284611,0.000000,-9104.533087,306.438199
2326.284939,0.000000,-10066.800811,766.095498
2326.285266,-370.102971,-10955.047942,76.609550
2326.285594,-1184.329507,-10807.006753,0.000000
2326.285921,-1258.350101,-9770.718434,-766.095498
2326.286249,-666.185348,-9844.739029,-842.705048
2326.286576,-666.185348,-9622.677246,-306.438199
2326.286904,-518.144159,-9030.512492,459.657299
2326.287231,0.000000,-8586.388927,459.657299
2326.287559,0.000000,-9030.512492,0.000000
2326.287886,0.000000,-9030.512492,-383.047749
2326.288214,444.123565,-9178.553681,-1762.019645
2326.288541,0.000000,-9696.697840,-1225.752797
2326.288869,888.247130,-11103.089130,-919.314598
2326.289196,1406.391290,-10658.965565,-689.485948
2326.289524,1258.350101,-10658.965565,76.609550
2326.289851,1406.391290,-10214.842000,842.705048
2326.290179,1406.391290,-9474.636058,229.828649
2326.290506,814.226536,-9918.759623,459.657299
2326.290834,592.164754,-9474.636058,-459.657299
2326.291161,370.102971,-9548.656652,0.000000
2326.291489,0.000000,-9770.718434,-306.438199
2326.291816,-296.082377,-10066.800811,-995.924147
2326.292144,0.000000,-10510.924376,-1532.190996
2326.292471,0.000000,-9992.780217,-2145.067394
2326.292799,222.061783,-9400.615463,-1455.581446
2326.293127,1184.329507,-9400.615463,-1149.143247
2326.293454,1332.370696,-9400.615463,0.000000
2326.293782,1480.411884,-8808.450710,1455.581446
2326.294109,1554.432478,-8808.450710,1532.190996
2326.294437,1036.288319,-8734.430116,1302.362347
2326.294764,-222.061783,-9252.574275,1072.533697
2326.295092,-370.102971,-9992.780217,-229.828649
2326.295419,-740.205942,-10362.883188,-612.876398
2326.295747,-296.082377,-11399.171507,-1838.629195
2326.296074,0.000000,-10955.047942,-1685.410096
2326.296402,0.000000,-10436.903782,-612.876398
2326.296729,222.061783,-9474.636058,0.000000
2326.297057,666.185348,-8660.409521,-153.219100
2326.297384,444.123565,-7772.162391,76.609550
2326.297712,962.267725,-7698.141797,0.000000
2326.298039,740.205942,-8068.244768,612.876398
2326.298367,592.164754,-8734.430116,536.266849
2326.298694,0.000000,-9770.718434,383.047749
2326.299022,-370.102971,-11473.192101,0.000000
2326.299349,-1110.308913,-11695.253884,-1149.143247
2326.299677,-592.164754,-12139.377449,-1685.410096
2326.300004,0.000000,-11029.068536,-1838.629195
2326.300332,0.000000,-10214.842000,0.000000
2326.300659,0.000000,-9474.636058,919.314598
2326.300987,518.144159,-9252.574275,612.876398
2326.301314,814.226536,-9474.636058,229.828649
2326.301642,740.205942,-8660.409521,-689.485948
2326.301969,222.061783,-8512.368333,-1149.143247
2326.302297,0.000000,-8956.491898,-1302.362347
2326.302624,-666.185348,-9918.759623,-689.485948
2326.302952,518.144159,-10807.006753,-1225.752797
2326.303279,1332.370696,-10881.027347,-766.095498
2326.303607,1184.329507,-11103.089130,-306.438199
2326.303934,1332.370696,-10214.842000,0.000000
2326.304262,888.247130,-9400.615463,612.876398
2326.304589,-370.102971,-8586.388927,1532.190996
2326.304917,0.000000,-8808.450710,689.485948
2326.305244,222.061783,-9030.512492,0.000000
2326.305572,0.000000,-9400.615463,-153.219100
2326.305899,0.000000,-9622.677246,-689.485948
