#time,accel_x,accel_y,accel_z
3394.307219,592.164754,-9326.594869,153.219100
3394.307546,814.226536,-8882.471304,1072.533697
3394.307874,592.164754,-9030.512492,536.266849
3394.308201,370.102971,-9030.512492,612.876398
3394.308528,222.061783,-8586.388927,306.438199
3394.308856,74.020594,-8734.430116,0.000000
3394.309183,0.000000,-8956.491898,0.000000
3394.309511,148.041188,-9326.594869,-306.438199
3394.309838,0.000000,-9030.512492,0.000000
3394.310166,518.144159,-9918.759623,153.219100
3394.310493,148.041188,-9992.780217,229.828649
3394.310821,666.185348,-9992.780217,76.609550
3394.311148,666.185348,-10066.800811,76.609550
3394.311475,740.205942,-9696.697840,0.000000
3394.311803,444.123565,-9844.739029,0.000000
3394.312130,666.185348,-9918.759623,0.000000
3394.312458,0.000000,-9326.594869,-459.657299
3394.312785,-296.082377,-9622.677246,0.000000
3394.313113,0.000000,-9844.739029,-1455.581446
3394.313440,0.000000,-10362.883188,-1225.752797
3394.313768,0.000000,-10584.944971,-1072.533697
3394.314095,296.082377,-10436.903782,-1072.533697
3394.314423,666.185348,-10288.862594,-229.828649
3394.314750,592.164754,-10436.903782,-919.314598
3394.315077,74.020594,-9918.759623,306.438199
3394.315405,296.082377,-9622.677246,-153.219100
3394.315732,222.061783,-9622.677246,-229.828649
3394.316060,-148.041188,-9474.636058,0.000000
3394.316387,0.000000,-9474.636058,76.609550
3394.316715,0.000000,-9474.636058,-306.438199
3394.317042,0.000000,-9400.615463,0.000000
3394.317370,74.020594,-10140.821405,-306.438199
3394.317697,296.082377,-9770.718434,0.000000
3394.318024,592.164754,-9622.677246,0.000000
3394.318352,518.144159,-9474.636058,229.828649
3394.318679,814.226536,-9400.615463,612.876398
3394.319007,444.123565,-8882.471304,612.876398
3394.319334,296.082377,-8734.430116,459.657299
3394.319662,148.041188,-8660.409521,612.876398
3394.319989,74.020594,-8734.430116,-459.657299
3394.320317,148.041188,-9252.574275,-383.047749
3394.320644,0.000000,-9400.615463,-306.438199
3394.320972,148.041188,-9696.697840,-612.876398
3394.321299,222.061783,-9326.594869,0.000000
3394.321626,1184.329507,-9770.718434,0.000000
3394.321954,2072.576638,-9844.739029,153.219100
3394.322281,2664.741391,-9696.697840,229.828649
3394.322609,3627.009116,-9178.553681,153.219100
3394.322936,4441.235652,-9030.512492,-306.438199
3394.323264,4959.379811,-9548.656652,-383.047749
3394.323591,5551.544565,-10140.821405,-459.657299
3394.323919,5847.626942,-9992.780217,-229.828649
3394.324246,6513.812290,-9696.697840,-766.095498
3394.324573,7402.059420,-10214.842000,-1378.971896
3394.324901,8290.306550,-11103.089130,-919.314598
3394.325228,8512.368333,-11843.295072,0.000000
3394.325556,8660.409521,-10881.027347,383.047749
3394.325883,9252.574275,-9474.636058,229.828649
3394.326211,9104.533087,-8660.409521,0.000000
3394.326538,9474.636058,-8142.265362,383.047749
3394.326866,9770.718434,-8364.327145,306.438199
3394.327193,10881.027347,-9030.512492,383.047749
3394.327521,10807.006753,-9696.697840,306.438199
3394.327848,10732.986159,-9770.718434,0.000000
3394.328175,10288.862594,-8512.368333,153.219100
3394.328503,11029.068536,-9770.718434,689.485948
3394.328830,11843.295072,-10658.965565,153.219100
3394.329158,13027.624579,-10066.800811,0.000000
3394.329485,14285.974681,-9474.636058,612.876398
3394.329813,14508.036463,-9474.636058,1838.629195
3394.330140,14137.933492,-8956.491898,2145.067394
3394.330468,13693.809927,-7328.038826,995.924147
3394.330795,12657.521608,-7476.080014,536.266849
3394.331122,12805.562797,-9400.615463,689.485948
3394.331450,12583.501014,-10732.986159,0.000000
3394.331777,12657.521608,-9474.636058,306.438199
3394.332105,11917.315666,-8808.450710,229.828649
3394.332432,11473.192101,-10140.821405,536.266849
3394.332760,11473.192101,-9696.697840,1149.143247
3394.333087,11769.274478,-9474.636058,383.047749
3394.333415,11177.109724,-10732.986159,229.828649
3394.333742,10362.883188,-10510.924376,229.828649
3394.334070,8438.347739,-9326.594869,0.000000
3394.334397,7254.018232,-8216.285956,153.219100
3394.334724,7402.059420,-7476.080014,-383.047749
3394.335052,9252.574275,-9474.636058,-1302.362347
3394.335379,10584.944971,-11695.253884,-536.266849
3394.335707,11251.130318,-13027.624579,-306.438199
3394.336034,9770.718434,-10436.903782,229.828649
3394.336362,8142.265362,-8586.388927,536.266849
3394.336689,8142.265362,-8586.388927,76.609550
3394.337017,9326.594869,-8956.491898,76.609550
3394.337344,10066.800811,-10140.821405,842.705048
3394.337671,8882.471304,-10732.986159,1455.581446
3394.337999,8142.265362,-9030.512492,-459.657299
3394.338326,6809.894666,-7698.141797,-306.438199
3394.338654,5921.647536,-9696.697840,-919.314598
3394.338981,5773.606348,-11325.150913,-1149.143247
3394.339309,7476.080014,-10881.027347,-1608.800546
3394.339636,10658.965565,-9400.615463,-1225.752797
3394.339964,11843.295072,-9474.636058,612.876398
3394.340291,9252.574275,-8734.430116,2604.724693
3394.340618,7402.059420,-7550.100608,3753.867940
3394.340946,9252.574275,-8512.368333,1225.752797
3394.341273,11473.192101,-9474.636058,-1991.848295
3394.341601,11177.109724,-9474.636058,-1455.581446
3394.341928,9844.739029,-7846.182985,1608.800546
3394.342256,10436.903782,-9474.636058,612.876398
3394.342583,9696.697840,-10584.944971,766.095498
3394.342911,7698.141797,-8956.491898,-306.438199
3394.343238,7698.141797,-8438.347739,-1532.190996
3394.343566,9252.574275,-9548.656652,-1991.848295
3394.343893,10881.027347,-9918.759623,-1225.752797
3394.344220,10510.924376,-9400.615463,1532.190996
3394.344548,10584.944971,-8438.347739,2681.334243
3394.344875,11251.130318,-6883.915261,1149.143247
3394.345203,11769.274478,-8808.450710,0.000000
3394.345530,11769.274478,-10732.986159,-383.047749
3394.345858,14878.139434,-10510.924376,-1838.629195
3394.346185,15322.262999,-9474.636058,-1685.410096
3394.346513,13397.727550,-11473.192101,919.314598
3394.346840,13027.624579,-11769.274478,1915.238745
3394.347167,14730.098246,-10436.903782,1302.362347
3394.347495,12953.603985,-10362.883188,-612.876398
3394.347822,11769.274478,-11843.295072,-995.924147
3394.348150,10288.862594,-10732.986159,0.000000
3394.348477,8068.244768,-10362.883188,2451.505594
3394.348805,7105.977043,-7402.059420,1225.752797
3394.349132,5181.441594,-7179.997637,0.000000
3394.349460,2442.679609,-8512.368333,689.485948
3394.349787,3849.070898,-8586.388927,0.000000
3394.350115,5033.400406,-8660.409521,-1608.800546
3394.350442,4737.318029,-9252.574275,-306.438199
3394.350769,6217.729913,-9178.553681,229.828649
3394.351097,6957.935855,-10881.027347,0.000000
3394.351424,6957.935855,-11917.315666,612.876398
3394.351752,7031.956449,-12953.603985,689.485948
3394.352079,8216.285956,-10658.965565,-689.485948
3394.352407,7254.018232,-9400.615463,-612.876398
3394.352734,7031.956449,-11103.089130,919.314598
3394.353062,4885.359217,-11029.068536,2221.676944
3394.353389,2368.659014,-10658.965565,3064.381992
3394.353716,888.247130,-8660.409521,536.266849
3394.354044,-962.267725,-8068.244768,-1072.533697
3394.354371,-3849.070898,-7846.182985,-919.314598
3394.354699,-3478.967927,-7105.977043,-766.095498
3394.355026,-3108.864956,-9104.533087,-306.438199
3394.355354,-1702.473667,-9474.636058,-1149.143247
3394.355681,-1850.514855,-10288.862594,-229.828649
3394.356009,-1776.494261,-10214.842000,1302.362347
3394.356336,-2590.720797,-9030.512492,76.609550
3394.356664,-1110.308913,-10510.924376,-2145.067394
3394.356991,74.020594,-10807.006753,-2374.896044
3394.357318,-666.185348,-11769.274478,-842.705048
3394.357646,-1628.453072,-9992.780217,842.705048
3394.357973,-592.164754,-8882.471304,536.266849
3394.358301,-1628.453072,-8660.409521,229.828649
3394.358628,-1480.411884,-10066.800811,0.000000
3394.358956,-1924.535449,-7994.224174,-1532.190996
3394.359283,-1110.308913,-7698.141797,-1302.362347
3394.359611,0.000000,-8364.327145,-536.266849
3394.359938,2664.741391,-8512.368333,76.609550
3394.360265,3182.885551,-8586.388927,1378.971896
3394.360593,1332.370696,-9252.574275,3217.601092
3394.360920,1184.329507,-11695.253884,76.609550
3394.361248,1480.411884,-11843.295072,-4060.306139
3394.361575,592.164754,-11991.336260,-4673.182538
3394.361903,666.185348,-10362.883188,-4060.306139
3394.362230,1776.494261,-10732.986159,0.000000
3394.362558,1628.453072,-11399.171507,2911.162892
3394.362885,2812.782580,-11177.109724,1532.190996
3394.363213,1110.308913,-9918.759623,76.609550
3394.363540,222.061783,-8068.244768,-995.924147
3394.363867,-222.061783,-6513.812290,-1302.362347
3394.364195,-1184.329507,-6513.812290,-306.438199
3394.364522,-1258.350101,-7994.224174,1302.362347
3394.364850,2442.679609,-8438.347739,689.485948
3394.365177,5699.585753,-10732.986159,383.047749
3394.365505,5699.585753,-12065.356855,1302.362347
3394.365832,4589.276840,-13841.851115,1378.971896
3394.366160,1406.391290,-11547.212695,-459.657299
3394.366487,-666.185348,-10140.821405,-1378.971896
3394.366814,-1110.308913,-8512.368333,-3217.601092
3394.367142,-814.226536,-10214.842000,-766.095498
3394.367469,-2146.597232,-8512.368333,2834.553343
3394.367797,814.226536,-6217.729913,1991.848295
3394.368124,2294.638420,-8882.471304,459.657299
3394.368452,1628.453072,-11177.109724,1762.019645
3394.368779,-666.185348,-9252.574275,2068.457845
3394.369107,-592.164754,-7772.162391,689.485948
3394.369434,1036.288319,-9178.553681,-1532.190996
3394.369762,1554.432478,-10214.842000,-1991.848295
3394.370089,1480.411884,-10214.842000,1149.143247
3394.370416,2812.782580,-9918.759623,1532.190996
3394.370744,3552.988522,-11621.233289,1072.533697
3394.371072,1554.432478,-13767.830521,1225.752797
3394.371399,0.000000,-12287.418637,229.828649
3394.371727,-1776.494261,-8660.409521,-1685.410096
3394.372055,-2812.782580,-7624.121203,-3447.429741
3394.372383,-3849.070898,-9474.636058,-2451.505594
3394.372710,-4293.194464,-8956.491898,-306.438199
3394.373038,-2664.741391,-5699.585753,0.000000
3394.373366,-1258.350101,-7402.059420,-689.485948
3394.373694,-740.205942,-10288.862594,919.314598
3394.374022,592.164754,-10140.821405,0.000000
3394.374349,740.205942,-10584.944971,76.609550
3394.374677,0.000000,-8808.450710,-1302.362347
3394.375005,1184.329507,-9844.739029,-2374.896044
3394.375333,0.000000,-11695.253884,-995.924147
3394.375660,-592.164754,-12139.377449,842.705048
3394.375988,370.102971,-10436.903782,-229.828649
3394.376316,-1258.350101,-9400.615463,-1532.190996
3394.376644,-1258.350101,-10584.944971,-153.219100
3394.376971,0.000000,-8882.471304,-1532.190996
3394.377299,-1702.473667,-8068.244768,0.000000
3394.377627,-1924.535449,-6365.771101,1072.533697
3394.377955,666.185348,-6883.915261,-229.828649
3394.378282,1036.288319,-8808.450710,153.219100
3394.378610,2368.659014,-9474.636058,1762.019645
3394.378938,2886.803174,-9474.636058,1455.581446
3394.379266,1850.514855,-12213.398043,1532.190996
3394.379593,962.267725,-14211.954086,-2604.724693
3394.379921,370.102971,-12361.439231,-4519.963438
3394.380249,-814.226536,-9992.780217,-3600.648841
3394.380577,-148.041188,-11399.171507,-1532.190996
3394.380905,740.205942,-12361.439231,153.219100
3394.381232,2146.597232,-10436.903782,153.219100
3394.381560,2368.659014,-7846.182985,919.314598
3394.381888,2294.638420,-5921.647536,995.924147
3394.382216,1924.535449,-7698.141797,1915.238745
3394.382543,1850.514855,-8142.265362,1991.848295
3394.382871,1406.391290,-5625.565159,919.314598
3394.383199,-1036.288319,-5995.668130,919.314598
3394.383527,888.247130,-10732.986159,689.485948
3394.383854,222.061783,-11843.295072,-383.047749
3394.384182,296.082377,-13101.645173,-1302.362347
3394.384510,-370.102971,-11917.315666,-2451.505594
3394.384838,-666.185348,-11399.171507,-2451.505594
3394.385165,444.123565,-10140.821405,-1685.410096
3394.385493,740.205942,-9400.615463,-919.314598
3394.385821,0.000000,-8734.430116,1762.019645
3394.386149,814.226536,-7550.100608,2681.334243
3394.386477,888.247130,-8512.368333,2145.067394
3394.386804,-370.102971,-9400.615463,1072.533697
3394.387132,518.144159,-8956.491898,229.828649
3394.387460,592.164754,-9178.553681,-612.876398
3394.387788,1184.329507,-10955.047942,-1378.971896
3394.388115,1998.556043,-9474.636058,-2374.896044
3394.388443,888.247130,-9696.697840,-383.047749
3394.388771,-1184.329507,-10362.883188,995.924147
3394.389099,222.061783,-13545.768739,76.609550
3394.389426,-222.061783,-12361.439231,-995.924147
3394.389754,-1480.411884,-10658.965565,-919.314598
3394.390082,-3182.885551,-9770.718434,-766.095498
3394.390410,-2516.700203,-8290.306550,-2374.896044
3394.390737,-2812.782580,-7328.038826,-1608.800546
3394.391065,-2442.679609,-8068.244768,-1072.533697
3394.391393,-2664.741391,-8882.471304,0.000000
3394.391721,-1554.432478,-7772.162391,76.609550
3394.392048,666.185348,-8438.347739,-612.876398
3394.392376,1036.288319,-10658.965565,76.609550
3394.392704,1924.535449,-11843.295072,842.705048
3394.393032,1924.535449,-9844.739029,306.438199
3394.393360,1850.514855,-9992.780217,-229.828649
3394.393687,1406.391290,-10955.047942,0.000000
3394.394015,1258.350101,-11325.150913,383.047749
3394.394343,-444.123565,-9178.553681,689.485948
3394.394671,-1406.391290,-8290.306550,0.000000
3394.394998,-1998.556043,-8734.430116,-1072.533697
3394.395326,-2294.638420,-7994.224174,-1072.533697
3394.395654,-962.267725,-8142.265362,-612.876398
3394.395982,-370.102971,-8068.244768,306.438199
3394.396309,2146.597232,-9030.512492,76.609550
3394.396637,2442.679609,-8734.430116,612.876398
3394.396965,1776.494261,-11399.171507,1378.971896
3394.397293,1258.350101,-11843.295072,459.657299
3394.397620,1776.494261,-10732.986159,-1838.629195
3394.397948,592.164754,-9400.615463,-1532.190996
3394.398276,888.247130,-11473.192101,-2068.457845
3394.398604,74.020594,-12657.521608,-842.705048
3394.398931,-592.164754,-11769.274478,612.876398
3394.399259,962.267725,-9474.636058,-383.047749
3394.399587,2812.782580,-9326.594869,-2681.334243
3394.399915,592.164754,-9326.594869,-919.314598
3394.400243,1036.288319,-8216.285956,1608.800546
3394.400570,2368.659014,-7179.997637,1302.362347
3394.400898,1776.494261,-7105.977043,1302.362347
3394.401226,370.102971,-9844.739029,2298.286494
3394.401554,296.082377,-9918.759623,1685.410096
3394.401881,370.102971,-10066.800811,0.000000
3394.402209,74.020594,-11991.336260,-1762.019645
3394.402537,148.041188,-11843.295072,-2604.724693
3394.402865,-592.164754,-9326.594869,-1532.190996
3394.403192,-1332.370696,-8808.450710,0.000000
3394.403520,-1776.494261,-9474.636058,306.438199
3394.403848,-1702.473667,-8734.430116,383.047749
3394.404176,0.000000,-9474.636058,919.314598
3394.404503,666.185348,-8956.491898,766.095498
3394.404831,1554.432478,-9252.574275,536.266849
3394.405159,2368.659014,-9474.636058,536.266849
3394.405487,2960.823768,-11251.130318,995.924147
3394.405815,814.226536,-8882.471304,229.828649
3394.406142,-1258.350101,-6513.812290,-306.438199
3394.406470,-888.247130,-7624.121203,-2145.067394
3394.406798,740.205942,-12657.521608,-612.876398
3394.407126,1184.329507,-15248.242405,-229.828649
3394.407453,444.123565,-11251.130318,0.000000
3394.407781,148.041188,-9844.739029,-612.876398
3394.408109,-1184.329507,-10436.903782,-2451.505594
3394.408437,-2294.638420,-9992.780217,-1608.800546
3394.408764,-2960.823768,-7402.059420,0.000000
3394.409092,-1702.473667,-7105.977043,-1302.362347
3394.409420,-1036.288319,-8142.265362,-919.314598
3394.409748,370.102971,-9104.533087,1302.362347
3394.410075,814.226536,-8660.409521,2068.457845
3394.410403,1554.432478,-10807.006753,1149.143247
3394.410731,1776.494261,-12065.356855,-766.095498
3394.411059,1258.350101,-12657.521608,-3294.210641
3394.411386,518.144159,-11029.068536,-1378.971896
3394.411714,1110.308913,-7920.203579,612.876398
3394.412042,74.020594,-9252.574275,2145.067394
3394.412370,-1850.514855,-10658.965565,2834.553343
3394.412698,-1554.432478,-9252.574275,766.095498
3394.413025,-1332.370696,-5477.523971,-1762.019645
3394.413353,-370.102971,-7105.977043,-1455.581446
3394.413681,-444.123565,-8956.491898,-383.047749
3394.414009,666.185348,-10066.800811,689.485948
3394.414336,1258.350101,-8068.244768,612.876398
3394.414664,2072.576638,-9992.780217,459.657299
3394.414992,1258.350101,-11177.109724,76.609550
3394.415320,814.226536,-11547.212695,0.000000
3394.415647,888.247130,-10510.924376,-306.438199
3394.415975,2146.597232,-9474.636058,-2681.334243
3394.416303,1184.329507,-11399.171507,-766.095498
3394.416631,148.041188,-12657.521608,1532.190996
3394.416958,666.185348,-10066.800811,1072.533697
3394.417286,592.164754,-6883.915261,-1762.019645
3394.417614,-296.082377,-8216.285956,-1225.752797
3394.417942,-666.185348,-8660.409521,-1762.019645
3394.418270,1628.453072,-8660.409521,459.657299
3394.418597,2442.679609,-8882.471304,1915.238745
3394.418925,3775.050304,-9918.759623,2145.067394
3394.419253,4441.235652,-10288.862594,995.924147
3394.419581,3182.885551,-11991.336260,229.828649
3394.419908,444.123565,-10362.883188,153.219100
3394.420236,0.000000,-9548.656652,-1302.362347
3394.420564,-1332.370696,-9474.636058,-995.924147
3394.420892,-1850.514855,-8808.450710,-2374.896044
3394.421219,-3034.844362,-9400.615463,-1302.362347
3394.421547,-3256.906145,-8808.450710,-459.657299
3394.421875,0.000000,-9474.636058,-536.266849
3394.422203,2960.823768,-9474.636058,-919.314598
3394.422530,3256.906145,-10658.965565,689.485948
3394.422858,2368.659014,-9400.615463,2451.505594
3394.423186,2960.823768,-9770.718434,1378.971896
3394.423514,2146.597232,-9992.780217,153.219100
3394.423841,666.185348,-9252.574275,306.438199
3394.424169,-1110.308913,-7550.100608,306.438199
3394.424497,-1184.329507,-9474.636058,-306.438199
3394.424825,148.041188,-12287.418637,-766.095498
3394.425153,370.102971,-12287.418637,-995.924147
3394.425480,-592.164754,-13989.892304,229.828649
3394.425808,-962.267725,-9844.739029,-1915.238745
3394.426136,-1998.556043,-7698.141797,-3370.820191
3394.426464,-4071.132681,-9622.677246,-2221.676944
3394.426791,-3701.029710,-8808.450710,-459.657299
3394.427119,-1110.308913,-6587.832884,-306.438199
3394.427447,814.226536,-7031.956449,842.705048
3394.427775,0.000000,-8660.409521,1915.238745
3394.428102,740.205942,-11029.068536,1838.629195
3394.428430,370.102971,-11991.336260,229.828649
3394.428758,888.247130,-11103.089130,-2451.505594
3394.429086,888.247130,-10066.800811,-2528.115143
3394.429413,1110.308913,-10066.800811,-766.095498
3394.429741,222.061783,-10288.862594,1991.848295
3394.430069,0.000000,-9030.512492,2145.067394
3394.430397,-296.082377,-8808.450710,919.314598
3394.430725,-444.123565,-8808.450710,0.000000
3394.431052,0.000000,-7772.162391,-919.314598
3394.431380,-962.267725,-7328.038826,-919.314598
3394.431708,-666.185348,-7698.141797,0.000000
3394.432036,370.102971,-8808.450710,0.000000
3394.432363,222.061783,-10584.944971,689.485948
3394.432691,666.185348,-11251.130318,76.609550
3394.433019,888.247130,-10732.986159,-1302.362347
3394.433347,1184.329507,-11029.068536,-1991.848295
3394.433674,2442.679609,-11695.253884,-1838.629195
3394.434002,2072.576638,-11917.315666,1455.581446
3394.434330,1258.350101,-9844.739029,2451.505594
3394.434658,1036.288319,-8142.265362,229.828649
3394.434985,1110.308913,-8734.430116,-1378.971896
3394.435313,74.020594,-8882.471304,-1072.533697
3394.435641,-666.185348,-7772.162391,-306.438199
3394.435969,666.185348,-7105.977043,0.000000
3394.436296,2072.576638,-6735.874072,-459.657299
3394.436624,3701.029710,-10584.944971,1302.362347
3394.436952,3627.009116,-13101.645173,1225.752797
3394.437280,3404.947333,-10732.986159,995.924147
3394.437608,1998.556043,-9918.759623,-229.828649
3394.437935,1184.329507,-10955.047942,-1225.752797
3394.438263,1184.329507,-9252.574275,-842.705048
3394.438591,0.000000,-8660.409521,229.828649
3394.438919,-2072.576638,-9030.512492,306.438199
3394.439246,-2072.576638,-8142.265362,-1378.971896
3394.439574,-666.185348,-9326.594869,-1072.533697
3394.439902,-1110.308913,-9030.512492,-842.705048
3394.440230,-148.041188,-8438.347739,-612.876398
3394.440557,1406.391290,-9474.636058,-459.657299
3394.440885,3552.988522,-11917.315666,0.000000
3394.441213,3775.050304,-11325.150913,383.047749
3394.441541,1184.329507,-8882.471304,1072.533697
3394.441868,0.000000,-8808.450710,919.314598
3394.442196,666.185348,-11547.212695,-459.657299
3394.442524,74.020594,-12065.356855,-612.876398
3394.442852,-962.267725,-9474.636058,76.609550
3394.443180,-296.082377,-9030.512492,459.657299
3394.443507,-444.123565,-12361.439231,-995.924147
3394.443835,-1036.288319,-12287.418637,-1608.800546
3394.444163,-2812.782580,-7624.121203,-2221.676944
3394.444491,-4145.153275,-7254.018232,-2068.457845
3394.444818,-3701.029710,-8438.347739,-1762.019645
3394.445146,-1480.411884,-8734.430116,-306.438199
3394.445474,-740.205942,-8734.430116,1608.800546
3394.445802,-666.185348,-9252.574275,612.876398
3394.446129,-962.267725,-9844.739029,459.657299
3394.446457,0.000000,-10066.800811,-1991.848295
3394.446785,222.061783,-11843.295072,-1072.533697
3394.447113,148.041188,-11917.315666,536.266849
3394.447440,666.185348,-8660.409521,0.000000
3394.447768,740.205942,-7550.100608,-612.876398
3394.448096,1258.350101,-11103.089130,612.876398
3394.448424,-222.061783,-9548.656652,2987.772442
3394.448751,-666.185348,-6291.750507,1915.238745
3394.449079,-1332.370696,-6143.709319,-383.047749
3394.449407,-592.164754,-9548.656652,-1915.238745
3394.449735,-666.185348,-7846.182985,-306.438199
3394.450063,-666.185348,-8290.306550,1608.800546
3394.450390,-148.041188,-11473.192101,0.000000
3394.450718,2368.659014,-12139.377449,-2834.553343
3394.451046,1776.494261,-11621.233289,-2451.505594
3394.451374,1480.411884,-11251.130318,-995.924147
3394.451701,962.267725,-11695.253884,612.876398
3394.452029,1554.432478,-11843.295072,1072.533697
3394.452357,2072.576638,-10140.821405,-919.314598
3394.452685,814.226536,-9548.656652,-1072.533697
3394.453012,-592.164754,-8216.285956,-383.047749
3394.453340,740.205942,-6957.935855,-919.314598
3394.453668,1998.556043,-8216.285956,-919.314598
3394.453996,370.102971,-9548.656652,306.438199
3394.454323,1110.308913,-8586.388927,1072.533697
3394.454651,2812.782580,-8364.327145,306.438199
3394.454979,2664.741391,-11621.233289,-536.266849
3394.455307,2072.576638,-13323.706956,536.266849
3394.455634,3182.885551,-10140.821405,-919.314598
3394.455962,2368.659014,-9474.636058,-1149.143247
3394.456290,74.020594,-11547.212695,153.219100
3394.456618,-370.102971,-11399.171507,766.095498
3394.456946,-1036.288319,-7698.141797,612.876398
3394.457273,-962.267725,-7179.997637,-1302.362347
3394.457601,-2442.679609,-7476.080014,-2221.676944
3394.457929,-2294.638420,-8660.409521,-229.828649
3394.458257,0.000000,-7920.203579,459.657299
3394.458584,2220.617826,-8068.244768,-612.876398
3394.458912,1924.535449,-10584.944971,612.876398
3394.459240,2442.679609,-10807.006753,383.047749
3394.459568,1702.473667,-10510.924376,689.485948
3394.459895,0.000000,-10288.862594,76.609550
3394.460223,-370.102971,-9918.759623,689.485948
3394.460551,518.144159,-11029.068536,0.000000
3394.460879,518.144159,-11177.109724,0.000000
3394.461206,-148.041188,-9770.718434,-306.438199
3394.461534,-518.144159,-11399.171507,0.000000
3394.461862,-666.185348,-9844.739029,-689.485948
3394.462190,-1184.329507,-8142.265362,-1532.190996
3394.462518,-3108.864956,-7698.141797,-842.705048
3394.462845,-3701.029710,-7846.182985,153.219100
3394.463173,-2072.576638,-9030.512492,0.000000
3394.463501,-370.102971,-9844.739029,-1225.752797
3394.463829,0.000000,-10881.027347,76.609550
3394.464156,74.020594,-10807.006753,0.000000
3394.464484,740.205942,-11621.233289,383.047749
3394.464812,0.000000,-11473.192101,-766.095498
3394.465140,-296.082377,-10362.883188,-689.485948
3394.465467,-1332.370696,-8808.450710,-306.438199
3394.465795,-1036.288319,-9474.636058,229.828649
3394.466123,0.000000,-8882.471304,-689.485948
3394.466451,-666.185348,-8660.409521,1225.752797
3394.466778,-1332.370696,-9548.656652,1455.581446
3394.467106,-370.102971,-7994.224174,-306.438199
3394.467434,-444.123565,-7105.977043,-459.657299
3394.467762,-148.041188,-9696.697840,0.000000
3394.468089,0.000000,-12065.356855,0.000000
3394.468417,740.205942,-9548.656652,0.000000
3394.468745,1406.391290,-8364.327145,-995.924147
3394.469073,1258.350101,-9400.615463,-766.095498
3394.469401,1110.308913,-13619.789333,1225.752797
3394.469728,666.185348,-11325.150913,995.924147
3394.470056,2146.597232,-9696.697840,-2221.676944
3394.470384,370.102971,-10066.800811,-1991.848295
3394.470712,444.123565,-9992.780217,-842.705048
3394.471039,370.102971,-7402.059420,1072.533697
3394.471367,962.267725,-6513.812290,919.314598
3394.471695,1406.391290,-7550.100608,536.266849
3394.472023,2220.617826,-9178.553681,842.705048
3394.472350,3108.864956,-10658.965565,919.314598
3394.472677,2664.741391,-10436.903782,0.000000
3394.473005,2146.597232,-11251.130318,1225.752797
3394.473333,3182.885551,-11695.253884,-766.095498
3394.473660,2812.782580,-11029.068536,-1838.629195
3394.473988,0.000000,-9770.718434,-229.828649
3394.474316,-1628.453072,-9844.739029,229.828649
3394.474643,-1628.453072,-9548.656652,-536.266849
3394.474971,148.041188,-11103.089130,-1455.581446
3394.475299,-518.144159,-9252.574275,-1072.533697
3394.475626,-814.226536,-8216.285956,0.000000
3394.475954,1184.329507,-8364.327145,766.095498
3394.476282,3256.906145,-8660.409521,-1225.752797
3394.476609,1406.391290,-9326.594869,459.657299
3394.476937,0.000000,-8068.244768,919.314598
3394.477265,222.061783,-9178.553681,306.438199
3394.477592,518.144159,-11251.130318,-919.314598
3394.477920,0.000000,-11917.315666,-459.657299
3394.478248,592.164754,-11991.336260,383.047749
3394.478575,1628.453072,-10881.027347,153.219100
3394.478903,1924.535449,-10584.944971,-1915.238745
3394.479230,296.082377,-11325.150913,-919.314598
3394.479558,-1480.411884,-9400.615463,919.314598
3394.479886,-1480.411884,-6143.709319,0.000000
3394.480213,-1702.473667,-6143.709319,-766.095498
3394.480541,-1998.556043,-7550.100608,-536.266849
3394.480869,-1998.556043,-9844.739029,995.924147
3394.481196,-1110.308913,-9030.512492,306.438199
3394.481524,-148.041188,-9918.759623,-2145.067394
3394.481852,-222.061783,-11399.171507,-2757.943793
3394.482179,592.164754,-12213.398043,-1378.971896
3394.482507,0.000000,-10140.821405,76.609550
3394.482835,1184.329507,-11399.171507,76.609550
3394.483162,296.082377,-9400.615463,383.047749
3394.483490,444.123565,-9696.697840,536.266849
3394.483818,-518.144159,-8956.491898,1225.752797
3394.484145,-518.144159,-6809.894666,76.609550
3394.484473,-888.247130,-8142.265362,-536.266849
3394.484801,-740.205942,-10436.903782,-1455.581446
3394.485128,-2368.659014,-10214.842000,153.219100
3394.485456,-1702.473667,-7994.224174,-306.438199
3394.485784,-814.226536,-9474.636058,-1532.190996
3394.486111,-592.164754,-11251.130318,-1455.581446
3394.486439,962.267725,-11029.068536,-689.485948
3394.486767,666.185348,-10140.821405,229.828649
3394.487094,1110.308913,-11695.253884,1915.238745
3394.487422,2368.659014,-10955.047942,-306.438199
3394.487750,1110.308913,-10732.986159,-1072.533697
3394.488077,-1184.329507,-9918.759623,1072.533697
3394.488405,-666.185348,-6883.915261,-612.876398
3394.488733,-296.082377,-7402.059420,-995.924147
3394.489060,0.000000,-8216.285956,-306.438199
3394.489388,1036.288319,-8290.306550,2068.457845
3394.489716,2368.659014,-8290.306550,2451.505594
3394.490043,3627.009116,-9696.697840,1532.190996
3394.490371,3478.967927,-11473.192101,-689.485948
3394.490699,1924.535449,-12287.418637,76.609550
3394.491026,1924.535449,-9622.677246,306.438199
3394.491354,2368.659014,-8216.285956,-459.657299
3394.491682,74.020594,-8216.285956,-995.924147
3394.492009,-2368.659014,-10955.047942,0.000000
3394.492337,-1924.535449,-11325.150913,153.219100
3394.492665,222.061783,-8512.368333,-1532.190996
3394.492992,222.061783,-9918.759623,-2298.286494
3394.493320,-518.144159,-9844.739029,-1149.143247
3394.493648,1036.288319,-9252.574275,153.219100
3394.493975,3182.885551,-8586.388927,383.047749
3394.494303,2812.782580,-8586.388927,842.705048
3394.494631,1258.350101,-9030.512492,1608.800546
3394.494958,1036.288319,-10214.842000,1072.533697
3394.495286,444.123565,-11177.109724,612.876398
3394.495614,370.102971,-11399.171507,-1072.533697
3394.495941,370.102971,-11843.295072,-2451.505594
3394.496269,296.082377,-12953.603985,-766.095498
3394.496597,666.185348,-10658.965565,-1915.238745
3394.496924,0.000000,-8882.471304,-1072.533697
3394.497252,-370.102971,-9326.594869,76.609550
3394.497580,0.000000,-9326.594869,229.828649
3394.497907,-370.102971,-8216.285956,383.047749
3394.498235,-1036.288319,-7179.997637,459.657299
3394.498563,-962.267725,-8512.368333,612.876398
3394.498890,-296.082377,-10214.842000,-919.314598
3394.499218,-888.247130,-10214.842000,-1685.410096
3394.499545,-1332.370696,-9400.615463,-1302.362347
3394.499873,-666.185348,-10362.883188,-1072.533697
3394.500201,0.000000,-10584.944971,0.000000
3394.500528,0.000000,-9844.739029,0.000000
3394.500856,296.082377,-10288.862594,536.266849
3394.501184,0.000000,-7994.224174,1072.533697
3394.501511,1110.308913,-8586.388927,0.000000
3394.501839,-148.041188,-9474.636058,766.095498
3394.502167,-814.226536,-8808.450710,1608.800546
3394.502494,-518.144159,-7550.100608,153.219100
3394.502822,-2368.659014,-7179.997637,536.266849
3394.503150,-2812.782580,-8290.306550,-689.485948
3394.503477,-1850.514855,-10140.821405,-2221.676944
3394.503805,-1110.308913,-11029.068536,-1685.410096
3394.504133,518.144159,-10658.965565,-1378.971896
3394.504460,2072.576638,-10732.986159,-1149.143247
3394.504788,1480.411884,-12731.542202,1149.143247
3394.505116,1258.350101,-11399.171507,1838.629195
3394.505443,2072.576638,-10066.800811,-1225.752797
3394.505771,592.164754,-9918.759623,-612.876398
3394.506099,0.000000,-9326.594869,-766.095498
3394.506426,296.082377,-7031.956449,0.000000
3394.506754,0.000000,-7031.956449,0.000000
3394.507082,518.144159,-8586.388927,919.314598
3394.507409,1406.391290,-10066.800811,919.314598
3394.507737,2516.700203,-11103.089130,-306.438199
3394.508065,2960.823768,-10732.986159,-536.266849
3394.508392,2294.638420,-10732.986159,-842.705048
3394.508720,2220.617826,-10066.800811,0.000000
3394.509048,2960.823768,-9696.697840,1149.143247
3394.509375,1480.411884,-9178.553681,919.314598
3394.509703,0.000000,-8660.409521,842.705048
3394.510031,-1258.350101,-9326.594869,766.095498
3394.510358,-370.102971,-9400.615463,-1838.629195
3394.510686,-370.102971,-10436.903782,-1608.800546
3394.511014,-1480.411884,-9696.697840,-536.266849
3394.511341,-222.061783,-7846.182985,-536.266849
3394.511669,1406.391290,-8438.347739,-995.924147
3394.511997,2368.659014,-10584.944971,0.000000
3394.512324,1776.494261,-8364.327145,1378.971896
3394.512652,1924.535449,-7772.162391,919.314598
3394.512980,1332.370696,-11103.089130,536.266849
3394.513307,1480.411884,-13175.665768,459.657299
3394.513635,592.164754,-10955.047942,229.828649
3394.513963,-222.061783,-9548.656652,-536.266849
3394.514290,-666.185348,-10510.924376,-689.485948
3394.514618,444.123565,-9992.780217,-2757.943793
3394.514946,-592.164754,-9400.615463,-1149.143247
3394.515273,-1258.350101,-8586.388927,766.095498
3394.515601,518.144159,-9326.594869,0.000000
3394.515929,888.247130,-9992.780217,306.438199
3394.516256,0.000000,-10362.883188,612.876398
3394.516584,-1480.411884,-9252.574275,-229.828649
3394.516912,-1776.494261,-9474.636058,-995.924147
3394.517239,-1110.308913,-9474.636058,-1302.362347
3394.517567,-444.123565,-10362.883188,-1532.190996
3394.517895,-1998.556043,-10955.047942,383.047749
3394.518222,0.000000,-9178.553681,153.219100
3394.518550,1480.411884,-9400.615463,-919.314598
3394.518878,74.020594,-11843.295072,0.000000
3394.519205,-370.102971,-9474.636058,919.314598
3394.519533,0.000000,-7476.080014,0.000000
3394.519861,296.082377,-9030.512492,612.876398
3394.520188,666.185348,-8364.327145,0.000000
3394.520516,-888.247130,-9400.615463,1532.190996
3394.520843,-2738.761985,-8734.430116,1991.848295
3394.521171,-1184.329507,-10436.903782,-1685.410096
3394.521499,-814.226536,-9844.739029,-4136.915689
3394.521826,148.041188,-10140.821405,-3370.820191
3394.522154,-518.144159,-9696.697840,459.657299
3394.522482,0.000000,-11621.233289,2221.676944
3394.522809,1036.288319,-11917.315666,1762.019645
3394.523137,2960.823768,-10584.944971,-1915.238745
3394.523465,592.164754,-9844.739029,-1685.410096
3394.523792,-1110.308913,-8364.327145,0.000000
3394.524120,74.020594,-7254.018232,306.438199
3394.524448,592.164754,-7698.141797,-229.828649
3394.524775,370.102971,-8438.347739,1685.410096
3394.525103,814.226536,-7698.141797,1685.410096
3394.525431,2072.576638,-10288.862594,1149.143247
3394.525758,2368.659014,-11769.274478,-689.485948
3394.526086,2590.720797,-10955.047942,-2068.457845
3394.526414,1110.308913,-10288.862594,-1225.752797
3394.526741,3775.050304,-9622.677246,-459.657299
3394.527069,4441.235652,-9030.512492,76.609550
3394.527397,1332.370696,-9696.697840,2068.457845
3394.527724,-1036.288319,-10732.986159,2911.162892
3394.528052,-1258.350101,-10066.800811,306.438199
3394.528380,-592.164754,-9474.636058,-1838.629195
3394.528707,-1406.391290,-7920.203579,-2451.505594
3394.529035,-814.226536,-9252.574275,-1532.190996
3394.529363,0.000000,-9548.656652,0.000000
3394.529690,2738.761985,-8956.491898,-459.657299
3394.530018,2812.782580,-8882.471304,-995.924147
3394.530346,1850.514855,-10584.944971,1455.581446
3394.530673,888.247130,-10066.800811,2374.896044
3394.531001,1332.370696,-11769.274478,995.924147
3394.531329,148.041188,-11251.130318,0.000000
3394.531656,1184.329507,-10807.006753,-842.705048
3394.531984,592.164754,-10881.027347,-153.219100
3394.532312,592.164754,-8956.491898,-1149.143247
3394.532639,222.061783,-9400.615463,-1302.362347
3394.532967,-444.123565,-9104.533087,-1072.533697
3394.533295,0.000000,-8068.244768,153.219100
3394.533622,-592.164754,-7994.224174,612.876398
3394.533950,-1332.370696,-8956.491898,842.705048
3394.534278,-1480.411884,-9326.594869,-459.657299
3394.534605,-296.082377,-11177.109724,-1532.190996
3394.534933,-444.123565,-11547.212695,-1225.752797
3394.535261,370.102971,-9474.636058,-1608.800546
3394.535588,222.061783,-9474.636058,76.609550
3394.535916,0.000000,-10658.965565,842.705048
3394.536244,0.000000,-10436.903782,689.485948
3394.536571,-1406.391290,-8512.368333,229.828649
3394.536899,-1924.535449,-7402.059420,459.657299
3394.537227,-888.247130,-7476.080014,-995.924147
3394.537554,0.000000,-10288.862594,-383.047749
3394.537882,-592.164754,-9104.533087,459.657299
3394.538210,148.041188,-8438.347739,0.000000
3394.538537,-1406.391290,-9770.718434,-153.219100
3394.538865,-1110.308913,-11473.192101,-1532.190996
3394.539193,-444.123565,-10584.944971,-2451.505594
3394.539520,0.000000,-9474.636058,-1532.190996
3394.539848,888.247130,-9474.636058,383.047749
3394.540176,1184.329507,-12509.480420,1149.143247
3394.540503,592.164754,-12953.603985,2374.896044
3394.540831,888.247130,-8734.430116,-1149.143247
3394.541158,962.267725,-8882.471304,-3217.601092
3394.541486,-1110.308913,-9696.697840,-1915.238745
3394.541814,-222.061783,-8512.368333,-306.438199
3394.542141,666.185348,-7328.038826,612.876398
3394.542469,-148.041188,-7476.080014,2528.115143
3394.542797,888.247130,-7846.182985,2451.505594
3394.543124,2368.659014,-10066.800811,76.609550
3394.543452,740.205942,-12065.356855,0.000000
3394.543780,1702.473667,-11769.274478,-1685.410096
3394.544107,2516.700203,-9474.636058,-2528.115143
3394.544435,3775.050304,-9770.718434,-383.047749
3394.544763,3404.947333,-10658.965565,612.876398
3394.545090,370.102971,-9326.594869,2298.286494
3394.545418,-2072.576638,-8586.388927,3217.601092
3394.545746,222.061783,-9104.533087,-1225.752797
3394.546073,740.205942,-11843.295072,-2757.943793
3394.546401,-740.205942,-9770.718434,-689.485948
3394.546729,666.185348,-7772.162391,-1225.752797
3394.547056,1332.370696,-8808.450710,-919.314598
3394.547384,1924.535449,-10066.800811,-459.657299
3394.547712,1184.329507,-9104.533087,0.000000
3394.548039,-666.185348,-8216.285956,612.876398
3394.548367,888.247130,-9992.780217,153.219100
3394.548695,2146.597232,-12805.562797,-536.266849
3394.549022,1406.391290,-13471.748144,459.657299
3394.549350,518.144159,-10214.842000,0.000000
3394.549678,1998.556043,-10658.965565,-1685.410096
3394.550005,1258.350101,-11399.171507,-1838.629195
3394.550333,666.185348,-10214.842000,-842.705048
3394.550661,-814.226536,-7328.038826,536.266849
3394.550988,-1924.535449,-6809.894666,2145.067394
3394.551316,0.000000,-8438.347739,536.266849
3394.551644,-592.164754,-9622.677246,0.000000
3394.551971,-2072.576638,-9104.533087,0.000000
3394.552299,-1332.370696,-9474.636058,-2068.457845
3394.552627,-222.061783,-11177.109724,-3064.381992
3394.552954,0.000000,-11843.295072,-1991.848295
3394.553282,0.000000,-9622.677246,76.609550
3394.553610,-518.144159,-8660.409521,2298.286494
3394.553937,814.226536,-8364.327145,1915.238745
3394.554265,888.247130,-9696.697840,153.219100
3394.554593,-592.164754,-10362.883188,919.314598
3394.554920,-814.226536,-7698.141797,0.000000
3394.555248,-1110.308913,-7254.018232,-1072.533697
3394.555576,0.000000,-9844.739029,0.000000
3394.555903,-148.041188,-8660.409521,536.266849
3394.556231,-1554.432478,-9104.533087,1302.362347
3394.556559,-1924.535449,-9622.677246,-842.705048
3394.556886,-1258.350101,-10658.965565,-3064.381992
3394.557214,-888.247130,-10881.027347,-2834.553343
3394.557542,-148.041188,-9474.636058,0.000000
3394.557869,518.144159,-9992.780217,1762.019645
3394.558197,2294.638420,-11991.336260,2451.505594
3394.558525,2442.679609,-11029.068536,153.219100
3394.558852,2220.617826,-10140.821405,-1455.581446
3394.559180,-1184.329507,-9474.636058,-995.924147
3394.559508,-2146.597232,-7105.977043,-995.924147
3394.559835,-370.102971,-7254.018232,-1072.533697
3394.560163,-296.082377,-8660.409521,0.000000
3394.560491,370.102971,-8660.409521,1608.800546
3394.560818,2368.659014,-9178.553681,1838.629195
3394.561146,3552.988522,-11621.233289,-383.047749
3394.561473,3256.906145,-13027.624579,-1149.143247
3394.561801,2590.720797,-10362.883188,-995.924147
3394.562129,1702.473667,-8586.388927,306.438199
3394.562456,2368.659014,-7105.977043,1072.533697
3394.562784,1554.432478,-9400.615463,612.876398
3394.563112,-2220.617826,-9252.574275,1762.019645
3394.563439,-1776.494261,-8956.491898,0.000000
3394.563767,370.102971,-9918.759623,-2528.115143
3394.564095,370.102971,-11399.171507,-2757.943793
3394.564422,592.164754,-10362.883188,-2068.457845
3394.564750,74.020594,-8808.450710,306.438199
3394.565078,1036.288319,-8142.265362,306.438199
3394.565405,2220.617826,-8438.347739,153.219100
3394.565733,962.267725,-9030.512492,383.047749
3394.566061,0.000000,-9622.677246,1072.533697
3394.566388,1036.288319,-10881.027347,0.000000
3394.566716,1998.556043,-11843.295072,-1072.533697
3394.567044,1628.453072,-11917.315666,-1149.143247
3394.567371,1184.329507,-11177.109724,-459.657299
3394.567699,666.185348,-10510.924376,-1072.533697
3394.568027,222.061783,-9844.739029,-1838.629195
3394.568354,-222.061783,-8216.285956,-1225.752797
3394.568682,-370.102971,-9030.512492,383.047749
3394.569010,0.000000,-9178.553681,1378.971896
3394.569337,0.000000,-8364.327145,1302.362347
3394.569665,-518.144159,-8068.244768,-1225.752797
3394.569993,-1554.432478,-10732.986159,-1991.848295
3394.570320,-1554.432478,-10732.986159,-1608.800546
3394.570648,-962.267725,-9400.615463,-1378.971896
3394.570976,-592.164754,-9030.512492,0.000000
3394.571303,-444.123565,-10140.821405,689.485948
3394.571631,-148.041188,-10510.924376,1225.752797
3394.571959,1184.329507,-9030.512492,689.485948
3394.572286,518.144159,-9104.533087,459.657299
3394.572614,0.000000,-8956.491898,229.828649
3394.572942,-222.061783,-9030.512492,306.438199
3394.573269,-518.144159,-9400.615463,1149.143247
3394.573597,148.041188,-8290.306550,383.047749
3394.573925,-1258.350101,-7179.997637,842.705048
3394.574252,-1702.473667,-9622.677246,383.047749
3394.574580,-1480.411884,-11399.171507,-919.314598
3394.574907,-1850.514855,-9326.594869,-2374.896044
3394.575235,-592.164754,-8290.306550,-2068.457845
3394.575562,814.226536,-10955.047942,-689.485948
3394.575890,1628.453072,-13471.748144,2298.286494
3394.576218,1332.370696,-11103.089130,2068.457845
3394.576545,1702.473667,-9252.574275,-306.438199
3394.576873,148.041188,-9400.615463,-1915.238745
3394.577200,-1110.308913,-9918.759623,-1378.971896
3394.577528,-1776.494261,-7105.977043,-842.705048
3394.577855,-666.185348,-6069.688724,-612.876398
3394.578183,222.061783,-8512.368333,-229.828649
3394.578511,1998.556043,-11547.212695,689.485948
3394.578838,2072.576638,-12361.439231,1302.362347
3394.579166,2590.720797,-10955.047942,0.000000
3394.579493,2886.803174,-10214.842000,-919.314598
3394.579821,3627.009116,-10881.027347,-1378.971896
3394.580148,3478.967927,-9474.636058,229.828649
3394.580476,2590.720797,-6735.874072,612.876398
3394.580804,-148.041188,-9252.574275,1455.581446
3394.581131,-370.102971,-11029.068536,766.095498
3394.581459,1776.494261,-11843.295072,-766.095498
3394.581786,296.082377,-9474.636058,-2451.505594
3394.582114,-962.267725,-8438.347739,-1225.752797
3394.582441,222.061783,-9030.512492,-995.924147
3394.582769,2368.659014,-11251.130318,-1302.362347
3394.583097,2960.823768,-9992.780217,459.657299
3394.583424,1924.535449,-7328.038826,689.485948
3394.583752,1406.391290,-9104.533087,612.876398
3394.584079,2368.659014,-12065.356855,459.657299
3394.584407,1480.411884,-12583.501014,459.657299
3394.584734,0.000000,-9252.574275,459.657299
3394.585062,0.000000,-9030.512492,536.266849
3394.585390,1110.308913,-9622.677246,-1762.019645
3394.585717,148.041188,-10732.986159,-2374.896044
3394.586045,-1332.370696,-9326.594869,-612.876398
3394.586372,-222.061783,-7772.162391,-689.485948
3394.586700,-296.082377,-9696.697840,-306.438199
3394.587027,0.000000,-9844.739029,536.266849
3394.587355,-1628.453072,-8216.285956,1685.410096
3394.587683,-1184.329507,-8438.347739,0.000000
3394.588010,74.020594,-10955.047942,0.000000
3394.588338,-296.082377,-11251.130318,-2145.067394
3394.588665,-1036.288319,-9474.636058,0.000000
3394.588993,-1184.329507,-8290.306550,689.485948
3394.589320,-222.061783,-9474.636058,306.438199
3394.589648,148.041188,-11103.089130,-689.485948
3394.589976,-592.164754,-10362.883188,612.876398
3394.590303,-1332.370696,-8290.306550,0.000000
3394.590631,-1036.288319,-7772.162391,-536.266849
3394.590958,-222.061783,-10066.800811,383.047749
3394.591286,-740.205942,-9992.780217,383.047749
3394.591613,-2220.617826,-9030.512492,842.705048
3394.591941,-1406.391290,-7772.162391,-766.095498
3394.592269,-592.164754,-9918.759623,-1302.362347
3394.592596,148.041188,-10732.986159,-1302.362347
3394.592924,-962.267725,-10066.800811,536.266849
3394.593251,-2516.700203,-9474.636058,1762.019645
3394.593579,-2294.638420,-9474.636058,-153.219100
3394.593906,-962.267725,-11769.274478,-2604.724693
3394.594234,-148.041188,-11917.315666,-2374.896044
3394.594562,1110.308913,-9252.574275,-1149.143247
3394.594889,1702.473667,-7254.018232,0.000000
3394.595217,2368.659014,-10955.047942,1072.533697
3394.595544,1924.535449,-11251.130318,1991.848295
3394.595872,1480.411884,-7920.203579,612.876398
3394.596199,0.000000,-7031.956449,-612.876398
3394.596527,0.000000,-9992.780217,-1072.533697
3394.596855,666.185348,-9844.739029,-1915.238745
3394.597182,1628.453072,-9252.574275,-383.047749
3394.597510,1628.453072,-8956.491898,536.266849
3394.597837,3404.947333,-11621.233289,766.095498
3394.598165,4441.235652,-11769.274478,306.438199
3394.598492,3108.864956,-11621.233289,766.095498
3394.598820,370.102971,-8142.265362,689.485948
3394.599148,740.205942,-6365.771101,0.000000
3394.599475,1036.288319,-6513.812290,0.000000
3394.599803,-370.102971,-7105.977043,536.266849
3394.600130,-2368.659014,-8882.471304,1455.581446
3394.600458,0.000000,-10288.862594,-995.924147
3394.600785,3404.947333,-12065.356855,-2528.115143
3394.601113,4663.297435,-12361.439231,-2451.505594
3394.601441,2220.617826,-12065.356855,383.047749
3394.601768,1332.370696,-10436.903782,2451.505594
3394.602096,2812.782580,-10288.862594,536.266849
3394.602423,1110.308913,-8956.491898,-459.657299
3394.602751,-370.102971,-9474.636058,383.047749
3394.603078,-1480.411884,-8438.347739,229.828649
3394.603406,-592.164754,-8734.430116,-229.828649
3394.603733,518.144159,-10214.842000,-1149.143247
3394.604061,370.102971,-12065.356855,459.657299
3394.604389,296.082377,-10584.944971,536.266849
3394.604716,-444.123565,-7920.203579,-766.095498
3394.605044,-2146.597232,-10658.965565,-1302.362347
3394.605371,-962.267725,-11103.089130,-2068.457845
3394.605699,-444.123565,-9474.636058,-766.095498
3394.606026,-296.082377,-9104.533087,919.314598
3394.606354,-222.061783,-9696.697840,1685.410096
3394.606682,-370.102971,-10807.006753,0.000000
3394.607009,-518.144159,-11029.068536,-459.657299
3394.607337,-1850.514855,-9770.718434,-1455.581446
3394.607664,-1332.370696,-7772.162391,-1302.362347
3394.607992,-2072.576638,-7698.141797,0.000000
3394.608319,-592.164754,-9178.553681,766.095498
3394.608647,-740.205942,-10066.800811,2145.067394
3394.608975,814.226536,-8734.430116,153.219100
3394.609302,1332.370696,-8438.347739,0.000000
3394.609630,0.000000,-10436.903782,-919.314598
3394.609957,-1258.350101,-10807.006753,-229.828649
3394.610285,-1110.308913,-8068.244768,-459.657299
3394.610612,-814.226536,-8438.347739,-229.828649
3394.610940,-666.185348,-10214.842000,-306.438199
3394.611268,-1036.288319,-9548.656652,1149.143247
3394.611595,-592.164754,-9918.759623,612.876398
3394.611923,-1406.391290,-11473.192101,-1915.238745
3394.612250,-1184.329507,-11399.171507,-4136.915689
3394.612578,-370.102971,-9326.594869,-3677.258390
3394.612905,518.144159,-9178.553681,-995.924147
3394.613233,1258.350101,-9622.677246,1991.848295
3394.613561,1628.453072,-9400.615463,3983.696590
3394.613888,2590.720797,-8956.491898,995.924147
3394.614216,2664.741391,-10584.944971,-153.219100
3394.614543,740.205942,-10436.903782,-842.705048
3394.614871,740.205942,-8956.491898,-612.876398
3394.615198,1628.453072,-9252.574275,-1685.410096
3394.615526,888.247130,-10807.006753,-689.485948
3394.615854,740.205942,-10362.883188,919.314598
3394.616181,1406.391290,-9844.739029,2068.457845
3394.616509,1406.391290,-9548.656652,919.314598
3394.616836,1036.288319,-10288.862594,76.609550
3394.617164,-370.102971,-8142.265362,229.828649
3394.617491,74.020594,-5477.523971,-689.485948
3394.617819,74.020594,-7105.977043,-1225.752797
3394.618147,0.000000,-10584.944971,-612.876398
3394.618474,1110.308913,-11177.109724,689.485948
3394.618802,2590.720797,-10362.883188,919.314598
3394.619129,3775.050304,-10732.986159,-229.828649
3394.619457,2664.741391,-12213.398043,-766.095498
3394.619784,1850.514855,-12805.562797,76.609550
3394.620112,888.247130,-9104.533087,612.876398
3394.620440,1850.514855,-7031.956449,0.000000
3394.620767,888.247130,-7179.997637,-383.047749
3394.621095,0.000000,-10436.903782,1072.533697
3394.621422,-592.164754,-10140.821405,1915.238745
3394.621750,0.000000,-9696.697840,229.828649
3394.622077,-296.082377,-9326.594869,-1072.533697
3394.622405,-518.144159,-9918.759623,-2221.676944
3394.622733,-2664.741391,-10807.006753,-1072.533697
3394.623060,-1258.350101,-10955.047942,-1149.143247
3394.623388,666.185348,-9252.574275,-1991.848295
3394.623715,1332.370696,-10807.006753,-1149.143247
3394.624043,222.061783,-11843.295072,1225.752797
3394.624370,-592.164754,-9548.656652,2145.067394
3394.624698,74.020594,-8882.471304,76.609550
3394.625026,-666.185348,-10214.842000,-306.438199
3394.625353,-1110.308913,-10288.862594,-689.485948
3394.625681,-1850.514855,-8586.388927,383.047749
3394.626008,-1036.288319,-7179.997637,612.876398
3394.626336,666.185348,-8586.388927,229.828649
3394.626663,518.144159,-10510.924376,-229.828649
3394.626991,-518.144159,-9548.656652,459.657299
3394.627319,-1184.329507,-8068.244768,0.000000
3394.627646,-370.102971,-9474.636058,-1225.752797
3394.627974,-1184.329507,-9696.697840,-766.095498
3394.628301,222.061783,-11843.295072,0.000000
3394.628629,-814.226536,-8956.491898,995.924147
3394.628956,-222.061783,-8438.347739,1378.971896
3394.629284,-592.164754,-11473.192101,-459.657299
3394.629612,-814.226536,-12139.377449,-2528.115143
3394.629939,-1776.494261,-7698.141797,-1532.190996
3394.630267,296.082377,-6809.894666,-3064.381992
3394.630594,-222.061783,-9622.677246,0.000000
3394.630922,1036.288319,-12065.356855,1991.848295
3394.631249,2072.576638,-10362.883188,1608.800546
3394.631577,2146.597232,-8438.347739,0.000000
3394.631905,2220.617826,-8882.471304,-995.924147
3394.632232,1184.329507,-10658.965565,-1225.752797
3394.632560,444.123565,-9918.759623,-383.047749
3394.632887,518.144159,-8512.368333,-229.828649
3394.633215,962.267725,-9326.594869,0.000000
3394.633542,1184.329507,-10140.821405,995.924147
3394.633870,2146.597232,-11251.130318,766.095498
3394.634198,0.000000,-11399.171507,842.705048
3394.634525,0.000000,-9104.533087,-383.047749
3394.634853,1036.288319,-7105.977043,-2834.553343
3394.635180,74.020594,-7105.977043,-2298.286494
3394.635508,-444.123565,-8660.409521,459.657299
3394.635835,1184.329507,-8956.491898,1685.410096
3394.636163,2886.803174,-10362.883188,1532.190996
3394.636490,3627.009116,-11843.295072,0.000000
3394.636818,2812.782580,-12731.542202,-919.314598
3394.637146,0.000000,-10807.006753,-383.047749
3394.637473,1184.329507,-9178.553681,-1378.971896
3394.637801,814.226536,-9770.718434,-1915.238745
3394.638128,74.020594,-10066.800811,-612.876398
3394.638456,592.164754,-8216.285956,459.657299
3394.638783,1480.411884,-8660.409521,612.876398
3394.639111,0.000000,-10214.842000,1685.410096
3394.639439,740.205942,-10436.903782,0.000000
3394.639766,296.082377,-9326.594869,-689.485948
3394.640094,0.000000,-8808.450710,-1225.752797
3394.640421,518.144159,-9918.759623,-2298.286494
3394.640749,74.020594,-11177.109724,-842.705048
3394.641076,888.247130,-10066.800811,459.657299
3394.641404,1184.329507,-8586.388927,-536.266849
3394.641732,-962.267725,-10584.944971,766.095498
3394.642059,-370.102971,-10436.903782,153.219100
3394.642387,74.020594,-9474.636058,-1532.190996
3394.642714,-962.267725,-11325.150913,-612.876398
3394.643042,-592.164754,-9252.574275,-612.876398
3394.643369,-814.226536,-7698.141797,-306.438199
3394.643697,0.000000,-8734.430116,536.266849
3394.644025,0.000000,-9770.718434,995.924147
3394.644352,-1258.350101,-9178.553681,1149.143247
3394.644680,-1258.350101,-7920.203579,0.000000
3394.645007,-1628.453072,-8290.306550,-1915.238745
3394.645335,0.000000,-11103.089130,-1608.800546
3394.645662,-888.247130,-10732.986159,-229.828649
3394.645990,-518.144159,-10436.903782,842.705048
3394.646318,2072.576638,-10584.944971,-612.876398
3394.646645,444.123565,-10436.903782,229.828649
3394.646973,-1924.535449,-9474.636058,2068.457845
3394.647300,-1924.535449,-9474.636058,0.000000
3394.647628,-1998.556043,-8586.388927,-2298.286494
3394.647955,0.000000,-9252.574275,-3064.381992
3394.648283,740.205942,-9474.636058,-1225.752797
3394.648611,-592.164754,-9326.594869,2068.457845
3394.648938,1406.391290,-9474.636058,1455.581446
3394.649266,1924.535449,-10214.842000,-2221.676944
3394.649593,-370.102971,-12139.377449,-689.485948
3394.649921,0.000000,-9548.656652,-1225.752797
3394.650248,592.164754,-7920.203579,-1991.848295
3394.650576,814.226536,-9030.512492,229.828649
3394.650904,1702.473667,-11251.130318,766.095498
3394.651231,370.102971,-11399.171507,2374.896044
3394.651559,1480.411884,-8438.347739,1302.362347
3394.651886,2072.576638,-9178.553681,-1149.143247
3394.652214,518.144159,-11029.068536,-1072.533697
3394.652541,0.000000,-8660.409521,306.438199
3394.652869,-370.102971,-5921.647536,-689.485948
3394.653197,518.144159,-8142.265362,76.609550
3394.653524,296.082377,-9030.512492,0.000000
3394.653852,1258.350101,-12065.356855,536.266849
3394.654179,1776.494261,-11029.068536,0.000000
3394.654507,3997.112087,-10436.903782,-2068.457845
3394.654834,3108.864956,-11399.171507,-842.705048
3394.655162,2516.700203,-12657.521608,1302.362347
3394.655490,1554.432478,-10584.944971,1685.410096
3394.655817,518.144159,-6587.832884,306.438199
3394.656145,-370.102971,-7031.956449,-383.047749
3394.656472,-370.102971,-9844.739029,-689.485948
3394.656800,0.000000,-11029.068536,0.000000
3394.657127,-814.226536,-7846.182985,0.000000
3394.657455,962.267725,-10066.800811,306.438199
3394.657783,2590.720797,-11843.295072,-1072.533697
3394.658110,1628.453072,-11325.150913,-612.876398
3394.658438,-666.185348,-8956.491898,229.828649
3394.658765,-518.144159,-8290.306550,-689.485948
3394.659093,296.082377,-9400.615463,-612.876398
3394.659420,518.144159,-11251.130318,612.876398
3394.659748,-1628.453072,-10140.821405,1838.629195
3394.660076,-814.226536,-8586.388927,689.485948
3394.660403,296.082377,-10066.800811,-1915.238745
3394.660731,-222.061783,-11695.253884,-2298.286494
3394.661058,-1036.288319,-9104.533087,-536.266849
3394.661386,-1406.391290,-6069.688724,536.266849
3394.661713,0.000000,-8068.244768,76.609550
3394.662041,1110.308913,-9844.739029,919.314598
3394.662369,740.205942,-10584.944971,995.924147
3394.662696,-888.247130,-8290.306550,689.485948
3394.663024,0.000000,-7846.182985,-1149.143247
3394.663351,148.041188,-11103.089130,-2298.286494
3394.663679,-814.226536,-11325.150913,-612.876398
3394.664006,444.123565,-10362.883188,76.609550
3394.664334,0.000000,-8956.491898,766.095498
3394.664662,-518.144159,-10214.842000,1991.848295
3394.664989,-1850.514855,-10807.006753,383.047749
3394.665317,-2516.700203,-11177.109724,-1225.752797
3394.665644,-2738.761985,-7402.059420,-2834.553343
3394.665972,666.185348,-7920.203579,-3830.477490
3394.666299,1036.288319,-11325.150913,-536.266849
3394.666627,1998.556043,-11547.212695,2604.724693
3394.666955,2072.576638,-9770.718434,2451.505594
3394.667282,740.205942,-9770.718434,842.705048
3394.667610,0.000000,-9844.739029,-995.924147
3394.667937,-444.123565,-10362.883188,-2068.457845
3394.668265,-740.205942,-8734.430116,-1225.752797
3394.668592,592.164754,-7550.100608,-153.219100
3394.668920,1998.556043,-9918.759623,-229.828649
3394.669248,2220.617826,-12435.459826,1532.190996
3394.669575,1480.411884,-10955.047942,1302.362347
3394.669903,518.144159,-8364.327145,306.438199
3394.670230,-962.267725,-7402.059420,0.000000
3394.670558,-592.164754,-6957.935855,-153.219100
3394.670885,-740.205942,-6809.894666,766.095498
3394.671213,-888.247130,-8512.368333,842.705048
3394.671540,74.020594,-9252.574275,-536.266849
3394.671868,1850.514855,-12139.377449,-1991.848295
3394.672196,2368.659014,-12731.542202,-2528.115143
3394.672523,2516.700203,-12065.356855,-766.095498
3394.672851,1998.556043,-11325.150913,1302.362347
3394.673178,2146.597232,-9622.677246,1838.629195
3394.673506,2294.638420,-10955.047942,1072.533697
3394.673834,1554.432478,-8290.306550,842.705048
3394.674161,-148.041188,-6883.915261,76.609550
3394.674489,-444.123565,-7476.080014,-919.314598
3394.674816,-518.144159,-9104.533087,-2298.286494
3394.675144,-444.123565,-9474.636058,-995.924147
3394.675471,222.061783,-10510.924376,306.438199
3394.675799,962.267725,-11621.233289,919.314598
3394.676127,1998.556043,-10510.924376,-306.438199
3394.676454,1480.411884,-11029.068536,-612.876398
3394.676782,0.000000,-10510.924376,-1149.143247
3394.677109,-370.102971,-9400.615463,-1225.752797
3394.677437,0.000000,-8956.491898,-459.657299
3394.677764,74.020594,-9474.636058,-1072.533697
3394.678092,-814.226536,-10288.862594,1072.533697
3394.678420,-222.061783,-10214.842000,1072.533697
3394.678747,-1406.391290,-8142.265362,383.047749
3394.679075,-740.205942,-9178.553681,0.000000
3394.679402,-666.185348,-8956.491898,76.609550
3394.679730,-962.267725,-7402.059420,766.095498
3394.680057,0.000000,-8216.285956,-689.485948
3394.680385,962.267725,-9548.656652,-1072.533697
3394.680713,0.000000,-10658.965565,-842.705048
3394.681040,74.020594,-9696.697840,0.000000
3394.681368,0.000000,-10510.924376,842.705048
3394.681695,592.164754,-9992.780217,995.924147
3394.682023,-1036.288319,-9252.574275,1608.800546
3394.682351,-2442.679609,-9622.677246,1149.143247
3394.682678,-2294.638420,-10510.924376,-1915.238745
3394.683006,-962.267725,-8882.471304,-3677.258390
3394.683333,0.000000,-9178.553681,-3524.039291
3394.683661,592.164754,-10362.883188,-766.095498
3394.683988,1036.288319,-10955.047942,1991.848295
3394.684316,2368.659014,-9548.656652,2221.676944
3394.684644,2294.638420,-9474.636058,1225.752797
3394.684971,222.061783,-10807.006753,612.876398
3394.685299,-888.247130,-9104.533087,-306.438199
3394.685626,-1110.308913,-7920.203579,-2298.286494
3394.685954,-296.082377,-8290.306550,-2451.505594
3394.686281,518.144159,-10955.047942,-1685.410096
3394.686609,592.164754,-12139.377449,1302.362347
3394.686937,2072.576638,-11473.192101,1225.752797
3394.687264,2072.576638,-10510.924376,0.000000
3394.687592,1110.308913,-10881.027347,0.000000
3394.687919,296.082377,-9178.553681,383.047749
3394.688247,0.000000,-4811.338623,153.219100
3394.688574,0.000000,-5255.462188,536.266849
3394.688902,222.061783,-8882.471304,-306.438199
3394.689230,222.061783,-11473.192101,0.000000
3394.689557,1110.308913,-11251.130318,-153.219100
3394.689885,1406.391290,-10584.944971,-2068.457845
3394.690212,1406.391290,-10732.986159,-1302.362347
3394.690540,1332.370696,-11991.336260,-306.438199
3394.690868,666.185348,-9696.697840,919.314598
3394.691195,1110.308913,-8290.306550,1072.533697
3394.691523,1702.473667,-8586.388927,-306.438199
3394.691850,962.267725,-9326.594869,-1302.362347
3394.692178,74.020594,-9400.615463,-459.657299
3394.692505,-1110.308913,-8734.430116,153.219100
3394.692833,74.020594,-9252.574275,536.266849
3394.693161,1406.391290,-9622.677246,-229.828649
3394.693488,1702.473667,-11621.233289,-612.876398
3394.693816,0.000000,-11177.109724,76.609550
3394.694143,2146.597232,-9918.759623,-995.924147
3394.694471,2368.659014,-9992.780217,-2987.772442
3394.694798,666.185348,-11621.233289,-1915.238745
3394.695126,-1332.370696,-11029.068536,536.266849
3394.695454,-888.247130,-9474.636058,995.924147
3394.695781,148.041188,-8808.450710,-229.828649
3394.696109,0.000000,-10510.924376,-689.485948
3394.696436,-1628.453072,-10214.842000,459.657299
3394.696764,-1480.411884,-6365.771101,766.095498
3394.697091,370.102971,-7476.080014,-689.485948
3394.697419,666.185348,-8586.388927,-1378.971896
3394.697747,0.000000,-10288.862594,-536.266849
3394.698074,-1184.329507,-10066.800811,842.705048
3394.698402,518.144159,-8882.471304,-459.657299
3394.698729,370.102971,-10066.800811,-612.876398
3394.699057,1924.535449,-11917.315666,612.876398
3394.699384,-370.102971,-8956.491898,2911.162892
3394.699712,-1554.432478,-8290.306550,2298.286494
3394.700040,-1702.473667,-10288.862594,-919.314598
3394.700367,-1628.453072,-10732.986159,-3677.258390
3394.700695,-1998.556043,-8364.327145,-4060.306139
3394.701022,-2664.741391,-7550.100608,-1225.752797
3394.701350,-1998.556043,-9104.533087,1915.238745
3394.701678,2368.659014,-11621.233289,1532.190996
3394.702005,2812.782580,-11177.109724,0.000000
3394.702333,1332.370696,-10214.842000,0.000000
3394.702660,74.020594,-8660.409521,-459.657299
3394.702988,666.185348,-8068.244768,-766.095498
3394.703315,888.247130,-8734.430116,-2145.067394
3394.703643,-1110.308913,-8586.388927,306.438199
3394.703971,-444.123565,-9252.574275,2068.457845
3394.704298,1850.514855,-11473.192101,1915.238745
3394.704626,3404.947333,-13027.624579,-1225.752797
3394.704953,1036.288319,-11325.150913,-612.876398
3394.705281,0.000000,-7994.224174,0.000000
3394.705608,740.205942,-7402.059420,-1762.019645
3394.705936,222.061783,-5995.668130,-2298.286494
3394.706264,-1184.329507,-9622.677246,536.266849
3394.706591,-1258.350101,-10658.965565,2451.505594
3394.706919,2072.576638,-11029.068536,612.876398
3394.707246,3108.864956,-11621.233289,-1685.410096
3394.707574,1776.494261,-11991.336260,-1532.190996
3394.707901,-592.164754,-9918.759623,459.657299
3394.708229,1406.391290,-8734.430116,-1378.971896
3394.708557,1628.453072,-9474.636058,-1072.533697
3394.708884,370.102971,-9548.656652,76.609550
3394.709212,222.061783,-9474.636058,919.314598
3394.709539,1036.288319,-9918.759623,995.924147
3394.709867,1998.556043,-9622.677246,76.609550
3394.710195,444.123565,-8512.368333,919.314598
3394.710522,-296.082377,-9326.594869,1685.410096
3394.710850,740.205942,-9252.574275,0.000000
3394.711177,962.267725,-9030.512492,-1915.238745
3394.711505,592.164754,-9400.615463,-766.095498
3394.711832,1184.329507,-10214.842000,-919.314598
3394.712160,814.226536,-11843.295072,-229.828649
3394.712488,-370.102971,-10362.883188,0.000000
3394.712815,-666.185348,-9474.636058,-153.219100
3394.713143,-666.185348,-10881.027347,-1225.752797
3394.713470,-296.082377,-11547.212695,-919.314598
3394.713798,-296.082377,-9622.677246,-229.828649
3394.714125,222.061783,-7328.038826,0.000000
3394.714453,740.205942,-7994.224174,0.000000
3394.714781,1184.329507,-9548.656652,229.828649
3394.715108,-370.102971,-8586.388927,1378.971896
3394.715436,-592.164754,-7772.162391,383.047749
3394.715763,-888.247130,-10066.800811,-842.705048
3394.716091,-666.185348,-11103.089130,-1762.019645
3394.716418,1110.308913,-10066.800811,-1762.019645
3394.716746,-148.041188,-9918.759623,76.609550
3394.717074,-888.247130,-9770.718434,2374.896044
3394.717401,-1776.494261,-10436.903782,229.828649
3394.717729,-1998.556043,-11843.295072,-2298.286494
3394.718056,-1184.329507,-8956.491898,-3140.991542
3394.718384,-518.144159,-8068.244768,-1915.238745
3394.718712,-814.226536,-10436.903782,1608.800546
3394.719039,222.061783,-11843.295072,3064.381992
3394.719367,1110.308913,-8290.306550,1608.800546
3394.719694,2368.659014,-7698.141797,-1532.190996
3394.720022,592.164754,-9104.533087,-2068.457845
3394.720349,296.082377,-11621.233289,-1072.533697
3394.720677,0.000000,-9548.656652,383.047749
3394.721005,-740.205942,-8660.409521,536.266849
3394.721332,-444.123565,-9326.594869,1532.190996
3394.721660,2072.576638,-11843.295072,1302.362347
3394.721987,2590.720797,-12139.377449,536.266849
3394.722315,1406.391290,-10881.027347,229.828649
3394.722642,666.185348,-7698.141797,-1455.581446
3394.722970,2072.576638,-6513.812290,-2145.067394
3394.723298,962.267725,-7846.182985,0.000000
3394.723625,-2368.659014,-8882.471304,2911.162892
3394.723953,-3034.844362,-6957.935855,2834.553343
3394.724280,296.082377,-8808.450710,-306.438199
3394.724608,3182.885551,-12731.542202,-3064.381992
3394.724935,2368.659014,-13175.665768,-1149.143247
3394.725263,370.102971,-10214.842000,1455.581446
3394.725591,1998.556043,-8438.347739,-995.924147
3394.725918,2590.720797,-9400.615463,-1608.800546
3394.726246,-444.123565,-10066.800811,229.828649
3394.726573,-2960.823768,-7846.182985,2604.724693
3394.726901,-1110.308913,-7328.038826,1302.362347
3394.727229,2220.617826,-11103.089130,-1762.019645
3394.727556,1776.494261,-13175.665768,-1685.410096
3394.727884,0.000000,-11029.068536,766.095498
3394.728211,666.185348,-8142.265362,-612.876398
3394.728539,2664.741391,-8808.450710,-2604.724693
3394.728866,1628.453072,-10658.965565,-2298.286494
3394.729194,0.000000,-9992.780217,919.314598
3394.729522,0.000000,-7476.080014,2298.286494
3394.729849,2294.638420,-9622.677246,1685.410096
3394.730177,1702.473667,-12731.542202,0.000000
3394.730504,-222.061783,-12139.377449,-689.485948
3394.730832,-1480.411884,-9104.533087,-1455.581446
3394.731159,-1850.514855,-7994.224174,-3064.381992
3394.731487,-740.205942,-9178.553681,-2834.553343
3394.731815,0.000000,-10732.986159,-459.657299
3394.732142,-1258.350101,-9326.594869,2757.943793
3394.732470,-518.144159,-7031.956449,2834.553343
3394.732797,740.205942,-7994.224174,1225.752797
3394.733125,666.185348,-10955.047942,0.000000
3394.733452,-888.247130,-7994.224174,-306.438199
3394.733780,-296.082377,-6661.853478,-1455.581446
3394.734108,2072.576638,-9030.512492,-1532.190996
3394.734435,1110.308913,-11325.150913,383.047749
3394.734763,-1628.453072,-10955.047942,2374.896044
3394.735090,-2590.720797,-10955.047942,1225.752797
3394.735418,-2294.638420,-9474.636058,-1532.190996
3394.735746,0.000000,-9474.636058,-4136.915689
3394.736073,-1406.391290,-10955.047942,-1838.629195
3394.736401,-1776.494261,-9474.636058,2145.067394
3394.736728,740.205942,-7846.182985,842.705048
3394.737056,2368.659014,-8586.388927,-689.485948
3394.737383,888.247130,-10214.842000,-612.876398
3394.737711,-518.144159,-9474.636058,76.609550
3394.738039,-444.123565,-7624.121203,0.000000
3394.738366,666.185348,-8734.430116,-229.828649
3394.738694,370.102971,-10510.924376,-306.438199
3394.739021,74.020594,-10214.842000,766.095498
3394.739349,666.185348,-11769.274478,1302.362347
3394.739676,3034.844362,-11769.274478,-1302.362347
3394.740004,2590.720797,-11547.212695,-2681.334243
3394.740332,1554.432478,-9992.780217,-1762.019645
3394.740659,1036.288319,-7105.977043,919.314598
3394.740987,-222.061783,-5181.441594,1991.848295
3394.741314,-1480.411884,-9622.677246,2451.505594
3394.741642,-1998.556043,-12139.377449,842.705048
3394.741969,370.102971,-9622.677246,-1762.019645
3394.742297,1628.453072,-8290.306550,-3140.991542
3394.742625,1702.473667,-9992.780217,-2451.505594
3394.742952,1628.453072,-11547.212695,76.609550
3394.743280,1702.473667,-11325.150913,1685.410096
3394.743607,518.144159,-9474.636058,1302.362347
3394.743935,-296.082377,-8364.327145,306.438199
3394.744262,-1850.514855,-7994.224174,229.828649
3394.744590,-740.205942,-8882.471304,0.000000
3394.744918,666.185348,-9326.594869,-919.314598
3394.745245,1258.350101,-9992.780217,-229.828649
3394.745573,1110.308913,-10066.800811,153.219100
3394.745900,1406.391290,-10214.842000,-1378.971896
3394.746228,370.102971,-10140.821405,-1915.238745
3394.746556,0.000000,-8956.491898,-1149.143247
3394.746883,-518.144159,-7476.080014,-306.438199
3394.747211,962.267725,-9992.780217,-306.438199
3394.747538,1406.391290,-11103.089130,1302.362347
3394.747866,2812.782580,-11917.315666,1532.190996
3394.748193,2220.617826,-11251.130318,459.657299
3394.748521,1628.453072,-10658.965565,-1685.410096
3394.748849,296.082377,-9400.615463,-2221.676944
3394.749176,-2368.659014,-8734.430116,-842.705048
3394.749504,-2664.741391,-8364.327145,229.828649
3394.749831,-814.226536,-8290.306550,766.095498
3394.750159,-444.123565,-9474.636058,842.705048
3394.750486,148.041188,-10288.862594,76.609550
3394.750814,-888.247130,-8808.450710,-689.485948
3394.751142,-148.041188,-7846.182985,-1225.752797
3394.751469,1258.350101,-10066.800811,-1762.019645
3394.751797,1776.494261,-10510.924376,0.000000
3394.752124,2368.659014,-8438.347739,842.705048
3394.752452,222.061783,-9326.594869,3524.039291
3394.752779,-444.123565,-11917.315666,2298.286494
3394.753107,-1998.556043,-12213.398043,-1225.752797
3394.753435,-2294.638420,-9400.615463,-3370.820191
3394.753762,-1628.453072,-7254.018232,-4213.525239
3394.754090,-1702.473667,-8882.471304,-2298.286494
3394.754417,666.185348,-10807.006753,612.876398
3394.754745,1850.514855,-10362.883188,1685.410096
3394.755073,1628.453072,-9844.739029,1608.800546
3394.755400,518.144159,-7846.182985,995.924147
3394.755728,1258.350101,-8956.491898,-995.924147
3394.756055,-888.247130,-9696.697840,0.000000
3394.756383,-518.144159,-8068.244768,-459.657299
3394.756710,0.000000,-7698.141797,-612.876398
3394.757038,1258.350101,-10732.986159,-306.438199
3394.757366,3256.906145,-12805.562797,0.000000
3394.757693,1110.308913,-12509.480420,919.314598
3394.758021,0.000000,-11325.150913,766.095498
3394.758348,592.164754,-7698.141797,-1455.581446
3394.758676,1406.391290,-6217.729913,-1838.629195
3394.759003,-222.061783,-7179.997637,689.485948
3394.759331,-2368.659014,-8956.491898,2068.457845
3394.759659,-222.061783,-10288.862594,1072.533697
3394.759986,1924.535449,-10658.965565,-2298.286494
3394.760314,2294.638420,-12139.377449,-2604.724693
3394.760641,0.000000,-10436.903782,229.828649
3394.760969,148.041188,-9474.636058,1302.362347
3394.761296,148.041188,-9844.739029,0.000000
3394.761624,74.020594,-10807.006753,-1455.581446
3394.761952,-2516.700203,-7476.080014,-995.924147
3394.762279,-1332.370696,-7920.203579,-306.438199
3394.762607,444.123565,-9992.780217,842.705048
3394.762934,2664.741391,-11621.233289,536.266849
3394.763262,1702.473667,-10807.006753,2145.067394
3394.763590,740.205942,-9474.636058,1225.752797
3394.763917,1924.535449,-8586.388927,-1225.752797
3394.764245,1406.391290,-9474.636058,-1378.971896
3394.764572,-592.164754,-9104.533087,76.609550
3394.764900,-518.144159,-7254.018232,-383.047749
3394.765227,1702.473667,-9252.574275,-1225.752797
3394.765555,2590.720797,-12435.459826,459.657299
3394.765883,3256.906145,-13915.871710,1378.971896
3394.766210,1850.514855,-11695.253884,1072.533697
3394.766538,518.144159,-8660.409521,-1608.800546
3394.766865,-1110.308913,-8216.285956,-2604.724693
3394.767193,-1628.453072,-8882.471304,-1685.410096
3394.767520,-1924.535449,-8216.285956,1072.533697
3394.767848,296.082377,-8586.388927,1149.143247
3394.768176,666.185348,-8882.471304,383.047749
3394.768503,592.164754,-10214.842000,-306.438199
3394.768831,0.000000,-10955.047942,-459.657299
3394.769158,-370.102971,-10955.047942,0.000000
3394.769486,0.000000,-8808.450710,-1532.190996
3394.769813,1406.391290,-9400.615463,-1991.848295
3394.770141,296.082377,-10436.903782,919.314598
3394.770469,-592.164754,-11177.109724,2451.505594
3394.770796,-592.164754,-11029.068536,1149.143247
3394.771124,-518.144159,-8586.388927,-1532.190996
3394.771451,-1554.432478,-8808.450710,-3140.991542
3394.771779,-2516.700203,-10584.944971,-536.266849
3394.772107,-2072.576638,-8956.491898,536.266849
3394.772434,0.000000,-8660.409521,-536.266849
3394.772762,1628.453072,-10214.842000,-1302.362347
3394.773089,1036.288319,-9992.780217,76.609550
3394.773417,666.185348,-8882.471304,766.095498
3394.773744,666.185348,-7920.203579,766.095498
3394.774072,1480.411884,-9030.512492,-919.314598
3394.774400,296.082377,-9474.636058,-383.047749
3394.774727,-148.041188,-9696.697840,383.047749
3394.775055,0.000000,-9622.677246,919.314598
3394.775383,2072.576638,-10584.944971,0.000000
3394.775710,666.185348,-11177.109724,-383.047749
3394.776038,0.000000,-9844.739029,-612.876398
3394.776366,740.205942,-6661.853478,-1991.848295
3394.776694,888.247130,-6957.935855,-689.485948
3394.777021,-148.041188,-11695.253884,306.438199
3394.777349,444.123565,-12509.480420,1378.971896
3394.777677,2146.597232,-10362.883188,612.876398
3394.778004,3849.070898,-10066.800811,-766.095498
3394.778332,2146.597232,-11991.336260,383.047749
3394.778660,1036.288319,-9918.759623,383.047749
3394.778987,518.144159,-8660.409521,-383.047749
3394.779315,-1776.494261,-9178.553681,-766.095498
3394.779643,-1628.453072,-9252.574275,-1838.629195
3394.779970,-2738.761985,-7476.080014,-1685.410096
3394.780298,-222.061783,-9104.533087,0.000000
3394.780626,1258.350101,-10955.047942,459.657299
3394.780953,2146.597232,-11917.315666,1608.800546
3394.781281,2220.617826,-10807.006753,459.657299
3394.781609,1406.391290,-9474.636058,0.000000
3394.781936,666.185348,-9474.636058,-1838.629195
3394.782264,814.226536,-7994.224174,-919.314598
3394.782592,814.226536,-8734.430116,153.219100
3394.782920,962.267725,-9770.718434,919.314598
3394.783247,1406.391290,-12361.439231,1532.190996
3394.783575,1406.391290,-12361.439231,1149.143247
3394.783903,444.123565,-11547.212695,-1149.143247
3394.784230,-296.082377,-9696.697840,-2145.067394
3394.784558,-962.267725,-8586.388927,-2451.505594
3394.784886,-1924.535449,-8660.409521,-1149.143247
3394.785213,-814.226536,-7698.141797,0.000000
3394.785541,-222.061783,-8142.265362,689.485948
3394.785869,740.205942,-8438.347739,1378.971896
3394.786196,0.000000,-8512.368333,1072.533697
3394.786524,-740.205942,-7105.977043,-306.438199
3394.786852,0.000000,-9844.739029,-1608.800546
3394.787179,518.144159,-11991.336260,-1991.848295
3394.787507,2220.617826,-10732.986159,-1378.971896
3394.787835,888.247130,-8956.491898,153.219100
3394.788162,888.247130,-9326.594869,1072.533697
3394.788490,0.000000,-12213.398043,995.924147
3394.788818,-1702.473667,-11843.295072,-306.438199
3394.789145,-3849.070898,-7698.141797,-1762.019645
3394.789473,-2442.679609,-7031.956449,-2451.505594
3394.789801,0.000000,-9844.739029,-1072.533697
3394.790129,444.123565,-11251.130318,919.314598
3394.790456,592.164754,-10436.903782,842.705048
3394.790784,962.267725,-9030.512492,-919.314598
3394.791112,1110.308913,-9696.697840,-2374.896044
3394.791439,370.102971,-10732.986159,-1532.190996
3394.791767,-518.144159,-9400.615463,383.047749
3394.792095,-296.082377,-8364.327145,536.266849
3394.792422,518.144159,-10658.965565,1072.533697
3394.792750,1406.391290,-12435.459826,536.266849
3394.793078,1480.411884,-10881.027347,306.438199
3394.793405,444.123565,-8734.430116,1149.143247
3394.793733,-296.082377,-8586.388927,0.000000
3394.794061,1258.350101,-7772.162391,-1762.019645
3394.794388,370.102971,-7698.141797,-612.876398
3394.794716,-1184.329507,-9474.636058,1302.362347
3394.795044,0.000000,-9992.780217,1685.410096
3394.795371,3108.864956,-10955.047942,306.438199
3394.795699,3182.885551,-12435.459826,-229.828649
3394.796027,1258.350101,-11843.295072,0.000000
3394.796354,1184.329507,-9326.594869,-229.828649
3394.796682,740.205942,-8290.306550,-995.924147
3394.797010,-370.102971,-10362.883188,-995.924147
3394.797338,-1628.453072,-8290.306550,229.828649
3394.797665,-2590.720797,-6661.853478,306.438199
3394.797993,-1110.308913,-8364.327145,383.047749
3394.798321,1924.535449,-12065.356855,-306.438199
3394.798648,2072.576638,-12213.398043,-153.219100
3394.798976,1036.288319,-9622.677246,306.438199
3394.799304,1702.473667,-9400.615463,-1378.971896
3394.799631,3108.864956,-10214.842000,-2604.724693
3394.799959,1776.494261,-10436.903782,-306.438199
3394.800287,962.267725,-9400.615463,2374.896044
3394.800614,1332.370696,-7698.141797,689.485948
3394.800942,1628.453072,-9622.677246,612.876398
3394.801270,1480.411884,-13027.624579,842.705048
3394.801597,0.000000,-12509.480420,76.609550
3394.801925,-962.267725,-9474.636058,-2451.505594
3394.802253,-444.123565,-8586.388927,-4749.792088
3394.802580,-1332.370696,-11843.295072,-3524.039291
3394.802908,-962.267725,-9992.780217,-766.095498
3394.803236,-1258.350101,-8068.244768,1532.190996
3394.803564,-1258.350101,-8512.368333,2374.896044
3394.803891,888.247130,-9326.594869,842.705048
3394.804219,888.247130,-9474.636058,0.000000
3394.804547,-814.226536,-8290.306550,919.314598
3394.804874,888.247130,-8734.430116,153.219100
3394.805202,2146.597232,-9844.739029,-1762.019645
3394.805530,666.185348,-10881.027347,-689.485948
3394.805857,-296.082377,-9474.636058,689.485948
3394.806185,-518.144159,-9252.574275,1991.848295
3394.806513,-1332.370696,-9474.636058,1991.848295
3394.806840,-1924.535449,-10807.006753,0.000000
3394.807168,-1924.535449,-9770.718434,-1532.190996
3394.807496,-1924.535449,-6661.853478,-1685.410096
3394.807823,-666.185348,-7994.224174,-842.705048
3394.808151,1406.391290,-10881.027347,229.828649
3394.808479,2220.617826,-10732.986159,229.828649
3394.808806,1850.514855,-9622.677246,1072.533697
3394.809134,370.102971,-8956.491898,0.000000
3394.809462,1184.329507,-10362.883188,76.609550
3394.809789,444.123565,-10732.986159,459.657299
3394.810117,-518.144159,-7772.162391,76.609550
3394.810445,-1406.391290,-9326.594869,229.828649
3394.810773,1258.350101,-10881.027347,-689.485948
3394.811100,2368.659014,-11325.150913,-1378.971896
3394.811428,888.247130,-11547.212695,383.047749
3394.811756,1110.308913,-8068.244768,-153.219100
3394.812083,0.000000,-5995.668130,229.828649
3394.812411,74.020594,-10066.800811,612.876398
3394.812739,-666.185348,-11843.295072,76.609550
3394.813066,-1036.288319,-8734.430116,-306.438199
3394.813394,2590.720797,-9252.574275,-1915.238745
3394.813722,2886.803174,-12435.459826,-1991.848295
3394.814049,1776.494261,-14137.933492,-766.095498
3394.814377,592.164754,-10510.924376,-536.266849
3394.814705,0.000000,-8438.347739,-1378.971896
3394.815032,-962.267725,-8068.244768,0.000000
3394.815360,-1036.288319,-8882.471304,153.219100
3394.815688,-2220.617826,-8364.327145,1991.848295
3394.816015,666.185348,-9326.594869,1991.848295
3394.816343,3108.864956,-11473.192101,0.000000
3394.816671,2664.741391,-11695.253884,-1072.533697
3394.816998,1628.453072,-8882.471304,-612.876398
3394.817326,1184.329507,-7772.162391,-536.266849
3394.817654,444.123565,-8956.491898,383.047749
3394.817982,888.247130,-9474.636058,689.485948
3394.818309,962.267725,-9178.553681,76.609550
3394.818637,740.205942,-8586.388927,1915.238745
3394.818965,2368.659014,-11399.171507,1838.629195
3394.819292,2442.679609,-13397.727550,612.876398
3394.819620,0.000000,-9992.780217,-1838.629195
3394.819948,-3552.988522,-8808.450710,-3140.991542
3394.820275,-4293.194464,-7402.059420,-3064.381992
3394.820603,-1554.432478,-7179.997637,-2221.676944
3394.820931,-888.247130,-10140.821405,1072.533697
3394.821258,-370.102971,-11103.089130,3140.991542
3394.821586,0.000000,-8882.471304,2068.457845
3394.821914,740.205942,-7105.977043,-919.314598
3394.822241,1850.514855,-9770.718434,-2298.286494
3394.822569,1184.329507,-11325.150913,-459.657299
3394.822897,1480.411884,-9918.759623,0.000000
3394.823224,0.000000,-10214.842000,-229.828649
3394.823552,1628.453072,-11473.192101,0.000000
3394.823880,2146.597232,-11917.315666,-153.219100
3394.824208,0.000000,-10436.903782,1838.629195
3394.824535,-2886.803174,-7550.100608,1991.848295
3394.824863,-3108.864956,-9030.512492,-995.924147
3394.825191,-2664.741391,-10288.862594,-3600.648841
3394.825518,-1850.514855,-8586.388927,-4213.525239
3394.825846,-962.267725,-8660.409521,-1608.800546
3394.826174,296.082377,-9252.574275,1455.581446
3394.826501,2590.720797,-11399.171507,2298.286494
3394.826829,2960.823768,-11991.336260,1072.533697
3394.827157,1702.473667,-10436.903782,0.000000
3394.827484,444.123565,-7772.162391,-919.314598
3394.827812,814.226536,-7994.224174,-536.266849
3394.828140,-370.102971,-9918.759623,0.000000
3394.828467,-592.164754,-10288.862594,-306.438199
3394.828795,-1924.535449,-9326.594869,-459.657299
3394.829123,-962.267725,-9178.553681,-229.828649
3394.829450,1776.494261,-10955.047942,-1378.971896
3394.829778,2294.638420,-11029.068536,229.828649
3394.830106,370.102971,-9178.553681,1838.629195
3394.830433,148.041188,-7254.018232,1455.581446
3394.830761,2294.638420,-7476.080014,-1149.143247
3394.831089,1776.494261,-9474.636058,-766.095498
3394.831417,1184.329507,-9770.718434,1072.533697
3394.831744,-814.226536,-9252.574275,1608.800546
3394.832072,-296.082377,-11621.233289,-459.657299
3394.832400,-962.267725,-12139.377449,-2834.553343
3394.832727,-1036.288319,-11325.150913,-2757.943793
3394.833055,-814.226536,-9474.636058,-766.095498
3394.833383,962.267725,-9178.553681,229.828649
3394.833710,2146.597232,-9918.759623,153.219100
3394.834038,2220.617826,-10362.883188,0.000000
3394.834366,814.226536,-10140.821405,919.314598
3394.834693,74.020594,-7624.121203,1149.143247
3394.835021,370.102971,-8364.327145,-306.438199
3394.835349,888.247130,-10436.903782,0.000000
3394.835676,666.185348,-9622.677246,306.438199
3394.836004,1628.453072,-9548.656652,-612.876398
3394.836332,2886.803174,-10288.862594,-459.657299
3394.836659,3552.988522,-12509.480420,0.000000
3394.836987,1480.411884,-13471.748144,536.266849
3394.837315,0.000000,-9918.759623,842.705048
3394.837642,-444.123565,-7994.224174,-459.657299
3394.837970,-1332.370696,-10066.800811,-1762.019645
3394.838298,-1924.535449,-10214.842000,-919.314598
3394.838626,-2664.741391,-8290.306550,842.705048
3394.838953,-1554.432478,-7179.997637,383.047749
3394.839281,0.000000,-8586.388927,-689.485948
3394.839609,592.164754,-8290.306550,-1915.238745
3394.839936,0.000000,-9030.512492,0.000000
3394.840264,666.185348,-10140.821405,842.705048
3394.840592,2960.823768,-10807.006753,459.657299
3394.840919,2738.761985,-11399.171507,536.266849
3394.841247,518.144159,-10362.883188,1762.019645
3394.841575,222.061783,-9770.718434,1838.629195
3394.841902,740.205942,-7772.162391,0.000000
3394.842230,0.000000,-8216.285956,-459.657299
3394.842558,-2368.659014,-9400.615463,-229.828649
3394.842885,-3256.906145,-9474.636058,-689.485948
3394.843213,-3330.926739,-7179.997637,-919.314598
3394.843541,-814.226536,-8660.409521,-612.876398
3394.843868,-962.267725,-10214.842000,-536.266849
3394.844196,0.000000,-11177.109724,1149.143247
3394.844524,740.205942,-10955.047942,0.000000
3394.844851,2590.720797,-9844.739029,-2145.067394
3394.845179,2516.700203,-11251.130318,-2298.286494
3394.845507,592.164754,-11917.315666,612.876398
3394.845835,-370.102971,-9918.759623,1685.410096
3394.846162,74.020594,-7698.141797,306.438199
3394.846490,222.061783,-11251.130318,-1455.581446
3394.846818,-1258.350101,-11769.274478,-689.485948
3394.847145,-962.267725,-9770.718434,-995.924147
3394.847473,-370.102971,-7846.182985,-1915.238745
3394.847801,0.000000,-8660.409521,-919.314598
3394.848128,0.000000,-10066.800811,-612.876398
3394.848456,814.226536,-8882.471304,1149.143247
3394.848784,1924.535449,-8512.368333,1302.362347
3394.849111,3034.844362,-9622.677246,1225.752797
3394.849439,1628.453072,-11251.130318,1378.971896
3394.849767,222.061783,-9030.512492,766.095498
3394.850094,0.000000,-6069.688724,-1838.629195
3394.850422,-2294.638420,-7920.203579,-2528.115143
3394.850750,-1776.494261,-10955.047942,-1378.971896
3394.851077,74.020594,-11769.274478,-459.657299
3394.851405,1702.473667,-10807.006753,612.876398
3394.851733,3552.988522,-9992.780217,766.095498
3394.852061,2368.659014,-10288.862594,1532.190996
3394.852388,2146.597232,-8808.450710,1378.971896
3394.852716,1628.453072,-7254.018232,0.000000
3394.853044,740.205942,-7476.080014,459.657299
3394.853371,592.164754,-7179.997637,0.000000
3394.853699,1110.308913,-9622.677246,-383.047749
3394.854027,1184.329507,-10732.986159,0.000000
3394.854354,2072.576638,-13249.686362,612.876398
3394.854682,1850.514855,-13989.892304,229.828649
3394.855010,1406.391290,-11917.315666,-2757.943793
3394.855337,-1406.391290,-8956.491898,-2374.896044
3394.855665,-1924.535449,-8808.450710,-2451.505594
3394.855993,-1036.288319,-9474.636058,-2298.286494
3394.856320,-1702.473667,-9400.615463,383.047749
3394.856648,-1406.391290,-9104.533087,1532.190996
3394.856976,-1628.453072,-8438.347739,1149.143247
3394.857303,74.020594,-8438.347739,-842.705048
3394.857631,-296.082377,-8660.409521,-459.657299
3394.857959,962.267725,-10658.965565,-1149.143247
3394.858286,2368.659014,-9844.739029,-1225.752797
3394.858614,2220.617826,-10436.903782,0.000000
3394.858942,1702.473667,-10584.944971,1455.581446
3394.859270,1776.494261,-10732.986159,1838.629195
3394.859597,148.041188,-9400.615463,1915.238745
3394.859925,-962.267725,-9252.574275,1149.143247
3394.860253,-2442.679609,-8956.491898,536.266849
3394.860580,-1776.494261,-7550.100608,-1072.533697
3394.860908,-1776.494261,-7254.018232,-1378.971896
3394.861236,-1332.370696,-7624.121203,-612.876398
3394.861563,-592.164754,-8512.368333,-306.438199
3394.861891,-444.123565,-9992.780217,689.485948
3394.862219,148.041188,-12361.439231,153.219100
3394.862546,0.000000,-10732.986159,-1225.752797
3394.862874,296.082377,-9770.718434,-919.314598
3394.863202,888.247130,-9770.718434,306.438199
3394.863529,1184.329507,-10881.027347,1532.190996
3394.863857,1702.473667,-10288.862594,1149.143247
3394.864185,666.185348,-8956.491898,76.609550
3394.864512,-740.205942,-8290.306550,-1225.752797
3394.864840,-444.123565,-9548.656652,-766.095498
3394.865168,-666.185348,-10288.862594,-689.485948
3394.865495,-962.267725,-10214.842000,0.000000
3394.865823,-518.144159,-9474.636058,-1072.533697
3394.866151,888.247130,-9326.594869,-1532.190996
3394.866479,1924.535449,-11103.089130,-612.876398
3394.866806,3108.864956,-10362.883188,306.438199
3394.867134,1036.288319,-9548.656652,1072.533697
3394.867462,814.226536,-8660.409521,689.485948
3394.867789,370.102971,-10510.924376,-1302.362347
3394.868117,-1480.411884,-11251.130318,-612.876398
3394.868445,-2368.659014,-9992.780217,229.828649
3394.868772,-592.164754,-10066.800811,-459.657299
3394.869100,2738.761985,-11843.295072,-1532.190996
3394.869428,2442.679609,-10807.006753,-1378.971896
3394.869755,518.144159,-9252.574275,536.266849
3394.870083,1258.350101,-8068.244768,383.047749
3394.870411,2368.659014,-7920.203579,0.000000
3394.870738,1110.308913,-9326.594869,612.876398
3394.871066,-296.082377,-7179.997637,2681.334243
3394.871394,222.061783,-7698.141797,842.705048
3394.871721,1998.556043,-9474.636058,383.047749
3394.872049,3478.967927,-11843.295072,-306.438199
3394.872377,1702.473667,-12509.480420,459.657299
3394.872705,666.185348,-9992.780217,-383.047749
3394.873032,-592.164754,-8882.471304,-2374.896044
3394.873360,-1184.329507,-10584.944971,-2604.724693
3394.873688,-2146.597232,-10955.047942,-2451.505594
3394.874015,-3108.864956,-9178.553681,1455.581446
3394.874343,-1924.535449,-8142.265362,1838.629195
3394.874671,444.123565,-8068.244768,0.000000
3394.874998,1628.453072,-9696.697840,-689.485948
3394.875326,888.247130,-9548.656652,-229.828649
3394.875654,888.247130,-8734.430116,0.000000
3394.875981,2516.700203,-8956.491898,-919.314598
3394.876309,2294.638420,-12213.398043,-1302.362347
3394.876636,0.000000,-12583.501014,1072.533697
3394.876964,0.000000,-11325.150913,1378.971896
3394.877292,0.000000,-10066.800811,76.609550
3394.877619,1036.288319,-9622.677246,-306.438199
3394.877947,0.000000,-9918.759623,0.000000
3394.878275,-1850.514855,-7994.224174,842.705048
3394.878602,-2072.576638,-5847.626942,-612.876398
3394.878930,0.000000,-8068.244768,-2451.505594
3394.879257,-296.082377,-10436.903782,-459.657299
3394.879585,-962.267725,-10362.883188,1532.190996
3394.879913,-296.082377,-11029.068536,1608.800546
3394.880240,888.247130,-10214.842000,-612.876398
3394.880568,814.226536,-10362.883188,-2068.457845
3394.880896,444.123565,-9474.636058,-689.485948
3394.881223,296.082377,-8586.388927,0.000000
3394.881551,1332.370696,-8956.491898,459.657299
3394.881878,1036.288319,-10214.842000,383.047749
3394.882206,148.041188,-10510.924376,459.657299
3394.882534,-814.226536,-9030.512492,612.876398
3394.882861,-1332.370696,-8956.491898,383.047749
3394.883189,0.000000,-9474.636058,306.438199
3394.883516,370.102971,-9992.780217,-306.438199
3394.883844,0.000000,-9030.512492,-536.266849
3394.884172,592.164754,-9030.512492,-459.657299
3394.884499,2294.638420,-9400.615463,-689.485948
3394.884827,1776.494261,-10584.944971,-766.095498
3394.885155,-592.164754,-9622.677246,229.828649
3394.885482,-2368.659014,-9770.718434,0.000000
3394.885810,-2146.597232,-9770.718434,-1072.533697
3394.886137,-296.082377,-10140.821405,-1149.143247
3394.886465,1184.329507,-11103.089130,-612.876398
3394.886793,1554.432478,-10288.862594,842.705048
3394.887120,1628.453072,-10362.883188,919.314598
3394.887448,1776.494261,-9400.615463,-1762.019645
3394.887776,1924.535449,-8586.388927,-2681.334243
3394.888103,-592.164754,-8660.409521,-612.876398
3394.888431,-1406.391290,-9844.739029,1302.362347
3394.888758,592.164754,-9252.574275,612.876398
3394.889086,2368.659014,-10288.862594,306.438199
3394.889414,2960.823768,-11769.274478,306.438199
3394.889741,2812.782580,-10584.944971,919.314598
3394.890069,2516.700203,-10658.965565,842.705048
3394.890397,2072.576638,-10066.800811,-1532.190996
3394.890724,-1036.288319,-8956.491898,-2221.676944
3394.891052,-3330.926739,-9844.739029,-919.314598
3394.891379,-3627.009116,-9622.677246,-919.314598
3394.891707,-1924.535449,-9326.594869,536.266849
3394.892035,-370.102971,-9030.512492,0.000000
3394.892362,148.041188,-9252.574275,153.219100
3394.892690,888.247130,-8956.491898,-383.047749
3394.893017,1850.514855,-8142.265362,-842.705048
3394.893345,2072.576638,-9770.718434,-612.876398
3394.893673,2294.638420,-9104.533087,383.047749
3394.894000,1628.453072,-8956.491898,1072.533697
3394.894328,0.000000,-9918.759623,1838.629195
3394.894656,888.247130,-10436.903782,1762.019645
3394.894983,592.164754,-10362.883188,383.047749
3394.895311,0.000000,-9474.636058,153.219100
3394.895638,-1554.432478,-8956.491898,-1149.143247
3394.895966,-1850.514855,-8142.265362,-1915.238745
3394.896294,-1554.432478,-8142.265362,-2604.724693
3394.896621,-962.267725,-9030.512492,-1915.238745
3394.896949,-592.164754,-9548.656652,153.219100
3394.897277,-296.082377,-9770.718434,1762.019645
3394.897604,148.041188,-11991.336260,1838.629195
3394.897932,592.164754,-12139.377449,536.266849
3394.898259,296.082377,-9474.636058,-1838.629195
3394.898587,666.185348,-8734.430116,-2298.286494
3394.898915,888.247130,-10066.800811,-1762.019645
3394.899242,74.020594,-10140.821405,-459.657299
3394.899570,0.000000,-10066.800811,306.438199
3394.899898,-888.247130,-9918.759623,-383.047749
3394.900225,-74.020594,-10362.883188,-383.047749
3394.900553,444.123565,-11177.109724,153.219100
3394.900880,0.000000,-9548.656652,1762.019645
3394.901208,-296.082377,-8956.491898,766.095498
3394.901536,1406.391290,-8808.450710,-995.924147
3394.901863,2590.720797,-9844.739029,-842.705048
3394.902191,1850.514855,-9770.718434,0.000000
3394.902518,296.082377,-9326.594869,612.876398
3394.902846,-1184.329507,-8660.409521,-536.266849
3394.903174,-1110.308913,-8438.347739,-1685.410096
3394.903501,-1480.411884,-10362.883188,-612.876398
3394.903829,-370.102971,-9992.780217,1225.752797
3394.904157,2072.576638,-9992.780217,995.924147
3394.904484,3923.091493,-10214.842000,76.609550
3394.904812,2960.823768,-11325.150913,-383.047749
3394.905139,0.000000,-8734.430116,229.828649
3394.905467,0.000000,-6365.771101,-153.219100
3394.905795,-518.144159,-5847.626942,-689.485948
3394.906122,-518.144159,-10066.800811,1072.533697
3394.906450,1036.288319,-11473.192101,919.314598
3394.906778,1184.329507,-10140.821405,842.705048
3394.907105,3108.864956,-10066.800811,0.000000
3394.907433,3478.967927,-12435.459826,-1378.971896
3394.907760,2146.597232,-11917.315666,-1608.800546
3394.908088,0.000000,-8734.430116,0.000000
3394.908416,-814.226536,-7920.203579,-689.485948
3394.908743,-148.041188,-9252.574275,-1149.143247
3394.909071,-1258.350101,-11695.253884,612.876398
3394.909399,-2516.700203,-9770.718434,2757.943793
3394.909726,-1776.494261,-8586.388927,1608.800546
3394.910054,666.185348,-8438.347739,-1838.629195
3394.910381,1702.473667,-9844.739029,-3600.648841
3394.910709,-888.247130,-9770.718434,-1302.362347
3394.911037,1184.329507,-10214.842000,612.876398
3394.911364,1554.432478,-9696.697840,383.047749
3394.911692,666.185348,-10436.903782,689.485948
3394.912020,222.061783,-11473.192101,1149.143247
3394.912347,-444.123565,-10584.944971,1762.019645
3394.912675,-518.144159,-9104.533087,1225.752797
3394.913002,814.226536,-7179.997637,-612.876398
3394.913330,-592.164754,-9696.697840,-1302.362347
3394.913658,-2146.597232,-8586.388927,-306.438199
3394.913985,-2294.638420,-8142.265362,-459.657299
3394.914313,-1998.556043,-7179.997637,-306.438199
3394.914640,-962.267725,-10214.842000,-995.924147
3394.914968,-222.061783,-12139.377449,766.095498
3394.915296,-1184.329507,-10288.862594,1072.533697
3394.915623,1110.308913,-9400.615463,-766.095498
3394.915951,3478.967927,-10362.883188,-1608.800546
3394.916279,2368.659014,-10510.924376,-995.924147
3394.916606,0.000000,-9252.574275,2068.457845
3394.916934,-666.185348,-9252.574275,229.828649
3394.917261,296.082377,-10214.842000,-459.657299
3394.917589,-296.082377,-11843.295072,-2221.676944
3394.917917,-1258.350101,-10140.821405,-1225.752797
3394.918244,-1924.535449,-9400.615463,76.609550
3394.918572,592.164754,-8660.409521,-689.485948
3394.918900,1480.411884,-9844.739029,-1532.190996
3394.919227,296.082377,-9400.615463,-229.828649
3394.919555,2294.638420,-9326.594869,0.000000
3394.919882,3478.967927,-8808.450710,-383.047749
3394.920210,2072.576638,-9474.636058,995.924147
3394.920538,0.000000,-10288.862594,1378.971896
3394.920865,-1554.432478,-9696.697840,383.047749
3394.921193,-1628.453072,-10362.883188,-1149.143247
3394.921521,666.185348,-10288.862594,-2834.553343
3394.921848,1184.329507,-10066.800811,-2681.334243
3394.922176,0.000000,-9178.553681,0.000000
3394.922503,-296.082377,-9400.615463,229.828649
3394.922831,1332.370696,-9548.656652,-153.219100
3394.923159,2442.679609,-9844.739029,76.609550
3394.923486,2146.597232,-9104.533087,1149.143247
3394.923814,1184.329507,-9326.594869,2451.505594
3394.924141,2442.679609,-8956.491898,1378.971896
3394.924469,2960.823768,-10362.883188,0.000000
3394.924797,1924.535449,-10288.862594,-383.047749
3394.925124,962.267725,-9400.615463,-229.828649
3394.925452,-222.061783,-8956.491898,-766.095498
3394.925780,0.000000,-9844.739029,-689.485948
3394.926107,-222.061783,-13175.665768,-766.095498
3394.926435,222.061783,-11473.192101,-306.438199
3394.926762,148.041188,-9030.512492,383.047749
3394.927090,0.000000,-8808.450710,153.219100
3394.927418,-444.123565,-8808.450710,-689.485948
3394.927745,-1110.308913,-8586.388927,-383.047749
3394.928073,-592.164754,-7994.224174,-1455.581446
3394.928401,-888.247130,-7476.080014,-1149.143247
3394.928728,0.000000,-9770.718434,536.266849
3394.929056,444.123565,-10214.842000,0.000000
3394.929383,370.102971,-11917.315666,0.000000
3394.929711,592.164754,-11843.295072,0.000000
3394.930039,2146.597232,-10362.883188,-612.876398
3394.930366,444.123565,-9400.615463,-612.876398
3394.930694,444.123565,-9178.553681,153.219100
3394.931022,-666.185348,-9178.553681,842.705048
3394.931349,-1332.370696,-8438.347739,1608.800546
3394.931677,-2220.617826,-9770.718434,229.828649
3394.932004,-1850.514855,-9030.512492,-995.924147
3394.932332,-2294.638420,-8734.430116,-766.095498
3394.932660,-666.185348,-10436.903782,-1149.143247
3394.932987,0.000000,-11251.130318,-1685.410096
3394.933315,370.102971,-9326.594869,-2528.115143
3394.933642,-1332.370696,-8660.409521,-1149.143247
3394.933970,-444.123565,-10510.924376,1149.143247
3394.934298,1554.432478,-9474.636058,919.314598
3394.934625,1924.535449,-10658.965565,306.438199
3394.934953,296.082377,-9548.656652,919.314598
3394.935281,0.000000,-9622.677246,306.438199
3394.935608,0.000000,-8290.306550,-1072.533697
3394.935936,-370.102971,-8068.244768,-766.095498
3394.936263,-1850.514855,-8882.471304,-919.314598
3394.936591,-1258.350101,-9400.615463,-229.828649
3394.936919,1036.288319,-9104.533087,-766.095498
3394.937246,3849.070898,-10955.047942,-995.924147
3394.937574,2738.761985,-11399.171507,766.095498
3394.937902,1850.514855,-9474.636058,2757.943793
3394.938229,1850.514855,-7402.059420,-459.657299
3394.938557,1554.432478,-9326.594869,-2068.457845
3394.938884,1110.308913,-11473.192101,-1378.971896
3394.939212,444.123565,-9474.636058,766.095498
3394.939540,592.164754,-9178.553681,1149.143247
3394.939867,370.102971,-10140.821405,1225.752797
3394.940195,444.123565,-12287.418637,-612.876398
3394.940523,-1554.432478,-9622.677246,-1072.533697
3394.940850,-1924.535449,-7402.059420,-2451.505594
3394.941178,-666.185348,-7254.018232,-3217.601092
3394.941505,814.226536,-9770.718434,-1608.800546
3394.941833,2294.638420,-10881.027347,612.876398
3394.942161,3256.906145,-11177.109724,2145.067394
3394.942488,3997.112087,-11325.150913,2528.115143
3394.942816,4219.173869,-11769.274478,1378.971896
3394.943143,2368.659014,-9474.636058,229.828649
3394.943471,296.082377,-8142.265362,306.438199
3394.943799,-370.102971,-9326.594869,-459.657299
3394.944126,592.164754,-10658.965565,-689.485948
3394.944454,-296.082377,-9918.759623,-995.924147
3394.944782,-666.185348,-8882.471304,153.219100
3394.945109,-740.205942,-9844.739029,306.438199
3394.945437,814.226536,-10214.842000,689.485948
3394.945764,1406.391290,-9474.636058,306.438199
3394.946092,-814.226536,-8068.244768,0.000000
3394.946420,-1628.453072,-8068.244768,0.000000
3394.946747,-296.082377,-7920.203579,-842.705048
3394.947075,888.247130,-9548.656652,0.000000
3394.947403,-1332.370696,-9252.574275,-229.828649
3394.947730,-1924.535449,-9474.636058,0.000000
3394.948058,-1036.288319,-9400.615463,-766.095498
3394.948385,1332.370696,-10881.027347,-612.876398
3394.948713,1332.370696,-12139.377449,919.314598
3394.949041,-370.102971,-9548.656652,2604.724693
3394.949368,0.000000,-7402.059420,0.000000
3394.949696,444.123565,-7476.080014,-2068.457845
3394.950024,-962.267725,-11029.068536,0.000000
3394.950351,-2294.638420,-9622.677246,153.219100
3394.950679,-2294.638420,-8808.450710,-1225.752797
3394.951006,-592.164754,-9844.739029,-2374.896044
3394.951334,444.123565,-12213.398043,-1455.581446
3394.951662,-296.082377,-11769.274478,1072.533697
3394.951989,-222.061783,-9252.574275,2068.457845
3394.952317,0.000000,-9622.677246,-1455.581446
3394.952644,1036.288319,-10288.862594,-2145.067394
3394.952972,0.000000,-10140.821405,-1149.143247
3394.953300,-296.082377,-9474.636058,689.485948
3394.953627,-888.247130,-8290.306550,1685.410096
3394.953955,-296.082377,-7994.224174,1225.752797
3394.954283,296.082377,-9918.759623,306.438199
3394.954610,962.267725,-9252.574275,-229.828649
3394.954938,1184.329507,-9548.656652,-536.266849
3394.955265,1924.535449,-10658.965565,-1149.143247
3394.955593,2294.638420,-9770.718434,-1149.143247
3394.955921,2072.576638,-9696.697840,-1532.190996
3394.956248,592.164754,-10288.862594,-459.657299
3394.956576,666.185348,-10732.986159,1608.800546
3394.956904,2442.679609,-9326.594869,1455.581446
3394.957231,2960.823768,-9844.739029,1225.752797
3394.957559,-222.061783,-8586.388927,1149.143247
3394.957886,-1184.329507,-8660.409521,153.219100
3394.958214,-666.185348,-7624.121203,-1608.800546
3394.958542,370.102971,-9104.533087,-3294.210641
3394.958869,-1554.432478,-8512.368333,-3217.601092
3394.959197,-1924.535449,-9622.677246,-383.047749
3394.959525,444.123565,-10510.924376,0.000000
3394.959852,4737.318029,-11769.274478,-306.438199
3394.960180,4663.297435,-13027.624579,1608.800546
3394.960507,3478.967927,-10214.842000,2911.162892
3394.960835,3034.844362,-8512.368333,536.266849
3394.961163,2220.617826,-8808.450710,-1225.752797
3394.961490,888.247130,-9844.739029,-1608.800546
3394.961818,-370.102971,-9400.615463,-919.314598
3394.962145,-2146.597232,-9474.636058,-229.828649
3394.962473,-1554.432478,-9474.636058,-536.266849
3394.962801,888.247130,-12139.377449,-383.047749
3394.963128,1702.473667,-13101.645173,229.828649
3394.963456,1628.453072,-10510.924376,-306.438199
3394.963784,0.000000,-6809.894666,-842.705048
3394.964111,-962.267725,-8438.347739,-383.047749
3394.964439,-518.144159,-9844.739029,-536.266849
3394.964766,222.061783,-9178.553681,0.000000
3394.965094,-962.267725,-8956.491898,459.657299
3394.965422,0.000000,-9918.759623,1455.581446
3394.965749,740.205942,-10436.903782,306.438199
3394.966077,518.144159,-10214.842000,383.047749
3394.966405,-1554.432478,-11029.068536,383.047749
3394.966732,0.000000,-7402.059420,-1302.362347
3394.967060,740.205942,-7105.977043,-995.924147
3394.967387,148.041188,-10066.800811,842.705048
3394.967715,-2368.659014,-11251.130318,1685.410096
3394.968043,-2590.720797,-8956.491898,689.485948
3394.968370,-148.041188,-6661.853478,-2528.115143
3394.968698,0.000000,-9844.739029,-2451.505594
3394.969026,-1480.411884,-11177.109724,766.095498
3394.969353,-592.164754,-10510.924376,1455.581446
3394.969681,1628.453072,-10214.842000,-1685.410096
3394.970008,1850.514855,-11769.274478,-4366.744339
3394.970336,-666.185348,-10584.944971,-689.485948
3394.970664,-2516.700203,-8956.491898,1302.362347
3394.970991,-1924.535449,-6661.853478,383.047749
3394.971319,-148.041188,-10288.862594,-459.657299
3394.971646,-518.144159,-10584.944971,76.609550
3394.971974,-222.061783,-9178.553681,1455.581446
3394.972302,1406.391290,-8586.388927,995.924147
3394.972629,2294.638420,-9400.615463,0.000000
3394.972957,814.226536,-10658.965565,-1532.190996
3394.973285,0.000000,-8956.491898,-1532.190996
3394.973612,-592.164754,-8808.450710,-1532.190996
3394.973940,962.267725,-11399.171507,-306.438199
3394.974267,1998.556043,-13989.892304,1302.362347
3394.974595,3330.926739,-11695.253884,1455.581446
3394.974923,2368.659014,-9030.512492,842.705048
3394.975250,1998.556043,-9104.533087,-229.828649
3394.975578,814.226536,-9178.553681,-306.438199
3394.975906,-518.144159,-7402.059420,-919.314598
3394.976233,-2960.823768,-7772.162391,-383.047749
3394.976561,-2812.782580,-7698.141797,-1762.019645
3394.976889,-1332.370696,-9474.636058,-766.095498
3394.977216,296.082377,-10066.800811,76.609550
3394.977544,1776.494261,-10658.965565,-229.828649
3394.977872,3330.926739,-11621.233289,0.000000
3394.978199,5033.400406,-11177.109724,383.047749
3394.978527,4589.276840,-10807.006753,153.219100
3394.978854,2368.659014,-9104.533087,306.438199
3394.979182,962.267725,-8586.388927,1302.362347
3394.979510,1184.329507,-7698.141797,1302.362347
3394.979837,1480.411884,-10288.862594,1762.019645
3394.980165,74.020594,-10140.821405,1685.410096
3394.980493,0.000000,-9104.533087,306.438199
3394.980820,1332.370696,-10288.862594,-2145.067394
3394.981148,2146.597232,-11621.233289,-3140.991542
3394.981476,2146.597232,-10584.944971,-2834.553343
3394.981803,-1702.473667,-8216.285956,153.219100
3394.982131,-3256.906145,-9178.553681,383.047749
3394.982458,0.000000,-10066.800811,-1762.019645
3394.982786,444.123565,-10881.027347,-842.705048
3394.983114,0.000000,-10066.800811,1608.800546
3394.983441,-518.144159,-10140.821405,1608.800546
3394.983769,296.082377,-8808.450710,0.000000
3394.984097,0.000000,-10140.821405,-842.705048
3394.984424,-518.144159,-9400.615463,-1838.629195
3394.984752,-1406.391290,-8808.450710,-153.219100
3394.985080,-518.144159,-8438.347739,0.000000
3394.985407,0.000000,-10658.965565,383.047749
3394.985735,-1036.288319,-12139.377449,1225.752797
3394.986062,-1628.453072,-10214.842000,459.657299
3394.986390,-666.185348,-8438.347739,-1302.362347
3394.986718,-518.144159,-9400.615463,-2451.505594
3394.987045,-1036.288319,-10214.842000,-919.314598
3394.987373,-1554.432478,-9844.739029,766.095498
3394.987701,-1036.288319,-9400.615463,76.609550
3394.988028,0.000000,-9252.574275,-1378.971896
3394.988356,-148.041188,-10955.047942,-766.095498
3394.988684,-1628.453072,-9252.574275,0.000000
3394.989011,-1332.370696,-8290.306550,766.095498
3394.989339,-370.102971,-7920.203579,-995.924147
3394.989666,-740.205942,-8586.388927,-229.828649
3394.989994,0.000000,-9844.739029,689.485948
3394.990322,1998.556043,-8586.388927,919.314598
3394.990649,1776.494261,-9548.656652,-306.438199
3394.990977,1702.473667,-11177.109724,459.657299
3394.991305,1998.556043,-9696.697840,459.657299
3394.991632,1998.556043,-8068.244768,0.000000
3394.991960,1480.411884,-11621.233289,383.047749
3394.992288,592.164754,-11103.089130,0.000000
3394.992615,0.000000,-9548.656652,-306.438199
3394.992943,148.041188,-10436.903782,76.609550
3394.993270,-814.226536,-9696.697840,306.438199
3394.993598,-74.020594,-8956.491898,-306.438199
3394.993926,0.000000,-9104.533087,0.000000
3394.994253,0.000000,-9030.512492,-919.314598
3394.994581,-592.164754,-8438.347739,-536.266849
3394.994909,-962.267725,-9030.512492,-1225.752797
3394.995236,1924.535449,-10658.965565,-1378.971896
3394.995564,4441.235652,-12953.603985,-1608.800546
3394.995892,3404.947333,-10732.986159,1225.752797
3394.996219,3404.947333,-11473.192101,2374.896044
3394.996547,4367.215058,-9770.718434,383.047749
3394.996874,3034.844362,-10658.965565,459.657299
3394.997202,666.185348,-10732.986159,995.924147
3394.997530,-740.205942,-7624.121203,1225.752797
3394.997857,-1258.350101,-7105.977043,459.657299
3394.998185,888.247130,-9252.574275,-689.485948
3394.998513,1258.350101,-12731.542202,76.609550
3394.998840,1776.494261,-12435.459826,919.314598
3394.999168,592.164754,-8586.388927,-689.485948
3394.999496,-1480.411884,-7254.018232,-1225.752797
3394.999823,-2516.700203,-9696.697840,-842.705048
3395.000151,-1628.453072,-8068.244768,-919.314598
3395.000478,-1332.370696,-8068.244768,-229.828649
3395.000806,-666.185348,-8956.491898,-306.438199
3395.001134,370.102971,-10955.047942,0.000000
3395.001461,1258.350101,-9770.718434,306.438199
3395.001789,-222.061783,-8956.491898,1149.143247
3395.002117,-370.102971,-10066.800811,995.924147
3395.002444,592.164754,-8364.327145,153.219100
3395.002772,814.226536,-8142.265362,-842.705048
3395.003100,-296.082377,-9844.739029,612.876398
3395.003427,0.000000,-9622.677246,459.657299
3395.003755,-814.226536,-8808.450710,306.438199
3395.004082,-1924.535449,-11103.089130,-612.876398
3395.004410,-2590.720797,-10658.965565,-2451.505594
3395.004738,-3330.926739,-9474.636058,-2374.896044
3395.005065,-1480.411884,-8660.409521,-2221.676944
3395.005393,148.041188,-10955.047942,-153.219100
3395.005721,148.041188,-11843.295072,1378.971896
3395.006048,148.041188,-11177.109724,1838.629195
3395.006376,0.000000,-8882.471304,-229.828649
3395.006704,148.041188,-8956.491898,-3140.991542
3395.007031,-1110.308913,-8290.306550,-1685.410096
3395.007359,-1776.494261,-7328.038826,229.828649
3395.007686,-1850.514855,-8142.265362,306.438199
3395.008014,-296.082377,-10807.006753,459.657299
3395.008342,2442.679609,-11251.130318,-306.438199
3395.008669,4219.173869,-10214.842000,-612.876398
3395.008997,2294.638420,-10658.965565,766.095498
3395.009325,2664.741391,-9770.718434,689.485948
3395.009652,2960.823768,-9474.636058,153.219100
3395.009980,2220.617826,-9104.533087,612.876398
3395.010308,-370.102971,-8364.327145,1608.800546
3395.010635,-1628.453072,-8438.347739,1838.629195
3395.010963,-1184.329507,-9844.739029,995.924147
3395.011290,370.102971,-10436.903782,-1225.752797
3395.011618,-370.102971,-9030.512492,-1762.019645
3395.011946,-2072.576638,-8068.244768,-2451.505594
3395.012273,0.000000,-8956.491898,-1225.752797
3395.012601,1480.411884,-10955.047942,-1225.752797
3395.012929,2590.720797,-11473.192101,0.000000
3395.013256,1702.473667,-9622.677246,1149.143247
3395.013584,3552.988522,-9696.697840,612.876398
3395.013912,3627.009116,-9696.697840,842.705048
3395.014239,2960.823768,-10288.862594,842.705048
3395.014567,1776.494261,-10807.006753,383.047749
3395.014894,1184.329507,-9992.780217,-995.924147
3395.015222,1406.391290,-10807.006753,-2145.067394
3395.015550,-222.061783,-10140.821405,-766.095498
3395.015877,-1554.432478,-9622.677246,689.485948
3395.016205,222.061783,-11695.253884,459.657299
3395.016533,1924.535449,-12213.398043,153.219100
3395.016860,2146.597232,-10066.800811,-229.828649
3395.017188,-740.205942,-7846.182985,-689.485948
3395.017516,-2590.720797,-8882.471304,-536.266849
3395.017843,-814.226536,-8364.327145,-3064.381992
3395.018171,-1110.308913,-9474.636058,-2374.896044
3395.018499,-1702.473667,-9548.656652,153.219100
3395.018826,-1406.391290,-8808.450710,919.314598
3395.019154,74.020594,-9474.636058,766.095498
3395.019481,1702.473667,-11251.130318,919.314598
3395.019809,1332.370696,-10510.924376,1378.971896
3395.020137,666.185348,-8068.244768,1149.143247
3395.020464,740.205942,-6661.853478,-1532.190996
3395.020792,1406.391290,-7698.141797,-1915.238745
3395.021120,-518.144159,-9992.780217,0.000000
3395.021447,-1702.473667,-9178.553681,1915.238745
3395.021775,-2072.576638,-9030.512492,1149.143247
3395.022103,-2220.617826,-10732.986159,-689.485948
3395.022430,-1332.370696,-12287.418637,-995.924147
3395.022758,-222.061783,-8882.471304,-2681.334243
3395.023085,-1110.308913,-8438.347739,-1225.752797
3395.023413,296.082377,-10955.047942,-766.095498
3395.023741,1184.329507,-11399.171507,459.657299
3395.024068,222.061783,-10140.821405,689.485948
3395.024396,0.000000,-9030.512492,153.219100
3395.024724,148.041188,-9844.739029,-459.657299
3395.025051,222.061783,-8882.471304,536.266849
3395.025379,74.020594,-9474.636058,1608.800546
3395.025707,0.000000,-9474.636058,306.438199
3395.026034,222.061783,-9696.697840,-1991.848295
3395.026362,1628.453072,-9400.615463,-3370.820191
3395.026689,2368.659014,-11769.274478,-2681.334243
3395.027017,740.205942,-10288.862594,0.000000
3395.027345,740.205942,-10881.027347,2604.724693
3395.027672,2738.761985,-9400.615463,1149.143247
3395.028000,2812.782580,-9770.718434,1149.143247
3395.028328,0.000000,-10807.006753,3370.820191
3395.028655,0.000000,-7846.182985,1762.019645
3395.028983,-1332.370696,-6661.853478,-1225.752797
3395.029311,-1184.329507,-8956.491898,-3217.601092
3395.029638,-1332.370696,-9770.718434,-3294.210641
3395.029966,-2516.700203,-8142.265362,-1838.629195
3395.030293,-1628.453072,-9326.594869,-383.047749
3395.030621,592.164754,-11029.068536,0.000000
3395.030949,3108.864956,-12805.562797,689.485948
3395.031276,3775.050304,-10140.821405,919.314598
3395.031604,3256.906145,-8216.285956,1072.533697
3395.031932,3627.009116,-8290.306550,383.047749
3395.032259,3034.844362,-9030.512492,153.219100
3395.032587,1776.494261,-8586.388927,229.828649
3395.032915,0.000000,-8808.450710,153.219100
3395.033242,-1776.494261,-10881.027347,-306.438199
3395.033570,-888.247130,-10658.965565,-689.485948
3395.033897,1850.514855,-11547.212695,-1915.238745
3395.034225,1406.391290,-12435.459826,-612.876398
3395.034553,1184.329507,-12139.377449,919.314598
3395.034880,962.267725,-8808.450710,-995.924147
3395.035208,-814.226536,-8438.347739,-2451.505594
3395.035536,-2368.659014,-8660.409521,-2604.724693
3395.035863,-2812.782580,-8290.306550,-1149.143247
3395.036191,-2886.803174,-8808.450710,766.095498
3395.036519,-666.185348,-10584.944971,2221.676944
3395.036846,296.082377,-10510.924376,1378.971896
3395.037174,814.226536,-10066.800811,76.609550
3395.037501,592.164754,-9844.739029,-459.657299
3395.037829,1628.453072,-9992.780217,-1532.190996
3395.038157,148.041188,-8438.347739,-2221.676944
3395.038484,444.123565,-8068.244768,76.609550
3395.038812,0.000000,-9918.759623,1685.410096
3395.039140,222.061783,-9400.615463,1225.752797
3395.039467,1850.514855,-10140.821405,2298.286494
3395.039795,592.164754,-10066.800811,2528.115143
3395.040123,-3330.926739,-9622.677246,919.314598
3395.040450,-2072.576638,-9104.533087,-2298.286494
3395.040778,-666.185348,-8290.306550,-4903.011187
3395.041105,-1184.329507,-9252.574275,-4213.525239
3395.041433,-1554.432478,-11547.212695,306.438199
3395.041761,-740.205942,-10436.903782,2528.115143
3395.042088,1406.391290,-9696.697840,1532.190996
3395.042416,2590.720797,-11843.295072,0.000000
3395.042744,0.000000,-9844.739029,689.485948
3395.043071,-592.164754,-7402.059420,1608.800546
3395.043399,2590.720797,-5847.626942,-1302.362347
3395.043727,592.164754,-8290.306550,-1838.629195
3395.044054,-444.123565,-10807.006753,-612.876398
3395.044382,148.041188,-11473.192101,-459.657299
3395.044709,1332.370696,-9400.615463,-1685.410096
3395.045037,2146.597232,-11991.336260,-459.657299
3395.045365,2886.803174,-13619.789333,1225.752797
3395.045692,1998.556043,-9030.512492,2911.162892
3395.046020,2368.659014,-7624.121203,1608.800546
3395.046348,1406.391290,-9474.636058,-306.438199
3395.046675,-962.267725,-8734.430116,-689.485948
3395.047003,-2368.659014,-7994.224174,-306.438199
3395.047331,-2442.679609,-8956.491898,-1378.971896
3395.047658,-1480.411884,-9252.574275,-2604.724693
3395.047986,-222.061783,-11843.295072,-919.314598
3395.048313,888.247130,-10658.965565,306.438199
3395.048641,2812.782580,-10732.986159,1455.581446
3395.048969,3923.091493,-10881.027347,612.876398
3395.049296,2886.803174,-9770.718434,76.609550
3395.049624,222.061783,-8216.285956,-229.828649
3395.049952,0.000000,-7254.018232,76.609550
3395.050279,74.020594,-8142.265362,689.485948
3395.050607,1702.473667,-10140.821405,1149.143247
3395.050935,1628.453072,-11843.295072,919.314598
3395.051262,222.061783,-10658.965565,1378.971896
3395.051590,1258.350101,-10288.862594,-383.047749
3395.051917,1998.556043,-9992.780217,-1915.238745
3395.052245,888.247130,-9770.718434,-2451.505594
3395.052573,-1924.535449,-7179.997637,-919.314598
3395.052900,-2960.823768,-9400.615463,-459.657299
3395.053228,-1332.370696,-9326.594869,-1532.190996
3395.053556,-444.123565,-9400.615463,-306.438199
3395.053883,-888.247130,-10881.027347,1608.800546
3395.054211,-666.185348,-9622.677246,2298.286494
3395.054539,0.000000,-8808.450710,919.314598
3395.054866,2368.659014,-8734.430116,-1838.629195
3395.055194,0.000000,-9178.553681,-1991.848295
3395.055522,-740.205942,-9844.739029,1149.143247
3395.055849,-1184.329507,-9474.636058,689.485948
3395.056177,-666.185348,-8882.471304,-229.828649
3395.056504,518.144159,-10658.965565,-766.095498
3395.056832,-222.061783,-11177.109724,306.438199
3395.057160,-148.041188,-9548.656652,1455.581446
3395.057487,2368.659014,-9400.615463,-229.828649
3395.057815,1258.350101,-9844.739029,0.000000
3395.058143,-1480.411884,-8660.409521,-306.438199
3395.058470,-2590.720797,-8586.388927,-536.266849
3395.058798,-2294.638420,-9400.615463,-1455.581446
3395.059126,-1258.350101,-10140.821405,-1455.581446
3395.059453,296.082377,-11621.233289,459.657299
3395.059781,888.247130,-10658.965565,842.705048
3395.060108,1998.556043,-9918.759623,-306.438199
3395.060436,2516.700203,-8660.409521,-1378.971896
3395.060764,740.205942,-9400.615463,-1225.752797
3395.061091,-666.185348,-9178.553681,-306.438199
3395.061419,222.061783,-7476.080014,-536.266849
3395.061747,740.205942,-8068.244768,-459.657299
3395.062074,148.041188,-11695.253884,1302.362347
3395.062402,1480.411884,-12435.459826,1072.533697
3395.062730,2368.659014,-9918.759623,-306.438199
3395.063057,2590.720797,-10066.800811,-1455.581446
3395.063385,2072.576638,-10584.944971,-1455.581446
3395.063712,0.000000,-8142.265362,153.219100
3395.064040,444.123565,-7031.956449,1149.143247
3395.064368,0.000000,-8808.450710,766.095498
3395.064695,-1924.535449,-9918.759623,1225.752797
3395.065023,-1628.453072,-9918.759623,0.000000
3395.065351,-296.082377,-8586.388927,-1685.410096
3395.065678,814.226536,-8956.491898,-2451.505594
3395.066006,1628.453072,-10066.800811,-1762.019645
3395.066334,2368.659014,-10807.006753,0.000000
3395.066661,2590.720797,-10140.821405,766.095498
3395.066989,2590.720797,-9474.636058,1149.143247
3395.067316,518.144159,-9326.594869,383.047749
3395.067644,-592.164754,-10584.944971,612.876398
3395.067972,222.061783,-10066.800811,-306.438199
3395.068299,1110.308913,-9918.759623,-536.266849
3395.068627,1036.288319,-10362.883188,0.000000
3395.068955,1554.432478,-8956.491898,0.000000
3395.069282,444.123565,-9770.718434,153.219100
3395.069610,444.123565,-11103.089130,0.000000
3395.069938,0.000000,-9548.656652,-1072.533697
3395.070265,-1258.350101,-8734.430116,-1608.800546
3395.070593,-1628.453072,-9400.615463,-689.485948
3395.070920,-1554.432478,-10362.883188,0.000000
3395.071248,-444.123565,-9326.594869,-229.828649
3395.071576,-814.226536,-8734.430116,-536.266849
3395.071903,148.041188,-10140.821405,-995.924147
3395.072231,0.000000,-8734.430116,-383.047749
3395.072559,74.020594,-9104.533087,612.876398
3395.072886,1110.308913,-10288.862594,1455.581446
3395.073214,740.205942,-8586.388927,1455.581446
3395.073542,888.247130,-9178.553681,1378.971896
3395.073869,-444.123565,-9400.615463,842.705048
3395.074197,-444.123565,-10362.883188,153.219100
3395.074524,0.000000,-8882.471304,-1838.629195
3395.074852,74.020594,-9030.512492,-2145.067394
3395.075180,-222.061783,-10140.821405,-919.314598
3395.075507,0.000000,-10362.883188,842.705048
3395.075835,-666.185348,-9252.574275,995.924147
3395.076163,1406.391290,-9400.615463,153.219100
3395.076490,370.102971,-10214.842000,-689.485948
3395.076818,-1628.453072,-9622.677246,995.924147
3395.077146,-2442.679609,-8882.471304,383.047749
3395.077473,0.000000,-8882.471304,-2145.067394
3395.077801,814.226536,-10362.883188,-3064.381992
3395.078129,0.000000,-9030.512492,-1762.019645
3395.078456,-1110.308913,-9696.697840,1915.238745
3395.078784,444.123565,-9400.615463,1762.019645
3395.079112,2960.823768,-11177.109724,-995.924147
3395.079439,1628.453072,-12065.356855,-1302.362347
3395.079767,-592.164754,-9770.718434,306.438199
3395.080095,518.144159,-8290.306550,0.000000
3395.080422,2368.659014,-9844.739029,-1302.362347
3395.080750,666.185348,-10881.027347,0.000000
3395.081078,222.061783,-11325.150913,1378.971896
3395.081405,1480.411884,-8438.347739,76.609550
3395.081733,2368.659014,-7476.080014,0.000000
3395.082061,1998.556043,-11251.130318,919.314598
3395.082388,-1776.494261,-10732.986159,2298.286494
3395.082716,-1924.535449,-7105.977043,612.876398
3395.083044,-370.102971,-5995.668130,-3447.429741
3395.083371,-296.082377,-9400.615463,-3447.429741
3395.083699,-740.205942,-10140.821405,229.828649
3395.084027,814.226536,-9696.697840,1302.362347
3395.084354,2294.638420,-9548.656652,383.047749
3395.084682,4515.256246,-11399.171507,766.095498
3395.085010,3034.844362,-10955.047942,1455.581446
3395.085337,74.020594,-8808.450710,2451.505594
3395.085665,296.082377,-7994.224174,-383.047749
3395.085993,1110.308913,-9622.677246,-2528.115143
3395.086320,740.205942,-11843.295072,-1378.971896
3395.086648,814.226536,-9770.718434,0.000000
3395.086976,814.226536,-9622.677246,1455.581446
3395.087303,1998.556043,-10288.862594,995.924147
3395.087631,3997.112087,-13767.830521,0.000000
3395.087959,1776.494261,-10214.842000,-1378.971896
3395.088286,-1258.350101,-7105.977043,-995.924147
3395.088614,-2146.597232,-7698.141797,-1685.410096
3395.088942,-1036.288319,-11029.068536,-2451.505594
3395.089269,-1554.432478,-10807.006753,-1838.629195
3395.089597,-1480.411884,-8956.491898,0.000000
3395.089925,-1850.514855,-8290.306550,766.095498
3395.090252,-148.041188,-10140.821405,76.609550
3395.090580,1776.494261,-12065.356855,0.000000
3395.090908,-962.267725,-9474.636058,1149.143247
3395.091235,-740.205942,-8216.285956,536.266849
3395.091563,814.226536,-6883.915261,-1532.190996
3395.091891,962.267725,-9696.697840,-383.047749
3395.092218,0.000000,-10140.821405,1455.581446
3395.092546,-370.102971,-10214.842000,2451.505594
3395.092874,-666.185348,-8808.450710,0.000000
3395.093201,444.123565,-9030.512492,-1302.362347
3395.093529,-962.267725,-9622.677246,-842.705048
3395.093857,-1554.432478,-8882.471304,153.219100
3395.094184,0.000000,-8364.327145,-1072.533697
3395.094512,0.000000,-11103.089130,-612.876398
3395.094840,-1998.556043,-11399.171507,766.095498
3395.095167,-2072.576638,-8808.450710,919.314598
3395.095495,-740.205942,-7550.100608,-459.657299
3395.095823,296.082377,-8882.471304,-1302.362347
3395.096150,888.247130,-11251.130318,76.609550
3395.096478,-592.164754,-8734.430116,919.314598
3395.096806,444.123565,-7920.203579,612.876398
3395.097133,1110.308913,-9992.780217,-2221.676944
3395.097461,0.000000,-11843.295072,-1378.971896
3395.097789,-444.123565,-10362.883188,-1072.533697
3395.098116,888.247130,-9474.636058,-1532.190996
3395.098444,1258.350101,-10807.006753,-995.924147
3395.098772,2368.659014,-11695.253884,1072.533697
3395.099099,3478.967927,-10362.883188,1608.800546
3395.099427,2812.782580,-8068.244768,1072.533697
3395.099755,1184.329507,-9326.594869,689.485948
3395.100082,-370.102971,-9030.512492,-306.438199
3395.100410,-1554.432478,-8364.327145,-536.266849
3395.100738,-888.247130,-8290.306550,-1685.410096
3395.101065,-740.205942,-10658.965565,-2145.067394
3395.101393,-740.205942,-10658.965565,-842.705048
3395.101721,1110.308913,-10288.862594,153.219100
3395.102048,2664.741391,-10362.883188,-229.828649
3395.102376,3034.844362,-10436.903782,-229.828649
3395.102704,1924.535449,-9844.739029,689.485948
3395.103031,1110.308913,-8586.388927,1378.971896
3395.103359,1702.473667,-9992.780217,76.609550
3395.103687,814.226536,-9548.656652,-459.657299
3395.104014,-1036.288319,-9104.533087,229.828649
3395.104342,296.082377,-9548.656652,536.266849
3395.104670,1702.473667,-10955.047942,0.000000
3395.104997,1036.288319,-10362.883188,76.609550
3395.105325,666.185348,-9696.697840,1072.533697
3395.105653,1702.473667,-11177.109724,0.000000
3395.105980,2294.638420,-10584.944971,-995.924147
3395.106308,592.164754,-8216.285956,-995.924147
3395.106636,-1850.514855,-8586.388927,536.266849
3395.106963,-2146.597232,-9474.636058,229.828649
3395.107291,222.061783,-9918.759623,0.000000
3395.107619,-1110.308913,-9696.697840,612.876398
3395.107946,-1258.350101,-9474.636058,306.438199
3395.108274,0.000000,-8734.430116,-1608.800546
3395.108601,-148.041188,-9770.718434,-1762.019645
3395.108929,74.020594,-10807.006753,-1072.533697
3395.109257,518.144159,-9844.739029,0.000000
3395.109584,370.102971,-9326.594869,766.095498
3395.109912,74.020594,-9326.594869,1149.143247
3395.110240,888.247130,-9696.697840,1838.629195
3395.110567,370.102971,-9252.574275,1608.800546
3395.110895,222.061783,-8364.327145,689.485948
3395.111223,-518.144159,-9252.574275,-689.485948
3395.111550,-296.082377,-10288.862594,-1225.752797
3395.111878,-814.226536,-9770.718434,-612.876398
3395.112206,-2886.803174,-11177.109724,76.609550
3395.112533,-3330.926739,-11547.212695,-229.828649
3395.112861,-1036.288319,-8882.471304,-2451.505594
3395.113189,740.205942,-9622.677246,-1685.410096
