#time,accel_x,accel_y,accel_z
3007.465195,0.000000,-9696.697840,-229.828649
3007.465522,0.000000,-9992.780217,-612.876398
3007.465850,74.020594,-10140.821405,-766.095498
3007.466177,222.061783,-10362.883188,-536.266849
3007.466505,592.164754,-10140.821405,0.000000
3007.466832,1110.308913,-10436.903782,0.000000
3007.467160,1036.288319,-9770.718434,-383.047749
3007.467487,666.185348,-9770.718434,153.219100
3007.467815,444.123565,-9770.718434,229.828649
3007.468142,370.102971,-9474.636058,229.828649
3007.468470,0.000000,-9178.553681,0.000000
3007.468797,-370.102971,-9252.574275,-536.266849
3007.469125,74.020594,-9696.697840,-459.657299
3007.469452,-370.102971,-9474.636058,-383.047749
3007.469780,222.061783,-10066.800811,-766.095498
3007.470107,222.061783,-9992.780217,-459.657299
3007.470435,444.123565,-9622.677246,0.000000
3007.470762,666.185348,-9992.780217,76.609550
3007.471090,518.144159,-9770.718434,229.828649
3007.471417,296.082377,-9178.553681,0.000000
3007.471745,296.082377,-9104.533087,612.876398
3007.472072,-296.082377,-9252.574275,0.000000
3007.472400,-296.082377,-9104.533087,0.000000
3007.472727,0.000000,-9474.636058,-459.657299
3007.473055,-148.041188,-9622.677246,-459.657299
3007.473382,74.020594,-9770.718434,-383.047749
3007.473710,518.144159,-10436.903782,-153.219100
3007.474037,592.164754,-9918.759623,-229.828649
3007.474365,1110.308913,-9992.780217,-612.876398
3007.474692,666.185348,-9992.780217,0.000000
3007.475020,666.185348,-9548.656652,-153.219100
3007.475347,666.185348,-9474.636058,-153.219100
3007.475675,296.082377,-9326.594869,0.000000
3007.476002,444.123565,-9252.574275,-1149.143247
3007.476330,0.000000,-9326.594869,-383.047749
3007.476657,-148.041188,-9548.656652,-459.657299
3007.476985,74.020594,-10140.821405,-842.705048
3007.477312,370.102971,-10288.862594,-919.314598
3007.477640,518.144159,-10510.924376,-459.657299
3007.477967,518.144159,-10214.842000,-306.438199
3007.478295,1258.350101,-10510.924376,306.438199
3007.478622,888.247130,-10362.883188,612.876398
3007.478950,592.164754,-9474.636058,459.657299
3007.479277,222.061783,-9474.636058,229.828649
3007.479605,0.000000,-9030.512492,0.000000
3007.479932,0.000000,-9326.594869,0.000000
3007.480260,0.000000,-9474.636058,0.000000
3007.480587,222.061783,-8734.430116,-153.219100
3007.480915,740.205942,-9030.512492,0.000000
3007.481242,1702.473667,-9622.677246,-612.876398
3007.481570,2442.679609,-9400.615463,383.047749
3007.481897,3256.906145,-8956.491898,383.047749
3007.482225,4293.194464,-8808.450710,536.266849
3007.482552,4885.359217,-8956.491898,459.657299
3007.482880,5699.585753,-9326.594869,229.828649
3007.483207,5847.626942,-8290.306550,153.219100
3007.483535,6217.729913,-9252.574275,-383.047749
3007.483862,6661.853478,-9696.697840,-229.828649
3007.484190,7328.038826,-9992.780217,-153.219100
3007.484517,7550.100608,-10658.965565,0.000000
3007.484845,8290.306550,-10584.944971,612.876398
3007.485172,9104.533087,-9770.718434,0.000000
3007.485500,9844.739029,-9030.512492,0.000000
3007.485827,9844.739029,-8882.471304,0.000000
3007.486155,10881.027347,-8660.409521,0.000000
3007.486482,11473.192101,-9178.553681,153.219100
3007.486810,11473.192101,-9622.677246,76.609550
3007.487137,11473.192101,-9548.656652,0.000000
3007.487465,10881.027347,-9326.594869,-229.828649
3007.487792,10584.944971,-9770.718434,-383.047749
3007.488120,12583.501014,-11473.192101,-1225.752797
3007.488447,13619.789333,-11251.130318,-766.095498
3007.488775,14508.036463,-10436.903782,0.000000
3007.489102,15618.345376,-9770.718434,229.828649
3007.489430,15396.283594,-9474.636058,1302.362347
3007.489757,14656.077652,-8808.450710,1685.410096
3007.490085,14211.954086,-9326.594869,1455.581446
3007.490412,13619.789333,-10140.821405,689.485948
3007.490740,12435.459826,-9178.553681,0.000000
3007.491067,12509.480420,-9104.533087,383.047749
3007.491395,12213.398043,-9622.677246,689.485948
3007.491722,12287.418637,-10362.883188,536.266849
3007.492050,12287.418637,-9030.512492,689.485948
3007.492377,11769.274478,-9548.656652,612.876398
3007.492705,11029.068536,-11325.150913,459.657299
3007.493032,9918.759623,-9622.677246,612.876398
3007.493360,9104.533087,-8364.327145,383.047749
3007.493687,8586.388927,-7846.182985,459.657299
3007.494015,9622.677246,-8364.327145,0.000000
3007.494342,10066.800811,-9252.574275,76.609550
3007.494670,9178.553681,-10881.027347,1072.533697
3007.494997,8364.327145,-10584.944971,1072.533697
3007.495325,7402.059420,-9622.677246,-689.485948
3007.495652,6143.709319,-8882.471304,-995.924147
3007.495980,5625.565159,-9030.512492,0.000000
3007.496307,5847.626942,-9622.677246,229.828649
3007.496635,5625.565159,-11399.171507,1149.143247
3007.496962,5255.462188,-11177.109724,766.095498
3007.497290,4885.359217,-8956.491898,-383.047749
3007.497617,2960.823768,-9178.553681,0.000000
3007.497945,1036.288319,-10732.986159,-459.657299
3007.498272,592.164754,-10510.924376,-1762.019645
3007.498600,1110.308913,-9400.615463,-2528.115143
3007.498927,2664.741391,-7624.121203,-1838.629195
3007.499255,2590.720797,-8586.388927,-536.266849
3007.499582,1110.308913,-9918.759623,1685.410096
3007.499910,296.082377,-10288.862594,1149.143247
3007.500237,2516.700203,-9992.780217,-1532.190996
3007.500565,3923.091493,-9844.739029,-2681.334243
3007.500892,3775.050304,-10214.842000,-1072.533697
3007.501220,3256.906145,-9474.636058,766.095498
3007.501547,2442.679609,-9992.780217,1532.190996
3007.501875,2220.617826,-11103.089130,-76.609550
3007.502202,1702.473667,-9474.636058,-2528.115143
3007.502530,0.000000,-8364.327145,-1991.848295
3007.502857,-666.185348,-8660.409521,383.047749
3007.503185,1258.350101,-9548.656652,842.705048
3007.503512,3256.906145,-10732.986159,0.000000
3007.503840,2220.617826,-10066.800811,306.438199
3007.504167,1406.391290,-7402.059420,1072.533697
3007.504495,1554.432478,-7698.141797,306.438199
3007.504822,592.164754,-8660.409521,76.609550
3007.505150,-222.061783,-9030.512492,0.000000
3007.505477,-74.020594,-7624.121203,0.000000
3007.505805,1110.308913,-8438.347739,0.000000
3007.506132,2664.741391,-11399.171507,995.924147
3007.506460,1998.556043,-10140.821405,919.314598
3007.506787,2072.576638,-9622.677246,-459.657299
3007.507115,2368.659014,-10658.965565,-1991.848295
3007.507442,1924.535449,-10658.965565,-2221.676944
3007.507770,1110.308913,-9178.553681,919.314598
3007.508097,3627.009116,-7994.224174,1378.971896
3007.508424,6291.750507,-8734.430116,766.095498
3007.508752,4663.297435,-9770.718434,766.095498
3007.509079,2664.741391,-10510.924376,2068.457845
3007.509407,2886.803174,-10584.944971,536.266849
3007.509734,3256.906145,-11547.212695,-1915.238745
3007.510062,518.144159,-11547.212695,-2298.286494
3007.510389,-1184.329507,-10140.821405,-1378.971896
3007.510717,1110.308913,-10658.965565,766.095498
3007.511044,2220.617826,-11547.212695,-766.095498
3007.511372,296.082377,-11843.295072,-306.438199
3007.511699,-1110.308913,-11399.171507,383.047749
3007.512027,-888.247130,-9400.615463,-306.438199
3007.512354,-1702.473667,-7994.224174,-1302.362347
3007.512682,-3034.844362,-7402.059420,-383.047749
3007.513009,-3256.906145,-7179.997637,459.657299
3007.513337,666.185348,-7624.121203,0.000000
3007.513664,1702.473667,-8734.430116,842.705048
3007.513992,1110.308913,-10140.821405,2068.457845
3007.514319,740.205942,-10807.006753,2451.505594
3007.514647,518.144159,-11251.130318,766.095498
3007.514974,-592.164754,-11325.150913,-1915.238745
3007.515302,-2738.761985,-10658.965565,-1149.143247
3007.515629,-2516.700203,-10732.986159,919.314598
3007.515957,-1850.514855,-9844.739029,1302.362347
3007.516284,-3108.864956,-8364.327145,536.266849
3007.516612,-4293.194464,-8068.244768,0.000000
3007.516939,-4219.173869,-8290.306550,306.438199
3007.517267,-4515.256246,-6291.750507,-612.876398
3007.517594,-5033.400406,-3923.091493,-1532.190996
3007.517922,-3256.906145,-6217.729913,-689.485948
3007.518249,962.267725,-9400.615463,306.438199
3007.518577,2294.638420,-10510.924376,842.705048
3007.518904,2294.638420,-11325.150913,1455.581446
3007.519232,3701.029710,-12509.480420,612.876398
3007.519559,3108.864956,-14211.954086,-459.657299
3007.519887,444.123565,-13101.645173,-2145.067394
3007.520214,-1258.350101,-10510.924376,-2911.162892
3007.520542,0.000000,-10881.027347,-3064.381992
3007.520869,370.102971,-11695.253884,-2451.505594
3007.521197,-1258.350101,-9992.780217,-153.219100
3007.521524,-1628.453072,-7105.977043,383.047749
3007.521852,74.020594,-7994.224174,-842.705048
3007.522179,518.144159,-9474.636058,-1072.533697
3007.522507,-1184.329507,-7254.018232,-995.924147
3007.522834,1110.308913,-7328.038826,-153.219100
3007.523162,4959.379811,-10140.821405,689.485948
3007.523489,4737.318029,-11917.315666,229.828649
3007.523817,2886.803174,-12731.542202,459.657299
3007.524144,3923.091493,-11621.233289,-995.924147
3007.524472,3849.070898,-11917.315666,-1991.848295
3007.524799,1554.432478,-12953.603985,-1532.190996
3007.525127,296.082377,-11769.274478,-919.314598
3007.525454,1628.453072,-9918.759623,-919.314598
3007.525782,2442.679609,-8438.347739,-612.876398
3007.526109,666.185348,-7698.141797,1838.629195
3007.526437,666.185348,-6513.812290,3064.381992
3007.526764,1480.411884,-5625.565159,3447.429741
3007.527092,1332.370696,-6365.771101,1302.362347
3007.527419,-296.082377,-6661.853478,1225.752797
3007.527747,0.000000,-8216.285956,1608.800546
3007.528074,1628.453072,-9178.553681,842.705048
3007.528402,740.205942,-10362.883188,-919.314598
3007.528729,222.061783,-11695.253884,-995.924147
3007.529057,296.082377,-12879.583391,-1378.971896
3007.529384,740.205942,-13027.624579,-2145.067394
3007.529712,0.000000,-11473.192101,-2221.676944
3007.530039,-1184.329507,-10584.944971,-842.705048
3007.530367,222.061783,-9770.718434,383.047749
3007.530694,1480.411884,-7772.162391,0.000000
3007.531022,-518.144159,-6069.688724,1532.190996
3007.531349,-1332.370696,-7476.080014,2221.676944
3007.531677,-296.082377,-8068.244768,2451.505594
3007.532004,-1332.370696,-7476.080014,766.095498
3007.532332,-3182.885551,-7846.182985,-919.314598
3007.532659,-2738.761985,-10214.842000,-1225.752797
3007.532987,-1332.370696,-12953.603985,-2145.067394
3007.533314,-1702.473667,-13397.727550,-2451.505594
3007.533642,-1480.411884,-12361.439231,-3064.381992
3007.533969,296.082377,-12435.459826,-2528.115143
3007.534297,296.082377,-12731.542202,-1915.238745
3007.534624,-2294.638420,-10066.800811,-1072.533697
3007.534952,-2590.720797,-8586.388927,-995.924147
3007.535279,-1258.350101,-8808.450710,-689.485948
3007.535607,-1184.329507,-8438.347739,-689.485948
3007.535934,-1850.514855,-6883.915261,766.095498
3007.536262,222.061783,-7179.997637,689.485948
3007.536589,1258.350101,-8808.450710,1532.190996
3007.536916,-370.102971,-8364.327145,1915.238745
3007.537244,-1332.370696,-7698.141797,1149.143247
3007.537571,444.123565,-9178.553681,-383.047749
3007.537899,2294.638420,-11399.171507,-919.314598
3007.538226,1258.350101,-10955.047942,-306.438199
3007.538554,1628.453072,-10066.800811,76.609550
3007.538881,3404.947333,-10140.821405,0.000000
3007.539209,2368.659014,-10584.944971,-919.314598
3007.539536,-962.267725,-10140.821405,0.000000
3007.539864,-370.102971,-9770.718434,0.000000
3007.540191,2516.700203,-8734.430116,-536.266849
3007.540519,2146.597232,-7846.182985,-383.047749
3007.540846,-370.102971,-8142.265362,2451.505594
3007.541174,370.102971,-9030.512492,2987.772442
3007.541501,1998.556043,-9178.553681,1685.410096
3007.541829,1110.308913,-8660.409521,306.438199
3007.542156,-740.205942,-7920.203579,229.828649
3007.542483,1036.288319,-9326.594869,-306.438199
3007.542811,3627.009116,-12287.418637,-689.485948
3007.543138,3552.988522,-13249.686362,-766.095498
3007.543466,3256.906145,-12287.418637,-1225.752797
3007.543793,3108.864956,-11991.336260,-842.705048
3007.544121,2664.741391,-11177.109724,-1685.410096
3007.544448,666.185348,-10807.006753,-1378.971896
3007.544776,814.226536,-10584.944971,0.000000
3007.545103,3108.864956,-9474.636058,153.219100
3007.545431,2368.659014,-7402.059420,1378.971896
3007.545758,-1702.473667,-7105.977043,2528.115143
3007.546086,-2960.823768,-9400.615463,3064.381992
3007.546413,-3552.988522,-8660.409521,842.705048
3007.546741,-4959.379811,-5773.606348,-3217.601092
3007.547068,-4663.297435,-6883.915261,-3600.648841
3007.547395,-296.082377,-11399.171507,-3064.381992
3007.547723,3034.844362,-13323.706956,-459.657299
3007.548050,3775.050304,-12509.480420,919.314598
3007.548378,3627.009116,-10955.047942,842.705048
3007.548705,3478.967927,-11695.253884,-229.828649
3007.549033,666.185348,-11251.130318,-229.828649
3007.549360,-2664.741391,-8882.471304,0.000000
3007.549688,-2516.700203,-7179.997637,76.609550
3007.550015,0.000000,-9030.512492,-383.047749
3007.550343,-1258.350101,-7994.224174,459.657299
3007.550670,-3849.070898,-7254.018232,1762.019645
3007.550998,-3552.988522,-7772.162391,1608.800546
3007.551325,-3478.967927,-8290.306550,-995.924147
3007.551653,-4219.173869,-7846.182985,-3370.820191
3007.551980,-2812.782580,-8142.265362,-3064.381992
3007.552308,148.041188,-9104.533087,-612.876398
3007.552635,3849.070898,-13027.624579,1838.629195
3007.552962,2886.803174,-14063.912898,2145.067394
3007.553290,2812.782580,-12583.501014,229.828649
3007.553617,2738.761985,-11621.233289,-1762.019645
3007.553945,-370.102971,-10807.006753,-2298.286494
3007.554272,-3923.091493,-9474.636058,-1378.971896
3007.554600,-2442.679609,-7994.224174,-919.314598
3007.554927,1110.308913,-7994.224174,-1532.190996
3007.555255,592.164754,-8808.450710,536.266849
3007.555582,-1036.288319,-8586.388927,2528.115143
3007.555910,-222.061783,-8290.306550,2451.505594
3007.556237,444.123565,-8290.306550,-306.438199
3007.556565,-740.205942,-8586.388927,-1991.848295
3007.556892,-740.205942,-8512.368333,-1378.971896
3007.557220,2590.720797,-10214.842000,0.000000
3007.557547,4441.235652,-12731.542202,689.485948
3007.557875,2590.720797,-12361.439231,1149.143247
3007.558202,2294.638420,-11769.274478,0.000000
3007.558529,2664.741391,-11621.233289,-1455.581446
3007.558857,296.082377,-10807.006753,-2451.505594
3007.559184,-1184.329507,-8512.368333,-1915.238745
3007.559512,0.000000,-7846.182985,-919.314598
3007.559839,2812.782580,-8660.409521,153.219100
3007.560167,2516.700203,-7920.203579,1455.581446
3007.560494,518.144159,-7105.977043,3140.991542
3007.560822,1776.494261,-8364.327145,2757.943793
3007.561149,2368.659014,-8882.471304,76.609550
3007.561477,740.205942,-8216.285956,-1532.190996
3007.561804,0.000000,-8882.471304,-995.924147
3007.562132,2294.638420,-11991.336260,689.485948
3007.562459,2442.679609,-12953.603985,766.095498
3007.562787,2072.576638,-12213.398043,-383.047749
3007.563114,1332.370696,-11251.130318,-842.705048
3007.563441,1184.329507,-11991.336260,-1455.581446
3007.563769,-592.164754,-11991.336260,-689.485948
3007.564096,-1702.473667,-8956.491898,-229.828649
3007.564424,-814.226536,-7179.997637,-536.266849
3007.564751,1184.329507,-7402.059420,0.000000
3007.565079,0.000000,-7179.997637,612.876398
3007.565406,-1850.514855,-7105.977043,2374.896044
3007.565734,-592.164754,-8438.347739,1455.581446
3007.566061,-1110.308913,-9178.553681,-1762.019645
3007.566389,-2146.597232,-9548.656652,-2834.553343
3007.566716,-1850.514855,-10362.883188,-1608.800546
3007.567044,592.164754,-12583.501014,459.657299
3007.567371,962.267725,-13323.706956,1072.533697
3007.567699,444.123565,-11473.192101,383.047749
3007.568026,1184.329507,-10658.965565,-842.705048
3007.568354,-222.061783,-9770.718434,-766.095498
3007.568681,-2294.638420,-9548.656652,383.047749
3007.569008,-2146.597232,-7994.224174,-1072.533697
3007.569336,-1036.288319,-6735.874072,-1991.848295
3007.569663,-518.144159,-7624.121203,-1225.752797
3007.569991,-444.123565,-8364.327145,1149.143247
3007.570318,-148.041188,-9252.574275,2451.505594
3007.570646,962.267725,-9252.574275,1072.533697
3007.570973,888.247130,-8882.471304,-1455.581446
3007.571301,-1628.453072,-8882.471304,-1378.971896
3007.571628,-1628.453072,-9844.739029,383.047749
3007.571956,888.247130,-11325.150913,995.924147
3007.572283,1480.411884,-11103.089130,842.705048
3007.572611,444.123565,-10510.924376,919.314598
3007.572938,1110.308913,-10955.047942,-229.828649
3007.573266,814.226536,-11991.336260,-1225.752797
3007.573593,-148.041188,-10510.924376,-1455.581446
3007.573921,148.041188,-10140.821405,-2451.505594
3007.574248,1110.308913,-10362.883188,-1608.800546
3007.574575,1924.535449,-8660.409521,0.000000
3007.574903,1554.432478,-8068.244768,1762.019645
3007.575230,1554.432478,-9178.553681,2911.162892
3007.575558,3478.967927,-9252.574275,1685.410096
3007.575885,2146.597232,-7476.080014,1072.533697
3007.576213,-1110.308913,-7550.100608,536.266849
3007.576540,-2146.597232,-9770.718434,459.657299
3007.576868,-888.247130,-11399.171507,0.000000
3007.577195,0.000000,-10881.027347,-2374.896044
3007.577523,74.020594,-9844.739029,-2298.286494
3007.577850,2072.576638,-10732.986159,-1072.533697
3007.578178,3108.864956,-12435.459826,0.000000
3007.578505,2590.720797,-12213.398043,229.828649
3007.578833,2664.741391,-9622.677246,-612.876398
3007.579160,2368.659014,-8512.368333,-306.438199
3007.579488,1036.288319,-7920.203579,842.705048
3007.579815,74.020594,-7031.956449,306.438199
3007.580142,-1258.350101,-7402.059420,1685.410096
3007.580470,444.123565,-9104.533087,612.876398
3007.580797,74.020594,-8512.368333,-689.485948
3007.581125,-1110.308913,-7994.224174,-689.485948
3007.581452,-592.164754,-9770.718434,0.000000
3007.581780,148.041188,-12065.356855,-229.828649
3007.582107,666.185348,-11251.130318,-1072.533697
3007.582435,1332.370696,-9844.739029,-1302.362347
3007.582762,2516.700203,-10584.944971,-536.266849
3007.583090,2072.576638,-11917.315666,842.705048
3007.583417,814.226536,-12139.377449,842.705048
3007.583745,0.000000,-11177.109724,-383.047749
3007.584072,-222.061783,-10288.862594,-2221.676944
3007.584400,-1332.370696,-8586.388927,-2221.676944
3007.584727,-3108.864956,-7846.182985,-1225.752797
3007.585054,-2664.741391,-7476.080014,229.828649
3007.585382,0.000000,-8438.347739,536.266849
3007.585709,518.144159,-8290.306550,459.657299
3007.586037,444.123565,-8290.306550,1302.362347
3007.586364,1110.308913,-10214.842000,1915.238745
3007.586692,2294.638420,-11695.253884,459.657299
3007.587019,1480.411884,-11103.089130,229.828649
3007.587347,518.144159,-10066.800811,-1149.143247
3007.587674,0.000000,-10955.047942,-1302.362347
3007.588002,-296.082377,-11399.171507,-689.485948
3007.588329,-1258.350101,-10436.903782,-612.876398
3007.588657,-2294.638420,-9326.594869,-1378.971896
3007.588984,-2368.659014,-9326.594869,-766.095498
3007.589312,-2146.597232,-7994.224174,-1532.190996
3007.589639,-2294.638420,-7105.977043,229.828649
3007.589967,-592.164754,-7994.224174,1532.190996
3007.590294,962.267725,-7402.059420,1302.362347
3007.590621,666.185348,-7031.956449,1302.362347
3007.590949,296.082377,-7994.224174,1149.143247
3007.591276,1998.556043,-9696.697840,842.705048
3007.591604,2294.638420,-11843.295072,306.438199
3007.591931,2220.617826,-12139.377449,-612.876398
3007.592259,1776.494261,-11473.192101,-2068.457845
3007.592586,2368.659014,-12805.562797,-1915.238745
3007.592914,1110.308913,-12879.583391,-1072.533697
3007.593241,-740.205942,-10807.006753,0.000000
3007.593569,-666.185348,-8882.471304,-1072.533697
3007.593896,444.123565,-9548.656652,-995.924147
3007.594224,0.000000,-8808.450710,0.000000
3007.594551,0.000000,-6439.791695,306.438199
3007.594879,0.000000,-6587.832884,1149.143247
3007.595206,814.226536,-7772.162391,536.266849
3007.595534,222.061783,-7550.100608,0.000000
3007.595861,-1184.329507,-9178.553681,0.000000
3007.596188,814.226536,-12139.377449,-383.047749
3007.596516,2886.803174,-13397.727550,-2145.067394
3007.596843,2886.803174,-12953.603985,-1762.019645
3007.597171,2664.741391,-13027.624579,-919.314598
3007.597498,2294.638420,-13841.851115,536.266849
3007.597826,592.164754,-11991.336260,1915.238745
3007.598153,-814.226536,-8512.368333,536.266849
3007.598481,-296.082377,-7105.977043,-995.924147
3007.598808,-962.267725,-7476.080014,-689.485948
3007.599136,-592.164754,-6883.915261,76.609550
3007.599463,-1184.329507,-6143.709319,1225.752797
3007.599791,-444.123565,-7105.977043,229.828649
3007.600118,296.082377,-8216.285956,229.828649
3007.600446,518.144159,-8364.327145,459.657299
3007.600773,0.000000,-9474.636058,0.000000
3007.601100,2220.617826,-11843.295072,153.219100
3007.601428,3330.926739,-12213.398043,306.438199
3007.601755,1702.473667,-11769.274478,459.657299
3007.602083,296.082377,-11547.212695,1225.752797
3007.602410,222.061783,-10140.821405,383.047749
3007.602738,-962.267725,-9178.553681,0.000000
3007.603065,-2368.659014,-8216.285956,-689.485948
3007.603393,-2146.597232,-7179.997637,-1762.019645
3007.603720,-370.102971,-8660.409521,-1378.971896
3007.604048,814.226536,-9252.574275,-459.657299
3007.604375,370.102971,-9474.636058,229.828649
3007.604703,740.205942,-9770.718434,153.219100
3007.605030,1110.308913,-8956.491898,-1302.362347
3007.605358,-518.144159,-9548.656652,-1608.800546
3007.605685,-370.102971,-11325.150913,0.000000
3007.606013,1998.556043,-11325.150913,1149.143247
3007.606340,1924.535449,-9918.759623,1685.410096
3007.606667,-370.102971,-10140.821405,842.705048
3007.606995,-2294.638420,-11769.274478,-459.657299
3007.607322,-2590.720797,-12509.480420,-1915.238745
3007.607650,-3108.864956,-10288.862594,-3217.601092
3007.607977,-3552.988522,-8364.327145,-3217.601092
3007.608305,-740.205942,-8660.409521,-1378.971896
3007.608632,2590.720797,-9992.780217,612.876398
3007.608960,3256.906145,-9474.636058,1991.848295
3007.609287,2442.679609,-9252.574275,2145.067394
3007.609615,2220.617826,-9104.533087,1302.362347
3007.609942,74.020594,-8734.430116,-536.266849
3007.610270,-1850.514855,-7402.059420,-1149.143247
3007.610597,-1258.350101,-8660.409521,0.000000
3007.610925,1258.350101,-11103.089130,459.657299
3007.611252,2442.679609,-11547.212695,842.705048
3007.611580,2590.720797,-10658.965565,766.095498
3007.611907,2960.823768,-10658.965565,1225.752797
3007.612234,222.061783,-11029.068536,766.095498
3007.612562,-1702.473667,-8808.450710,-1378.971896
3007.612889,-1628.453072,-6513.812290,-2298.286494
3007.613217,0.000000,-8142.265362,-1378.971896
3007.613544,2220.617826,-9918.759623,689.485948
3007.613872,2294.638420,-9992.780217,1685.410096
3007.614199,1036.288319,-10955.047942,1455.581446
3007.614527,962.267725,-11325.150913,-1072.533697
3007.614854,-1258.350101,-9252.574275,-2681.334243
3007.615182,-3478.967927,-7402.059420,-1991.848295
3007.615509,-1184.329507,-8364.327145,-1072.533697
3007.615837,2886.803174,-10658.965565,0.000000
3007.616164,3478.967927,-10955.047942,1378.971896
3007.616492,4145.153275,-10955.047942,2221.676944
3007.616819,3627.009116,-11177.109724,1991.848295
3007.617147,2146.597232,-11991.336260,383.047749
3007.617474,-666.185348,-10066.800811,-2068.457845
3007.617801,-2368.659014,-8142.265362,-3600.648841
3007.618129,-1702.473667,-10140.821405,-3600.648841
3007.618456,296.082377,-11103.089130,-1915.238745
3007.618784,444.123565,-9696.697840,306.438199
3007.619111,-2146.597232,-8882.471304,919.314598
3007.619439,-1702.473667,-10362.883188,0.000000
3007.619766,-2294.638420,-8808.450710,-1685.410096
3007.620094,-3404.947333,-6439.791695,-2068.457845
3007.620421,-2146.597232,-7402.059420,0.000000
3007.620749,1924.535449,-8512.368333,2145.067394
3007.621076,3108.864956,-9030.512492,1608.800546
3007.621404,1924.535449,-10140.821405,3830.477490
3007.621731,2442.679609,-10732.986159,1302.362347
3007.622059,1998.556043,-11325.150913,-995.924147
3007.622386,-518.144159,-11251.130318,-2451.505594
3007.622713,-1480.411884,-10510.924376,-2374.896044
3007.623041,0.000000,-10807.006753,-1685.410096
3007.623368,666.185348,-9992.780217,383.047749
3007.623696,0.000000,-8734.430116,1455.581446
3007.624023,-1110.308913,-8068.244768,2068.457845
3007.624351,-1036.288319,-8438.347739,1378.971896
3007.624678,-2590.720797,-6217.729913,-459.657299
3007.625006,-3256.906145,-5329.482782,-1532.190996
3007.625333,-1184.329507,-7846.182985,-536.266849
3007.625661,2220.617826,-10955.047942,612.876398
3007.625988,2442.679609,-9252.574275,2068.457845
3007.626316,1850.514855,-11621.233289,1455.581446
3007.626643,2590.720797,-14285.974681,-689.485948
3007.626971,2664.741391,-13989.892304,-3370.820191
3007.627298,666.185348,-12139.377449,-3677.258390
3007.627626,148.041188,-11325.150913,-1991.848295
3007.627953,1480.411884,-11917.315666,536.266849
3007.628280,1332.370696,-11029.068536,2145.067394
3007.628608,-592.164754,-7402.059420,689.485948
3007.628935,-1184.329507,-6439.791695,229.828649
3007.629263,-1628.453072,-7105.977043,-842.705048
3007.629590,-2368.659014,-6809.894666,-1149.143247
3007.629918,-2220.617826,-5773.606348,-306.438199
3007.630245,-518.144159,-7994.224174,612.876398
3007.630573,2220.617826,-11547.212695,229.828649
3007.630900,3108.864956,-12287.418637,0.000000
3007.631228,2886.803174,-11621.233289,0.000000
3007.631555,2812.782580,-12879.583391,-612.876398
3007.631883,1924.535449,-12731.542202,-1378.971896
3007.632210,-296.082377,-9844.739029,-1455.581446
3007.632538,-1702.473667,-9104.533087,-766.095498
3007.632865,-444.123565,-9326.594869,383.047749
3007.633193,-370.102971,-7846.182985,689.485948
3007.633520,-1258.350101,-6291.750507,383.047749
3007.633847,-1998.556043,-6735.874072,995.924147
3007.634175,-1036.288319,-8216.285956,612.876398
3007.634502,0.000000,-7772.162391,-459.657299
3007.634830,0.000000,-7550.100608,-306.438199
3007.635157,2442.679609,-9104.533087,536.266849
3007.635485,4145.153275,-11843.295072,0.000000
3007.635812,3330.926739,-12509.480420,689.485948
3007.636140,2812.782580,-11843.295072,536.266849
3007.636468,4219.173869,-12435.459826,-612.876398
3007.636795,3182.885551,-11177.109724,-306.438199
3007.637123,0.000000,-9474.636058,229.828649
3007.637450,-1184.329507,-9548.656652,-459.657299
3007.637778,-1332.370696,-10214.842000,-766.095498
3007.638106,-592.164754,-8216.285956,-1302.362347
3007.638433,-1184.329507,-6513.812290,-459.657299
3007.638761,-1406.391290,-7402.059420,1532.190996
3007.639089,222.061783,-9030.512492,1302.362347
3007.639416,666.185348,-8734.430116,-536.266849
3007.639744,0.000000,-8216.285956,-1072.533697
3007.640071,1628.453072,-10362.883188,-1762.019645
3007.640399,2146.597232,-12435.459826,-919.314598
3007.640727,666.185348,-11991.336260,383.047749
3007.641054,1110.308913,-12361.439231,0.000000
3007.641382,2590.720797,-13619.789333,-842.705048
3007.641709,1184.329507,-12583.501014,-1149.143247
3007.642037,-1480.411884,-9030.512492,-459.657299
3007.642365,-1702.473667,-7698.141797,-383.047749
3007.642692,-1554.432478,-8142.265362,-153.219100
3007.643020,-2146.597232,-6291.750507,-766.095498
3007.643347,-2812.782580,-4145.153275,0.000000
3007.643675,-1702.473667,-6291.750507,1302.362347
3007.644003,1258.350101,-10066.800811,1532.190996
3007.644330,444.123565,-10140.821405,0.000000
3007.644658,-962.267725,-10807.006753,-1302.362347
3007.644985,444.123565,-12435.459826,-1838.629195
3007.645313,1998.556043,-12879.583391,-2145.067394
3007.645641,444.123565,-11917.315666,-459.657299
3007.645968,0.000000,-10807.006753,1378.971896
3007.646296,1480.411884,-10732.986159,-229.828649
3007.646624,592.164754,-9400.615463,0.000000
3007.646951,-814.226536,-8068.244768,0.000000
3007.647279,-740.205942,-8142.265362,0.000000
3007.647606,1258.350101,-9178.553681,153.219100
3007.647934,1110.308913,-8290.306550,0.000000
3007.648262,0.000000,-8660.409521,76.609550
3007.648589,0.000000,-9400.615463,995.924147
3007.648917,740.205942,-10955.047942,0.000000
3007.649244,-1406.391290,-9992.780217,-536.266849
3007.649572,-2738.761985,-10510.924376,-995.924147
3007.649900,-1406.391290,-11547.212695,-1072.533697
3007.650227,-666.185348,-10955.047942,-1685.410096
3007.650555,-1850.514855,-10140.821405,-1149.143247
3007.650882,-1258.350101,-10066.800811,383.047749
3007.651210,1184.329507,-9992.780217,-306.438199
3007.651538,1036.288319,-9474.636058,0.000000
3007.651865,-444.123565,-7772.162391,536.266849
3007.652193,888.247130,-7402.059420,536.266849
3007.652521,2960.823768,-8586.388927,229.828649
3007.652848,2664.741391,-9178.553681,0.000000
3007.653176,1406.391290,-8660.409521,1532.190996
3007.653503,1036.288319,-9622.677246,2145.067394
3007.653831,1036.288319,-9844.739029,0.000000
3007.654159,-222.061783,-9474.636058,-1455.581446
3007.654486,-444.123565,-9178.553681,-1378.971896
3007.654814,518.144159,-10214.842000,-536.266849
3007.655141,444.123565,-10807.006753,76.609550
3007.655469,592.164754,-9918.759623,1225.752797
3007.655797,2294.638420,-9474.636058,-612.876398
3007.656124,2146.597232,-9992.780217,-689.485948
3007.656452,148.041188,-9844.739029,-306.438199
3007.656779,-370.102971,-9474.636058,-842.705048
3007.657107,1258.350101,-10658.965565,-1532.190996
3007.657435,2960.823768,-10658.965565,-1915.238745
3007.657762,3034.844362,-9474.636058,-2145.067394
3007.658090,518.144159,-9992.780217,766.095498
3007.658417,592.164754,-10881.027347,1685.410096
3007.658745,1110.308913,-10140.821405,-306.438199
3007.659073,-814.226536,-8364.327145,-1532.190996
3007.659400,-1702.473667,-8586.388927,-842.705048
3007.659728,370.102971,-10362.883188,-459.657299
3007.660056,1110.308913,-10066.800811,-229.828649
3007.660383,0.000000,-9400.615463,1302.362347
3007.660711,2220.617826,-10807.006753,536.266849
3007.661038,2294.638420,-11177.109724,0.000000
3007.661366,148.041188,-10066.800811,0.000000
3007.661694,-962.267725,-8808.450710,-842.705048
3007.662021,-370.102971,-9696.697840,-1072.533697
3007.662349,740.205942,-10288.862594,-153.219100
3007.662676,0.000000,-8290.306550,536.266849
3007.663004,-1776.494261,-8216.285956,1838.629195
3007.663332,-1036.288319,-10066.800811,2374.896044
3007.663659,-1036.288319,-8586.388927,306.438199
3007.663987,-2368.659014,-6957.935855,-1149.143247
3007.664314,-1702.473667,-7624.121203,-459.657299
3007.664642,814.226536,-10362.883188,842.705048
3007.664970,888.247130,-10807.006753,1455.581446
3007.665297,1554.432478,-10362.883188,1302.362347
3007.665625,2146.597232,-10807.006753,0.000000
3007.665953,1924.535449,-11029.068536,-1225.752797
3007.666280,-1110.308913,-10214.842000,-1302.362347
3007.666608,-1258.350101,-9992.780217,-1608.800546
3007.666935,444.123565,-9252.574275,-1302.362347
3007.667263,1258.350101,-10436.903782,-919.314598
3007.667591,-370.102971,-9178.553681,459.657299
3007.667918,-888.247130,-8586.388927,1149.143247
3007.668246,-444.123565,-9252.574275,766.095498
3007.668573,-888.247130,-8438.347739,-459.657299
3007.668901,-1702.473667,-7105.977043,-1455.581446
3007.669229,-740.205942,-8364.327145,-383.047749
3007.669556,1406.391290,-10881.027347,0.000000
3007.669884,1184.329507,-11917.315666,-689.485948
3007.670211,444.123565,-12139.377449,-995.924147
3007.670539,1998.556043,-11843.295072,-2374.896044
3007.670867,2294.638420,-12879.583391,-2451.505594
3007.671194,222.061783,-12435.459826,-536.266849
3007.671522,-444.123565,-10362.883188,0.000000
3007.671849,1924.535449,-10362.883188,229.828649
3007.672177,2886.803174,-9178.553681,536.266849
3007.672505,518.144159,-6809.894666,1532.190996
3007.672832,-1554.432478,-5625.565159,2834.553343
3007.673160,-1406.391290,-6661.853478,1532.190996
3007.673488,-814.226536,-6291.750507,-995.924147
3007.673815,-1702.473667,-6661.853478,-919.314598
3007.674143,-222.061783,-9030.512492,1072.533697
3007.674470,2664.741391,-12361.439231,459.657299
3007.674798,2368.659014,-14359.995275,76.609550
3007.675126,1924.535449,-13175.665768,-689.485948
3007.675453,2294.638420,-11325.150913,-1838.629195
3007.675781,1184.329507,-11029.068536,-1302.362347
3007.676108,-666.185348,-9622.677246,536.266849
3007.676436,-1332.370696,-7254.018232,1149.143247
3007.676764,740.205942,-7846.182985,1302.362347
3007.677091,1702.473667,-7772.162391,766.095498
3007.677419,0.000000,-6069.688724,689.485948
3007.677746,-1036.288319,-7105.977043,1532.190996
3007.678074,0.000000,-8956.491898,1072.533697
3007.678402,740.205942,-9474.636058,-1608.800546
3007.678729,148.041188,-9844.739029,-1378.971896
3007.679057,1924.535449,-11917.315666,-842.705048
3007.679385,3330.926739,-13915.871710,0.000000
3007.679712,1702.473667,-14211.954086,536.266849
3007.680040,-1036.288319,-12435.459826,-766.095498
3007.680367,-1110.308913,-10510.924376,-3294.210641
3007.680695,-2294.638420,-9844.739029,-2757.943793
3007.681023,-4663.297435,-8290.306550,-1378.971896
3007.681350,-3330.926739,-7698.141797,-766.095498
3007.681678,0.000000,-8142.265362,-383.047749
3007.682005,1850.514855,-7846.182985,0.000000
3007.682333,222.061783,-7846.182985,1378.971896
3007.682661,222.061783,-7994.224174,2221.676944
3007.682988,962.267725,-9474.636058,1072.533697
3007.683316,1406.391290,-9104.533087,-536.266849
3007.683643,-444.123565,-8734.430116,-689.485948
3007.683971,888.247130,-11769.274478,229.828649
3007.684299,1998.556043,-13175.665768,1072.533697
3007.684626,962.267725,-12583.501014,689.485948
3007.684954,-370.102971,-10658.965565,-612.876398
3007.685281,-962.267725,-10436.903782,-1915.238745
3007.685609,-2072.576638,-9622.677246,-2298.286494
3007.685937,-2960.823768,-6957.935855,-459.657299
3007.686264,-1998.556043,-6291.750507,536.266849
3007.686592,444.123565,-7698.141797,1225.752797
3007.686920,888.247130,-6883.915261,536.266849
3007.687247,0.000000,-6661.853478,1532.190996
3007.687575,592.164754,-8512.368333,766.095498
3007.687902,2146.597232,-10584.944971,-612.876398
3007.688230,0.000000,-10066.800811,-995.924147
3007.688558,444.123565,-10066.800811,-612.876398
3007.688885,2886.803174,-12657.521608,-459.657299
3007.689213,3182.885551,-14434.015869,0.000000
3007.689540,1554.432478,-12731.542202,0.000000
3007.689868,1036.288319,-9992.780217,-995.924147
3007.690196,1110.308913,-9474.636058,-1532.190996
3007.690523,-370.102971,-9770.718434,-1532.190996
3007.690851,-2146.597232,-8586.388927,306.438199
3007.691178,0.000000,-7698.141797,383.047749
3007.691506,2590.720797,-8290.306550,-689.485948
3007.691834,1480.411884,-7846.182985,-383.047749
3007.692161,-370.102971,-8660.409521,-153.219100
3007.692489,0.000000,-9844.739029,76.609550
3007.692817,1036.288319,-10732.986159,-1532.190996
3007.693144,0.000000,-9326.594869,-2221.676944
3007.693472,0.000000,-10140.821405,-459.657299
3007.693799,1702.473667,-12213.398043,1225.752797
3007.694127,2294.638420,-13101.645173,1762.019645
3007.694455,1480.411884,-11103.089130,1225.752797
3007.694782,1332.370696,-9252.574275,-306.438199
3007.695110,1036.288319,-8660.409521,-919.314598
3007.695437,-444.123565,-9474.636058,229.828649
3007.695765,-1924.535449,-8068.244768,612.876398
3007.696093,74.020594,-7994.224174,76.609550
3007.696420,1924.535449,-8364.327145,-383.047749
3007.696748,888.247130,-8586.388927,0.000000
3007.697075,-370.102971,-7402.059420,1532.190996
3007.697403,-592.164754,-9104.533087,919.314598
3007.697731,-592.164754,-10584.944971,-689.485948
3007.698058,-1332.370696,-9104.533087,-2068.457845
3007.698386,-444.123565,-8512.368333,-995.924147
3007.698713,1332.370696,-10955.047942,1685.410096
3007.699041,2368.659014,-11991.336260,2451.505594
3007.699369,2146.597232,-10140.821405,1149.143247
3007.699696,2146.597232,-8808.450710,-766.095498
3007.700024,1184.329507,-10510.924376,-1762.019645
3007.700352,-1332.370696,-10584.944971,-1762.019645
3007.700679,-3478.967927,-9326.594869,-995.924147
3007.701007,-1628.453072,-9622.677246,-2298.286494
3007.701334,222.061783,-9178.553681,-2145.067394
3007.701662,-222.061783,-8956.491898,0.000000
3007.701990,-518.144159,-9178.553681,1149.143247
3007.702317,1406.391290,-11103.089130,766.095498
3007.702645,1406.391290,-10288.862594,-612.876398
3007.702972,-1110.308913,-7105.977043,-1455.581446
3007.703300,-1850.514855,-8068.244768,-153.219100
3007.703628,-518.144159,-10584.944971,229.828649
3007.703955,1110.308913,-11473.192101,153.219100
3007.704283,888.247130,-10881.027347,-383.047749
3007.704610,2072.576638,-11029.068536,-1225.752797
3007.704938,1924.535449,-12361.439231,-1455.581446
3007.705266,0.000000,-11991.336260,-919.314598
3007.705593,-1702.473667,-9474.636058,-229.828649
3007.705921,-592.164754,-8882.471304,-1455.581446
3007.706249,666.185348,-8364.327145,-995.924147
3007.706576,-1110.308913,-6217.729913,689.485948
3007.706904,-1924.535449,-6587.832884,2528.115143
3007.707231,0.000000,-9400.615463,2451.505594
3007.707559,1554.432478,-9326.594869,0.000000
3007.707887,74.020594,-7031.956449,-995.924147
3007.708214,0.000000,-7994.224174,-229.828649
3007.708542,888.247130,-10584.944971,766.095498
3007.708869,2812.782580,-11103.089130,383.047749
3007.709197,3404.947333,-10881.027347,-306.438199
3007.709525,4293.194464,-11547.212695,0.000000
3007.709852,4219.173869,-13323.706956,1072.533697
3007.710180,1258.350101,-12879.583391,1225.752797
3007.710507,-1110.308913,-10140.821405,-459.657299
3007.710835,-1258.350101,-8586.388927,-2604.724693
3007.711163,-1776.494261,-7624.121203,-2221.676944
3007.711490,-2812.782580,-6143.709319,-689.485948
3007.711818,-2368.659014,-6735.874072,919.314598
3007.712145,-370.102971,-9474.636058,995.924147
3007.712473,1184.329507,-9030.512492,-153.219100
3007.712801,0.000000,-7772.162391,-612.876398
3007.713128,666.185348,-9474.636058,229.828649
3007.713456,2960.823768,-12509.480420,536.266849
3007.713784,3701.029710,-13619.789333,76.609550
3007.714111,3775.050304,-12435.459826,-153.219100
3007.714439,3775.050304,-12435.459826,-612.876398
3007.714766,1776.494261,-12953.603985,0.000000
3007.715094,-1258.350101,-11177.109724,-306.438199
3007.715422,-3627.009116,-9770.718434,-1149.143247
3007.715749,-3034.844362,-9178.553681,-2145.067394
3007.716077,-1998.556043,-7105.977043,-2068.457845
3007.716404,-3256.906145,-4441.235652,0.000000
3007.716732,-3701.029710,-5625.565159,1991.848295
3007.717060,-1406.391290,-8512.368333,1608.800546
3007.717387,518.144159,-7920.203579,-689.485948
3007.717715,-222.061783,-7476.080014,-1762.019645
3007.718042,1110.308913,-10140.821405,-919.314598
3007.718370,3627.009116,-12583.501014,612.876398
3007.718698,3627.009116,-13767.830521,612.876398
3007.719025,2812.782580,-13027.624579,-306.438199
3007.719353,2146.597232,-12731.542202,-766.095498
3007.719681,148.041188,-12879.583391,-383.047749
3007.720008,-2590.720797,-9400.615463,-689.485948
3007.720336,-3478.967927,-6957.935855,-1991.848295
3007.720663,-1776.494261,-7179.997637,-1225.752797
3007.720991,-740.205942,-7105.977043,306.438199
3007.721319,-740.205942,-6217.729913,2068.457845
3007.721646,888.247130,-7105.977043,1915.238745
3007.721974,2368.659014,-8734.430116,306.438199
3007.722301,1036.288319,-8512.368333,-766.095498
3007.722629,-370.102971,-8438.347739,-1455.581446
3007.722957,888.247130,-11325.150913,-1072.533697
3007.723284,2960.823768,-13989.892304,-153.219100
3007.723612,2812.782580,-13767.830521,306.438199
3007.723939,2146.597232,-12805.562797,0.000000
3007.724267,2072.576638,-12435.459826,0.000000
3007.724595,148.041188,-10955.047942,0.000000
3007.724922,-3182.885551,-8364.327145,-1378.971896
3007.725250,-3627.009116,-6735.874072,-1378.971896
3007.725577,-740.205942,-6735.874072,-1455.581446
3007.725905,1480.411884,-6883.915261,-153.219100
3007.726233,814.226536,-7105.977043,2068.457845
3007.726560,1406.391290,-7254.018232,3524.039291
3007.726888,3034.844362,-9548.656652,459.657299
3007.727216,2368.659014,-10066.800811,-995.924147
3007.727543,74.020594,-9992.780217,-995.924147
3007.727871,888.247130,-10510.924376,-766.095498
3007.728198,2220.617826,-12361.439231,-536.266849
3007.728526,1258.350101,-12435.459826,0.000000
3007.728854,1184.329507,-10955.047942,-306.438199
3007.729181,666.185348,-9992.780217,612.876398
3007.729509,-444.123565,-11325.150913,-459.657299
3007.729836,-1184.329507,-9474.636058,-1532.190996
3007.730164,-1110.308913,-6069.688724,-2298.286494
3007.730492,296.082377,-6883.915261,-1149.143247
3007.730819,962.267725,-8290.306550,842.705048
3007.731147,-444.123565,-7920.203579,3370.820191
3007.731474,-148.041188,-9474.636058,1455.581446
3007.731802,962.267725,-10214.842000,-459.657299
3007.732130,0.000000,-9696.697840,-2451.505594
3007.732457,-1036.288319,-9844.739029,-1378.971896
3007.732785,1258.350101,-12435.459826,0.000000
3007.733113,2516.700203,-12805.562797,229.828649
3007.733440,1406.391290,-11547.212695,-306.438199
3007.733768,148.041188,-10214.842000,229.828649
3007.734095,592.164754,-10362.883188,-1455.581446
3007.734423,-740.205942,-10955.047942,-766.095498
3007.734751,-2146.597232,-9400.615463,-383.047749
3007.735078,-592.164754,-7994.224174,-689.485948
3007.735406,1480.411884,-8882.471304,-689.485948
3007.735733,666.185348,-8734.430116,1149.143247
3007.736061,-814.226536,-8808.450710,1762.019645
3007.736389,-962.267725,-9400.615463,383.047749
3007.736716,-962.267725,-8364.327145,-1225.752797
3007.737044,-1998.556043,-7772.162391,-2221.676944
3007.737371,-2294.638420,-9474.636058,-766.095498
3007.737699,0.000000,-10658.965565,0.000000
3007.738026,2442.679609,-11843.295072,995.924147
3007.738354,2368.659014,-10362.883188,383.047749
3007.738681,1258.350101,-9548.656652,-306.438199
3007.739009,1258.350101,-10436.903782,-459.657299
3007.739336,148.041188,-9474.636058,-229.828649
3007.739664,-370.102971,-8438.347739,-383.047749
3007.739991,962.267725,-9548.656652,-689.485948
3007.740319,1776.494261,-10214.842000,76.609550
3007.740646,962.267725,-9770.718434,919.314598
3007.740974,-888.247130,-9178.553681,0.000000
3007.741301,-2220.617826,-9474.636058,-536.266849
3007.741629,-2294.638420,-9400.615463,-1762.019645
3007.741956,-2368.659014,-7105.977043,-2528.115143
3007.742284,-1702.473667,-7994.224174,-995.924147
3007.742611,1628.453072,-10881.027347,383.047749
3007.742938,3627.009116,-11177.109724,1608.800546
3007.743266,3330.926739,-10214.842000,766.095498
3007.743593,2960.823768,-10362.883188,76.609550
3007.743921,2664.741391,-11917.315666,-536.266849
3007.744248,962.267725,-11399.171507,-919.314598
3007.744576,296.082377,-9844.739029,-1532.190996
3007.744903,888.247130,-11991.336260,-1302.362347
3007.745231,1924.535449,-12287.418637,0.000000
3007.745558,0.000000,-9030.512492,995.924147
3007.745886,-2516.700203,-7179.997637,842.705048
3007.746213,-2368.659014,-7846.182985,0.000000
3007.746541,-1850.514855,-7476.080014,-383.047749
3007.746868,-2960.823768,-5255.462188,306.438199
3007.747196,-2146.597232,-7031.956449,689.485948
3007.747523,814.226536,-9400.615463,459.657299
3007.747851,2516.700203,-10436.903782,-766.095498
3007.748178,2072.576638,-10807.006753,0.000000
3007.748506,3034.844362,-12139.377449,-459.657299
3007.748833,3256.906145,-13249.686362,-995.924147
3007.749161,2146.597232,-12805.562797,-995.924147
3007.749488,518.144159,-10436.903782,-689.485948
3007.749816,0.000000,-10140.821405,0.000000
3007.750143,-296.082377,-9918.759623,766.095498
3007.750471,-1702.473667,-6587.832884,229.828649
3007.750798,-2590.720797,-5329.482782,76.609550
3007.751125,-1924.535449,-7105.977043,0.000000
3007.751453,-1776.494261,-7254.018232,0.000000
3007.751780,-592.164754,-6291.750507,76.609550
3007.752108,370.102971,-8142.265362,689.485948
3007.752435,2368.659014,-11473.192101,-383.047749
3007.752763,2886.803174,-11917.315666,-1149.143247
3007.753090,2368.659014,-12435.459826,-1532.190996
3007.753418,2220.617826,-13101.645173,-1378.971896
3007.753745,2072.576638,-13397.727550,-1149.143247
3007.754073,296.082377,-11769.274478,-1302.362347
3007.754400,-1258.350101,-10732.986159,-306.438199
3007.754728,-592.164754,-10584.944971,0.000000
3007.755055,-666.185348,-9844.739029,0.000000
3007.755383,-2294.638420,-6587.832884,-229.828649
3007.755710,-2812.782580,-5329.482782,0.000000
3007.756038,-2146.597232,-7031.956449,459.657299
3007.756365,-518.144159,-7328.038826,995.924147
3007.756693,814.226536,-7624.121203,612.876398
3007.757020,2664.741391,-9548.656652,766.095498
3007.757348,4441.235652,-11843.295072,1685.410096
3007.757675,4663.297435,-13101.645173,1302.362347
3007.758003,2368.659014,-11843.295072,766.095498
3007.758330,1184.329507,-10658.965565,-1072.533697
3007.758658,0.000000,-12287.418637,-1838.629195
3007.758985,-2294.638420,-10584.944971,-766.095498
3007.759312,-2368.659014,-8660.409521,-459.657299
3007.759640,-1702.473667,-9104.533087,459.657299
3007.759967,-888.247130,-9030.512492,229.828649
3007.760295,-1258.350101,-6957.935855,536.266849
3007.760622,-1554.432478,-5033.400406,459.657299
3007.760950,0.000000,-6883.915261,536.266849
3007.761277,1258.350101,-8586.388927,383.047749
3007.761605,962.267725,-8512.368333,0.000000
3007.761932,2368.659014,-9178.553681,842.705048
3007.762260,4811.338623,-12213.398043,766.095498
3007.762587,3775.050304,-14952.160028,536.266849
3007.762915,814.226536,-14063.912898,0.000000
3007.763242,74.020594,-12287.418637,-2757.943793
3007.763570,-1110.308913,-10955.047942,-4749.792088
3007.763897,-3182.885551,-9474.636058,-3447.429741
3007.764225,-3330.926739,-8438.347739,-1302.362347
3007.764552,-1332.370696,-7920.203579,153.219100
3007.764880,740.205942,-8216.285956,306.438199
3007.765207,666.185348,-7846.182985,383.047749
3007.765535,666.185348,-7772.162391,1149.143247
3007.765862,962.267725,-8734.430116,1685.410096
3007.766190,1480.411884,-9474.636058,-919.314598
3007.766517,296.082377,-9770.718434,-1378.971896
3007.766844,814.226536,-11251.130318,-766.095498
3007.767172,2886.803174,-12509.480420,-766.095498
3007.767499,2220.617826,-12435.459826,-459.657299
3007.767827,370.102971,-11251.130318,459.657299
3007.768154,-148.041188,-10807.006753,-612.876398
3007.768482,148.041188,-10436.903782,-1225.752797
3007.768809,-1702.473667,-8216.285956,-306.438199
3007.769137,-1924.535449,-7105.977043,229.828649
3007.769464,-814.226536,-7476.080014,689.485948
3007.769792,370.102971,-7772.162391,536.266849
3007.770119,-370.102971,-6217.729913,1302.362347
3007.770447,-1184.329507,-7254.018232,1532.190996
3007.770774,0.000000,-9400.615463,842.705048
3007.771102,-370.102971,-9992.780217,0.000000
3007.771429,-370.102971,-9474.636058,-1225.752797
3007.771757,740.205942,-10955.047942,-459.657299
3007.772084,1924.535449,-12213.398043,612.876398
3007.772412,1406.391290,-11103.089130,612.876398
3007.772739,1480.411884,-10288.862594,766.095498
3007.773067,2072.576638,-10436.903782,229.828649
3007.773394,888.247130,-9844.739029,-229.828649
3007.773722,-1628.453072,-8216.285956,-383.047749
3007.774049,-1924.535449,-7624.121203,-919.314598
3007.774377,0.000000,-9252.574275,-1608.800546
3007.774704,592.164754,-9622.677246,-919.314598
3007.775031,-1332.370696,-8734.430116,-306.438199
3007.775359,-222.061783,-10955.047942,229.828649
3007.775686,592.164754,-11029.068536,-229.828649
3007.776014,-592.164754,-10140.821405,-842.705048
3007.776341,-888.247130,-10362.883188,-919.314598
3007.776669,962.267725,-11547.212695,-459.657299
3007.776996,1998.556043,-10658.965565,0.000000
3007.777324,1332.370696,-10362.883188,153.219100
3007.777651,1258.350101,-9474.636058,0.000000
3007.777979,666.185348,-9326.594869,-383.047749
3007.778306,-1036.288319,-9474.636058,-766.095498
3007.778634,-2738.761985,-9252.574275,-1302.362347
3007.778961,-1258.350101,-9548.656652,-2221.676944
3007.779289,1924.535449,-10214.842000,-2145.067394
3007.779616,2442.679609,-8956.491898,-383.047749
3007.779944,592.164754,-9252.574275,1532.190996
3007.780271,444.123565,-10807.006753,3600.648841
3007.780599,666.185348,-9252.574275,1532.190996
3007.780926,-592.164754,-7772.162391,-1302.362347
3007.781254,-1850.514855,-8068.244768,-1532.190996
3007.781581,-888.247130,-8586.388927,-383.047749
3007.781909,666.185348,-9770.718434,612.876398
3007.782236,1036.288319,-9252.574275,842.705048
3007.782564,1776.494261,-9474.636058,153.219100
3007.782891,3404.947333,-10881.027347,-919.314598
3007.783218,2294.638420,-10658.965565,-1072.533697
3007.783546,74.020594,-9474.636058,-689.485948
3007.783873,1554.432478,-10066.800811,0.000000
3007.784201,1480.411884,-10214.842000,536.266849
3007.784528,1406.391290,-8808.450710,1455.581446
3007.784856,-370.102971,-6513.812290,1302.362347
3007.785183,-1480.411884,-9178.553681,1149.143247
3007.785511,-1776.494261,-11547.212695,-153.219100
3007.785838,-1332.370696,-9104.533087,-2528.115143
3007.786166,-1776.494261,-7254.018232,-2604.724693
3007.786493,-370.102971,-10510.924376,-459.657299
3007.786821,1702.473667,-12065.356855,0.000000
3007.787148,3108.864956,-11029.068536,-153.219100
3007.787476,3478.967927,-10732.986159,-153.219100
3007.787803,3404.947333,-11547.212695,-842.705048
3007.788131,1924.535449,-11843.295072,-766.095498
3007.788458,518.144159,-10436.903782,383.047749
3007.788786,1036.288319,-9326.594869,-306.438199
3007.789113,592.164754,-8512.368333,153.219100
3007.789441,-740.205942,-7698.141797,689.485948
3007.789768,-3182.885551,-8290.306550,306.438199
3007.790096,-3701.029710,-9844.739029,229.828649
3007.790423,-3034.844362,-8364.327145,-919.314598
3007.790751,-1702.473667,-7105.977043,-2221.676944
3007.791078,-296.082377,-8216.285956,-383.047749
3007.791405,1924.535449,-10288.862594,76.609550
3007.791733,3256.906145,-11325.150913,1608.800546
3007.792060,2738.761985,-10955.047942,612.876398
3007.792388,2812.782580,-10584.944971,-1378.971896
3007.792715,1998.556043,-11399.171507,-1685.410096
3007.793043,-814.226536,-10288.862594,-229.828649
3007.793370,-1776.494261,-10140.821405,-842.705048
3007.793698,-1184.329507,-10362.883188,-766.095498
3007.794025,296.082377,-10658.965565,0.000000
3007.794353,-592.164754,-7550.100608,-383.047749
3007.794680,-2146.597232,-6661.853478,612.876398
3007.795008,-3108.864956,-8068.244768,1378.971896
3007.795335,-1924.535449,-7402.059420,-919.314598
3007.795663,-222.061783,-6587.832884,-2298.286494
3007.795990,814.226536,-8438.347739,-306.438199
3007.796318,2590.720797,-12065.356855,2068.457845
3007.796645,3997.112087,-13989.892304,1455.581446
3007.796973,3034.844362,-13841.851115,-1072.533697
3007.797300,2220.617826,-12879.583391,-2911.162892
3007.797628,1258.350101,-12657.521608,-3524.039291
3007.797955,-888.247130,-10510.924376,-1532.190996
3007.798283,-962.267725,-8512.368333,0.000000
3007.798610,296.082377,-8734.430116,0.000000
3007.798938,962.267725,-8882.471304,229.828649
3007.799265,-370.102971,-5625.565159,1072.533697
3007.799592,-740.205942,-5921.647536,1685.410096
3007.799920,-962.267725,-8364.327145,1608.800546
3007.800247,-1036.288319,-7994.224174,306.438199
3007.800575,-370.102971,-7698.141797,-1685.410096
3007.800902,814.226536,-9696.697840,-1225.752797
3007.801230,2738.761985,-12731.542202,689.485948
3007.801557,3701.029710,-13841.851115,536.266849
3007.801885,2516.700203,-12731.542202,0.000000
3007.802212,1332.370696,-11917.315666,-1149.143247
3007.802540,888.247130,-11177.109724,-1608.800546
3007.802867,-1110.308913,-8882.471304,-1302.362347
3007.803195,-2368.659014,-7328.038826,612.876398
3007.803522,0.000000,-7328.038826,-153.219100
3007.803850,888.247130,-7031.956449,0.000000
3007.804177,-148.041188,-6513.812290,842.705048
3007.804505,-592.164754,-7402.059420,842.705048
3007.804832,0.000000,-9252.574275,995.924147
3007.805160,222.061783,-8586.388927,-919.314598
3007.805487,74.020594,-8956.491898,-2298.286494
3007.805815,666.185348,-11769.274478,-536.266849
3007.806142,1480.411884,-13619.789333,919.314598
3007.806470,2886.803174,-12953.603985,842.705048
3007.806797,1628.453072,-12583.501014,459.657299
3007.807125,1110.308913,-11325.150913,-229.828649
3007.807452,0.000000,-10214.842000,-1302.362347
3007.807779,-2368.659014,-8142.265362,153.219100
3007.808107,-1924.535449,-7624.121203,-612.876398
3007.808434,-814.226536,-7698.141797,-459.657299
3007.808762,-888.247130,-7105.977043,0.000000
3007.809089,-2368.659014,-7031.956449,689.485948
3007.809417,-1258.350101,-9474.636058,766.095498
3007.809744,0.000000,-10510.924376,-766.095498
3007.810072,518.144159,-9918.759623,-1608.800546
3007.810399,1110.308913,-10066.800811,-306.438199
3007.810727,1628.453072,-11843.295072,1685.410096
3007.811054,2516.700203,-12953.603985,1608.800546
3007.811382,2294.638420,-11399.171507,76.609550
3007.811709,444.123565,-10584.944971,0.000000
3007.812037,-592.164754,-9326.594869,-995.924147
3007.812364,-962.267725,-9178.553681,-1149.143247
3007.812692,-2368.659014,-8364.327145,-842.705048
3007.813019,-1110.308913,-7698.141797,-459.657299
3007.813347,1702.473667,-7920.203579,-995.924147
3007.813674,1998.556043,-8290.306550,229.828649
3007.814002,814.226536,-7846.182985,1149.143247
3007.814329,444.123565,-8364.327145,1302.362347
3007.814657,1332.370696,-8882.471304,0.000000
3007.814984,296.082377,-7920.203579,-1072.533697
3007.815312,-1036.288319,-9104.533087,-612.876398
3007.815639,-592.164754,-11769.274478,1225.752797
3007.815966,1406.391290,-13323.706956,689.485948
3007.816294,2146.597232,-12213.398043,-1302.362347
3007.816621,888.247130,-11473.192101,-2298.286494
3007.816949,814.226536,-11399.171507,-1302.362347
3007.817276,1258.350101,-10807.006753,-1302.362347
3007.817604,0.000000,-9178.553681,-766.095498
3007.817931,666.185348,-8364.327145,-689.485948
3007.818259,2220.617826,-8660.409521,-536.266849
3007.818586,1332.370696,-7550.100608,689.485948
3007.818914,296.082377,-7402.059420,1455.581446
3007.819241,888.247130,-8956.491898,1762.019645
3007.819569,666.185348,-9992.780217,1149.143247
3007.819896,-148.041188,-7698.141797,-459.657299
3007.820224,-1332.370696,-7698.141797,-1532.190996
3007.820551,-2294.638420,-11325.150913,0.000000
3007.820879,0.000000,-13175.665768,842.705048
3007.821206,2146.597232,-11621.233289,0.000000
3007.821534,2072.576638,-10288.862594,536.266849
3007.821861,2294.638420,-11399.171507,0.000000
3007.822189,1036.288319,-10807.006753,0.000000
3007.822516,-740.205942,-9178.553681,-766.095498
3007.822844,-666.185348,-8438.347739,-1838.629195
3007.823171,-370.102971,-7994.224174,-1915.238745
3007.823499,-296.082377,-8142.265362,-383.047749
3007.823826,-740.205942,-7179.997637,1838.629195
3007.824153,-592.164754,-9252.574275,1991.848295
3007.824481,-592.164754,-10436.903782,1532.190996
3007.824808,-1110.308913,-7994.224174,306.438199
3007.825136,-2294.638420,-6883.915261,-1302.362347
3007.825463,-1850.514855,-10436.903782,-536.266849
3007.825791,-518.144159,-11399.171507,153.219100
3007.826118,296.082377,-9474.636058,-1149.143247
3007.826446,1480.411884,-10658.965565,-1072.533697
3007.826773,2738.761985,-12953.603985,-612.876398
3007.827101,1406.391290,-13175.665768,-766.095498
3007.827428,222.061783,-12435.459826,-2068.457845
3007.827756,370.102971,-11177.109724,-3447.429741
3007.828083,814.226536,-10288.862594,-3600.648841
3007.828411,0.000000,-7698.141797,0.000000
3007.828738,-1628.453072,-5847.626942,1838.629195
3007.829066,-962.267725,-7698.141797,2145.067394
3007.829393,666.185348,-8808.450710,383.047749
3007.829721,148.041188,-7105.977043,0.000000
3007.830048,-1332.370696,-7624.121203,612.876398
3007.830376,-740.205942,-9400.615463,1225.752797
3007.830703,1036.288319,-11029.068536,995.924147
3007.831031,1776.494261,-12361.439231,-1072.533697
3007.831358,2294.638420,-12583.501014,-1685.410096
3007.831686,2738.761985,-12805.562797,-1225.752797
3007.832013,2146.597232,-11843.295072,-766.095498
3007.832340,296.082377,-11325.150913,0.000000
3007.832668,296.082377,-10214.842000,0.000000
3007.832995,-370.102971,-7772.162391,76.609550
3007.833323,-1110.308913,-5921.647536,76.609550
3007.833650,-1702.473667,-5107.421000,995.924147
3007.833978,-1258.350101,-6217.729913,1991.848295
3007.834305,444.123565,-7772.162391,919.314598
3007.834633,1258.350101,-7624.121203,-612.876398
3007.834960,814.226536,-8290.306550,919.314598
3007.835288,2146.597232,-11251.130318,612.876398
3007.835615,3552.988522,-13619.789333,0.000000
3007.835943,2590.720797,-13027.624579,-689.485948
3007.836270,2368.659014,-12583.501014,-1149.143247
3007.836598,2368.659014,-11843.295072,-1532.190996
3007.836925,0.000000,-12139.377449,-229.828649
3007.837253,-1480.411884,-10732.986159,-612.876398
3007.837580,-1628.453072,-8882.471304,-1149.143247
3007.837908,-1480.411884,-8216.285956,-1225.752797
3007.838235,-962.267725,-6587.832884,-1225.752797
3007.838563,-1702.473667,-6069.688724,153.219100
3007.838890,-888.247130,-7179.997637,2068.457845
3007.839218,296.082377,-7698.141797,766.095498
3007.839545,0.000000,-8290.306550,0.000000
3007.839872,-1110.308913,-10584.944971,383.047749
3007.840200,444.123565,-12139.377449,-459.657299
3007.840527,3108.864956,-12657.521608,-1915.238745
3007.840855,2960.823768,-13249.686362,-1378.971896
3007.841182,2072.576638,-13989.892304,-306.438199
3007.841510,888.247130,-12657.521608,842.705048
3007.841837,0.000000,-10140.821405,-766.095498
3007.842165,-2516.700203,-8808.450710,-1608.800546
3007.842492,-2812.782580,-8438.347739,-1991.848295
3007.842820,-1850.514855,-6587.832884,-919.314598
3007.843147,-1628.453072,-4737.318029,459.657299
3007.843475,-518.144159,-5847.626942,919.314598
3007.843802,222.061783,-8068.244768,2451.505594
3007.844129,1554.432478,-8068.244768,1378.971896
3007.844457,518.144159,-7624.121203,153.219100
3007.844784,296.082377,-10140.821405,-459.657299
3007.845112,2220.617826,-11325.150913,-919.314598
3007.845439,2886.803174,-12213.398043,-842.705048
3007.845767,2072.576638,-12583.501014,229.828649
3007.846094,740.205942,-12805.562797,689.485948
3007.846422,-592.164754,-11843.295072,536.266849
3007.846749,-1332.370696,-9400.615463,-1225.752797
3007.847077,-2664.741391,-8216.285956,-2145.067394
3007.847404,-1702.473667,-8438.347739,-1532.190996
3007.847732,222.061783,-7254.018232,-995.924147
3007.848059,888.247130,-6735.874072,-229.828649
3007.848386,1480.411884,-8142.265362,459.657299
3007.848714,1850.514855,-9844.739029,842.705048
3007.849041,1110.308913,-8882.471304,459.657299
3007.849369,-296.082377,-7994.224174,-842.705048
3007.849696,740.205942,-11325.150913,-842.705048
3007.850024,3034.844362,-13397.727550,0.000000
3007.850351,3627.009116,-12213.398043,1378.971896
3007.850679,2368.659014,-10807.006753,1302.362347
3007.851006,1110.308913,-11177.109724,1072.533697
3007.851334,-740.205942,-11251.130318,-766.095498
3007.851661,-3478.967927,-10066.800811,-1762.019645
3007.851989,-2516.700203,-7920.203579,-1991.848295
3007.852316,518.144159,-8586.388927,-2298.286494
3007.852643,2220.617826,-9548.656652,-459.657299
3007.852971,1036.288319,-9474.636058,995.924147
3007.853298,740.205942,-8956.491898,766.095498
3007.853626,444.123565,-9548.656652,919.314598
3007.853953,-740.205942,-8364.327145,-689.485948
3007.854281,-1776.494261,-6735.874072,-1302.362347
3007.854608,-518.144159,-8586.388927,0.000000
3007.854936,1258.350101,-11695.253884,1915.238745
3007.855263,1924.535449,-11547.212695,2681.334243
3007.855591,1332.370696,-10436.903782,2068.457845
3007.855918,0.000000,-10732.986159,0.000000
3007.856246,-1480.411884,-10658.965565,-2221.676944
3007.856573,-3478.967927,-9252.574275,-2834.553343
3007.856900,-2146.597232,-8068.244768,-2911.162892
3007.857228,1554.432478,-9252.574275,-2221.676944
3007.857555,2368.659014,-10066.800811,306.438199
3007.857883,1628.453072,-9252.574275,2068.457845
3007.858210,592.164754,-9770.718434,1762.019645
3007.858538,74.020594,-10066.800811,-536.266849
3007.858865,-740.205942,-8216.285956,-2604.724693
3007.859193,-2368.659014,-6587.832884,-1838.629195
3007.859520,-1258.350101,-7550.100608,536.266849
3007.859848,1332.370696,-10140.821405,2374.896044
3007.860175,3330.926739,-10584.944971,1762.019645
3007.860503,2442.679609,-10510.924376,536.266849
3007.860830,1184.329507,-11621.233289,-229.828649
3007.861157,814.226536,-11991.336260,-2221.676944
3007.861485,0.000000,-11103.089130,-2528.115143
3007.861812,0.000000,-9548.656652,-2068.457845
3007.862140,814.226536,-9696.697840,-536.266849
3007.862467,1924.535449,-9918.759623,766.095498
3007.862795,814.226536,-9104.533087,2451.505594
3007.863122,-740.205942,-8290.306550,766.095498
3007.863450,-1702.473667,-8512.368333,-383.047749
3007.863777,-2368.659014,-6809.894666,-1915.238745
3007.864105,-2220.617826,-5329.482782,-1455.581446
3007.864432,0.000000,-8882.471304,842.705048
3007.864759,2664.741391,-11029.068536,2298.286494
3007.865087,3997.112087,-10584.944971,1532.190996
3007.865414,3775.050304,-11399.171507,229.828649
3007.865742,2812.782580,-12583.501014,-842.705048
3007.866069,1776.494261,-12805.562797,-1378.971896
3007.866397,592.164754,-11251.130318,-2221.676944
3007.866724,0.000000,-10436.903782,-1762.019645
3007.867052,0.000000,-10214.842000,-229.828649
3007.867379,0.000000,-9400.615463,0.000000
3007.867707,-2294.638420,-8364.327145,842.705048
3007.868034,-3182.885551,-7624.121203,0.000000
3007.868362,-2220.617826,-7994.224174,-766.095498
3007.868689,-1998.556043,-6883.915261,-689.485948
3007.869016,-1258.350101,-5995.668130,153.219100
3007.869344,1036.288319,-8512.368333,1991.848295
3007.869671,4145.153275,-11029.068536,2298.286494
3007.869999,2664.741391,-10510.924376,1532.190996
3007.870326,1850.514855,-11917.315666,383.047749
3007.870654,666.185348,-12953.603985,-1225.752797
3007.870981,-814.226536,-12287.418637,-3140.991542
3007.871309,-1036.288319,-11103.089130,-3907.087040
3007.871636,-296.082377,-11325.150913,-3217.601092
3007.871964,-666.185348,-11547.212695,153.219100
3007.872291,444.123565,-10066.800811,1378.971896
3007.872619,-1332.370696,-6587.832884,1608.800546
3007.872946,-2442.679609,-6217.729913,459.657299
3007.873273,-1332.370696,-7476.080014,0.000000
3007.873601,-2072.576638,-4885.359217,-612.876398
3007.873928,-2146.597232,-4663.297435,766.095498
3007.874256,1184.329507,-9474.636058,1762.019645
3007.874583,3256.906145,-11695.253884,995.924147
3007.874911,3034.844362,-11917.315666,306.438199
3007.875238,2368.659014,-12583.501014,-766.095498
3007.875566,1998.556043,-13545.768739,-2221.676944
3007.875893,1110.308913,-12361.439231,-3064.381992
3007.876221,-444.123565,-9844.739029,-1915.238745
3007.876548,-1554.432478,-9326.594869,0.000000
3007.876876,148.041188,-9474.636058,1455.581446
3007.877203,148.041188,-7254.018232,1685.410096
3007.877530,-1036.288319,-6365.771101,1455.581446
3007.877858,-1628.453072,-7402.059420,919.314598
3007.878185,-1036.288319,-7328.038826,-306.438199
3007.878513,-666.185348,-7624.121203,-1762.019645
3007.878840,518.144159,-8808.450710,-1762.019645
3007.879168,2368.659014,-10955.047942,0.000000
3007.879495,3108.864956,-12879.583391,536.266849
3007.879823,3627.009116,-13619.789333,0.000000
3007.880150,3330.926739,-13101.645173,-766.095498
3007.880478,2442.679609,-12139.377449,-1225.752797
3007.880805,1184.329507,-10066.800811,1072.533697
3007.881133,0.000000,-8882.471304,842.705048
3007.881460,-1036.288319,-8216.285956,612.876398
3007.881787,-1184.329507,-7031.956449,383.047749
3007.882115,-2294.638420,-7105.977043,-306.438199
3007.882442,-2886.803174,-7624.121203,-306.438199
3007.882770,-1480.411884,-8142.265362,-229.828649
3007.883097,518.144159,-9104.533087,-383.047749
3007.883425,1998.556043,-10140.821405,-306.438199
3007.883752,2072.576638,-10955.047942,766.095498
3007.884080,3108.864956,-11325.150913,919.314598
3007.884407,3182.885551,-11547.212695,689.485948
3007.884735,1998.556043,-11621.233289,612.876398
3007.885062,518.144159,-10066.800811,-153.219100
3007.885390,-222.061783,-10732.986159,-306.438199
3007.885717,-962.267725,-9252.574275,536.266849
3007.886044,-2072.576638,-8586.388927,0.000000
3007.886372,-2220.617826,-10214.842000,0.000000
3007.886699,-2146.597232,-8586.388927,-1302.362347
3007.887027,-1776.494261,-6735.874072,-2911.162892
3007.887354,-888.247130,-7698.141797,-2298.286494
3007.887682,0.000000,-9548.656652,-612.876398
3007.888009,1480.411884,-9474.636058,1072.533697
3007.888337,1480.411884,-9326.594869,842.705048
3007.888664,1110.308913,-11103.089130,919.314598
3007.888992,2590.720797,-13545.768739,0.000000
3007.889319,1850.514855,-12435.459826,-1302.362347
3007.889647,-814.226536,-10214.842000,-1225.752797
3007.889974,-740.205942,-10584.944971,-1225.752797
3007.890301,296.082377,-10955.047942,-2604.724693
3007.890629,-1110.308913,-8956.491898,-1302.362347
3007.890956,-2220.617826,-7698.141797,153.219100
3007.891284,-888.247130,-8882.471304,536.266849
3007.891611,666.185348,-10140.821405,76.609550
3007.891939,814.226536,-8142.265362,-459.657299
3007.892266,-518.144159,-6069.688724,229.828649
3007.892594,0.000000,-9474.636058,919.314598
3007.892921,814.226536,-10510.924376,689.485948
3007.893249,74.020594,-9104.533087,-842.705048
3007.893576,-296.082377,-9622.677246,-536.266849
3007.893904,740.205942,-12213.398043,0.000000
3007.894231,1998.556043,-11177.109724,306.438199
3007.894558,1036.288319,-9252.574275,689.485948
3007.894886,1184.329507,-10658.965565,766.095498
3007.895213,1924.535449,-10066.800811,0.000000
3007.895541,740.205942,-7846.182985,-306.438199
3007.895868,74.020594,-6883.915261,76.609550
3007.896196,1110.308913,-9030.512492,459.657299
3007.896523,2072.576638,-10066.800811,383.047749
3007.896851,962.267725,-7994.224174,612.876398
3007.897178,296.082377,-8512.368333,153.219100
3007.897506,296.082377,-10066.800811,-229.828649
3007.897833,-740.205942,-9844.739029,-1149.143247
3007.898161,-1628.453072,-9474.636058,-1378.971896
3007.898488,-296.082377,-10584.944971,-1378.971896
3007.898815,1628.453072,-11695.253884,76.609550
3007.899143,2220.617826,-11251.130318,1072.533697
3007.899470,1702.473667,-10140.821405,1455.581446
3007.899798,1702.473667,-10066.800811,995.924147
3007.900125,1628.453072,-9992.780217,-153.219100
3007.900453,74.020594,-8364.327145,-1378.971896
3007.900780,-1628.453072,-8290.306550,-1072.533697
3007.901108,-888.247130,-9696.697840,-1149.143247
3007.901435,-666.185348,-10436.903782,-1225.752797
3007.901763,-444.123565,-9844.739029,-536.266849
3007.902090,-592.164754,-9622.677246,-1302.362347
3007.902418,-592.164754,-10807.006753,-995.924147
3007.902745,0.000000,-10955.047942,-229.828649
3007.903072,-888.247130,-9252.574275,0.000000
3007.903400,0.000000,-8808.450710,919.314598
3007.903727,962.267725,-10584.944971,1225.752797
3007.904055,1110.308913,-9474.636058,1532.190996
3007.904382,888.247130,-8660.409521,766.095498
3007.904710,1258.350101,-10288.862594,-383.047749
3007.905037,370.102971,-10881.027347,-1378.971896
3007.905365,-888.247130,-9252.574275,-1225.752797
3007.905692,74.020594,-9030.512492,-1838.629195
3007.906020,814.226536,-10807.006753,-842.705048
3007.906347,1554.432478,-10584.944971,153.219100
3007.906675,296.082377,-7402.059420,306.438199
3007.907002,-962.267725,-7920.203579,689.485948
3007.907329,-814.226536,-8808.450710,1225.752797
3007.907657,-1110.308913,-7328.038826,459.657299
3007.907984,-1924.535449,-6513.812290,919.314598
3007.908312,0.000000,-9326.594869,689.485948
3007.908639,1332.370696,-11177.109724,-306.438199
3007.908967,1110.308913,-11251.130318,-612.876398
3007.909294,1850.514855,-11769.274478,-766.095498
3007.909622,2738.761985,-12361.439231,-1685.410096
3007.909949,1480.411884,-11621.233289,-1991.848295
3007.910277,-592.164754,-10288.862594,-1915.238745
3007.910604,0.000000,-9992.780217,-689.485948
3007.910932,1110.308913,-9770.718434,459.657299
3007.911259,1776.494261,-7624.121203,842.705048
3007.911586,296.082377,-6587.832884,1455.581446
3007.911914,-740.205942,-7846.182985,2298.286494
3007.912241,-1184.329507,-8364.327145,766.095498
3007.912569,-2072.576638,-7698.141797,-1149.143247
3007.912896,-2664.741391,-8660.409521,-1762.019645
3007.913224,74.020594,-9992.780217,-1762.019645
3007.913551,3849.070898,-13397.727550,-766.095498
3007.913879,4367.215058,-14508.036463,612.876398
3007.914206,4071.132681,-13619.789333,536.266849
3007.914534,3923.091493,-11843.295072,-1149.143247
3007.914861,2146.597232,-10436.903782,-1608.800546
3007.915189,-1406.391290,-8142.265362,689.485948
3007.915516,-3108.864956,-6809.894666,229.828649
3007.915843,-1332.370696,-7328.038826,0.000000
3007.916171,-222.061783,-7476.080014,0.000000
3007.916498,-1184.329507,-7402.059420,1149.143247
3007.916826,-1850.514855,-8142.265362,1762.019645
3007.917153,-2516.700203,-8512.368333,306.438199
3007.917481,-1332.370696,-8216.285956,-2528.115143
3007.917808,444.123565,-8586.388927,-2987.772442
3007.918136,2664.741391,-11029.068536,-306.438199
3007.918463,3552.988522,-12953.603985,2451.505594
3007.918791,3627.009116,-13545.768739,2757.943793
3007.919118,3478.967927,-13471.748144,612.876398
3007.919446,740.205942,-12139.377449,-1991.848295
3007.919773,-1702.473667,-9770.718434,-2757.943793
3007.920100,-3997.112087,-7328.038826,-2757.943793
3007.920428,-3108.864956,-8216.285956,-1838.629195
3007.920755,222.061783,-8734.430116,-689.485948
3007.921083,148.041188,-6587.832884,1072.533697
3007.921410,-740.205942,-6661.853478,2145.067394
3007.921738,-814.226536,-8364.327145,1991.848295
3007.922065,-296.082377,-9030.512492,229.828649
3007.922393,-296.082377,-8808.450710,-1532.190996
3007.922720,296.082377,-9474.636058,-1225.752797
3007.923048,2738.761985,-12139.377449,229.828649
3007.923375,3108.864956,-14211.954086,842.705048
3007.923703,2442.679609,-13989.892304,459.657299
3007.924030,666.185348,-11917.315666,-1225.752797
3007.924357,-666.185348,-10807.006753,-2451.505594
3007.924685,-2664.741391,-8660.409521,-2298.286494
3007.925012,-3404.947333,-7105.977043,-995.924147
3007.925340,-148.041188,-8512.368333,-229.828649
3007.925667,2146.597232,-8734.430116,1072.533697
3007.925995,1332.370696,-6809.894666,2451.505594
3007.926322,148.041188,-6587.832884,2451.505594
3007.926650,-444.123565,-8216.285956,842.705048
3007.926977,0.000000,-8808.450710,-1149.143247
3007.927305,0.000000,-8216.285956,-2374.896044
3007.927632,1036.288319,-10732.986159,-1149.143247
3007.927960,2368.659014,-13915.871710,536.266849
3007.928287,3034.844362,-14582.057057,842.705048
3007.928614,1776.494261,-12509.480420,-536.266849
3007.928942,666.185348,-11769.274478,-1608.800546
3007.929269,-296.082377,-10362.883188,-1532.190996
3007.929597,-2664.741391,-7105.977043,-459.657299
3007.929924,-2738.761985,-5847.626942,229.828649
3007.930252,-296.082377,-7550.100608,612.876398
3007.930579,1850.514855,-8364.327145,1072.533697
3007.930907,1110.308913,-7105.977043,1838.629195
3007.931234,-222.061783,-7402.059420,1225.752797
3007.931562,-1406.391290,-9178.553681,-766.095498
3007.931889,296.082377,-10362.883188,-1915.238745
3007.932217,1258.350101,-10140.821405,-2298.286494
3007.932544,1480.411884,-11695.253884,383.047749
3007.932871,2664.741391,-13471.748144,1991.848295
3007.933199,3256.906145,-13915.871710,842.705048
3007.933526,1332.370696,-11029.068536,536.266849
3007.933854,222.061783,-9622.677246,-995.924147
3007.934181,-1702.473667,-7920.203579,-1072.533697
3007.934509,-3701.029710,-7402.059420,-842.705048
3007.934836,-4071.132681,-7550.100608,-766.095498
3007.935164,-1258.350101,-9104.533087,-1685.410096
3007.935491,740.205942,-9326.594869,-2068.457845
3007.935819,518.144159,-8512.368333,-536.266849
3007.936146,370.102971,-8512.368333,919.314598
3007.936474,592.164754,-10436.903782,1149.143247
3007.936801,1776.494261,-9770.718434,0.000000
3007.937129,1776.494261,-8734.430116,-459.657299
3007.937456,888.247130,-10288.862594,842.705048
3007.937784,1406.391290,-11695.253884,2145.067394
3007.938111,1332.370696,-10807.006753,306.438199
3007.938439,222.061783,-9178.553681,-919.314598
3007.938767,-1036.288319,-9326.594869,-995.924147
3007.939094,-518.144159,-10510.924376,-1378.971896
3007.939422,-666.185348,-9770.718434,-1378.971896
3007.939749,74.020594,-9252.574275,-1149.143247
3007.940077,1110.308913,-9918.759623,-766.095498
3007.940405,1628.453072,-8660.409521,0.000000
3007.940732,592.164754,-6809.894666,153.219100
3007.941060,-592.164754,-8142.265362,153.219100
3007.941388,0.000000,-10066.800811,536.266849
3007.941715,296.082377,-8956.491898,0.000000
3007.942043,-222.061783,-8068.244768,153.219100
3007.942370,-814.226536,-9918.759623,1072.533697
3007.942698,370.102971,-11547.212695,995.924147
3007.943026,1036.288319,-11843.295072,-919.314598
3007.943353,444.123565,-10436.903782,-2068.457845
3007.943681,1480.411884,-11325.150913,-1685.410096
3007.944008,1702.473667,-11917.315666,-459.657299
3007.944336,222.061783,-10955.047942,76.609550
3007.944664,148.041188,-9326.594869,-306.438199
3007.944991,1998.556043,-10140.821405,76.609550
3007.945319,2220.617826,-9400.615463,1149.143247
3007.945647,148.041188,-6143.709319,2145.067394
3007.945974,-1110.308913,-6291.750507,536.266849
3007.946302,-1554.432478,-9030.512492,-306.438199
3007.946629,-1332.370696,-9326.594869,-1225.752797
3007.946957,-1332.370696,-8068.244768,-766.095498
3007.947285,0.000000,-9696.697840,536.266849
3007.947612,2294.638420,-12213.398043,1302.362347
3007.947940,3404.947333,-11695.253884,536.266849
3007.948267,3552.988522,-11251.130318,-842.705048
3007.948595,3182.885551,-11547.212695,0.000000
3007.948923,1406.391290,-11325.150913,76.609550
3007.949250,-1776.494261,-9474.636058,153.219100
3007.949578,-2146.597232,-9474.636058,-1225.752797
3007.949905,-1110.308913,-9622.677246,-1608.800546
3007.950233,444.123565,-9400.615463,-919.314598
3007.950561,-888.247130,-8290.306550,612.876398
3007.950888,-814.226536,-8142.265362,459.657299
3007.951216,-888.247130,-8660.409521,-689.485948
3007.951544,0.000000,-8216.285956,-1072.533697
3007.951871,-962.267725,-6217.729913,0.000000
3007.952199,518.144159,-8438.347739,383.047749
3007.952526,2368.659014,-12213.398043,1838.629195
3007.952854,3034.844362,-13323.706956,1072.533697
3007.953182,2812.782580,-13693.809927,-229.828649
3007.953509,1776.494261,-13693.809927,-1455.581446
3007.953837,0.000000,-12953.603985,-2451.505594
3007.954164,-1924.535449,-10658.965565,-2528.115143
3007.954492,-2442.679609,-9030.512492,-1762.019645
3007.954820,-1406.391290,-8142.265362,-1455.581446
3007.955147,-222.061783,-7624.121203,459.657299
3007.955475,-222.061783,-6735.874072,2374.896044
3007.955802,0.000000,-7402.059420,2451.505594
3007.956130,962.267725,-8068.244768,1225.752797
3007.956458,666.185348,-6513.812290,0.000000
3007.956785,0.000000,-6661.853478,-612.876398
3007.957113,888.247130,-9918.759623,229.828649
3007.957441,2294.638420,-12509.480420,0.000000
3007.957768,3256.906145,-12953.603985,229.828649
3007.958096,3330.926739,-13101.645173,0.000000
3007.958423,1776.494261,-13693.809927,-766.095498
3007.958751,-814.226536,-12805.562797,-383.047749
3007.959079,-2368.659014,-9030.512492,-1072.533697
3007.959406,-2516.700203,-7328.038826,-1762.019645
3007.959734,-1850.514855,-8142.265362,-612.876398
3007.960061,-1480.411884,-6217.729913,919.314598
3007.960389,-1628.453072,-4885.359217,2298.286494
3007.960717,-222.061783,-6439.791695,1915.238745
3007.961044,592.164754,-7994.224174,383.047749
3007.961372,296.082377,-8512.368333,0.000000
3007.961699,-222.061783,-9030.512492,-919.314598
3007.962027,1628.453072,-11547.212695,-1225.752797
3007.962355,3775.050304,-14063.912898,-1149.143247
3007.962682,3478.967927,-14285.974681,306.438199
3007.963010,2960.823768,-14211.954086,612.876398
3007.963338,1628.453072,-12287.418637,-229.828649
3007.963665,-592.164754,-11325.150913,-1378.971896
3007.963993,-2960.823768,-9178.553681,-2221.676944
3007.964320,-3034.844362,-7624.121203,-2374.896044
3007.964648,-2368.659014,-6809.894666,-1072.533697
3007.964976,-2590.720797,-6587.832884,153.219100
3007.965303,-2590.720797,-7698.141797,0.000000
3007.965631,-666.185348,-9252.574275,-1302.362347
3007.965958,1628.453072,-9622.677246,-1532.190996
3007.966286,2294.638420,-8512.368333,-612.876398
3007.966614,2368.659014,-10288.862594,995.924147
3007.966941,3627.009116,-12657.521608,2068.457845
3007.967269,4515.256246,-12805.562797,1608.800546
3007.967596,3182.885551,-11325.150913,689.485948
3007.967924,888.247130,-11029.068536,689.485948
3007.968252,-148.041188,-11251.130318,-383.047749
3007.968579,-2664.741391,-9104.533087,-1991.848295
3007.968907,-4737.318029,-7105.977043,-1838.629195
3007.969235,-3256.906145,-7402.059420,-1149.143247
3007.969562,296.082377,-8068.244768,-229.828649
3007.969890,1184.329507,-7254.018232,1455.581446
3007.970217,740.205942,-7179.997637,1991.848295
3007.970545,1924.535449,-8808.450710,766.095498
3007.970873,2368.659014,-8512.368333,-306.438199
3007.971200,1332.370696,-7550.100608,0.000000
3007.971528,888.247130,-8956.491898,1455.581446
3007.971855,2220.617826,-12065.356855,2145.067394
3007.972183,2738.761985,-13249.686362,766.095498
3007.972511,962.267725,-11399.171507,-306.438199
3007.972838,74.020594,-11843.295072,-1225.752797
3007.973166,-1702.473667,-12287.418637,-1532.190996
3007.973494,-2516.700203,-8882.471304,-2374.896044
3007.973821,-3404.947333,-6513.812290,-2298.286494
3007.974149,-666.185348,-8364.327145,-1149.143247
3007.974476,1332.370696,-10288.862594,383.047749
3007.974804,2146.597232,-8956.491898,1915.238745
3007.975132,1628.453072,-8068.244768,1225.752797
3007.975459,1036.288319,-9918.759623,306.438199
3007.975787,814.226536,-10658.965565,-689.485948
3007.976114,-1924.535449,-9104.533087,-1378.971896
3007.976442,-1850.514855,-9474.636058,-1532.190996
3007.976770,1776.494261,-12139.377449,-919.314598
3007.977097,3256.906145,-12953.603985,536.266849
3007.977425,2220.617826,-11843.295072,1991.848295
3007.977752,0.000000,-10584.944971,1838.629195
3007.978080,-296.082377,-9770.718434,-766.095498
3007.978408,-1332.370696,-9326.594869,-2374.896044
3007.978735,-2294.638420,-7179.997637,-2221.676944
3007.979063,-740.205942,-7179.997637,-689.485948
3007.979391,1110.308913,-9696.697840,1532.190996
3007.979718,888.247130,-10066.800811,3064.381992
3007.980046,888.247130,-10066.800811,1225.752797
3007.980373,518.144159,-9474.636058,-689.485948
3007.980701,-666.185348,-7698.141797,-1608.800546
3007.981029,-1406.391290,-7920.203579,-1455.581446
3007.981356,-740.205942,-8068.244768,0.000000
3007.981684,1258.350101,-9770.718434,1532.190996
3007.982011,2368.659014,-9474.636058,1685.410096
3007.982339,1850.514855,-9844.739029,1378.971896
3007.982667,1332.370696,-11399.171507,1072.533697
3007.982994,370.102971,-12065.356855,-612.876398
3007.983322,-740.205942,-10140.821405,-2681.334243
3007.983649,-814.226536,-9622.677246,-3370.820191
3007.983977,666.185348,-10955.047942,-2068.457845
3007.984305,1554.432478,-11399.171507,0.000000
3007.984632,370.102971,-9918.759623,1915.238745
3007.984960,-1110.308913,-8216.285956,766.095498
3007.985288,-370.102971,-9622.677246,-1532.190996
3007.985615,-222.061783,-9622.677246,-1532.190996
3007.985943,-1184.329507,-6661.853478,-919.314598
3007.986270,0.000000,-8216.285956,76.609550
3007.986598,2516.700203,-11251.130318,1302.362347
3007.986926,2368.659014,-10807.006753,306.438199
3007.987253,1702.473667,-10510.924376,-383.047749
3007.987581,1554.432478,-11695.253884,-1225.752797
3007.987908,1406.391290,-13249.686362,-1532.190996
3007.988236,518.144159,-12583.501014,-1838.629195
3007.988564,0.000000,-10140.821405,-1072.533697
3007.988891,370.102971,-10955.047942,-229.828649
3007.989219,1036.288319,-10214.842000,842.705048
3007.989546,-1110.308913,-7105.977043,995.924147
3007.989874,-2220.617826,-7550.100608,689.485948
3007.990202,-1702.473667,-7624.121203,0.000000
3007.990529,-2072.576638,-5921.647536,76.609550
3007.990857,-2368.659014,-5255.462188,995.924147
3007.991185,0.000000,-7402.059420,1149.143247
3007.991512,1850.514855,-9696.697840,689.485948
3007.991840,2294.638420,-11399.171507,766.095498
3007.992167,2294.638420,-11621.233289,0.000000
3007.992495,3552.988522,-12213.398043,-1225.752797
3007.992823,3182.885551,-13027.624579,-995.924147
3007.993150,666.185348,-11621.233289,0.000000
3007.993478,-296.082377,-10066.800811,766.095498
3007.993805,0.000000,-9918.759623,0.000000
3007.994133,-666.185348,-9252.574275,-76.609550
3007.994461,-3034.844362,-6883.915261,0.000000
3007.994788,-3478.967927,-5403.503377,153.219100
3007.995116,-2442.679609,-7105.977043,-536.266849
3007.995444,-2516.700203,-8216.285956,-995.924147
3007.995771,-1850.514855,-7846.182985,-995.924147
3007.996099,1702.473667,-9400.615463,-842.705048
3007.996426,4663.297435,-12287.418637,-459.657299
3007.996754,4589.276840,-13619.789333,1149.143247
3007.997082,3182.885551,-13693.809927,1072.533697
3007.997409,2960.823768,-13545.768739,-536.266849
3007.997737,1628.453072,-12361.439231,-2298.286494
3007.998064,-1258.350101,-9844.739029,-2374.896044
3007.998392,-3330.926739,-8808.450710,-995.924147
3007.998720,-2294.638420,-9252.574275,-689.485948
3007.999047,-1554.432478,-7772.162391,-919.314598
3007.999375,-2664.741391,-6439.791695,0.000000
3007.999702,-1850.514855,-7698.141797,459.657299
3008.000030,0.000000,-8216.285956,306.438199
3008.000358,814.226536,-7105.977043,383.047749
3008.000685,1110.308913,-6735.874072,-306.438199
3008.001013,2886.803174,-10140.821405,76.609550
3008.001341,4589.276840,-11843.295072,1149.143247
3008.001668,4219.173869,-11177.109724,1915.238745
3008.001996,2886.803174,-11843.295072,919.314598
3008.002323,1480.411884,-12657.521608,-842.705048
3008.002651,0.000000,-11769.274478,-2298.286494
3008.002979,-2220.617826,-8660.409521,-1762.019645
3008.003306,-1998.556043,-8364.327145,-1302.362347
3008.003634,-962.267725,-9030.512492,229.828649
3008.003961,-1110.308913,-7550.100608,1072.533697
3008.004289,-814.226536,-5847.626942,1302.362347
3008.004617,222.061783,-6365.771101,842.705048
3008.004944,1184.329507,-8586.388927,-76.609550
3008.005272,962.267725,-8068.244768,306.438199
3008.005599,1702.473667,-7994.224174,229.828649
3008.005927,3404.947333,-11251.130318,-383.047749
3008.006255,2738.761985,-14434.015869,0.000000
3008.006582,1924.535449,-14359.995275,-689.485948
3008.006910,2368.659014,-12657.521608,-2604.724693
3008.007238,2072.576638,-12139.377449,-1915.238745
3008.007565,0.000000,-11843.295072,0.000000
3008.007893,-2812.782580,-8808.450710,1072.533697
3008.008220,-2368.659014,-7846.182985,229.828649
3008.008548,-1480.411884,-8142.265362,-1378.971896
3008.008876,-1924.535449,-6587.832884,-1455.581446
3008.009203,-2590.720797,-5995.668130,153.219100
3008.009531,-1480.411884,-8586.388927,383.047749
3008.009858,1406.391290,-10510.924376,-306.438199
3008.010186,1332.370696,-10288.862594,-612.876398
3008.010514,1406.391290,-11103.089130,-536.266849
3008.010841,2960.823768,-12509.480420,-536.266849
3008.011169,2960.823768,-12139.377449,0.000000
3008.011496,1258.350101,-10436.903782,306.438199
3008.011824,-296.082377,-9918.759623,0.000000
3008.012152,666.185348,-9622.677246,-459.657299
3008.012479,-962.267725,-8808.450710,306.438199
3008.012807,-2368.659014,-7994.224174,919.314598
3008.013135,-1480.411884,-8882.471304,0.000000
3008.013462,-592.164754,-9326.594869,-1378.971896
3008.013790,-666.185348,-8216.285956,-1532.190996
3008.014117,-740.205942,-7698.141797,76.609550
3008.014445,148.041188,-9400.615463,1455.581446
3008.014773,1110.308913,-10066.800811,1378.971896
3008.015100,444.123565,-8438.347739,536.266849
3008.015428,814.226536,-9770.718434,0.000000
3008.015755,1924.535449,-11621.233289,306.438199
3008.016083,1850.514855,-11399.171507,383.047749
3008.016411,518.144159,-10066.800811,0.000000
3008.016738,518.144159,-9918.759623,-919.314598
3008.017066,222.061783,-10658.965565,-1532.190996
3008.017393,-666.185348,-9400.615463,-1762.019645
3008.017721,-1924.535449,-8808.450710,-1762.019645
3008.018049,-370.102971,-10140.821405,-1455.581446
3008.018376,1480.411884,-11103.089130,-459.657299
3008.018704,1110.308913,-9474.636058,229.828649
3008.019032,148.041188,-7328.038826,842.705048
3008.019359,1258.350101,-9548.656652,689.485948
3008.019687,592.164754,-9918.759623,306.438199
3008.020014,-592.164754,-9104.533087,306.438199
3008.020342,-740.205942,-8956.491898,-229.828649
3008.020670,592.164754,-11177.109724,0.000000
3008.020997,1036.288319,-10955.047942,-153.219100
3008.021325,592.164754,-9770.718434,0.000000
3008.021652,740.205942,-10066.800811,-612.876398
3008.021980,1628.453072,-10955.047942,-1225.752797
3008.022308,666.185348,-9770.718434,-1608.800546
3008.022635,0.000000,-9178.553681,-689.485948
3008.022963,1258.350101,-9844.739029,-306.438199
3008.023291,2294.638420,-9992.780217,842.705048
3008.023618,740.205942,-8142.265362,1991.848295
3008.023946,-666.185348,-7402.059420,1685.410096
3008.024273,-148.041188,-9474.636058,1225.752797
3008.024601,-962.267725,-8586.388927,153.219100
3008.024929,-2886.803174,-7328.038826,-153.219100
3008.025256,-1998.556043,-8586.388927,-383.047749
3008.025584,0.000000,-10955.047942,-612.876398
3008.025911,444.123565,-10584.944971,-995.924147
3008.026239,1628.453072,-9030.512492,-383.047749
3008.026567,3775.050304,-11251.130318,-766.095498
3008.026894,3478.967927,-12805.562797,76.609550
3008.027222,444.123565,-9770.718434,689.485948
3008.027549,-148.041188,-7994.224174,-689.485948
3008.027877,296.082377,-10732.986159,-1072.533697
3008.028205,0.000000,-11103.089130,-842.705048
3008.028532,-1554.432478,-7994.224174,0.000000
3008.028860,-2738.761985,-7402.059420,0.000000
3008.029188,-1480.411884,-9326.594869,-689.485948
3008.029515,-2072.576638,-9326.594869,0.000000
3008.029843,-1776.494261,-7994.224174,536.266849
3008.030170,740.205942,-9918.759623,0.000000
3008.030498,3182.885551,-10732.986159,995.924147
3008.030826,3108.864956,-11103.089130,-306.438199
3008.031153,3034.844362,-10807.006753,-383.047749
3008.031481,3552.988522,-10732.986159,-766.095498
3008.031808,2072.576638,-10881.027347,-766.095498
3008.032136,-1332.370696,-10955.047942,-383.047749
3008.032464,-1332.370696,-10288.862594,-1608.800546
3008.032791,222.061783,-10066.800811,-2451.505594
3008.033119,-444.123565,-9474.636058,-919.314598
3008.033446,-1332.370696,-7772.162391,536.266849
3008.033774,-1998.556043,-7402.059420,1378.971896
3008.034102,-1924.535449,-7846.182985,1608.800546
3008.034429,-1184.329507,-7846.182985,689.485948
3008.034757,-444.123565,-6513.812290,306.438199
3008.035085,1110.308913,-7402.059420,1685.410096
3008.035412,4293.194464,-10807.006753,1072.533697
3008.035740,3923.091493,-11695.253884,689.485948
3008.036067,2664.741391,-11695.253884,-919.314598
3008.036395,1924.535449,-13027.624579,-2374.896044
3008.036723,1110.308913,-13101.645173,-2911.162892
3008.037050,296.082377,-11103.089130,-1302.362347
3008.037378,-518.144159,-9992.780217,-459.657299
3008.037705,222.061783,-10510.924376,1149.143247
3008.038033,74.020594,-8660.409521,1455.581446
3008.038361,-1332.370696,-6661.853478,1685.410096
3008.038688,-3330.926739,-5625.565159,1072.533697
3008.039016,-3478.967927,-6587.832884,-383.047749
3008.039343,-2368.659014,-6661.853478,-1225.752797
3008.039671,-1110.308913,-8142.265362,-995.924147
3008.039998,2146.597232,-11325.150913,459.657299
3008.040326,4441.235652,-13989.892304,1378.971896
3008.040653,4663.297435,-14508.036463,229.828649
3008.040981,4367.215058,-14137.933492,-1149.143247
3008.041308,2664.741391,-12805.562797,-1991.848295
3008.041636,0.000000,-10214.842000,-1302.362347
3008.041963,-2886.803174,-7328.038826,0.000000
3008.042291,-2442.679609,-7846.182985,766.095498
3008.042619,-814.226536,-9030.512492,612.876398
3008.042946,-740.205942,-7476.080014,766.095498
3008.043274,-2072.576638,-6069.688724,995.924147
3008.043601,-3108.864956,-8068.244768,76.609550
3008.043929,-1258.350101,-9178.553681,-995.924147
3008.044256,0.000000,-7698.141797,-2145.067394
3008.044584,1702.473667,-8808.450710,-1072.533697
3008.044911,3256.906145,-11917.315666,1915.238745
3008.045239,4737.318029,-13693.809927,2451.505594
3008.045566,4441.235652,-13397.727550,1532.190996
3008.045894,1998.556043,-11621.233289,-153.219100
3008.046221,444.123565,-9844.739029,-1838.629195
3008.046549,-1924.535449,-8512.368333,-1991.848295
3008.046876,-3552.988522,-8216.285956,-1455.581446
3008.047204,-2664.741391,-9030.512492,-1838.629195
3008.047531,-370.102971,-8734.430116,-1072.533697
3008.047859,-296.082377,-7105.977043,0.000000
3008.048187,-370.102971,-6439.791695,766.095498
3008.048514,148.041188,-8660.409521,0.000000
3008.048842,518.144159,-9844.739029,766.095498
3008.049169,370.102971,-8956.491898,-536.266849
3008.049497,1480.411884,-9252.574275,-459.657299
3008.049824,3330.926739,-11917.315666,306.438199
3008.050152,3627.009116,-13619.789333,1838.629195
3008.050479,2220.617826,-12879.583391,1072.533697
3008.050807,444.123565,-11991.336260,-536.266849
3008.051134,0.000000,-11177.109724,-1378.971896
3008.051462,-1184.329507,-9400.615463,-2221.676944
3008.051789,-3034.844362,-8364.327145,-1225.752797
3008.052117,-1850.514855,-8290.306550,-383.047749
3008.052444,370.102971,-8660.409521,229.828649
3008.052772,1184.329507,-7402.059420,536.266849
3008.053099,0.000000,-6883.915261,766.095498
3008.053427,592.164754,-8808.450710,766.095498
3008.053754,1036.288319,-8882.471304,612.876398
3008.054082,-296.082377,-8290.306550,229.828649
3008.054410,518.144159,-10362.883188,0.000000
3008.054737,1480.411884,-12361.439231,536.266849
3008.055065,1998.556043,-12509.480420,1149.143247
3008.055392,962.267725,-11547.212695,1838.629195
3008.055720,-888.247130,-10436.903782,383.047749
3008.056047,-1184.329507,-11029.068536,-459.657299
3008.056375,-1998.556043,-9474.636058,-2298.286494
3008.056702,-1924.535449,-7476.080014,-2451.505594
3008.057030,-148.041188,-8586.388927,-1302.362347
3008.057357,2368.659014,-9696.697840,153.219100
3008.057685,1702.473667,-8438.347739,1225.752797
3008.058012,-296.082377,-7772.162391,1302.362347
3008.058340,74.020594,-9104.533087,-766.095498
3008.058667,-222.061783,-9770.718434,-2221.676944
3008.058995,-592.164754,-9030.512492,-1532.190996
3008.059322,-592.164754,-9474.636058,-229.828649
3008.059650,370.102971,-11621.233289,1149.143247
3008.059978,1924.535449,-11991.336260,2374.896044
3008.060305,1924.535449,-11177.109724,-229.828649
3008.060633,1480.411884,-11029.068536,-153.219100
3008.060960,962.267725,-11695.253884,-1532.190996
3008.061288,0.000000,-9992.780217,-2451.505594
3008.061615,-518.144159,-8808.450710,-2834.553343
3008.061943,222.061783,-9622.677246,-2068.457845
3008.062270,1110.308913,-9474.636058,-383.047749
3008.062598,518.144159,-8512.368333,766.095498
3008.062925,-222.061783,-8586.388927,229.828649
3008.063253,-1184.329507,-8586.388927,-612.876398
3008.063580,-296.082377,-9474.636058,-1455.581446
3008.063908,-740.205942,-8142.265362,-536.266849
3008.064235,-888.247130,-7772.162391,919.314598
3008.064563,592.164754,-10510.924376,2451.505594
3008.064890,1702.473667,-11399.171507,2681.334243
3008.065218,1702.473667,-9770.718434,995.924147
3008.065546,2368.659014,-10362.883188,-536.266849
3008.065873,2294.638420,-11547.212695,-1302.362347
3008.066201,1184.329507,-10881.027347,-1072.533697
3008.066528,666.185348,-9770.718434,-1455.581446
3008.066856,1036.288319,-9178.553681,-1455.581446
3008.067183,740.205942,-9844.739029,-842.705048
3008.067511,-592.164754,-8734.430116,612.876398
3008.067838,0.000000,-8068.244768,919.314598
3008.068166,0.000000,-8216.285956,383.047749
3008.068493,444.123565,-9030.512492,153.219100
3008.068821,-740.205942,-7698.141797,842.705048
3008.069148,-1258.350101,-8364.327145,2068.457845
3008.069476,-296.082377,-9474.636058,1072.533697
3008.069803,370.102971,-9770.718434,0.000000
3008.070131,74.020594,-10658.965565,-919.314598
3008.070458,1850.514855,-12509.480420,-1608.800546
3008.070786,3034.844362,-13915.871710,-1915.238745
3008.071114,1480.411884,-12805.562797,-536.266849
3008.071441,1036.288319,-11251.130318,-536.266849
3008.071769,888.247130,-10140.821405,-153.219100
3008.072096,444.123565,-8882.471304,-1149.143247
3008.072424,-1850.514855,-6735.874072,0.000000
3008.072751,-3182.885551,-6217.729913,612.876398
3008.073079,-1406.391290,-7105.977043,76.609550
3008.073406,-1258.350101,-7105.977043,-229.828649
3008.073734,-1924.535449,-7994.224174,306.438199
3008.074061,-296.082377,-10881.027347,0.000000
3008.074389,1480.411884,-11251.130318,-306.438199
3008.074716,2294.638420,-11991.336260,-1302.362347
3008.075044,2516.700203,-12213.398043,-306.438199
3008.075371,3404.947333,-12287.418637,306.438199
3008.075699,2516.700203,-12287.418637,306.438199
3008.076026,-518.144159,-9918.759623,-383.047749
3008.076354,-1554.432478,-9252.574275,-766.095498
3008.076682,-1332.370696,-8956.491898,-1762.019645
3008.077009,-2146.597232,-7105.977043,-995.924147
3008.077337,-2738.761985,-5551.544565,229.828649
3008.077664,-1924.535449,-6809.894666,919.314598
3008.077992,-296.082377,-7772.162391,766.095498
3008.078319,222.061783,-7402.059420,76.609550
3008.078647,518.144159,-7920.203579,536.266849
3008.078974,2368.659014,-10510.924376,919.314598
3008.079302,3182.885551,-12583.501014,612.876398
3008.079629,3034.844362,-13027.624579,766.095498
3008.079957,2664.741391,-12287.418637,0.000000
3008.080284,2590.720797,-11991.336260,-1149.143247
3008.080612,1110.308913,-12065.356855,-1225.752797
3008.080939,-1776.494261,-10362.883188,-1838.629195
3008.081267,-2368.659014,-9400.615463,-2068.457845
3008.081594,-1776.494261,-9178.553681,-2451.505594
3008.081922,-1258.350101,-7624.121203,-842.705048
3008.082250,-1554.432478,-6069.688724,1378.971896
3008.082577,-666.185348,-7179.997637,1762.019645
3008.082905,-148.041188,-7772.162391,842.705048
3008.083232,74.020594,-7550.100608,-612.876398
3008.083560,814.226536,-8364.327145,-919.314598
3008.083887,1850.514855,-10881.027347,0.000000
3008.084215,2442.679609,-12953.603985,1532.190996
3008.084542,2960.823768,-12657.521608,383.047749
3008.084870,2220.617826,-12657.521608,-689.485948
3008.085197,2368.659014,-13841.851115,-1455.581446
3008.085525,0.000000,-11843.295072,-459.657299
3008.085852,-3404.947333,-8512.368333,0.000000
3008.086180,-3478.967927,-8882.471304,-612.876398
3008.086507,-1702.473667,-8438.347739,-2145.067394
3008.086835,-148.041188,-6957.935855,-1225.752797
3008.087162,0.000000,-6587.832884,689.485948
3008.087490,666.185348,-8364.327145,2298.286494
3008.087817,1924.535449,-8956.491898,1225.752797
3008.088145,1036.288319,-8364.327145,536.266849
3008.088473,0.000000,-8216.285956,-383.047749
3008.088800,1036.288319,-11029.068536,-766.095498
3008.089128,2442.679609,-12361.439231,0.000000
3008.089455,2368.659014,-11177.109724,459.657299
3008.089783,1776.494261,-11399.171507,383.047749
3008.090110,1332.370696,-12435.459826,995.924147
3008.090438,-296.082377,-10955.047942,306.438199
3008.090765,-1850.514855,-7920.203579,-383.047749
3008.091093,-1258.350101,-8216.285956,-1455.581446
3008.091420,0.000000,-9178.553681,-1608.800546
3008.091748,222.061783,-8142.265362,-689.485948
3008.092075,-296.082377,-7328.038826,-153.219100
3008.092403,814.226536,-8734.430116,0.000000
3008.092730,1628.453072,-9474.636058,-306.438199
3008.093058,-148.041188,-9252.574275,0.000000
3008.093385,-1258.350101,-9548.656652,-383.047749
3008.093713,1258.350101,-11917.315666,-1072.533697
3008.094041,2812.782580,-12361.439231,-306.438199
3008.094368,2146.597232,-10881.027347,842.705048
3008.094696,888.247130,-9770.718434,2145.067394
3008.095023,518.144159,-10510.924376,1455.581446
3008.095351,-1110.308913,-10288.862594,-536.266849
3008.095678,-2368.659014,-8734.430116,-1915.238745
3008.096006,-888.247130,-8956.491898,-2221.676944
3008.096333,1628.453072,-9770.718434,-995.924147
3008.096661,1110.308913,-8956.491898,689.485948
3008.096988,0.000000,-8068.244768,536.266849
3008.097316,0.000000,-9548.656652,-919.314598
3008.097643,-518.144159,-9622.677246,-2145.067394
3008.097971,-1258.350101,-8290.306550,-1455.581446
3008.098298,-740.205942,-8956.491898,383.047749
3008.098626,1924.535449,-11621.233289,1915.238745
3008.098953,3478.967927,-11325.150913,2068.457845
3008.099281,2220.617826,-9548.656652,1991.848295
3008.099609,740.205942,-9770.718434,1072.533697
3008.099936,222.061783,-10436.903782,-153.219100
3008.100264,-2072.576638,-9622.677246,-1378.971896
3008.100591,-3256.906145,-8290.306550,-1685.410096
3008.100919,-370.102971,-9770.718434,-1915.238745
3008.101246,2368.659014,-10066.800811,-1149.143247
3008.101574,2368.659014,-10584.944971,919.314598
3008.101901,740.205942,-9844.739029,1455.581446
3008.102229,0.000000,-8438.347739,-306.438199
3008.102556,-1406.391290,-7328.038826,-1915.238745
3008.102884,-2516.700203,-7105.977043,-1072.533697
3008.103211,-1998.556043,-8290.306550,0.000000
3008.103539,740.205942,-10214.842000,536.266849
3008.103866,2664.741391,-11917.315666,766.095498
3008.104194,2886.803174,-11695.253884,1302.362347
3008.104521,2516.700203,-11991.336260,-153.219100
3008.104849,1554.432478,-11991.336260,-1149.143247
3008.105177,74.020594,-11325.150913,-1608.800546
3008.105504,222.061783,-9326.594869,-2451.505594
3008.105832,1406.391290,-9030.512492,-1991.848295
3008.106159,592.164754,-10584.944971,-229.828649
3008.106487,444.123565,-9770.718434,1838.629195
3008.106814,-740.205942,-8586.388927,229.828649
3008.107142,-2220.617826,-8586.388927,-995.924147
3008.107469,-2590.720797,-7698.141797,-1762.019645
3008.107797,-3627.009116,-5773.606348,-1149.143247
3008.108124,-1924.535449,-6809.894666,1072.533697
3008.108452,2220.617826,-9548.656652,1225.752797
3008.108779,3923.091493,-11177.109724,1991.848295
3008.109107,3330.926739,-11029.068536,2681.334243
3008.109434,3775.050304,-12287.418637,919.314598
3008.109762,3849.070898,-13175.665768,-766.095498
3008.110089,1406.391290,-11251.130318,-2145.067394
3008.110417,-962.267725,-9696.697840,-1608.800546
3008.110745,-370.102971,-10658.965565,-1378.971896
3008.111072,74.020594,-10288.862594,-1532.190996
3008.111400,-444.123565,-9326.594869,153.219100
3008.111727,-2220.617826,-7772.162391,995.924147
3008.112055,-2738.761985,-6957.935855,153.219100
3008.112382,-2072.576638,-6735.874072,-612.876398
3008.112710,-1998.556043,-5995.668130,153.219100
3008.113037,-888.247130,-7254.018232,842.705048
3008.113365,2738.761985,-9992.780217,1072.533697
3008.113692,4367.215058,-12287.418637,1149.143247
3008.114020,3108.864956,-12657.521608,919.314598
3008.114347,3997.112087,-13545.768739,-383.047749
3008.114675,2664.741391,-12731.542202,-2068.457845
3008.115002,0.000000,-11251.130318,-1991.848295
3008.115330,-740.205942,-11399.171507,-1838.629195
3008.115657,-222.061783,-10584.944971,0.000000
3008.115985,-1554.432478,-9104.533087,995.924147
3008.116313,-3849.070898,-7254.018232,1302.362347
3008.116640,-4589.276840,-6365.771101,0.000000
3008.116968,-3108.864956,-6735.874072,-1838.629195
3008.117295,-2294.638420,-6957.935855,-1149.143247
3008.117623,-1850.514855,-7179.997637,536.266849
3008.117950,1924.535449,-9548.656652,2298.286494
3008.118278,4737.318029,-11547.212695,1225.752797
3008.118605,3849.070898,-11843.295072,766.095498
3008.118933,2442.679609,-12509.480420,0.000000
3008.119260,2368.659014,-12139.377449,-1685.410096
3008.119588,1406.391290,-10955.047942,-2451.505594
3008.119915,-1480.411884,-9696.697840,-1608.800546
3008.120243,-1480.411884,-8216.285956,229.828649
3008.120570,-370.102971,-8956.491898,919.314598
3008.120898,0.000000,-9400.615463,919.314598
3008.121225,-1628.453072,-7476.080014,842.705048
3008.121553,-2220.617826,-6439.791695,-536.266849
3008.121880,-740.205942,-7105.977043,-1455.581446
3008.122208,0.000000,-7476.080014,-1225.752797
3008.122536,1110.308913,-8068.244768,306.438199
3008.122863,3256.906145,-10658.965565,1685.410096
3008.123191,4737.318029,-13323.706956,1225.752797
3008.123518,4441.235652,-13989.892304,306.438199
3008.123846,2368.659014,-12879.583391,-612.876398
3008.124173,1406.391290,-11547.212695,-1915.238745
3008.124501,0.000000,-10288.862594,-1762.019645
3008.124828,-1850.514855,-8364.327145,-1378.971896
3008.125156,-2368.659014,-8216.285956,0.000000
3008.125483,-1258.350101,-10066.800811,383.047749
3008.125811,-518.144159,-9178.553681,612.876398
3008.126138,-666.185348,-6439.791695,459.657299
3008.126466,-814.226536,-6439.791695,459.657299
3008.126793,740.205942,-8216.285956,383.047749
3008.127121,222.061783,-8142.265362,919.314598
3008.127448,296.082377,-9474.636058,-306.438199
3008.127776,2812.782580,-11991.336260,-689.485948
3008.128104,5255.462188,-13989.892304,-383.047749
3008.128431,3182.885551,-13249.686362,1149.143247
3008.128759,1332.370696,-10658.965565,1685.410096
3008.129086,296.082377,-10510.924376,-459.657299
3008.129414,-222.061783,-9326.594869,-1455.581446
3008.129741,-2516.700203,-7105.977043,-1302.362347
3008.130069,-3775.050304,-7328.038826,536.266849
3008.130396,-2072.576638,-7402.059420,229.828649
3008.130724,-888.247130,-7772.162391,76.609550
3008.131051,-1776.494261,-7476.080014,1455.581446
3008.131379,-222.061783,-7328.038826,612.876398
3008.131706,1480.411884,-9400.615463,-459.657299
3008.132034,518.144159,-10658.965565,-919.314598
3008.132361,814.226536,-10658.965565,-1149.143247
3008.132689,2220.617826,-11251.130318,-1608.800546
3008.133016,1924.535449,-11843.295072,-383.047749
3008.133344,370.102971,-11991.336260,995.924147
3008.133672,0.000000,-11103.089130,919.314598
3008.133999,740.205942,-11399.171507,-1225.752797
3008.134327,-370.102971,-9992.780217,-1915.238745
3008.134654,-1480.411884,-8956.491898,-1685.410096
3008.134982,-1554.432478,-8660.409521,-459.657299
3008.135309,-370.102971,-8438.347739,536.266849
3008.135637,296.082377,-8142.265362,0.000000
3008.135964,222.061783,-8808.450710,612.876398
3008.136292,444.123565,-8956.491898,-76.609550
3008.136619,740.205942,-10066.800811,-995.924147
3008.136947,0.000000,-10955.047942,-766.095498
3008.137274,0.000000,-10584.944971,-689.485948
3008.137602,444.123565,-10955.047942,-536.266849
3008.137929,444.123565,-11029.068536,842.705048
3008.138257,814.226536,-9622.677246,689.485948
3008.138584,1036.288319,-9030.512492,689.485948
3008.138912,2294.638420,-9770.718434,-153.219100
3008.139240,888.247130,-8808.450710,153.219100
3008.139567,-814.226536,-7846.182985,995.924147
3008.139895,0.000000,-8364.327145,229.828649
3008.140218,1850.514855,-8512.368333,-1608.800546
3008.140546,1110.308913,-8586.388927,-995.924147
3008.140874,888.247130,-8956.491898,-1072.533697
3008.141201,592.164754,-10066.800811,-153.219100
3008.141529,0.000000,-10066.800811,0.000000
3008.141856,-962.267725,-9104.533087,-995.924147
3008.142184,-1110.308913,-9326.594869,-612.876398
3008.142511,814.226536,-10732.986159,0.000000
3008.142839,1110.308913,-10214.842000,1302.362347
3008.143166,1036.288319,-9770.718434,995.924147
3008.143494,1184.329507,-9992.780217,-153.219100
3008.143821,1924.535449,-10955.047942,-1455.581446
3008.144149,592.164754,-10732.986159,-1762.019645
3008.144476,-1406.391290,-9992.780217,-1149.143247
3008.144804,370.102971,-9770.718434,-2145.067394
3008.145131,1850.514855,-11399.171507,-1838.629195
3008.145459,1406.391290,-9474.636058,-842.705048
3008.145787,148.041188,-8512.368333,1685.410096
3008.146114,0.000000,-10658.965565,1455.581446
3008.146442,-2220.617826,-10584.944971,-459.657299
3008.146769,-3478.967927,-8364.327145,-1838.629195
3008.147097,-2516.700203,-7624.121203,-2374.896044
3008.147424,0.000000,-10732.986159,-383.047749
3008.147752,1776.494261,-11843.295072,1302.362347
3008.148079,1702.473667,-10362.883188,1991.848295
3008.148407,3330.926739,-11103.089130,459.657299
3008.148734,3997.112087,-12287.418637,-919.314598
3008.149062,740.205942,-9844.739029,-919.314598
3008.149389,-2368.659014,-7402.059420,-459.657299
3008.149717,-1406.391290,-7846.182985,-766.095498
3008.150044,518.144159,-8956.491898,-919.314598
3008.150372,0.000000,-8808.450710,1225.752797
3008.150699,-222.061783,-8586.388927,2451.505594
3008.151027,222.061783,-8882.471304,1685.410096
3008.151355,296.082377,-9252.574275,-306.438199
3008.151682,-2146.597232,-7254.018232,0.000000
3008.152010,-2368.659014,-5625.565159,-306.438199
3008.152337,1554.432478,-7846.182985,0.000000
3008.152665,2220.617826,-10881.027347,612.876398
3008.152992,2368.659014,-12435.459826,2451.505594
3008.153320,4293.194464,-13249.686362,842.705048
3008.153647,4071.132681,-13249.686362,-1762.019645
3008.153975,444.123565,-11547.212695,-2757.943793
3008.154302,-1702.473667,-8882.471304,-2757.943793
3008.154630,-1110.308913,-9104.533087,-2834.553343
3008.154957,-962.267725,-9104.533087,-1072.533697
3008.155285,-1258.350101,-7476.080014,383.047749
3008.155612,-2072.576638,-7328.038826,1915.238745
3008.155940,-592.164754,-8808.450710,1532.190996
3008.156268,962.267725,-8956.491898,536.266849
3008.156595,-296.082377,-8068.244768,306.438199
3008.156923,814.226536,-7031.956449,459.657299
3008.157250,3923.091493,-11473.192101,-612.876398
3008.157578,2960.823768,-13989.892304,0.000000
3008.157905,2516.700203,-14211.954086,-229.828649
3008.158233,3404.947333,-13989.892304,-1532.190996
3008.158560,3256.906145,-12731.542202,-1991.848295
3008.158888,-888.247130,-11177.109724,-612.876398
3008.159215,-2516.700203,-9844.739029,-919.314598
3008.159543,-1036.288319,-8512.368333,-2528.115143
3008.159870,-888.247130,-7402.059420,-1532.190996
3008.160198,-2664.741391,-5847.626942,995.924147
3008.160525,-3552.988522,-5477.523971,2221.676944
3008.160853,-1776.494261,-6365.771101,2145.067394
3008.161181,814.226536,-8142.265362,919.314598
3008.161508,1332.370696,-9474.636058,536.266849
3008.161836,4367.215058,-11103.089130,689.485948
3008.162163,5181.441594,-12435.459826,1685.410096
3008.162491,3330.926739,-13397.727550,1225.752797
3008.162818,518.144159,-11695.253884,-153.219100
3008.163146,-962.267725,-10584.944971,-2068.457845
3008.163473,-2664.741391,-10066.800811,-2987.772442
3008.163801,-4293.194464,-8882.471304,-1915.238745
3008.164128,-3330.926739,-8734.430116,-1225.752797
3008.164456,-888.247130,-10140.821405,-459.657299
3008.164783,518.144159,-8586.388927,306.438199
3008.165111,-444.123565,-6217.729913,689.485948
3008.165438,-370.102971,-6735.874072,1225.752797
3008.165766,222.061783,-7846.182985,612.876398
3008.166093,592.164754,-9252.574275,-612.876398
3008.166421,1258.350101,-9400.615463,0.000000
3008.166749,2590.720797,-11621.233289,229.828649
3008.167076,4145.153275,-14804.118840,919.314598
3008.167404,2664.741391,-14656.077652,689.485948
3008.167731,-370.102971,-12361.439231,-612.876398
3008.168059,-1332.370696,-11473.192101,-3830.477490
3008.168386,-2960.823768,-9696.697840,-4596.572988
3008.168714,-3923.091493,-7328.038826,-1532.190996
3008.169041,-3034.844362,-6587.832884,536.266849
3008.169369,-370.102971,-8216.285956,766.095498
3008.169696,1258.350101,-9178.553681,842.705048
3008.170024,1036.288319,-7772.162391,842.705048
3008.170351,148.041188,-6957.935855,0.000000
3008.170679,1184.329507,-8438.347739,-459.657299
3008.171006,1258.350101,-9326.594869,-1302.362347
3008.171334,2072.576638,-10658.965565,229.828649
3008.171662,3849.070898,-11695.253884,1378.971896
3008.171989,5033.400406,-13545.768739,1072.533697
3008.172317,3627.009116,-13397.727550,1072.533697
3008.172644,888.247130,-10807.006753,766.095498
3008.172972,-962.267725,-8364.327145,-689.485948
3008.173299,-2738.761985,-8216.285956,-1991.848295
3008.173627,-4589.276840,-7105.977043,-1838.629195
3008.173954,-2294.638420,-6957.935855,-1072.533697
3008.174282,1036.288319,-8364.327145,-919.314598
3008.174609,1258.350101,-8956.491898,229.828649
3008.174937,666.185348,-9104.533087,1225.752797
3008.175264,1480.411884,-8734.430116,383.047749
3008.175592,2368.659014,-9844.739029,-612.876398
3008.175919,2738.761985,-9474.636058,-459.657299
3008.176247,2072.576638,-9326.594869,1149.143247
3008.176575,1480.411884,-11547.212695,2451.505594
3008.176902,1702.473667,-14582.057057,1532.190996
3008.177230,296.082377,-11473.192101,153.219100
3008.177557,-592.164754,-9104.533087,-1685.410096
3008.177885,-444.123565,-10362.883188,-2145.067394
3008.178212,-1776.494261,-11029.068536,-1532.190996
3008.178540,-2516.700203,-8882.471304,-612.876398
3008.178867,-370.102971,-8586.388927,-689.485948
3008.179195,1480.411884,-9844.739029,-689.485948
3008.179522,1110.308913,-8216.285956,153.219100
3008.179850,-592.164754,-6217.729913,383.047749
3008.180177,-962.267725,-7476.080014,-842.705048
3008.180505,0.000000,-10732.986159,-1302.362347
3008.180832,0.000000,-9770.718434,76.609550
3008.181160,-666.185348,-8734.430116,1225.752797
3008.181488,666.185348,-10955.047942,1762.019645
3008.181815,1776.494261,-11917.315666,919.314598
3008.182143,148.041188,-10881.027347,153.219100
3008.182470,-370.102971,-8956.491898,-612.876398
3008.182798,740.205942,-9622.677246,-1455.581446
3008.183125,666.185348,-10214.842000,-306.438199
3008.183453,-888.247130,-10214.842000,1608.800546
3008.183780,-518.144159,-9474.636058,919.314598
3008.184108,1258.350101,-9326.594869,-1378.971896
3008.184435,0.000000,-9252.574275,-1915.238745
3008.184763,-2146.597232,-7402.059420,153.219100
3008.185090,-1998.556043,-7624.121203,-1149.143247
3008.185418,-148.041188,-9326.594869,-1608.800546
3008.185745,-666.185348,-9548.656652,-612.876398
3008.186073,-1110.308913,-9178.553681,1072.533697
3008.186400,1184.329507,-10066.800811,1915.238745
3008.186728,2886.803174,-10732.986159,1225.752797
3008.187056,1850.514855,-9844.739029,995.924147
3008.187383,2590.720797,-9992.780217,536.266849
3008.187711,2664.741391,-10955.047942,306.438199
3008.188038,1258.350101,-10436.903782,-229.828649
3008.188366,-1258.350101,-10658.965565,-842.705048
3008.188693,-814.226536,-10955.047942,-2298.286494
3008.189021,2146.597232,-11695.253884,-2987.772442
3008.189348,1110.308913,-9844.739029,-1378.971896
3008.189676,-2220.617826,-7772.162391,229.828649
3008.190003,-962.267725,-9474.636058,-306.438199
3008.190331,1258.350101,-8956.491898,-1532.190996
3008.190658,0.000000,-6883.915261,689.485948
3008.190986,-1110.308913,-6957.935855,1838.629195
3008.191313,444.123565,-9104.533087,2298.286494
3008.191641,2516.700203,-9548.656652,1455.581446
3008.191969,3108.864956,-10955.047942,383.047749
3008.192296,2590.720797,-12287.418637,689.485948
3008.192624,3256.906145,-13693.809927,0.000000
3008.192951,2294.638420,-12287.418637,-1532.190996
3008.193279,-814.226536,-10658.965565,-2451.505594
3008.193606,-296.082377,-10584.944971,-2604.724693
3008.193934,0.000000,-9548.656652,-1225.752797
3008.194261,-2442.679609,-7105.977043,536.266849
3008.194589,-2368.659014,-7328.038826,1455.581446
3008.194916,-1036.288319,-8512.368333,689.485948
3008.195244,-1258.350101,-7105.977043,-383.047749
3008.195571,-1998.556043,-5847.626942,-536.266849
3008.195899,444.123565,-7328.038826,306.438199
3008.196226,2960.823768,-9992.780217,842.705048
3008.196554,3775.050304,-12435.459826,1378.971896
3008.196882,2960.823768,-12435.459826,1455.581446
3008.197209,3775.050304,-13249.686362,76.609550
3008.197537,3330.926739,-13767.830521,-1225.752797
3008.197864,-296.082377,-12953.603985,-1149.143247
3008.198192,-2960.823768,-9474.636058,-1455.581446
3008.198519,-2146.597232,-8438.347739,-2374.896044
3008.198847,-2220.617826,-8142.265362,-1991.848295
3008.199174,-3701.029710,-5995.668130,-229.828649
3008.199502,-3108.864956,-5699.585753,842.705048
3008.199829,-1554.432478,-7402.059420,459.657299
3008.200157,-518.144159,-8882.471304,-536.266849
3008.200484,296.082377,-8364.327145,0.000000
3008.200812,2072.576638,-9178.553681,153.219100
3008.201139,3997.112087,-11843.295072,919.314598
3008.201467,4663.297435,-13471.748144,1532.190996
3008.201794,3775.050304,-12361.439231,1532.190996
3008.202122,2738.761985,-11917.315666,383.047749
3008.202450,962.267725,-12139.377449,-995.924147
3008.202777,-2664.741391,-11473.192101,-1685.410096
3008.203105,-4959.379811,-8216.285956,-1149.143247
3008.203432,-2738.761985,-8882.471304,-1762.019645
3008.203760,-2072.576638,-8734.430116,-1225.752797
3008.204087,-2368.659014,-7179.997637,-306.438199
3008.204415,-1998.556043,-6143.709319,76.609550
3008.204742,592.164754,-7698.141797,-1149.143247
3008.205070,1184.329507,-9104.533087,-1149.143247
3008.205397,518.144159,-8586.388927,229.828649
3008.205725,2664.741391,-9252.574275,1072.533697
3008.206052,5403.503377,-12065.356855,1225.752797
3008.206380,5921.647536,-13101.645173,2068.457845
3008.206707,3701.029710,-11843.295072,1915.238745
3008.207035,2146.597232,-11621.233289,229.828649
3008.207363,0.000000,-11991.336260,-2911.162892
3008.207690,-4071.132681,-9992.780217,-3294.210641
3008.208018,-5329.482782,-8068.244768,-2604.724693
3008.208345,-2960.823768,-8216.285956,-2681.334243
3008.208673,-222.061783,-9030.512492,-1685.410096
3008.209000,0.000000,-8068.244768,1225.752797
3008.209328,962.267725,-8216.285956,1149.143247
3008.209655,2886.803174,-8142.265362,229.828649
3008.209983,2886.803174,-8882.471304,-306.438199
3008.210310,444.123565,-8216.285956,383.047749
3008.210638,1406.391290,-9548.656652,1378.971896
3008.210965,3404.947333,-10881.027347,1225.752797
3008.211293,2516.700203,-11399.171507,1685.410096
3008.211620,814.226536,-12213.398043,2145.067394
3008.211948,1036.288319,-12287.418637,76.609550
3008.212276,666.185348,-11843.295072,-1838.629195
3008.212603,-3701.029710,-8438.347739,-1378.971896
3008.212931,-3701.029710,-7031.956449,-1225.752797
3008.213258,-740.205942,-7105.977043,-1149.143247
3008.213586,74.020594,-7920.203579,229.828649
3008.213913,518.144159,-8808.450710,1685.410096
3008.214241,1110.308913,-9400.615463,1762.019645
3008.214568,1258.350101,-8808.450710,306.438199
3008.214896,148.041188,-9844.739029,-1915.238745
3008.215223,-1258.350101,-9252.574275,-1072.533697
3008.215551,0.000000,-9400.615463,-766.095498
3008.215878,2294.638420,-11843.295072,-612.876398
3008.216206,1850.514855,-11621.233289,1762.019645
3008.216533,1110.308913,-10214.842000,1378.971896
3008.216861,814.226536,-10658.965565,0.000000
3008.217189,-592.164754,-10807.006753,-383.047749
3008.217516,-2590.720797,-8512.368333,-766.095498
3008.217844,-1258.350101,-8068.244768,-1225.752797
3008.218171,1258.350101,-8586.388927,-1608.800546
3008.218499,740.205942,-8438.347739,-842.705048
3008.218826,-962.267725,-9030.512492,536.266849
3008.219154,-740.205942,-11251.130318,-995.924147
3008.219481,-518.144159,-11103.089130,-2374.896044
3008.219809,-1110.308913,-9474.636058,-2987.772442
3008.220136,0.000000,-10066.800811,-1072.533697
3008.220464,1702.473667,-11399.171507,1149.143247
3008.220791,3034.844362,-11251.130318,1762.019645
3008.221119,3256.906145,-9474.636058,2451.505594
3008.221446,814.226536,-9252.574275,2068.457845
3008.221774,-148.041188,-9622.677246,612.876398
3008.222101,-1110.308913,-8660.409521,-1072.533697
3008.222429,-1776.494261,-8438.347739,-1685.410096
3008.222757,814.226536,-11251.130318,-1532.190996
3008.223084,2368.659014,-11769.274478,153.219100
3008.223412,1998.556043,-10436.903782,1149.143247
3008.223739,296.082377,-9474.636058,536.266849
3008.224067,518.144159,-9548.656652,-1532.190996
3008.224394,-592.164754,-7254.018232,-1915.238745
3008.224722,-2294.638420,-5699.585753,-153.219100
3008.225049,-1480.411884,-7179.997637,1302.362347
3008.225377,1776.494261,-10288.862594,1302.362347
3008.225704,1628.453072,-10732.986159,2221.676944
3008.226032,888.247130,-10140.821405,306.438199
3008.226359,888.247130,-9474.636058,-1378.971896
3008.226687,1258.350101,-10066.800811,-2681.334243
3008.227014,740.205942,-10362.883188,-2374.896044
3008.227342,-666.185348,-10732.986159,0.000000
3008.227670,1406.391290,-10807.006753,306.438199
3008.227997,3108.864956,-11695.253884,689.485948
3008.228325,-148.041188,-10214.842000,1532.190996
3008.228652,-1850.514855,-9844.739029,842.705048
3008.228980,-2146.597232,-8882.471304,-1762.019645
3008.229307,-2442.679609,-7476.080014,-2681.334243
3008.229635,-3330.926739,-6661.853478,-1838.629195
3008.229962,-1850.514855,-8216.285956,0.000000
3008.230290,1110.308913,-9770.718434,2145.067394
3008.230617,2294.638420,-10510.924376,1149.143247
3008.230945,2294.638420,-10732.986159,153.219100
3008.231272,2368.659014,-11695.253884,-459.657299
3008.231600,2442.679609,-11917.315666,-766.095498
3008.231927,1998.556043,-11251.130318,-842.705048
3008.232255,296.082377,-10436.903782,153.219100
3008.232583,1332.370696,-11547.212695,-766.095498
3008.232910,518.144159,-11325.150913,0.000000
3008.233238,-518.144159,-9326.594869,536.266849
3008.233565,-2442.679609,-7105.977043,0.000000
3008.233893,-2516.700203,-7476.080014,-919.314598
3008.234220,-2886.803174,-7550.100608,-1149.143247
3008.234548,-2294.638420,-7105.977043,-306.438199
3008.234875,-666.185348,-7179.997637,76.609550
3008.235203,3182.885551,-10881.027347,689.485948
3008.235530,3552.988522,-10955.047942,1302.362347
3008.235858,2590.720797,-10436.903782,919.314598
3008.236185,2368.659014,-10214.842000,-229.828649
3008.236513,2442.679609,-11399.171507,-1149.143247
3008.236840,-148.041188,-10658.965565,-612.876398
3008.237168,-1184.329507,-10584.944971,-229.828649
3008.237495,-296.082377,-10881.027347,-689.485948
3008.237823,-888.247130,-10955.047942,-1532.190996
3008.238151,-2590.720797,-9548.656652,-766.095498
3008.238478,-2442.679609,-8438.347739,-689.485948
3008.238806,-1554.432478,-7105.977043,-1762.019645
3008.239133,-666.185348,-7105.977043,-1378.971896
3008.239461,-148.041188,-7772.162391,1072.533697
3008.239789,1850.514855,-8808.450710,1838.629195
3008.240116,4515.256246,-11103.089130,1072.533697
3008.240444,4663.297435,-11843.295072,1072.533697
3008.240771,2368.659014,-11621.233289,306.438199
3008.241099,2516.700203,-11695.253884,-1378.971896
3008.241427,1480.411884,-11103.089130,-2757.943793
3008.241754,-1776.494261,-11547.212695,-1302.362347
3008.242082,-2664.741391,-10436.903782,-306.438199
3008.242409,-814.226536,-11843.295072,-689.485948
3008.242737,0.000000,-10140.821405,-536.266849
3008.243065,-1628.453072,-7402.059420,766.095498
3008.243392,-2146.597232,-5699.585753,766.095498
3008.243720,-962.267725,-6291.750507,306.438199
3008.244047,0.000000,-6661.853478,612.876398
3008.244375,592.164754,-8290.306550,459.657299
3008.244703,2294.638420,-9770.718434,1149.143247
3008.245030,4515.256246,-12065.356855,919.314598
3008.245358,3701.029710,-12509.480420,766.095498
3008.245685,1776.494261,-11547.212695,0.000000
3008.246013,1776.494261,-12065.356855,-1225.752797
3008.246341,666.185348,-12065.356855,-1455.581446
3008.246668,-1184.329507,-10214.842000,-1225.752797
3008.246996,-1850.514855,-8216.285956,0.000000
3008.247323,-592.164754,-8956.491898,766.095498
3008.247651,0.000000,-8586.388927,1378.971896
3008.247979,-1184.329507,-6143.709319,1685.410096
3008.248306,-1036.288319,-5921.647536,1532.190996
3008.248634,1406.391290,-7846.182985,-995.924147
3008.248961,1406.391290,-8290.306550,-995.924147
3008.249289,666.185348,-8512.368333,-383.047749
3008.249617,888.247130,-11029.068536,-306.438199
3008.249944,3552.988522,-13915.871710,-995.924147
3008.250272,3701.029710,-13767.830521,-536.266849
3008.250599,2738.761985,-11991.336260,459.657299
3008.250927,2738.761985,-11325.150913,612.876398
3008.251255,1776.494261,-11177.109724,-919.314598
3008.251582,-1184.329507,-8216.285956,-459.657299
3008.251910,-2960.823768,-7031.956449,-306.438199
3008.252237,-2738.761985,-8290.306550,-383.047749
3008.252565,-2368.659014,-8734.430116,-383.047749
3008.252893,-2146.597232,-7476.080014,-919.314598
3008.253220,-1554.432478,-7402.059420,-919.314598
3008.253548,1184.329507,-10807.006753,-689.485948
3008.253875,1850.514855,-11029.068536,306.438199
3008.254203,740.205942,-9548.656652,612.876398
3008.254531,1776.494261,-9918.759623,-153.219100
3008.254858,2960.823768,-11473.192101,0.000000
3008.255186,1036.288319,-10510.924376,919.314598
3008.255513,-1036.288319,-9178.553681,1685.410096
3008.255841,-296.082377,-10436.903782,536.266849
3008.256169,-518.144159,-11547.212695,-536.266849
3008.256496,-3923.091493,-9474.636058,-1762.019645
3008.256824,-4219.173869,-7846.182985,-2221.676944
3008.257151,-1628.453072,-8438.347739,-2834.553343
3008.257479,0.000000,-9400.615463,-1455.581446
3008.257807,0.000000,-8808.450710,1532.190996
3008.258134,1184.329507,-9178.553681,2451.505594
3008.258462,2442.679609,-9400.615463,1685.410096
3008.258789,1406.391290,-10066.800811,919.314598
3008.259117,-222.061783,-9326.594869,919.314598
3008.259445,148.041188,-9252.574275,0.000000
3008.259772,740.205942,-9992.780217,-306.438199
3008.260100,-444.123565,-10214.842000,842.705048
3008.260427,-518.144159,-11029.068536,0.000000
3008.260755,1036.288319,-10362.883188,-1608.800546
3008.261083,444.123565,-10807.006753,-1685.410096
3008.261410,-814.226536,-9844.739029,-995.924147
3008.261738,-148.041188,-9252.574275,-1225.752797
3008.262065,1184.329507,-9918.759623,-1225.752797
3008.262393,2072.576638,-9696.697840,0.000000
3008.262721,1406.391290,-9178.553681,1149.143247
3008.263048,1110.308913,-8512.368333,2068.457845
3008.263376,962.267725,-10066.800811,306.438199
3008.263703,74.020594,-9474.636058,-229.828649
3008.264031,-518.144159,-9474.636058,-383.047749
3008.264359,814.226536,-9844.739029,0.000000
3008.264686,1998.556043,-10140.821405,306.438199
3008.265014,2220.617826,-10288.862594,229.828649
3008.265341,2664.741391,-10955.047942,-536.266849
3008.265669,3034.844362,-11621.233289,-919.314598
3008.265997,1628.453072,-9992.780217,-1455.581446
3008.266324,-518.144159,-8068.244768,-1072.533697
3008.266652,222.061783,-9622.677246,-1225.752797
3008.266979,1628.453072,-10881.027347,-842.705048
