#time,accel_x,accel_y,accel_z
3138.261366,444.123565,-9622.677246,306.438199
3138.261694,74.020594,-9400.615463,-229.828649
3138.262022,0.000000,-8808.450710,0.000000
3138.262349,-370.102971,-8808.450710,76.609550
3138.262677,0.000000,-9178.553681,0.000000
3138.263005,-148.041188,-9252.574275,-536.266849
3138.263332,0.000000,-9474.636058,-383.047749
3138.263660,222.061783,-9918.759623,-612.876398
3138.263987,666.185348,-9696.697840,-229.828649
3138.264315,444.123565,-9474.636058,0.000000
3138.264643,740.205942,-9474.636058,229.828649
3138.264970,888.247130,-9474.636058,76.609550
3138.265298,518.144159,-9326.594869,0.000000
3138.265625,296.082377,-9252.574275,76.609550
3138.265953,0.000000,-9474.636058,153.219100
3138.266281,74.020594,-9252.574275,-153.219100
3138.266608,0.000000,-9252.574275,-153.219100
3138.266936,74.020594,-9696.697840,-1225.752797
3138.267263,222.061783,-10066.800811,-842.705048
3138.267591,296.082377,-10288.862594,-689.485948
3138.267919,518.144159,-10362.883188,-459.657299
3138.268246,666.185348,-10362.883188,0.000000
3138.268574,814.226536,-9992.780217,0.000000
3138.268902,444.123565,-9400.615463,0.000000
3138.269229,444.123565,-9474.636058,0.000000
3138.269557,370.102971,-9474.636058,-459.657299
3138.269884,0.000000,-9400.615463,-689.485948
3138.270212,0.000000,-9918.759623,-689.485948
3138.270540,0.000000,-9696.697840,-383.047749
3138.270867,0.000000,-9992.780217,-306.438199
3138.271195,444.123565,-10362.883188,0.000000
3138.271522,222.061783,-9844.739029,76.609550
3138.271850,296.082377,-9770.718434,229.828649
3138.272178,518.144159,-10066.800811,306.438199
3138.272505,444.123565,-9474.636058,229.828649
3138.272833,444.123565,-9474.636058,383.047749
3138.273160,518.144159,-9326.594869,-153.219100
3138.273488,74.020594,-8882.471304,0.000000
3138.273816,0.000000,-8882.471304,383.047749
3138.274143,0.000000,-9104.533087,-459.657299
3138.274471,0.000000,-9474.636058,-766.095498
3138.274799,222.061783,-9770.718434,-383.047749
3138.275126,814.226536,-9474.636058,-536.266849
3138.275454,1406.391290,-8956.491898,0.000000
3138.275781,2072.576638,-9474.636058,842.705048
3138.276109,2886.803174,-9178.553681,459.657299
3138.276437,3256.906145,-8956.491898,383.047749
3138.276764,3997.112087,-8808.450710,0.000000
3138.277092,4367.215058,-9178.553681,0.000000
3138.277419,4959.379811,-9474.636058,-383.047749
3138.277747,5699.585753,-9474.636058,-842.705048
3138.278075,6365.771101,-10214.842000,-766.095498
3138.278402,7402.059420,-10140.821405,-612.876398
3138.278730,8290.306550,-11177.109724,-612.876398
3138.279057,8142.265362,-11177.109724,306.438199
3138.279385,9030.512492,-10362.883188,153.219100
3138.279713,9844.739029,-9474.636058,-306.438199
3138.280040,10140.821405,-9400.615463,0.000000
3138.280368,10288.862594,-8808.450710,383.047749
3138.280696,11473.192101,-9252.574275,76.609550
3138.281023,11325.150913,-9178.553681,383.047749
3138.281351,10881.027347,-10066.800811,229.828649
3138.281678,11177.109724,-9696.697840,-459.657299
3138.282006,10955.047942,-9622.677246,-612.876398
3138.282334,11695.253884,-9548.656652,-842.705048
3138.282661,12879.583391,-9548.656652,-229.828649
3138.282989,13841.851115,-10584.944971,612.876398
3138.283316,14730.098246,-9696.697840,995.924147
3138.283644,14878.139434,-8808.450710,1302.362347
3138.283972,14508.036463,-8216.285956,1072.533697
3138.284299,13397.727550,-8734.430116,1072.533697
3138.284627,13545.768739,-9104.533087,1072.533697
3138.284954,13101.645173,-9844.739029,306.438199
3138.285282,12879.583391,-9844.739029,76.609550
3138.285610,13027.624579,-9474.636058,459.657299
3138.285937,12213.398043,-9252.574275,1225.752797
3138.286265,11843.295072,-9918.759623,1302.362347
3138.286592,11621.233289,-9326.594869,306.438199
3138.286920,11473.192101,-9622.677246,-229.828649
3138.287248,10658.965565,-10140.821405,0.000000
3138.287575,10066.800811,-10362.883188,-306.438199
3138.287903,8734.430116,-9104.533087,153.219100
3138.288231,8216.285956,-7846.182985,0.000000
3138.288558,8882.471304,-8882.471304,-459.657299
3138.288886,9474.636058,-9696.697840,-919.314598
3138.289213,9326.594869,-10881.027347,-383.047749
3138.289541,8882.471304,-10807.006753,383.047749
3138.289869,8290.306550,-8956.491898,-153.219100
3138.290196,7698.141797,-8216.285956,-229.828649
3138.290524,8512.368333,-9400.615463,306.438199
3138.290851,9844.739029,-10510.924376,689.485948
3138.291179,9918.759623,-11621.233289,1072.533697
3138.291507,9844.739029,-10955.047942,1072.533697
3138.291834,8660.409521,-8512.368333,-1149.143247
3138.292162,6587.832884,-9104.533087,-766.095498
3138.292489,5107.421000,-10362.883188,-306.438199
3138.292817,5329.482782,-9770.718434,-1455.581446
3138.293145,7328.038826,-8438.347739,-2298.286494
3138.293472,9252.574275,-8956.491898,-1072.533697
3138.293800,8364.327145,-9104.533087,1762.019645
3138.294128,6883.915261,-9252.574275,2298.286494
3138.294455,5033.400406,-9474.636058,2757.943793
3138.294783,6217.729913,-10362.883188,-459.657299
3138.295110,6439.791695,-10658.965565,-2298.286494
3138.295438,4811.338623,-9918.759623,-1072.533697
3138.295766,3552.988522,-9178.553681,689.485948
3138.296093,3701.029710,-10066.800811,766.095498
3138.296421,2146.597232,-9770.718434,76.609550
3138.296748,1110.308913,-8586.388927,0.000000
3138.297076,1702.473667,-6735.874072,-1378.971896
3138.297404,3330.926739,-7846.182985,-1608.800546
3138.297731,4219.173869,-9548.656652,-612.876398
3138.298059,4663.297435,-9622.677246,919.314598
3138.298386,5329.482782,-8438.347739,1378.971896
3138.298714,5995.668130,-7772.162391,842.705048
3138.299042,5847.626942,-9844.739029,76.609550
3138.299369,5995.668130,-11843.295072,-229.828649
3138.299697,7476.080014,-11103.089130,-842.705048
3138.300025,6883.915261,-9770.718434,-2068.457845
3138.300352,2886.803174,-11843.295072,229.828649
3138.300680,2072.576638,-12287.418637,536.266849
3138.301007,3849.070898,-10362.883188,-842.705048
3138.301335,3627.009116,-9400.615463,-2145.067394
3138.301663,1184.329507,-9696.697840,-842.705048
3138.301990,1776.494261,-9696.697840,536.266849
3138.302318,2146.597232,-8290.306550,1608.800546
3138.302645,1554.432478,-8216.285956,1302.362347
3138.302973,296.082377,-8364.327145,0.000000
3138.303301,-814.226536,-8660.409521,-383.047749
3138.303628,-1924.535449,-10436.903782,-383.047749
3138.303956,740.205942,-11251.130318,-2834.553343
3138.304283,1036.288319,-11547.212695,-2145.067394
3138.304611,74.020594,-13989.892304,0.000000
3138.304939,1036.288319,-12805.562797,0.000000
3138.305266,1036.288319,-9770.718434,-612.876398
3138.305594,0.000000,-9844.739029,-842.705048
3138.305922,-592.164754,-9770.718434,919.314598
3138.306249,814.226536,-7624.121203,-383.047749
3138.306577,1406.391290,-6809.894666,689.485948
3138.306904,1184.329507,-8364.327145,3064.381992
3138.307232,888.247130,-7105.977043,3370.820191
3138.307560,-296.082377,-7698.141797,1838.629195
3138.307887,-2146.597232,-10214.842000,919.314598
3138.308215,-1406.391290,-10881.027347,-1762.019645
3138.308542,-2072.576638,-9770.718434,-2911.162892
3138.308870,-3627.009116,-12435.459826,-1532.190996
3138.309198,-2590.720797,-11029.068536,-1072.533697
3138.309525,-1406.391290,-9252.574275,-1072.533697
3138.309853,-3256.906145,-10658.965565,1378.971896
3138.310180,-1998.556043,-9992.780217,1532.190996
3138.310508,296.082377,-6957.935855,-1225.752797
3138.310836,-1184.329507,-7920.203579,-536.266849
3138.311163,-1480.411884,-9104.533087,842.705048
3138.311491,-666.185348,-7920.203579,-306.438199
3138.311819,-740.205942,-7846.182985,153.219100
3138.312146,518.144159,-9770.718434,0.000000
3138.312474,2146.597232,-11029.068536,-2681.334243
3138.312801,814.226536,-13027.624579,-536.266849
3138.313129,1628.453072,-13915.871710,0.000000
3138.313457,2294.638420,-11177.109724,-2681.334243
3138.313784,-888.247130,-10807.006753,-2068.457845
3138.314112,-2146.597232,-10955.047942,229.828649
3138.314439,0.000000,-8586.388927,-689.485948
3138.314767,296.082377,-8734.430116,-1378.971896
3138.315095,1184.329507,-9918.759623,-1072.533697
3138.315422,1480.411884,-8586.388927,-995.924147
3138.315750,592.164754,-7994.224174,0.000000
3138.316077,-296.082377,-8586.388927,1302.362347
3138.316405,666.185348,-9104.533087,-229.828649
3138.316733,0.000000,-11103.089130,-1838.629195
3138.317060,222.061783,-12139.377449,-1225.752797
3138.317388,3256.906145,-9992.780217,-1685.410096
3138.317715,2516.700203,-10658.965565,-612.876398
3138.318043,74.020594,-13027.624579,2911.162892
3138.318371,1628.453072,-11251.130318,2451.505594
3138.318698,1998.556043,-7920.203579,-842.705048
3138.319026,1184.329507,-9548.656652,-995.924147
3138.319354,1998.556043,-8216.285956,-536.266849
3138.319681,740.205942,-5181.441594,995.924147
3138.320009,-370.102971,-6217.729913,1991.848295
3138.320336,814.226536,-7179.997637,1685.410096
3138.320664,962.267725,-8068.244768,1149.143247
3138.320992,1110.308913,-11325.150913,1685.410096
3138.321319,3404.947333,-10140.821405,76.609550
3138.321647,3478.967927,-10288.862594,-1532.190996
3138.321974,-1332.370696,-10955.047942,1225.752797
3138.322302,-740.205942,-11251.130318,612.876398
3138.322630,74.020594,-9104.533087,-1991.848295
3138.322957,-1850.514855,-11177.109724,-689.485948
3138.323285,-592.164754,-10881.027347,0.000000
3138.323612,666.185348,-7920.203579,-1072.533697
3138.323940,-592.164754,-9252.574275,0.000000
3138.324268,74.020594,-10288.862594,766.095498
3138.324595,1258.350101,-7772.162391,-612.876398
3138.324923,740.205942,-8808.450710,306.438199
3138.325251,1036.288319,-10658.965565,153.219100
3138.325578,1036.288319,-9400.615463,-1302.362347
3138.325906,-592.164754,-10881.027347,0.000000
3138.326234,-222.061783,-13249.686362,76.609550
3138.326561,370.102971,-11547.212695,-2298.286494
3138.326889,-1480.411884,-12287.418637,-1149.143247
3138.327217,-1184.329507,-12805.562797,-536.266849
3138.327544,-1110.308913,-8956.491898,-3064.381992
3138.327872,-2442.679609,-7920.203579,-2987.772442
3138.328200,-3034.844362,-7698.141797,-766.095498
3138.328527,-1036.288319,-7624.121203,76.609550
3138.328855,-370.102971,-7476.080014,919.314598
3138.329183,444.123565,-9178.553681,1532.190996
3138.329510,1776.494261,-8734.430116,229.828649
3138.329838,-222.061783,-7698.141797,229.828649
3138.330166,-740.205942,-10732.986159,536.266849
3138.330493,370.102971,-11251.130318,-536.266849
3138.330821,1110.308913,-11029.068536,-2528.115143
3138.331149,296.082377,-12139.377449,-459.657299
3138.331476,814.226536,-10510.924376,0.000000
3138.331804,1258.350101,-9178.553681,-459.657299
3138.332132,0.000000,-9844.739029,1302.362347
3138.332459,-666.185348,-9104.533087,1149.143247
3138.332787,-592.164754,-7550.100608,-612.876398
3138.333115,-1554.432478,-7772.162391,-306.438199
3138.333442,370.102971,-6661.853478,-1072.533697
3138.333770,296.082377,-6439.791695,-1378.971896
3138.334098,-1554.432478,-9252.574275,842.705048
3138.334426,1258.350101,-10140.821405,766.095498
3138.334753,4071.132681,-10732.986159,-1302.362347
3138.335081,2812.782580,-13175.665768,612.876398
3138.335409,4367.215058,-13323.706956,689.485948
3138.335736,3256.906145,-9992.780217,-612.876398
3138.336064,222.061783,-11473.192101,-306.438199
3138.336392,0.000000,-12287.418637,-612.876398
3138.336719,962.267725,-9030.512492,-1685.410096
3138.337047,1036.288319,-8512.368333,-1302.362347
3138.337375,1110.308913,-9252.574275,306.438199
3138.337702,1036.288319,-7624.121203,1225.752797
3138.338030,74.020594,-7846.182985,536.266849
3138.338358,148.041188,-9400.615463,1225.752797
3138.338685,1406.391290,-7846.182985,-612.876398
3138.339013,962.267725,-9030.512492,-842.705048
3138.339341,1258.350101,-12361.439231,612.876398
3138.339668,2812.782580,-10807.006753,0.000000
3138.339996,1998.556043,-10955.047942,459.657299
3138.340324,370.102971,-12805.562797,995.924147
3138.340651,1036.288319,-11177.109724,-1455.581446
3138.340979,222.061783,-9696.697840,-2451.505594
3138.341307,-1406.391290,-9770.718434,-1378.971896
3138.341634,-1924.535449,-7328.038826,-1225.752797
3138.341962,-2220.617826,-6217.729913,-1225.752797
3138.342290,-3108.864956,-7920.203579,459.657299
3138.342618,-592.164754,-8142.265362,229.828649
3138.342945,1628.453072,-7994.224174,153.219100
3138.343273,1332.370696,-10288.862594,1762.019645
3138.343601,2368.659014,-11843.295072,1532.190996
3138.343928,1406.391290,-10140.821405,306.438199
3138.344256,-1184.329507,-9992.780217,0.000000
3138.344584,-1332.370696,-11473.192101,-2068.457845
3138.344911,-888.247130,-10510.924376,-3524.039291
3138.345239,-1406.391290,-10584.944971,-2451.505594
3138.345567,-1258.350101,-10140.821405,-1225.752797
3138.345894,-1110.308913,-8438.347739,-1225.752797
3138.346222,-1850.514855,-9474.636058,536.266849
3138.346550,518.144159,-9844.739029,1225.752797
3138.346877,814.226536,-7254.018232,1225.752797
3138.347205,592.164754,-8586.388927,1991.848295
3138.347533,74.020594,-8364.327145,2221.676944
3138.347860,370.102971,-7624.121203,0.000000
3138.348188,-2516.700203,-10140.821405,766.095498
3138.348516,-2442.679609,-11843.295072,612.876398
3138.348843,-222.061783,-10362.883188,-2221.676944
3138.349171,-444.123565,-11547.212695,-2528.115143
3138.349499,-592.164754,-12509.480420,-1838.629195
3138.349826,814.226536,-9770.718434,-1838.629195
3138.350154,148.041188,-8882.471304,-383.047749
3138.350482,740.205942,-8956.491898,919.314598
3138.350810,1480.411884,-7624.121203,766.095498
3138.351137,74.020594,-7846.182985,2604.724693
3138.351465,1110.308913,-9474.636058,2757.943793
3138.351793,2146.597232,-8142.265362,689.485948
3138.352120,148.041188,-8808.450710,383.047749
3138.352448,-296.082377,-12065.356855,919.314598
3138.352776,0.000000,-11103.089130,-536.266849
3138.353103,148.041188,-9696.697840,-2987.772442
3138.353431,370.102971,-11473.192101,-3217.601092
3138.353759,1184.329507,-10955.047942,-2987.772442
3138.354086,666.185348,-8512.368333,-1302.362347
3138.354414,888.247130,-9474.636058,1608.800546
3138.354742,3034.844362,-8586.388927,1685.410096
3138.355069,3182.885551,-8216.285956,1072.533697
3138.355397,2072.576638,-9844.739029,1991.848295
3138.355725,1628.453072,-8586.388927,1302.362347
3138.356052,370.102971,-8290.306550,-536.266849
3138.356380,-222.061783,-11621.233289,-459.657299
3138.356708,0.000000,-10658.965565,-383.047749
3138.357035,1406.391290,-10362.883188,-1149.143247
3138.357363,814.226536,-11251.130318,-612.876398
3138.357691,222.061783,-11473.192101,0.000000
3138.358018,-370.102971,-9622.677246,-536.266849
3138.358346,-1702.473667,-8660.409521,-1378.971896
3138.358674,-1480.411884,-8068.244768,-995.924147
3138.359002,-296.082377,-6957.935855,-766.095498
3138.359329,74.020594,-8734.430116,919.314598
3138.359657,1924.535449,-9326.594869,1838.629195
3138.359985,2146.597232,-8660.409521,766.095498
3138.360312,0.000000,-10732.986159,1302.362347
3138.360640,-444.123565,-11621.233289,1072.533697
3138.360968,666.185348,-10140.821405,-1302.362347
3138.361295,148.041188,-10881.027347,-2374.896044
3138.361623,0.000000,-11843.295072,-1225.752797
3138.361951,814.226536,-8956.491898,-1455.581446
3138.362278,0.000000,-9030.512492,-459.657299
3138.362606,-148.041188,-10140.821405,766.095498
3138.362934,962.267725,-7846.182985,0.000000
3138.363261,888.247130,-8364.327145,0.000000
3138.363589,666.185348,-10066.800811,0.000000
3138.363917,370.102971,-9178.553681,-229.828649
3138.364244,-1554.432478,-8882.471304,0.000000
3138.364572,-1776.494261,-10066.800811,612.876398
3138.364900,1036.288319,-10732.986159,-1072.533697
3138.365227,1998.556043,-12139.377449,-1762.019645
3138.365555,1406.391290,-14285.974681,0.000000
3138.365883,1924.535449,-10436.903782,-995.924147
3138.366210,1110.308913,-8142.265362,-1685.410096
3138.366538,-1702.473667,-9104.533087,-689.485948
3138.366866,-2368.659014,-9400.615463,229.828649
3138.367194,-2220.617826,-7698.141797,-459.657299
3138.367521,-1850.514855,-8660.409521,-1532.190996
3138.367849,0.000000,-8808.450710,-919.314598
3138.368177,814.226536,-8364.327145,-1072.533697
3138.368504,-222.061783,-11473.192101,2298.286494
3138.368832,1406.391290,-12435.459826,2221.676944
3138.369160,2220.617826,-11029.068536,-766.095498
3138.369487,1184.329507,-10288.862594,-1378.971896
3138.369815,1036.288319,-9252.574275,-1302.362347
3138.370143,222.061783,-7476.080014,-306.438199
3138.370470,-1184.329507,-9400.615463,919.314598
3138.370798,-1184.329507,-8808.450710,1225.752797
3138.371126,518.144159,-6735.874072,-612.876398
3138.371453,1480.411884,-8660.409521,-306.438199
3138.371781,2072.576638,-9770.718434,1149.143247
3138.372109,1998.556043,-8512.368333,1072.533697
3138.372436,222.061783,-8512.368333,995.924147
3138.372764,740.205942,-10288.862594,383.047749
3138.373092,1406.391290,-10140.821405,-995.924147
3138.373419,888.247130,-10658.965565,153.219100
3138.373747,370.102971,-11103.089130,1378.971896
3138.374075,1332.370696,-9548.656652,-1225.752797
3138.374402,-666.185348,-10066.800811,-2834.553343
3138.374730,-1480.411884,-10881.027347,-536.266849
3138.375058,740.205942,-9030.512492,-1838.629195
3138.375386,2072.576638,-8142.265362,-1762.019645
3138.375713,2294.638420,-9622.677246,919.314598
3138.376041,2220.617826,-8512.368333,1455.581446
3138.376369,0.000000,-8734.430116,1455.581446
3138.376696,-1628.453072,-11029.068536,1225.752797
3138.377024,1110.308913,-11621.233289,-459.657299
3138.377352,1406.391290,-10807.006753,-1302.362347
3138.377679,296.082377,-12731.542202,0.000000
3138.378007,-296.082377,-11917.315666,-995.924147
3138.378335,-888.247130,-9548.656652,-2681.334243
3138.378662,-1406.391290,-10140.821405,-1838.629195
3138.378990,-1036.288319,-8956.491898,-1149.143247
3138.379318,-592.164754,-7772.162391,-612.876398
3138.379645,296.082377,-8882.471304,919.314598
3138.379973,1184.329507,-8512.368333,1762.019645
3138.380301,1036.288319,-7402.059420,1225.752797
3138.380628,0.000000,-9770.718434,2987.772442
3138.380956,1184.329507,-9918.759623,2451.505594
3138.381284,1702.473667,-9474.636058,-766.095498
3138.381611,444.123565,-11473.192101,-766.095498
3138.381939,-444.123565,-11103.089130,-1378.971896
3138.382267,-444.123565,-8216.285956,-1302.362347
3138.382594,-1554.432478,-8734.430116,306.438199
3138.382922,-2072.576638,-9474.636058,1378.971896
3138.383250,-962.267725,-8216.285956,-536.266849
3138.383578,-222.061783,-8660.409521,-1838.629195
3138.383905,0.000000,-9178.553681,-1072.533697
3138.384233,-148.041188,-7254.018232,-689.485948
3138.384561,0.000000,-8068.244768,1762.019645
3138.384888,1924.535449,-10140.821405,1685.410096
3138.385216,2812.782580,-11103.089130,76.609550
3138.385544,2220.617826,-12361.439231,-306.438199
3138.385871,1110.308913,-12509.480420,-536.266849
3138.386199,666.185348,-10436.903782,-2221.676944
3138.386527,-962.267725,-10436.903782,-2298.286494
3138.386854,-1258.350101,-11917.315666,-1225.752797
3138.387182,962.267725,-10140.821405,-1838.629195
3138.387510,1628.453072,-9326.594869,-2068.457845
3138.387837,1332.370696,-10362.883188,536.266849
3138.388165,2294.638420,-8882.471304,1532.190996
3138.388493,814.226536,-8142.265362,2068.457845
3138.388820,-740.205942,-9770.718434,1762.019645
3138.389148,518.144159,-10140.821405,0.000000
3138.389476,1110.308913,-10510.924376,-1915.238745
3138.389803,666.185348,-11399.171507,-1225.752797
3138.390131,1406.391290,-11029.068536,-766.095498
3138.390459,962.267725,-9992.780217,-459.657299
3138.390786,296.082377,-12065.356855,1149.143247
3138.391114,962.267725,-10732.986159,229.828649
3138.391442,2368.659014,-7698.141797,-1915.238745
3138.391770,888.247130,-7254.018232,-842.705048
3138.392097,-1184.329507,-9104.533087,1838.629195
3138.392425,-2368.659014,-6661.853478,2145.067394
3138.392753,-2590.720797,-7105.977043,689.485948
3138.393080,-1332.370696,-8512.368333,-689.485948
3138.393408,666.185348,-9548.656652,-1225.752797
3138.393736,814.226536,-11769.274478,0.000000
3138.394063,1258.350101,-11843.295072,229.828649
3138.394391,814.226536,-9992.780217,-766.095498
3138.394719,0.000000,-9918.759623,-766.095498
3138.395046,-222.061783,-9918.759623,-612.876398
3138.395374,962.267725,-7624.121203,-306.438199
3138.395702,296.082377,-8512.368333,0.000000
3138.396029,74.020594,-9770.718434,919.314598
3138.396357,-666.185348,-7179.997637,766.095498
3138.396685,-814.226536,-7772.162391,536.266849
3138.397012,-888.247130,-10584.944971,842.705048
3138.397340,444.123565,-10807.006753,-612.876398
3138.397668,0.000000,-9696.697840,-2068.457845
3138.397995,148.041188,-11621.233289,-1838.629195
3138.398323,0.000000,-11251.130318,-1302.362347
3138.398651,-444.123565,-10658.965565,-689.485948
3138.398978,-370.102971,-11399.171507,919.314598
3138.399306,1332.370696,-10584.944971,383.047749
3138.399634,1628.453072,-9696.697840,-995.924147
3138.399962,962.267725,-10140.821405,-383.047749
3138.400289,296.082377,-8290.306550,995.924147
3138.400617,0.000000,-7105.977043,229.828649
3138.400945,740.205942,-8586.388927,689.485948
3138.401272,296.082377,-8512.368333,995.924147
3138.401600,-518.144159,-9770.718434,612.876398
3138.401928,222.061783,-10807.006753,-459.657299
3138.402255,1480.411884,-10584.944971,-689.485948
3138.402583,1036.288319,-9992.780217,-306.438199
3138.402911,-814.226536,-10214.842000,919.314598
3138.403238,74.020594,-10362.883188,689.485948
3138.403566,1258.350101,-8586.388927,-1302.362347
3138.403894,592.164754,-9252.574275,-1455.581446
3138.404221,-1184.329507,-8290.306550,0.000000
3138.404549,-814.226536,-6513.812290,-766.095498
3138.404877,-814.226536,-7772.162391,153.219100
3138.405204,296.082377,-10066.800811,76.609550
3138.405532,888.247130,-9992.780217,229.828649
3138.405860,2072.576638,-10807.006753,153.219100
3138.406187,2368.659014,-10584.944971,-612.876398
3138.406515,1406.391290,-9474.636058,-995.924147
3138.406843,0.000000,-10362.883188,459.657299
3138.407170,1184.329507,-10732.986159,229.828649
3138.407498,1850.514855,-9252.574275,-766.095498
3138.407826,1480.411884,-10436.903782,-766.095498
3138.408154,518.144159,-11695.253884,1072.533697
3138.408481,-222.061783,-8438.347739,612.876398
3138.408809,-1332.370696,-8142.265362,-689.485948
3138.409137,-1998.556043,-10214.842000,-995.924147
3138.409464,-444.123565,-9992.780217,-995.924147
3138.409792,0.000000,-9400.615463,-1532.190996
3138.410120,74.020594,-10066.800811,-1072.533697
3138.410447,-444.123565,-9178.553681,-383.047749
3138.410775,-518.144159,-8882.471304,383.047749
3138.411103,1110.308913,-10584.944971,919.314598
3138.411430,1406.391290,-9252.574275,-459.657299
3138.411758,1332.370696,-9992.780217,-459.657299
3138.412086,518.144159,-11547.212695,383.047749
3138.412413,0.000000,-9844.739029,306.438199
3138.412741,-518.144159,-7920.203579,-995.924147
3138.413069,-444.123565,-9474.636058,-689.485948
3138.413396,74.020594,-10214.842000,0.000000
3138.413724,962.267725,-8586.388927,0.000000
3138.414052,222.061783,-8290.306550,-306.438199
3138.414379,0.000000,-9030.512492,766.095498
3138.414707,-666.185348,-8734.430116,153.219100
3138.415035,-740.205942,-9178.553681,229.828649
3138.415362,-222.061783,-9992.780217,-766.095498
3138.415690,148.041188,-9844.739029,-1225.752797
3138.416018,518.144159,-10584.944971,-842.705048
3138.416346,1184.329507,-10140.821405,0.000000
3138.416673,1184.329507,-10362.883188,-306.438199
3138.417001,1258.350101,-11621.233289,0.000000
3138.417329,1702.473667,-12509.480420,383.047749
3138.417656,518.144159,-10658.965565,-766.095498
3138.417984,-962.267725,-9326.594869,-1838.629195
3138.418312,-1776.494261,-8364.327145,-995.924147
3138.418639,-1554.432478,-8364.327145,-1225.752797
3138.418967,-1554.432478,-9030.512492,0.000000
3138.419295,-666.185348,-9622.677246,1608.800546
3138.419622,0.000000,-8142.265362,459.657299
3138.419950,296.082377,-9400.615463,-842.705048
3138.420278,74.020594,-11399.171507,-153.219100
3138.420605,74.020594,-9918.759623,-995.924147
3138.420933,-518.144159,-9474.636058,153.219100
3138.421261,74.020594,-10288.862594,766.095498
3138.421588,1184.329507,-9474.636058,689.485948
3138.421916,1702.473667,-10214.842000,842.705048
3138.422244,740.205942,-10658.965565,1378.971896
3138.422571,-222.061783,-8290.306550,919.314598
3138.422899,-962.267725,-7179.997637,-689.485948
3138.423227,-1480.411884,-7994.224174,0.000000
3138.423554,-370.102971,-7328.038826,229.828649
3138.423882,296.082377,-7624.121203,306.438199
3138.424210,296.082377,-9770.718434,1378.971896
3138.424538,888.247130,-10214.842000,1302.362347
3138.424865,962.267725,-9622.677246,0.000000
3138.425193,148.041188,-11325.150913,-612.876398
3138.425521,1406.391290,-11547.212695,-1532.190996
3138.425849,2664.741391,-10288.862594,-2528.115143
3138.426176,2516.700203,-10510.924376,-536.266849
3138.426504,1850.514855,-8808.450710,383.047749
3138.426832,518.144159,-8216.285956,76.609550
3138.427160,-370.102971,-9770.718434,612.876398
3138.427488,1332.370696,-9474.636058,-153.219100
3138.427815,2442.679609,-9400.615463,-1149.143247
3138.428143,1776.494261,-11547.212695,306.438199
3138.428471,1332.370696,-10955.047942,1149.143247
3138.428799,1258.350101,-9770.718434,0.000000
3138.429126,814.226536,-10214.842000,-919.314598
3138.429454,518.144159,-11029.068536,-383.047749
3138.429782,-222.061783,-8956.491898,-1455.581446
3138.430110,0.000000,-9474.636058,-536.266849
3138.430437,370.102971,-11103.089130,-842.705048
3138.430765,148.041188,-9918.759623,-383.047749
3138.431093,-740.205942,-8956.491898,229.828649
3138.431421,-296.082377,-9030.512492,229.828649
3138.431748,0.000000,-8586.388927,-689.485948
3138.432076,0.000000,-9844.739029,-229.828649
3138.432404,740.205942,-9918.759623,1225.752797
3138.432732,518.144159,-8364.327145,1455.581446
3138.433059,74.020594,-8438.347739,1072.533697
3138.433387,296.082377,-10658.965565,1455.581446
3138.433715,74.020594,-9696.697840,1225.752797
3138.434043,0.000000,-8808.450710,-842.705048
3138.434370,-518.144159,-10436.903782,-1149.143247
3138.434698,-1258.350101,-9104.533087,-383.047749
3138.435026,-2294.638420,-8290.306550,-153.219100
3138.435354,-1554.432478,-9400.615463,0.000000
3138.435682,-666.185348,-9030.512492,-459.657299
3138.436009,-740.205942,-9178.553681,0.000000
3138.436337,-666.185348,-9918.759623,536.266849
3138.436665,740.205942,-9474.636058,919.314598
3138.436993,370.102971,-9178.553681,-536.266849
3138.437320,0.000000,-11399.171507,536.266849
3138.437648,296.082377,-11177.109724,153.219100
3138.437976,962.267725,-10807.006753,-1608.800546
3138.438304,444.123565,-11547.212695,-1532.190996
3138.438631,518.144159,-11103.089130,-1762.019645
3138.438959,74.020594,-9474.636058,-2221.676944
3138.439287,0.000000,-9326.594869,-919.314598
3138.439615,1110.308913,-9252.574275,0.000000
3138.439942,1110.308913,-9252.574275,0.000000
3138.440270,444.123565,-10066.800811,689.485948
3138.440598,888.247130,-9918.759623,1072.533697
3138.440926,444.123565,-8956.491898,766.095498
3138.441253,-740.205942,-9474.636058,536.266849
3138.441581,0.000000,-10510.924376,919.314598
3138.441909,1776.494261,-9918.759623,-1532.190996
3138.442237,1924.535449,-10658.965565,-1838.629195
3138.442564,518.144159,-11547.212695,-536.266849
3138.442892,0.000000,-9548.656652,0.000000
3138.443220,-444.123565,-7179.997637,-1149.143247
3138.443548,814.226536,-8068.244768,-995.924147
3138.443875,1184.329507,-8068.244768,0.000000
3138.444203,296.082377,-8438.347739,2068.457845
3138.444531,1406.391290,-8808.450710,3064.381992
3138.444859,1332.370696,-8216.285956,1762.019645
3138.445187,-296.082377,-8068.244768,766.095498
3138.445514,-1184.329507,-9474.636058,-153.219100
3138.445842,0.000000,-10066.800811,-1838.629195
3138.446170,1258.350101,-10362.883188,-2834.553343
3138.446498,1110.308913,-12139.377449,-2221.676944
3138.446825,888.247130,-10436.903782,0.000000
3138.447153,1776.494261,-9474.636058,229.828649
3138.447481,1628.453072,-10214.842000,995.924147
3138.447809,1628.453072,-9770.718434,766.095498
3138.448136,1554.432478,-8660.409521,0.000000
3138.448464,740.205942,-8586.388927,-229.828649
3138.448792,-666.185348,-8364.327145,689.485948
3138.449120,-1110.308913,-8956.491898,1072.533697
3138.449447,-1184.329507,-10140.821405,842.705048
3138.449775,-444.123565,-11547.212695,-383.047749
3138.450103,888.247130,-11769.274478,-2757.943793
3138.450431,296.082377,-12509.480420,-3064.381992
3138.450758,-444.123565,-11695.253884,-1685.410096
3138.451086,666.185348,-8586.388927,-1762.019645
3138.451414,962.267725,-8882.471304,-229.828649
3138.451742,592.164754,-9474.636058,1915.238745
3138.452069,222.061783,-8882.471304,1762.019645
3138.452397,888.247130,-8956.491898,383.047749
3138.452725,888.247130,-9474.636058,383.047749
3138.453053,-222.061783,-8882.471304,842.705048
3138.453381,-1628.453072,-9992.780217,1072.533697
3138.453708,-1702.473667,-9622.677246,459.657299
3138.454036,148.041188,-9252.574275,-2604.724693
3138.454364,-370.102971,-10807.006753,-2834.553343
3138.454692,-1184.329507,-10807.006753,-306.438199
3138.455019,-444.123565,-7476.080014,306.438199
3138.455347,444.123565,-7476.080014,76.609550
3138.455675,1036.288319,-10584.944971,153.219100
3138.456003,1332.370696,-9548.656652,383.047749
3138.456330,1924.535449,-8142.265362,153.219100
3138.456658,814.226536,-9400.615463,919.314598
3138.456986,-1184.329507,-9104.533087,1225.752797
3138.457314,-2146.597232,-8808.450710,-995.924147
3138.457641,-962.267725,-10288.862594,-842.705048
3138.457969,1110.308913,-11843.295072,-1608.800546
3138.458297,1628.453072,-12213.398043,-1225.752797
3138.458625,1036.288319,-11843.295072,-306.438199
3138.458952,814.226536,-10288.862594,-536.266849
3138.459280,888.247130,-8808.450710,-1378.971896
3138.459608,370.102971,-8216.285956,-459.657299
3138.459936,518.144159,-8734.430116,1991.848295
3138.460263,1110.308913,-7920.203579,919.314598
3138.460591,1406.391290,-10066.800811,76.609550
3138.460919,-518.144159,-10881.027347,459.657299
3138.461247,-2146.597232,-9104.533087,-383.047749
3138.461575,-1110.308913,-9992.780217,-1072.533697
3138.461902,0.000000,-11547.212695,-2221.676944
3138.462230,1036.288319,-11843.295072,-2451.505594
3138.462558,1406.391290,-11621.233289,-995.924147
3138.462886,1850.514855,-10214.842000,229.828649
3138.463213,1776.494261,-8364.327145,76.609550
3138.463541,888.247130,-9474.636058,612.876398
3138.463869,666.185348,-9104.533087,995.924147
3138.464197,1924.535449,-7105.977043,459.657299
3138.464524,2072.576638,-7994.224174,153.219100
3138.464852,222.061783,-9104.533087,919.314598
3138.465180,-962.267725,-8216.285956,1685.410096
3138.465508,-666.185348,-9104.533087,306.438199
3138.465835,666.185348,-11473.192101,-689.485948
3138.466163,666.185348,-11399.171507,-612.876398
3138.466491,666.185348,-11399.171507,-919.314598
3138.466819,888.247130,-10214.842000,0.000000
3138.467146,1258.350101,-9548.656652,-689.485948
3138.467474,1184.329507,-9770.718434,-689.485948
3138.467802,0.000000,-11399.171507,1149.143247
3138.468130,0.000000,-8586.388927,766.095498
3138.468457,666.185348,-7105.977043,-1991.848295
3138.468785,-444.123565,-8364.327145,-612.876398
3138.469113,-888.247130,-9696.697840,1378.971896
3138.469441,-1554.432478,-8512.368333,1532.190996
3138.469768,-370.102971,-10066.800811,689.485948
3138.470096,222.061783,-10881.027347,-1072.533697
3138.470424,74.020594,-11547.212695,-1991.848295
3138.470752,0.000000,-11399.171507,-612.876398
3138.471080,-814.226536,-9622.677246,-459.657299
3138.471407,-370.102971,-8364.327145,-1302.362347
3138.471735,-148.041188,-9992.780217,-995.924147
3138.472063,296.082377,-9474.636058,689.485948
3138.472391,1850.514855,-8068.244768,689.485948
3138.472718,2368.659014,-9474.636058,612.876398
3138.473046,296.082377,-10584.944971,1762.019645
3138.473374,-1702.473667,-8808.450710,689.485948
3138.473702,-1332.370696,-8216.285956,-459.657299
3138.474029,-666.185348,-9548.656652,-153.219100
3138.474357,-592.164754,-9918.759623,0.000000
3138.474685,0.000000,-10881.027347,-153.219100
3138.475013,-592.164754,-10510.924376,0.000000
3138.475340,-1258.350101,-8956.491898,-1532.190996
3138.475668,0.000000,-10658.965565,-2451.505594
3138.475996,222.061783,-10140.821405,-459.657299
3138.476324,1998.556043,-8512.368333,0.000000
3138.476651,3404.947333,-7920.203579,-306.438199
3138.476979,1258.350101,-9474.636058,1915.238745
3138.477307,-518.144159,-9548.656652,2834.553343
3138.477635,888.247130,-9474.636058,536.266849
3138.477962,1258.350101,-11251.130318,229.828649
3138.478290,370.102971,-11621.233289,306.438199
3138.478618,1036.288319,-11843.295072,-1225.752797
3138.478946,222.061783,-11251.130318,-1378.971896
3138.479274,-518.144159,-8512.368333,-1762.019645
3138.479601,-888.247130,-7920.203579,-1915.238745
3138.479929,-1480.411884,-9548.656652,76.609550
3138.480257,-296.082377,-7772.162391,306.438199
3138.480585,2072.576638,-7476.080014,-919.314598
3138.480912,1554.432478,-10214.842000,0.000000
3138.481240,888.247130,-11029.068536,2068.457845
3138.481568,1332.370696,-9770.718434,919.314598
3138.481896,1480.411884,-10140.821405,-229.828649
3138.482223,592.164754,-11621.233289,-689.485948
3138.482551,962.267725,-11843.295072,-1225.752797
3138.482879,740.205942,-10955.047942,-1685.410096
3138.483207,-518.144159,-9400.615463,-689.485948
3138.483534,-666.185348,-7698.141797,-766.095498
3138.483862,-814.226536,-9992.780217,0.000000
3138.484190,222.061783,-10066.800811,383.047749
3138.484518,2368.659014,-7624.121203,-995.924147
3138.484845,1776.494261,-7328.038826,-229.828649
3138.485173,444.123565,-9474.636058,1455.581446
3138.485501,-1036.288319,-7994.224174,2221.676944
3138.485829,-666.185348,-8586.388927,766.095498
3138.486156,-1184.329507,-10362.883188,-689.485948
3138.486484,-962.267725,-10807.006753,-1838.629195
3138.486812,-814.226536,-11325.150913,-1838.629195
3138.487140,-370.102971,-10807.006753,-459.657299
3138.487467,74.020594,-9474.636058,-536.266849
3138.487795,0.000000,-9992.780217,-842.705048
3138.488123,0.000000,-10658.965565,0.000000
3138.488451,1702.473667,-9030.512492,-383.047749
3138.488779,2590.720797,-8660.409521,-383.047749
3138.489106,1332.370696,-9400.615463,2145.067394
3138.489434,-1184.329507,-7994.224174,2374.896044
3138.489762,-814.226536,-7105.977043,0.000000
3138.490090,0.000000,-9548.656652,-536.266849
3138.490417,-740.205942,-10288.862594,-153.219100
3138.490745,296.082377,-10881.027347,-1532.190996
3138.491073,0.000000,-11769.274478,-1378.971896
3138.491401,-1110.308913,-10214.842000,-1302.362347
3138.491728,-296.082377,-9770.718434,-2145.067394
3138.492056,296.082377,-10584.944971,-766.095498
3138.492384,1776.494261,-9622.677246,306.438199
3138.492712,2738.761985,-9252.574275,229.828649
3138.493039,1332.370696,-11029.068536,1072.533697
3138.493367,-370.102971,-9770.718434,1225.752797
3138.493695,74.020594,-6439.791695,-1455.581446
3138.494023,74.020594,-7550.100608,-1532.190996
3138.494350,-370.102971,-10807.006753,1225.752797
3138.494678,740.205942,-10584.944971,766.095498
3138.495006,888.247130,-10362.883188,-1072.533697
3138.495334,0.000000,-10510.924376,-1225.752797
3138.495661,-444.123565,-9770.718434,-1608.800546
3138.495989,-666.185348,-9548.656652,-1149.143247
3138.496317,-296.082377,-10732.986159,383.047749
3138.496645,1998.556043,-8364.327145,-1072.533697
3138.496973,2072.576638,-9326.594869,-536.266849
3138.497300,888.247130,-10288.862594,1915.238745
3138.497628,888.247130,-7179.997637,1915.238745
3138.497956,1628.453072,-8586.388927,612.876398
3138.498284,0.000000,-11251.130318,536.266849
3138.498611,-592.164754,-10955.047942,-536.266849
3138.498939,-296.082377,-8956.491898,-1991.848295
3138.499267,-296.082377,-9622.677246,-1072.533697
3138.499595,-888.247130,-9474.636058,842.705048
3138.499922,0.000000,-9548.656652,842.705048
3138.500250,-148.041188,-10140.821405,229.828649
3138.500578,1332.370696,-10584.944971,-612.876398
3138.500906,2146.597232,-10066.800811,-1838.629195
3138.501233,962.267725,-9104.533087,229.828649
3138.501561,444.123565,-7105.977043,1455.581446
3138.501889,740.205942,-7624.121203,689.485948
3138.502217,-296.082377,-9474.636058,689.485948
3138.502544,-1036.288319,-10955.047942,-229.828649
3138.502872,0.000000,-10807.006753,-2374.896044
3138.503200,888.247130,-11917.315666,-2298.286494
3138.503528,0.000000,-10510.924376,0.000000
3138.503855,-370.102971,-9770.718434,-306.438199
3138.504183,-148.041188,-10288.862594,-612.876398
3138.504511,1184.329507,-9474.636058,-995.924147
3138.504839,592.164754,-8290.306550,-1378.971896
3138.505167,0.000000,-8216.285956,0.000000
3138.505494,-2368.659014,-7624.121203,1225.752797
3138.505822,-666.185348,-8586.388927,-842.705048
3138.506150,-518.144159,-9770.718434,-612.876398
3138.506478,222.061783,-11325.150913,0.000000
3138.506805,1702.473667,-10881.027347,-919.314598
3138.507133,2442.679609,-12139.377449,-995.924147
3138.507461,888.247130,-12065.356855,-459.657299
3138.507789,-444.123565,-10288.862594,-536.266849
3138.508116,-666.185348,-8882.471304,-1455.581446
3138.508444,0.000000,-8956.491898,0.000000
3138.508772,518.144159,-8956.491898,0.000000
3138.509100,1258.350101,-9696.697840,0.000000
3138.509427,222.061783,-9696.697840,689.485948
3138.509755,296.082377,-8290.306550,76.609550
3138.510083,814.226536,-8882.471304,-612.876398
3138.510411,592.164754,-10140.821405,842.705048
3138.510738,1258.350101,-9400.615463,76.609550
3138.511066,1628.453072,-10066.800811,-229.828649
3138.511394,-222.061783,-10510.924376,842.705048
3138.511722,-592.164754,-10066.800811,612.876398
3138.512049,-814.226536,-9474.636058,-306.438199
3138.512377,-1332.370696,-9030.512492,153.219100
3138.512705,-814.226536,-8142.265362,-383.047749
3138.513033,666.185348,-9326.594869,-1991.848295
3138.513360,888.247130,-9844.739029,-612.876398
3138.513688,962.267725,-8882.471304,766.095498
3138.514016,2220.617826,-9178.553681,612.876398
3138.514344,1184.329507,-10732.986159,919.314598
3138.514672,592.164754,-10658.965565,383.047749
3138.514999,1110.308913,-10584.944971,-919.314598
3138.515327,1850.514855,-11843.295072,-1149.143247
3138.515655,740.205942,-9474.636058,-995.924147
3138.515983,148.041188,-9474.636058,-229.828649
3138.516310,0.000000,-9992.780217,459.657299
3138.516638,-444.123565,-9474.636058,536.266849
3138.516966,518.144159,-9030.512492,-1302.362347
3138.517294,222.061783,-10584.944971,-1762.019645
3138.517621,-1110.308913,-10140.821405,0.000000
3138.517949,740.205942,-8956.491898,-536.266849
3138.518277,1480.411884,-9548.656652,-306.438199
3138.518605,0.000000,-11103.089130,1455.581446
3138.518932,296.082377,-11029.068536,766.095498
3138.519260,814.226536,-10732.986159,-1225.752797
3138.519588,0.000000,-9992.780217,-919.314598
3138.519916,0.000000,-8216.285956,-1608.800546
3138.520243,-962.267725,-9474.636058,0.000000
3138.520571,-1776.494261,-9770.718434,2374.896044
3138.520899,0.000000,-7624.121203,0.000000
3138.521227,296.082377,-8364.327145,-1762.019645
3138.521554,-1406.391290,-10436.903782,459.657299
3138.521882,-1110.308913,-8512.368333,306.438199
3138.522210,1776.494261,-8438.347739,-1225.752797
3138.522538,1406.391290,-10436.903782,383.047749
3138.522866,1184.329507,-10214.842000,1149.143247
3138.523193,1998.556043,-10066.800811,459.657299
3138.523521,888.247130,-10881.027347,1915.238745
3138.523849,74.020594,-9622.677246,0.000000
3138.524177,-148.041188,-9030.512492,-1915.238745
3138.524504,-888.247130,-10288.862594,-995.924147
3138.524832,-1628.453072,-9252.574275,0.000000
3138.525160,0.000000,-8586.388927,-1225.752797
3138.525488,-814.226536,-8956.491898,76.609550
3138.525815,-740.205942,-9474.636058,229.828649
3138.526143,1628.453072,-9326.594869,-1302.362347
3138.526471,2220.617826,-10140.821405,-1608.800546
3138.526798,1554.432478,-11251.130318,229.828649
3138.527126,3034.844362,-10881.027347,-459.657299
3138.527454,2886.803174,-10658.965565,0.000000
3138.527781,1184.329507,-8068.244768,536.266849
3138.528109,0.000000,-9104.533087,-383.047749
3138.528437,-2146.597232,-11769.274478,76.609550
3138.528764,-962.267725,-10807.006753,76.609550
3138.529092,1628.453072,-9326.594869,-2145.067394
3138.529420,740.205942,-10732.986159,-995.924147
3138.529747,-1554.432478,-9918.759623,1915.238745
3138.530075,0.000000,-7698.141797,459.657299
3138.530403,1480.411884,-7994.224174,-842.705048
3138.530730,518.144159,-8882.471304,0.000000
3138.531058,296.082377,-8734.430116,612.876398
3138.531386,592.164754,-9622.677246,0.000000
3138.531713,-370.102971,-9622.677246,383.047749
3138.532041,518.144159,-9992.780217,-1225.752797
3138.532369,740.205942,-11325.150913,-1378.971896
3138.532697,518.144159,-11547.212695,229.828649
3138.533024,2294.638420,-9548.656652,-1149.143247
3138.533352,1998.556043,-10955.047942,-1072.533697
3138.533680,-518.144159,-11029.068536,995.924147
3138.534007,-814.226536,-6883.915261,689.485948
3138.534335,0.000000,-6587.832884,-306.438199
3138.534663,444.123565,-10140.821405,306.438199
3138.534990,666.185348,-10881.027347,306.438199
3138.535318,814.226536,-10066.800811,-995.924147
3138.535646,148.041188,-10510.924376,-995.924147
3138.535973,-444.123565,-9474.636058,-919.314598
3138.536301,814.226536,-9770.718434,-1532.190996
3138.536629,814.226536,-10658.965565,-459.657299
3138.536956,666.185348,-10807.006753,919.314598
3138.537284,888.247130,-9696.697840,383.047749
3138.537612,-296.082377,-10140.821405,1149.143247
3138.537939,-2072.576638,-9474.636058,1991.848295
3138.538267,-1110.308913,-7920.203579,-689.485948
3138.538595,-1036.288319,-8956.491898,-1302.362347
3138.538922,-666.185348,-10288.862594,-612.876398
3138.539250,1554.432478,-9992.780217,-2221.676944
3138.539578,1776.494261,-9770.718434,-842.705048
3138.539905,814.226536,-9474.636058,1455.581446
3138.540233,444.123565,-9252.574275,383.047749
3138.540561,666.185348,-10658.965565,-536.266849
3138.540888,296.082377,-9474.636058,76.609550
3138.541216,1628.453072,-9400.615463,-306.438199
3138.541544,814.226536,-10510.924376,536.266849
3138.541872,-296.082377,-9548.656652,1991.848295
3138.542199,-740.205942,-6957.935855,766.095498
3138.542527,296.082377,-8956.491898,-459.657299
3138.542855,-962.267725,-10066.800811,-383.047749
3138.543182,444.123565,-9474.636058,-1608.800546
3138.543510,888.247130,-9844.739029,-2834.553343
3138.543838,-370.102971,-9992.780217,-1225.752797
3138.544165,-222.061783,-8290.306550,0.000000
3138.544493,444.123565,-9474.636058,459.657299
3138.544821,74.020594,-11695.253884,842.705048
3138.545148,518.144159,-10288.862594,-612.876398
3138.545476,1628.453072,-9252.574275,-2451.505594
3138.545804,296.082377,-10214.842000,-536.266849
3138.546131,-962.267725,-9548.656652,1685.410096
3138.546459,-444.123565,-9622.677246,689.485948
3138.546787,148.041188,-10807.006753,-229.828649
3138.547114,1406.391290,-10436.903782,-2374.896044
3138.547442,1480.411884,-9992.780217,-4213.525239
3138.547770,-148.041188,-10436.903782,-1225.752797
3138.548097,0.000000,-8586.388927,306.438199
3138.548425,1480.411884,-8882.471304,0.000000
3138.548753,1702.473667,-10066.800811,1685.410096
3138.549080,2072.576638,-9696.697840,2528.115143
3138.549408,2590.720797,-9622.677246,153.219100
3138.549736,592.164754,-9474.636058,766.095498
3138.550063,-1036.288319,-9400.615463,536.266849
3138.550391,-1702.473667,-9474.636058,-766.095498
3138.550719,-1998.556043,-9770.718434,-842.705048
3138.551046,-740.205942,-9104.533087,-1149.143247
3138.551374,962.267725,-8956.491898,-2374.896044
3138.551702,1036.288319,-10658.965565,-919.314598
3138.552030,962.267725,-9326.594869,76.609550
3138.552357,1998.556043,-8734.430116,0.000000
3138.552685,2516.700203,-10288.862594,995.924147
3138.553013,1850.514855,-8956.491898,2221.676944
3138.553340,2590.720797,-6587.832884,1378.971896
3138.553668,1110.308913,-7179.997637,1455.581446
3138.553996,-1998.556043,-9918.759623,1532.190996
3138.554323,-3330.926739,-11177.109724,-536.266849
3138.554651,-962.267725,-11547.212695,-3140.991542
3138.554979,0.000000,-11843.295072,-2221.676944
3138.555306,740.205942,-11177.109724,-2145.067394
3138.555634,74.020594,-10955.047942,-1072.533697
3138.555962,0.000000,-9844.739029,-459.657299
3138.556289,666.185348,-7624.121203,-1608.800546
3138.556617,518.144159,-8364.327145,-1149.143247
3138.556945,-888.247130,-9104.533087,1838.629195
3138.557272,1110.308913,-8290.306550,2145.067394
3138.557600,2220.617826,-10362.883188,306.438199
3138.557928,-666.185348,-12805.562797,1225.752797
3138.558255,-962.267725,-11399.171507,689.485948
3138.558583,518.144159,-9918.759623,-2374.896044
3138.558911,148.041188,-11177.109724,-2911.162892
3138.559238,-148.041188,-11769.274478,-1762.019645
3138.559566,444.123565,-9844.739029,-1532.190996
3138.559894,222.061783,-9030.512492,612.876398
3138.560221,222.061783,-7994.224174,689.485948
3138.560549,1110.308913,-7846.182985,0.000000
3138.560877,-296.082377,-8660.409521,1225.752797
3138.561205,444.123565,-7476.080014,536.266849
3138.561532,1036.288319,-7994.224174,-1149.143247
3138.561860,-888.247130,-10658.965565,612.876398
3138.562188,-962.267725,-10140.821405,2221.676944
3138.562515,1406.391290,-9474.636058,306.438199
3138.562843,1332.370696,-10732.986159,383.047749
3138.563171,0.000000,-11029.068536,689.485948
3138.563498,296.082377,-9918.759623,-1685.410096
3138.563826,-592.164754,-9696.697840,-1225.752797
3138.564154,-962.267725,-9474.636058,-766.095498
3138.564481,-444.123565,-7624.121203,-1302.362347
3138.564809,-592.164754,-8068.244768,-459.657299
3138.565137,296.082377,-8364.327145,689.485948
3138.565464,2442.679609,-7994.224174,-689.485948
3138.565792,1258.350101,-9918.759623,536.266849
3138.566120,0.000000,-11473.192101,2987.772442
3138.566447,296.082377,-10066.800811,995.924147
3138.566775,814.226536,-11325.150913,-1608.800546
3138.567103,370.102971,-12731.542202,-1302.362347
3138.567430,1110.308913,-11399.171507,-2451.505594
3138.567758,666.185348,-10066.800811,-1762.019645
3138.568086,0.000000,-9622.677246,689.485948
3138.568413,148.041188,-9104.533087,-766.095498
3138.568741,888.247130,-9326.594869,-1838.629195
3138.569069,-222.061783,-8660.409521,-536.266849
3138.569396,148.041188,-7994.224174,0.000000
3138.569724,-370.102971,-9326.594869,-229.828649
3138.570052,-2960.823768,-11547.212695,995.924147
3138.570380,-1776.494261,-8956.491898,-459.657299
3138.570707,1776.494261,-9548.656652,-2145.067394
3138.571035,1702.473667,-13915.871710,229.828649
3138.571363,1628.453072,-13693.809927,1838.629195
3138.571690,2590.720797,-10584.944971,-536.266849
3138.572018,592.164754,-9474.636058,-1762.019645
3138.572346,-888.247130,-8068.244768,-2068.457845
3138.572673,-1850.514855,-6439.791695,-1532.190996
3138.573001,-1776.494261,-7254.018232,0.000000
3138.573329,-296.082377,-6735.874072,536.266849
3138.573656,1628.453072,-7846.182985,0.000000
3138.573984,962.267725,-10140.821405,2604.724693
3138.574312,1184.329507,-9992.780217,3600.648841
3138.574639,2738.761985,-9696.697840,1455.581446
3138.574967,1184.329507,-10955.047942,-383.047749
3138.575295,-296.082377,-10658.965565,0.000000
3138.575622,592.164754,-9548.656652,-2068.457845
3138.575950,-148.041188,-10584.944971,-919.314598
3138.576278,-1110.308913,-10214.842000,536.266849
3138.576605,-518.144159,-9474.636058,-1378.971896
3138.576933,-148.041188,-9992.780217,-1685.410096
3138.577261,-370.102971,-9400.615463,-1225.752797
3138.577588,1702.473667,-7698.141797,-1455.581446
3138.577916,2072.576638,-9474.636058,0.000000
3138.578244,888.247130,-9252.574275,2834.553343
3138.578571,1998.556043,-6957.935855,1838.629195
3138.578899,666.185348,-8586.388927,1149.143247
3138.579227,-1480.411884,-12731.542202,2221.676944
3138.579554,-296.082377,-11917.315666,-1225.752797
3138.579882,740.205942,-12065.356855,-3447.429741
3138.580210,-1184.329507,-12139.377449,-1838.629195
3138.580538,-1110.308913,-10288.862594,-2681.334243
3138.580865,-370.102971,-9104.533087,-2987.772442
3138.581193,148.041188,-10436.903782,-1149.143247
3138.581521,518.144159,-8290.306550,76.609550
3138.581848,1332.370696,-7254.018232,766.095498
3138.582176,-592.164754,-7624.121203,2911.162892
3138.582504,0.000000,-7105.977043,2451.505594
3138.582831,1184.329507,-8512.368333,306.438199
3138.583159,370.102971,-12213.398043,1225.752797
3138.583487,814.226536,-12435.459826,459.657299
3138.583814,2664.741391,-11251.130318,-3600.648841
3138.584142,-74.020594,-11177.109724,-2374.896044
3138.584470,-1480.411884,-9918.759623,-1378.971896
3138.584797,370.102971,-8882.471304,-2604.724693
3138.585125,0.000000,-10066.800811,-536.266849
3138.585453,518.144159,-9104.533087,919.314598
3138.585780,2442.679609,-8586.388927,-459.657299
3138.586108,296.082377,-9918.759623,1608.800546
3138.586436,-1332.370696,-7550.100608,2068.457845
3138.586763,592.164754,-6809.894666,-536.266849
3138.587091,888.247130,-9622.677246,0.000000
3138.587419,814.226536,-11695.253884,995.924147
3138.587746,2590.720797,-11621.233289,-459.657299
3138.588074,1628.453072,-11695.253884,-459.657299
3138.588402,-370.102971,-10436.903782,-306.438199
3138.588729,-296.082377,-9548.656652,-2451.505594
3138.589057,-1554.432478,-9474.636058,-1072.533697
3138.589385,-1480.411884,-9918.759623,612.876398
3138.589713,1480.411884,-8364.327145,-1455.581446
3138.590040,666.185348,-9400.615463,-612.876398
3138.590368,-1036.288319,-8142.265362,1455.581446
3138.590696,148.041188,-6809.894666,995.924147
3138.591023,518.144159,-9030.512492,0.000000
3138.591351,666.185348,-11917.315666,689.485948
3138.591679,1628.453072,-10955.047942,-612.876398
3138.592006,1480.411884,-10510.924376,-1225.752797
3138.592334,222.061783,-10658.965565,0.000000
3138.592662,222.061783,-9474.636058,0.000000
3138.592989,888.247130,-9992.780217,-689.485948
3138.593317,0.000000,-10436.903782,459.657299
3138.593645,2220.617826,-9030.512492,-612.876398
3138.593972,2368.659014,-8068.244768,-1532.190996
3138.594300,0.000000,-9030.512492,1762.019645
3138.594628,-222.061783,-7550.100608,1532.190996
3138.594955,-370.102971,-7772.162391,76.609550
3138.595283,-2664.741391,-10214.842000,1072.533697
3138.595611,-1184.329507,-11103.089130,-1991.848295
3138.595938,370.102971,-9622.677246,-4366.744339
3138.596266,814.226536,-11621.233289,-2528.115143
3138.596594,1332.370696,-11843.295072,0.000000
3138.596921,2294.638420,-11473.192101,459.657299
3138.597249,2738.761985,-11547.212695,1685.410096
3138.597577,2368.659014,-9252.574275,0.000000
3138.597904,1258.350101,-8808.450710,-2451.505594
3138.598232,-518.144159,-10436.903782,229.828649
3138.598560,-1554.432478,-7624.121203,1302.362347
3138.598888,-888.247130,-6365.771101,-383.047749
3138.599215,-1258.350101,-9622.677246,153.219100
3138.599543,-444.123565,-10955.047942,1378.971896
3138.599871,2368.659014,-9844.739029,-306.438199
3138.600198,2294.638420,-11029.068536,-689.485948
3138.600526,148.041188,-11177.109724,919.314598
3138.600854,-148.041188,-8882.471304,-459.657299
3138.601181,296.082377,-8660.409521,-306.438199
3138.601509,0.000000,-9622.677246,1225.752797
3138.601837,1258.350101,-8512.368333,153.219100
3138.602164,74.020594,-9326.594869,229.828649
3138.602492,-814.226536,-9474.636058,1302.362347
3138.602820,0.000000,-7846.182985,-766.095498
3138.603147,0.000000,-9326.594869,-1225.752797
3138.603475,-666.185348,-10658.965565,1455.581446
3138.603803,1406.391290,-8290.306550,-612.876398
3138.604130,1924.535449,-7846.182985,-842.705048
3138.604458,-888.247130,-9104.533087,1991.848295
3138.604786,-1702.473667,-9030.512492,1991.848295
3138.605113,-148.041188,-10955.047942,-689.485948
3138.605441,-518.144159,-11473.192101,-1302.362347
3138.605769,518.144159,-10140.821405,-2068.457845
3138.606096,1332.370696,-9770.718434,-2221.676944
3138.606424,-1332.370696,-9918.759623,919.314598
3138.606752,-740.205942,-8364.327145,76.609550
3138.607079,814.226536,-8586.388927,-2068.457845
3138.607407,-222.061783,-11695.253884,-766.095498
3138.607735,518.144159,-9474.636058,-459.657299
3138.608062,1480.411884,-9252.574275,-995.924147
3138.608390,222.061783,-11843.295072,842.705048
3138.608718,296.082377,-11177.109724,1302.362347
3138.609046,1850.514855,-10288.862594,-1838.629195
3138.609373,740.205942,-10658.965565,-1915.238745
3138.609701,592.164754,-10288.862594,-1302.362347
3138.610029,888.247130,-9844.739029,-1762.019645
3138.610356,-962.267725,-10510.924376,0.000000
3138.610684,-666.185348,-8882.471304,842.705048
3138.611012,1258.350101,-8364.327145,-612.876398
3138.611339,-296.082377,-10658.965565,1302.362347
3138.611667,0.000000,-10214.842000,1302.362347
3138.611995,2220.617826,-8364.327145,-1532.190996
3138.612322,1036.288319,-10140.821405,-229.828649
3138.612650,74.020594,-9400.615463,1455.581446
3138.612978,1480.411884,-7476.080014,459.657299
3138.613305,1036.288319,-8882.471304,459.657299
3138.613633,888.247130,-10658.965565,1072.533697
3138.613961,740.205942,-8142.265362,-689.485948
3138.614288,-888.247130,-8142.265362,0.000000
3138.614616,-1850.514855,-9252.574275,1072.533697
3138.614944,-444.123565,-9178.553681,-842.705048
3138.615271,-962.267725,-9548.656652,-995.924147
3138.615599,-518.144159,-9474.636058,0.000000
3138.615927,1480.411884,-9030.512492,-1072.533697
3138.616254,1480.411884,-9918.759623,-689.485948
3138.616582,-592.164754,-10140.821405,1532.190996
3138.616910,1036.288319,-9178.553681,689.485948
3138.617237,1406.391290,-9622.677246,-919.314598
3138.617565,-518.144159,-11399.171507,229.828649
3138.617893,74.020594,-9622.677246,-995.924147
3138.618221,518.144159,-9622.677246,-2374.896044
3138.618548,-740.205942,-11695.253884,-229.828649
3138.618876,-148.041188,-10140.821405,-229.828649
3138.619204,888.247130,-10214.842000,-1302.362347
3138.619531,222.061783,-11621.233289,306.438199
3138.619859,2072.576638,-10510.924376,-919.314598
3138.620187,1628.453072,-9622.677246,-1685.410096
3138.620514,-1998.556043,-9770.718434,153.219100
3138.620842,-2442.679609,-8808.450710,383.047749
3138.621170,-1036.288319,-9030.512492,-2221.676944
3138.621497,-222.061783,-10362.883188,-1378.971896
3138.621825,1924.535449,-10584.944971,-689.485948
3138.622153,2516.700203,-11103.089130,-153.219100
3138.622480,1406.391290,-11843.295072,1991.848295
3138.622808,1036.288319,-9030.512492,1685.410096
3138.623136,1184.329507,-7254.018232,-1378.971896
3138.623463,-888.247130,-9104.533087,153.219100
3138.623791,-148.041188,-9030.512492,612.876398
3138.624119,1036.288319,-7105.977043,-1149.143247
3138.624446,-666.185348,-8734.430116,689.485948
3138.624774,-814.226536,-9104.533087,2681.334243
3138.625102,1110.308913,-7698.141797,0.000000
3138.625429,1036.288319,-9474.636058,0.000000
3138.625757,666.185348,-9918.759623,842.705048
3138.626085,518.144159,-8956.491898,-689.485948
3138.626412,0.000000,-9770.718434,-153.219100
3138.626740,-518.144159,-9844.739029,995.924147
3138.627068,740.205942,-8808.450710,-459.657299
3138.627395,370.102971,-9992.780217,153.219100
3138.627723,0.000000,-10732.986159,153.219100
3138.628051,1776.494261,-10214.842000,-2221.676944
3138.628378,296.082377,-10807.006753,-2451.505594
3138.628706,-1480.411884,-9696.697840,229.828649
3138.629034,148.041188,-7402.059420,-306.438199
3138.629361,1628.453072,-8512.368333,-1149.143247
3138.629689,370.102971,-9622.677246,1378.971896
3138.630016,74.020594,-9178.553681,459.657299
3138.630344,-370.102971,-11029.068536,-1378.971896
3138.630672,-1036.288319,-13397.727550,-153.219100
3138.630999,592.164754,-10807.006753,-1455.581446
3138.631327,1036.288319,-10066.800811,-2374.896044
3138.631654,-222.061783,-12435.459826,612.876398
3138.631982,1258.350101,-10362.883188,0.000000
3138.632310,2368.659014,-9400.615463,-2221.676944
3138.632637,-1184.329507,-9844.739029,0.000000
3138.632965,-2072.576638,-7476.080014,229.828649
3138.633293,-592.164754,-6809.894666,-1685.410096
3138.633620,-814.226536,-10436.903782,689.485948
3138.633948,592.164754,-10807.006753,1149.143247
3138.634275,1850.514855,-8512.368333,76.609550
3138.634603,518.144159,-10288.862594,1838.629195
3138.634931,296.082377,-9622.677246,1302.362347
3138.635258,1554.432478,-8956.491898,-1302.362347
3138.635586,-666.185348,-10140.821405,76.609550
3138.635913,-222.061783,-9622.677246,0.000000
3138.636241,1184.329507,-8734.430116,-2221.676944
3138.636569,-1332.370696,-10955.047942,0.000000
3138.636896,-2442.679609,-8142.265362,1149.143247
3138.637224,592.164754,-6735.874072,-1302.362347
3138.637552,740.205942,-9992.780217,-1225.752797
3138.637879,1184.329507,-11251.130318,842.705048
3138.638207,2812.782580,-7624.121203,153.219100
3138.638534,2146.597232,-9474.636058,842.705048
3138.638862,370.102971,-10658.965565,3140.991542
3138.639190,666.185348,-7105.977043,766.095498
3138.639517,0.000000,-9474.636058,153.219100
3138.639845,-888.247130,-12953.603985,459.657299
3138.640172,1628.453072,-11251.130318,-3447.429741
3138.640500,814.226536,-10584.944971,-4213.525239
3138.640828,-2368.659014,-11769.274478,-536.266849
3138.641155,222.061783,-8142.265362,-1378.971896
3138.641483,2072.576638,-8512.368333,-2145.067394
3138.641811,740.205942,-10955.047942,1838.629195
3138.642138,2442.679609,-10214.842000,995.924147
3138.642466,2368.659014,-8808.450710,229.828649
3138.642793,-296.082377,-10214.842000,2221.676944
3138.643121,-740.205942,-9104.533087,459.657299
3138.643449,-222.061783,-8586.388927,-1378.971896
3138.643776,-814.226536,-11473.192101,-383.047749
3138.644104,1258.350101,-10955.047942,-383.047749
3138.644431,1702.473667,-9992.780217,-2987.772442
3138.644759,-370.102971,-11251.130318,-229.828649
3138.645087,-666.185348,-9844.739029,689.485948
3138.645414,740.205942,-7920.203579,-1838.629195
3138.645742,-1110.308913,-9548.656652,383.047749
3138.646070,-148.041188,-9400.615463,1762.019645
3138.646397,2220.617826,-7920.203579,842.705048
3138.646725,1110.308913,-9474.636058,2221.676944
3138.647052,-518.144159,-9178.553681,3294.210641
3138.647380,370.102971,-8660.409521,383.047749
3138.647708,-1480.411884,-10881.027347,-536.266849
3138.648035,-1628.453072,-10732.986159,-1915.238745
3138.648363,0.000000,-9844.739029,-4443.353888
3138.648690,-814.226536,-11103.089130,-2451.505594
3138.649018,-1036.288319,-10066.800811,1532.190996
3138.649346,1628.453072,-8364.327145,153.219100
3138.649673,1924.535449,-9844.739029,153.219100
3138.650001,1110.308913,-11103.089130,1838.629195
3138.650329,1924.535449,-8660.409521,76.609550
3138.650656,74.020594,-8438.347739,-229.828649
3138.650984,-2146.597232,-7254.018232,1608.800546
3138.651311,-1628.453072,-6439.791695,306.438199
3138.651639,-1406.391290,-9844.739029,0.000000
3138.651967,0.000000,-12805.562797,612.876398
3138.652294,2146.597232,-12065.356855,-2451.505594
3138.652622,1258.350101,-11843.295072,-2681.334243
3138.652949,-888.247130,-10881.027347,-383.047749
3138.653277,370.102971,-7846.182985,-1378.971896
3138.653605,1110.308913,-8290.306550,-1149.143247
3138.653932,0.000000,-9474.636058,1838.629195
3138.654260,1628.453072,-7846.182985,1532.190996
3138.654588,1924.535449,-9104.533087,383.047749
3138.654915,-1258.350101,-11769.274478,1991.848295
3138.655243,-1406.391290,-10658.965565,0.000000
3138.655570,-888.247130,-8290.306550,-2374.896044
3138.655898,-370.102971,-10436.903782,-2145.067394
3138.656226,962.267725,-10214.842000,-1302.362347
3138.656553,1554.432478,-8808.450710,-766.095498
3138.656881,74.020594,-9252.574275,1532.190996
3138.657208,518.144159,-9252.574275,689.485948
3138.657536,74.020594,-8290.306550,-1149.143247
3138.657864,-444.123565,-10288.862594,229.828649
3138.658191,1036.288319,-8586.388927,612.876398
3138.658519,3034.844362,-8216.285956,-1225.752797
3138.658847,888.247130,-12065.356855,1455.581446
3138.659174,370.102971,-11251.130318,2987.772442
3138.659502,1036.288319,-7994.224174,-459.657299
3138.659829,-1036.288319,-10066.800811,-229.828649
3138.660157,-2294.638420,-10881.027347,-995.924147
3138.660485,814.226536,-9992.780217,-3217.601092
3138.660812,0.000000,-10584.944971,-1608.800546
3138.661140,-592.164754,-10510.924376,919.314598
3138.661467,1184.329507,-9030.512492,0.000000
3138.661795,888.247130,-8808.450710,-306.438199
3138.662123,-222.061783,-8512.368333,919.314598
3138.662450,888.247130,-7920.203579,-1532.190996
3138.662778,666.185348,-8956.491898,-1072.533697
3138.663106,0.000000,-10658.965565,1685.410096
3138.663433,814.226536,-10066.800811,1455.581446
3138.663761,740.205942,-11177.109724,1225.752797
3138.664088,592.164754,-12287.418637,919.314598
3138.664416,592.164754,-10807.006753,-2221.676944
3138.664744,-518.144159,-10807.006753,-3217.601092
3138.665071,-2590.720797,-10066.800811,-459.657299
3138.665399,-888.247130,-7031.956449,-995.924147
3138.665726,-370.102971,-7105.977043,-995.924147
3138.666054,-1258.350101,-8956.491898,1838.629195
3138.666382,814.226536,-7105.977043,842.705048
3138.666709,1184.329507,-8364.327145,-1838.629195
3138.667037,148.041188,-11473.192101,229.828649
3138.667365,740.205942,-9844.739029,1149.143247
3138.667692,1406.391290,-8882.471304,-153.219100
3138.668020,518.144159,-11103.089130,766.095498
3138.668347,888.247130,-11695.253884,153.219100
3138.668675,1258.350101,-9474.636058,-1608.800546
3138.669003,-518.144159,-11029.068536,-459.657299
3138.669330,-222.061783,-9474.636058,-612.876398
3138.669658,74.020594,-7328.038826,-2757.943793
3138.669985,-962.267725,-9178.553681,-612.876398
3138.670313,0.000000,-8586.388927,0.000000
3138.670641,1332.370696,-8068.244768,-1302.362347
3138.670968,-814.226536,-9992.780217,995.924147
3138.671296,-296.082377,-10066.800811,2528.115143
3138.671624,2146.597232,-8290.306550,0.000000
3138.671951,3330.926739,-11547.212695,0.000000
3138.672279,2072.576638,-12805.562797,1991.848295
3138.672606,1998.556043,-10362.883188,0.000000
3138.672934,-444.123565,-10955.047942,-995.924147
3138.673262,-2516.700203,-11177.109724,-2068.457845
3138.673589,-814.226536,-9252.574275,-4749.792088
3138.673917,-296.082377,-8512.368333,-3600.648841
3138.674244,0.000000,-10140.821405,536.266849
3138.674572,2146.597232,-9326.594869,1225.752797
3138.674900,2368.659014,-9400.615463,1532.190996
3138.675227,592.164754,-9474.636058,2604.724693
3138.675555,518.144159,-7920.203579,1455.581446
3138.675883,740.205942,-8734.430116,306.438199
3138.676210,-962.267725,-9474.636058,229.828649
3138.676538,0.000000,-9030.512492,-229.828649
3138.676865,592.164754,-10955.047942,-383.047749
3138.677193,-296.082377,-12065.356855,1302.362347
3138.677521,370.102971,-10214.842000,-536.266849
3138.677848,444.123565,-8956.491898,-2451.505594
3138.678176,-444.123565,-8956.491898,-1149.143247
3138.678503,222.061783,-7402.059420,-1685.410096
3138.678831,1480.411884,-8142.265362,-842.705048
3138.679159,0.000000,-9400.615463,3294.210641
3138.679486,370.102971,-7698.141797,3294.210641
3138.679814,1110.308913,-8216.285956,766.095498
3138.680142,222.061783,-13101.645173,919.314598
3138.680469,-296.082377,-11473.192101,-612.876398
3138.680797,222.061783,-10436.903782,-2528.115143
3138.681124,-1258.350101,-11325.150913,-995.924147
3138.681452,-444.123565,-8660.409521,-842.705048
3138.681780,-444.123565,-7328.038826,-1762.019645
3138.682107,-1554.432478,-10658.965565,-459.657299
3138.682435,0.000000,-10955.047942,-459.657299
3138.682762,2516.700203,-10140.821405,-2221.676944
3138.683090,74.020594,-10288.862594,766.095498
3138.683418,-1110.308913,-9104.533087,2451.505594
3138.683745,444.123565,-7846.182985,229.828649
3138.684073,962.267725,-10510.924376,-229.828649
3138.684401,74.020594,-11473.192101,76.609550
3138.684728,296.082377,-10658.965565,-2451.505594
3138.685056,-1110.308913,-10955.047942,-1302.362347
3138.685383,-962.267725,-11399.171507,-995.924147
3138.685711,-814.226536,-9252.574275,-2298.286494
3138.686039,-888.247130,-10066.800811,-1225.752797
3138.686366,-222.061783,-9918.759623,689.485948
3138.686694,2590.720797,-8586.388927,-995.924147
3138.687021,1110.308913,-9104.533087,306.438199
3138.687349,-296.082377,-8142.265362,3600.648841
3138.687677,592.164754,-5551.544565,1762.019645
3138.688004,888.247130,-7994.224174,536.266849
3138.688332,148.041188,-11325.150913,1608.800546
3138.688660,1406.391290,-11177.109724,-383.047749
3138.688987,1258.350101,-11769.274478,-1685.410096
3138.689315,-296.082377,-11621.233289,-919.314598
3138.689642,0.000000,-7920.203579,-1149.143247
3138.689970,0.000000,-8660.409521,-919.314598
3138.690298,-444.123565,-9770.718434,383.047749
3138.690625,814.226536,-8660.409521,-766.095498
3138.690953,1628.453072,-8216.285956,-536.266849
3138.691280,0.000000,-8808.450710,2221.676944
3138.691608,518.144159,-7105.977043,2451.505594
3138.691936,1924.535449,-8290.306550,-536.266849
3138.692263,296.082377,-11695.253884,229.828649
3138.692591,1554.432478,-11695.253884,-842.705048
3138.692919,2220.617826,-10807.006753,-3217.601092
3138.693246,518.144159,-12435.459826,-459.657299
3138.693574,370.102971,-10658.965565,459.657299
3138.693901,1332.370696,-9400.615463,-995.924147
3138.694229,0.000000,-10955.047942,-766.095498
3138.694557,518.144159,-10066.800811,-459.657299
3138.694884,444.123565,-7994.224174,-1838.629195
3138.695212,-1258.350101,-9326.594869,-383.047749
3138.695539,-1998.556043,-8142.265362,1225.752797
3138.695867,296.082377,-7476.080014,-612.876398
3138.696195,518.144159,-10881.027347,536.266849
3138.696522,1110.308913,-12435.459826,1149.143247
3138.696850,3256.906145,-11399.171507,-1455.581446
3138.697178,1628.453072,-11843.295072,-383.047749
3138.697505,-666.185348,-10732.986159,766.095498
3138.697833,-962.267725,-7920.203579,-1072.533697
3138.698160,-1628.453072,-9622.677246,-1302.362347
3138.698488,-962.267725,-9844.739029,-306.438199
3138.698816,740.205942,-7920.203579,-1532.190996
3138.699143,1036.288319,-8808.450710,612.876398
3138.699471,0.000000,-9178.553681,2834.553343
3138.699798,-222.061783,-7179.997637,1532.190996
3138.700126,296.082377,-8438.347739,0.000000
3138.700454,370.102971,-10807.006753,153.219100
3138.700781,1110.308913,-9844.739029,-1455.581446
3138.701109,0.000000,-9474.636058,153.219100
3138.701437,-1702.473667,-9918.759623,1762.019645
3138.701764,-370.102971,-8734.430116,536.266849
3138.702092,296.082377,-9696.697840,-612.876398
3138.702419,-296.082377,-10066.800811,0.000000
3138.702747,222.061783,-9178.553681,-1302.362347
3138.703075,1332.370696,-8290.306550,-2604.724693
3138.703402,0.000000,-9252.574275,-229.828649
3138.703730,-888.247130,-7402.059420,919.314598
3138.704057,222.061783,-8290.306550,229.828649
3138.704385,592.164754,-11177.109724,1378.971896
3138.704713,2220.617826,-12435.459826,459.657299
3138.705040,1998.556043,-11843.295072,-1302.362347
3138.705368,-370.102971,-11917.315666,-536.266849
3138.705696,-518.144159,-9770.718434,0.000000
3138.706023,592.164754,-8660.409521,-1838.629195
3138.706351,-370.102971,-10066.800811,-612.876398
3138.706678,-888.247130,-9474.636058,0.000000
3138.707006,-296.082377,-9104.533087,-1608.800546
3138.707334,0.000000,-10436.903782,-995.924147
3138.707661,148.041188,-9474.636058,689.485948
3138.707989,1406.391290,-8660.409521,0.000000
3138.708316,1406.391290,-10807.006753,1302.362347
3138.708644,1998.556043,-10732.986159,459.657299
3138.708972,2886.803174,-9178.553681,-1608.800546
3138.709299,962.267725,-10658.965565,0.000000
3138.709627,-888.247130,-10140.821405,1838.629195
3138.709955,296.082377,-7920.203579,-153.219100
3138.710282,296.082377,-9474.636058,-842.705048
3138.710610,-222.061783,-11251.130318,153.219100
3138.710937,518.144159,-9030.512492,-1685.410096
3138.711265,666.185348,-8438.347739,-689.485948
3138.711593,-1332.370696,-8586.388927,1378.971896
3138.711920,0.000000,-7031.956449,153.219100
3138.712248,814.226536,-8142.265362,-153.219100
3138.712575,1628.453072,-10807.006753,1532.190996
3138.712903,2516.700203,-10140.821405,842.705048
3138.713231,1850.514855,-10584.944971,459.657299
3138.713558,-222.061783,-11473.192101,1915.238745
3138.713886,-222.061783,-9992.780217,-689.485948
3138.714214,-370.102971,-8364.327145,-2987.772442
3138.714541,-1628.453072,-10510.924376,-919.314598
3138.714869,-148.041188,-10214.842000,-306.438199
3138.715196,962.267725,-9548.656652,-1762.019645
3138.715524,-814.226536,-10288.862594,919.314598
3138.715852,-370.102971,-8586.388927,0.000000
3138.716179,444.123565,-8364.327145,-1378.971896
3138.716507,0.000000,-11177.109724,0.000000
3138.716834,1110.308913,-9474.636058,-1302.362347
3138.717162,2220.617826,-9770.718434,-2145.067394
3138.717490,518.144159,-11547.212695,536.266849
3138.717817,370.102971,-11103.089130,919.314598
3138.718145,1184.329507,-9548.656652,-842.705048
3138.718473,0.000000,-10584.944971,-842.705048
3138.718800,-444.123565,-10510.924376,-995.924147
3138.719128,518.144159,-9178.553681,-1838.629195
3138.719455,-1258.350101,-9844.739029,-306.438199
3138.719783,-1776.494261,-9178.553681,1608.800546
3138.720111,296.082377,-7994.224174,-306.438199
3138.720438,1110.308913,-9252.574275,-689.485948
3138.720766,814.226536,-10436.903782,459.657299
3138.721093,1110.308913,-9030.512492,0.000000
3138.721421,444.123565,-9622.677246,229.828649
3138.721749,370.102971,-9844.739029,1762.019645
3138.722076,1184.329507,-8808.450710,-1149.143247
3138.722404,-888.247130,-9400.615463,306.438199
3138.722732,-1850.514855,-9770.718434,919.314598
3138.723059,-222.061783,-8956.491898,-2298.286494
3138.723387,-962.267725,-10436.903782,-2145.067394
3138.723714,-370.102971,-10140.821405,0.000000
3138.724042,518.144159,-7105.977043,0.000000
3138.724370,2072.576638,-9474.636058,459.657299
3138.724697,2072.576638,-10955.047942,1149.143247
3138.725025,2220.617826,-9992.780217,-306.438199
3138.725352,814.226536,-9252.574275,-1455.581446
3138.725680,-444.123565,-11029.068536,-383.047749
3138.726008,-444.123565,-9400.615463,-919.314598
3138.726335,0.000000,-8734.430116,-1532.190996
3138.726663,-1110.308913,-9252.574275,842.705048
3138.726990,296.082377,-10881.027347,1225.752797
3138.727318,1480.411884,-10658.965565,-383.047749
3138.727646,222.061783,-11251.130318,612.876398
3138.727973,-592.164754,-8438.347739,76.609550
3138.728301,1110.308913,-7179.997637,-2068.457845
3138.728628,962.267725,-9844.739029,0.000000
3138.728956,1332.370696,-10584.944971,1149.143247
3138.729284,2368.659014,-10066.800811,229.828649
3138.729611,1406.391290,-11843.295072,1302.362347
3138.729939,444.123565,-10955.047942,689.485948
3138.730266,0.000000,-9030.512492,-1915.238745
3138.730594,0.000000,-9992.780217,-1149.143247
3138.730921,370.102971,-9178.553681,0.000000
3138.731249,1110.308913,-7772.162391,0.000000
3138.731577,-666.185348,-9178.553681,1072.533697
3138.731904,-2072.576638,-9104.533087,2298.286494
3138.732232,74.020594,-8290.306550,-689.485948
3138.732559,1184.329507,-9844.739029,-1455.581446
3138.732887,592.164754,-10510.924376,0.000000
3138.733215,1702.473667,-9178.553681,-536.266849
3138.733542,1998.556043,-10436.903782,-153.219100
3138.733870,666.185348,-9770.718434,306.438199
3138.734197,74.020594,-8512.368333,-842.705048
3138.734525,-962.267725,-9030.512492,-536.266849
3138.734853,-1628.453072,-9992.780217,612.876398
3138.735180,-888.247130,-9918.759623,-612.876398
3138.735508,444.123565,-10436.903782,-1302.362347
3138.735835,-888.247130,-10436.903782,229.828649
3138.736163,0.000000,-8364.327145,536.266849
3138.736491,962.267725,-8882.471304,-842.705048
3138.736818,444.123565,-11103.089130,-459.657299
3138.737146,296.082377,-10066.800811,-1378.971896
3138.737473,-296.082377,-9622.677246,-1991.848295
3138.737801,888.247130,-10881.027347,-689.485948
3138.738128,888.247130,-9400.615463,-153.219100
3138.738456,222.061783,-10362.883188,153.219100
3138.738784,-148.041188,-10436.903782,1302.362347
3138.739111,518.144159,-10584.944971,-536.266849
3138.739439,592.164754,-10140.821405,-1455.581446
3138.739766,0.000000,-9178.553681,689.485948
3138.740094,-740.205942,-7328.038826,1608.800546
3138.740422,74.020594,-8438.347739,459.657299
3138.740749,666.185348,-11177.109724,76.609550
3138.741077,74.020594,-11177.109724,-383.047749
3138.741404,148.041188,-9622.677246,-1838.629195
3138.741732,-666.185348,-9400.615463,-1302.362347
3138.742060,-370.102971,-8660.409521,-919.314598
3138.742387,444.123565,-8586.388927,-459.657299
3138.742715,1036.288319,-9770.718434,1149.143247
3138.743042,1554.432478,-9474.636058,2528.115143
3138.743370,2368.659014,-9104.533087,1072.533697
3138.743697,888.247130,-10584.944971,1608.800546
3138.744025,-740.205942,-8290.306550,1149.143247
3138.744353,-444.123565,-7846.182985,-383.047749
3138.744680,296.082377,-9918.759623,-842.705048
3138.745008,1036.288319,-9992.780217,-766.095498
3138.745335,1776.494261,-9844.739029,-2068.457845
3138.745663,1406.391290,-10807.006753,-919.314598
3138.745991,592.164754,-10510.924376,-459.657299
3138.746318,518.144159,-9326.594869,-919.314598
3138.746646,518.144159,-8956.491898,-766.095498
3138.746973,518.144159,-9844.739029,383.047749
3138.747301,962.267725,-8956.491898,766.095498
3138.747629,0.000000,-9918.759623,766.095498
3138.747956,-370.102971,-10807.006753,1378.971896
3138.748284,-518.144159,-8068.244768,-229.828649
3138.748611,-740.205942,-9548.656652,-842.705048
3138.748939,-814.226536,-11621.233289,-1149.143247
3138.749266,0.000000,-11621.233289,-2834.553343
3138.749594,0.000000,-9992.780217,-2681.334243
3138.749922,740.205942,-9474.636058,-1608.800546
3138.750249,1184.329507,-9622.677246,153.219100
3138.750577,1110.308913,-10584.944971,1608.800546
3138.750904,962.267725,-9474.636058,1762.019645
3138.751232,1110.308913,-8882.471304,995.924147
3138.751560,74.020594,-8586.388927,0.000000
3138.751887,-962.267725,-9474.636058,1838.629195
3138.752215,-2368.659014,-6883.915261,1378.971896
3138.752542,-1110.308913,-7105.977043,-459.657299
3138.752870,-666.185348,-10955.047942,0.000000
3138.753198,666.185348,-11325.150913,-153.219100
3138.753525,1702.473667,-9696.697840,-1608.800546
3138.753853,1110.308913,-10732.986159,-689.485948
3138.754180,518.144159,-8734.430116,-766.095498
3138.754508,592.164754,-7994.224174,-1455.581446
3138.754836,296.082377,-9696.697840,919.314598
3138.755163,444.123565,-8660.409521,1991.848295
3138.755491,592.164754,-8660.409521,1302.362347
3138.755818,-370.102971,-10362.883188,1762.019645
3138.756146,-518.144159,-10436.903782,1149.143247
3138.756473,-518.144159,-10140.821405,-383.047749
3138.756801,-518.144159,-11103.089130,-459.657299
3138.757129,740.205942,-10436.903782,-1532.190996
3138.757456,1184.329507,-7624.121203,-2528.115143
3138.757784,148.041188,-9474.636058,-1149.143247
3138.758111,-1184.329507,-11103.089130,536.266849
3138.758439,-296.082377,-9992.780217,-689.485948
3138.758767,1850.514855,-9400.615463,-1991.848295
3138.759094,1924.535449,-9770.718434,-306.438199
3138.759422,1776.494261,-10584.944971,842.705048
3138.759749,1036.288319,-11325.150913,1532.190996
3138.760077,0.000000,-10658.965565,1302.362347
3138.760405,-1258.350101,-9104.533087,-766.095498
3138.760732,-1924.535449,-10214.842000,-1762.019645
3138.761060,-1036.288319,-11177.109724,-536.266849
3138.761387,370.102971,-9178.553681,-1378.971896
3138.761715,1110.308913,-9992.780217,-1378.971896
3138.762042,1036.288319,-10955.047942,306.438199
3138.762370,962.267725,-8882.471304,-383.047749
3138.762698,518.144159,-8068.244768,-919.314598
3138.763025,518.144159,-8660.409521,0.000000
3138.763353,814.226536,-7846.182985,459.657299
3138.763680,518.144159,-8660.409521,-306.438199
3138.764008,74.020594,-10362.883188,2145.067394
3138.764336,444.123565,-10214.842000,1838.629195
3138.764663,1258.350101,-11473.192101,919.314598
3138.764991,1850.514855,-12435.459826,842.705048
3138.765318,1332.370696,-8956.491898,-995.924147
3138.765646,1036.288319,-8438.347739,-2221.676944
3138.765974,-222.061783,-10807.006753,153.219100
3138.766301,-740.205942,-8438.347739,76.609550
3138.766629,-296.082377,-7105.977043,-1072.533697
3138.766956,-444.123565,-8660.409521,-919.314598
3138.767284,0.000000,-9474.636058,0.000000
3138.767611,0.000000,-8808.450710,-153.219100
3138.767939,296.082377,-10140.821405,229.828649
3138.768267,666.185348,-10510.924376,536.266849
3138.768594,1332.370696,-10436.903782,229.828649
3138.768922,1628.453072,-11843.295072,612.876398
3138.769249,814.226536,-10807.006753,612.876398
3138.769577,962.267725,-9474.636058,-1225.752797
3138.769905,444.123565,-11991.336260,-1608.800546
3138.770232,-148.041188,-10658.965565,-842.705048
3138.770560,-296.082377,-7476.080014,-2451.505594
3138.770887,222.061783,-8512.368333,-1915.238745
3138.771215,-370.102971,-9770.718434,0.000000
3138.771543,-296.082377,-9178.553681,-459.657299
3138.771870,-370.102971,-8956.491898,153.219100
3138.772198,-592.164754,-9474.636058,2374.896044
3138.772525,0.000000,-9030.512492,1302.362347
3138.772853,1184.329507,-10658.965565,459.657299
3138.773180,370.102971,-10955.047942,1532.190996
3138.773508,0.000000,-8956.491898,76.609550
3138.773836,-1406.391290,-10288.862594,-1838.629195
3138.774163,-1554.432478,-10658.965565,-2681.334243
3138.774491,-888.247130,-7994.224174,-3600.648841
3138.774818,0.000000,-8364.327145,-2604.724693
3138.775146,518.144159,-9918.759623,-383.047749
3138.775474,1554.432478,-9992.780217,1532.190996
3138.775801,2072.576638,-8882.471304,1455.581446
3138.776129,962.267725,-9252.574275,2451.505594
3138.776456,0.000000,-7772.162391,2068.457845
3138.776784,-444.123565,-8068.244768,536.266849
3138.777112,1110.308913,-10510.924376,0.000000
3138.777439,1184.329507,-10288.862594,76.609550
3138.777767,-444.123565,-10288.862594,-153.219100
3138.778094,-296.082377,-11769.274478,0.000000
3138.778422,592.164754,-10510.924376,-2145.067394
3138.778750,962.267725,-9696.697840,-3370.820191
3138.779077,296.082377,-9474.636058,-2068.457845
3138.779405,518.144159,-7476.080014,153.219100
3138.779732,1628.453072,-8586.388927,0.000000
3138.780060,1036.288319,-10214.842000,2298.286494
3138.780387,444.123565,-9030.512492,3370.820191
3138.780715,666.185348,-8586.388927,1915.238745
3138.781043,1554.432478,-11621.233289,689.485948
3138.781370,1628.453072,-12805.562797,0.000000
3138.781698,814.226536,-11325.150913,-1225.752797
3138.782025,444.123565,-10288.862594,-1762.019645
3138.782353,0.000000,-9030.512492,-1225.752797
3138.782681,-444.123565,-8660.409521,-1991.848295
3138.783008,-1480.411884,-10214.842000,-1532.190996
3138.783336,0.000000,-9770.718434,-766.095498
3138.783663,1776.494261,-8290.306550,-612.876398
3138.783991,2368.659014,-9474.636058,1838.629195
3138.784319,222.061783,-9474.636058,3370.820191
3138.784646,296.082377,-7920.203579,1915.238745
3138.784974,444.123565,-8216.285956,0.000000
3138.785301,296.082377,-11029.068536,-536.266849
3138.785629,0.000000,-10955.047942,-842.705048
3138.785956,-740.205942,-11029.068536,-536.266849
3138.786284,-296.082377,-10436.903782,-459.657299
3138.786612,222.061783,-9696.697840,-2451.505594
3138.786939,0.000000,-10066.800811,-1608.800546
3138.787267,740.205942,-9696.697840,383.047749
3138.787594,962.267725,-7476.080014,76.609550
3138.787922,0.000000,-7846.182985,306.438199
3138.788250,-1258.350101,-8364.327145,1608.800546
3138.788577,-592.164754,-5995.668130,689.485948
3138.788905,-370.102971,-7698.141797,919.314598
3138.789232,518.144159,-12287.418637,1532.190996
3138.789560,888.247130,-12731.542202,-383.047749
3138.789888,740.205942,-11991.336260,-2298.286494
3138.790215,296.082377,-12065.356855,-2221.676944
3138.790543,518.144159,-9844.739029,-1225.752797
3138.790870,0.000000,-8068.244768,-919.314598
3138.791198,-592.164754,-9696.697840,459.657299
3138.791525,-370.102971,-9400.615463,153.219100
3138.791853,0.000000,-8882.471304,-459.657299
3138.792181,-962.267725,-8660.409521,383.047749
3138.792508,-2146.597232,-7105.977043,1378.971896
3138.792836,-1110.308913,-7254.018232,383.047749
3138.793163,740.205942,-10732.986159,-689.485948
3138.793491,1776.494261,-11621.233289,0.000000
3138.793819,1998.556043,-11621.233289,-1149.143247
3138.794146,962.267725,-12287.418637,0.000000
3138.794474,740.205942,-10510.924376,306.438199
3138.794801,888.247130,-9474.636058,-1072.533697
3138.795129,888.247130,-10732.986159,-995.924147
3138.795457,370.102971,-9474.636058,0.000000
3138.795784,1184.329507,-8068.244768,-1072.533697
3138.796112,370.102971,-8734.430116,0.000000
3138.796439,-888.247130,-7994.224174,1455.581446
3138.796767,-888.247130,-7476.080014,766.095498
3138.797094,-296.082377,-8882.471304,229.828649
3138.797422,1036.288319,-10955.047942,76.609550
3138.797750,2738.761985,-9992.780217,-1072.533697
3138.798077,1998.556043,-10732.986159,-612.876398
3138.798405,0.000000,-10807.006753,1991.848295
3138.798732,-962.267725,-9252.574275,-919.314598
3138.799060,-370.102971,-10732.986159,-2757.943793
3138.799388,740.205942,-10140.821405,-3064.381992
3138.799715,1406.391290,-9104.533087,-1762.019645
3138.800043,1110.308913,-10732.986159,1225.752797
3138.800370,1480.411884,-11325.150913,2298.286494
3138.800698,222.061783,-8364.327145,536.266849
3138.801026,-518.144159,-8290.306550,-1149.143247
3138.801353,-296.082377,-10288.862594,-995.924147
3138.801681,518.144159,-9770.718434,-612.876398
3138.802008,370.102971,-8734.430116,-229.828649
3138.802336,-148.041188,-10066.800811,1838.629195
3138.802664,1110.308913,-9030.512492,1685.410096
3138.802991,1850.514855,-9252.574275,612.876398
3138.803319,1258.350101,-11621.233289,383.047749
3138.803646,1036.288319,-11103.089130,-766.095498
3138.803974,666.185348,-8586.388927,-1991.848295
3138.804301,-1036.288319,-8364.327145,-1532.190996
3138.804629,-1554.432478,-7698.141797,536.266849
3138.804957,-592.164754,-7772.162391,995.924147
3138.805284,518.144159,-10584.944971,1608.800546
3138.805612,1258.350101,-11473.192101,1532.190996
3138.805939,1406.391290,-10066.800811,-536.266849
3138.806267,814.226536,-10436.903782,76.609550
3138.806595,148.041188,-8882.471304,-536.266849
3138.806922,74.020594,-8364.327145,-76.609550
3138.807250,74.020594,-9400.615463,0.000000
3138.807577,0.000000,-9178.553681,-229.828649
3138.807905,-1184.329507,-9474.636058,-1072.533697
3138.808233,-1036.288319,-10807.006753,-612.876398
3138.808560,-518.144159,-10362.883188,-153.219100
3138.808888,0.000000,-8734.430116,-306.438199
3138.809215,0.000000,-10658.965565,0.000000
3138.809543,888.247130,-11399.171507,536.266849
3138.809870,1924.535449,-9030.512492,-1149.143247
3138.810198,962.267725,-9178.553681,-229.828649
3138.810526,-518.144159,-10436.903782,766.095498
3138.810853,-1184.329507,-9474.636058,-536.266849
3138.811181,-1036.288319,-10436.903782,-1762.019645
3138.811508,222.061783,-11547.212695,-842.705048
3138.811836,962.267725,-10510.924376,-1608.800546
3138.812164,740.205942,-9844.739029,-1225.752797
3138.812491,0.000000,-10288.862594,766.095498
3138.812819,518.144159,-9030.512492,383.047749
3138.813146,518.144159,-8586.388927,-612.876398
3138.813474,592.164754,-9844.739029,76.609550
3138.813802,1332.370696,-9252.574275,229.828649
3138.814129,962.267725,-8956.491898,76.609550
3138.814457,0.000000,-11103.089130,1608.800546
3138.814784,0.000000,-9770.718434,0.000000
3138.815112,518.144159,-9030.512492,-1915.238745
3138.815439,1036.288319,-10436.903782,-1072.533697
3138.815767,888.247130,-9474.636058,-229.828649
3138.816095,0.000000,-8438.347739,612.876398
3138.816422,-444.123565,-9696.697840,1378.971896
3138.816750,-666.185348,-9474.636058,1455.581446
3138.817077,0.000000,-8364.327145,76.609550
3138.817405,222.061783,-9252.574275,76.609550
3138.817733,444.123565,-9178.553681,0.000000
3138.818060,1184.329507,-9178.553681,-1072.533697
3138.818388,518.144159,-10362.883188,-383.047749
3138.818715,222.061783,-10140.821405,536.266849
3138.819043,1036.288319,-8660.409521,-689.485948
3138.819371,1184.329507,-9918.759623,-306.438199
3138.819698,1184.329507,-11325.150913,0.000000
3138.820026,888.247130,-10584.944971,0.000000
3138.820353,148.041188,-10807.006753,0.000000
3138.820681,-666.185348,-9696.697840,536.266849
3138.821008,-370.102971,-7994.224174,-766.095498
3138.821336,370.102971,-9474.636058,-842.705048
3138.821664,962.267725,-10807.006753,0.000000
3138.821991,1406.391290,-9696.697840,-919.314598
3138.822319,296.082377,-10510.924376,-612.876398
3138.822646,0.000000,-10955.047942,76.609550
3138.822974,888.247130,-9252.574275,-1991.848295
3138.823302,-592.164754,-8882.471304,-689.485948
3138.823629,-370.102971,-11177.109724,536.266849
3138.823957,-888.247130,-10510.924376,-383.047749
3138.824284,-666.185348,-10584.944971,-1378.971896
3138.824612,222.061783,-10807.006753,-995.924147
3138.824940,666.185348,-9178.553681,-306.438199
3138.825267,222.061783,-9400.615463,1149.143247
3138.825595,888.247130,-9918.759623,1149.143247
3138.825922,1184.329507,-9326.594869,-536.266849
3138.826250,296.082377,-9104.533087,-1608.800546
3138.826578,-814.226536,-9474.636058,-383.047749
3138.826905,-1628.453072,-7550.100608,459.657299
3138.827233,-962.267725,-6661.853478,0.000000
3138.827560,-888.247130,-9400.615463,306.438199
3138.827888,888.247130,-9844.739029,919.314598
3138.828216,1776.494261,-9918.759623,612.876398
3138.828543,1776.494261,-11177.109724,1991.848295
3138.828871,962.267725,-9474.636058,1762.019645
3138.829199,222.061783,-7402.059420,-612.876398
3138.829526,-592.164754,-8808.450710,-842.705048
3138.829854,-296.082377,-9844.739029,-2298.286494
3138.830182,-296.082377,-8882.471304,-1608.800546
3138.830509,814.226536,-10955.047942,-383.047749
3138.830837,518.144159,-10584.944971,76.609550
3138.831165,370.102971,-9696.697840,-689.485948
3138.831492,666.185348,-10066.800811,0.000000
3138.831820,2368.659014,-9844.739029,766.095498
3138.832148,1258.350101,-8734.430116,-536.266849
3138.832475,-222.061783,-9326.594869,229.828649
3138.832803,-1702.473667,-11103.089130,1149.143247
3138.833131,-592.164754,-9696.697840,-766.095498
3138.833458,1110.308913,-11103.089130,-1225.752797
3138.833786,1628.453072,-12435.459826,-459.657299
3138.834114,1702.473667,-11251.130318,-919.314598
3138.834441,518.144159,-11251.130318,-1149.143247
3138.834769,518.144159,-9326.594869,-1378.971896
3138.835097,-370.102971,-7031.956449,-1915.238745
3138.835424,-1480.411884,-7698.141797,-459.657299
3138.835752,-962.267725,-9770.718434,1302.362347
3138.836080,74.020594,-10066.800811,1302.362347
3138.836407,1332.370696,-10436.903782,459.657299
3138.836735,740.205942,-11103.089130,1455.581446
3138.837063,148.041188,-9178.553681,536.266849
3138.837390,0.000000,-7846.182985,-689.485948
3138.837718,222.061783,-10066.800811,-459.657299
3138.838046,1702.473667,-9326.594869,-1915.238745
3138.838373,814.226536,-9474.636058,-1838.629195
3138.838701,0.000000,-10066.800811,1072.533697
3138.839029,222.061783,-8364.327145,1302.362347
3138.839356,666.185348,-9252.574275,76.609550
3138.839684,370.102971,-10436.903782,-383.047749
3138.840012,-518.144159,-8808.450710,-612.876398
3138.840339,-888.247130,-8216.285956,-612.876398
3138.840667,740.205942,-9474.636058,612.876398
3138.840995,1332.370696,-9326.594869,1455.581446
3138.841322,222.061783,-8734.430116,689.485948
3138.841650,666.185348,-10732.986159,229.828649
3138.841978,1628.453072,-11843.295072,-383.047749
3138.842305,1554.432478,-10436.903782,-2068.457845
3138.842633,-666.185348,-10584.944971,-1532.190996
3138.842961,-1628.453072,-9474.636058,-766.095498
3138.843288,148.041188,-9252.574275,-2145.067394
3138.843616,296.082377,-9918.759623,-1302.362347
3138.843944,222.061783,-9104.533087,1762.019645
3138.844271,74.020594,-9104.533087,1378.971896
3138.844599,592.164754,-9918.759623,1225.752797
3138.844927,148.041188,-10658.965565,842.705048
3138.845254,-962.267725,-9178.553681,0.000000
3138.845582,74.020594,-9992.780217,-383.047749
3138.845910,1184.329507,-11325.150913,-842.705048
3138.846237,2146.597232,-10362.883188,-1378.971896
3138.846565,1110.308913,-11177.109724,-919.314598
3138.846893,666.185348,-10214.842000,0.000000
3138.847220,518.144159,-7994.224174,-229.828649
3138.847548,444.123565,-8512.368333,0.000000
3138.847876,814.226536,-8882.471304,153.219100
3138.848203,-1110.308913,-7254.018232,919.314598
3138.848531,-2516.700203,-8882.471304,1225.752797
3138.848859,-2960.823768,-9844.739029,536.266849
3138.849186,-2442.679609,-8438.347739,-1378.971896
3138.849514,-296.082377,-8808.450710,-2068.457845
3138.849842,1628.453072,-12435.459826,0.000000
3138.850169,3627.009116,-12953.603985,612.876398
3138.850497,3552.988522,-11103.089130,-383.047749
3138.850825,1998.556043,-10732.986159,-459.657299
3138.851152,740.205942,-8068.244768,-1149.143247
3138.851480,-1110.308913,-7846.182985,-1302.362347
3138.851808,-1332.370696,-9548.656652,-383.047749
3138.852135,-962.267725,-8142.265362,-536.266849
3138.852463,-1258.350101,-7772.162391,-153.219100
3138.852791,0.000000,-10066.800811,1838.629195
3138.853118,296.082377,-9548.656652,1685.410096
3138.853446,74.020594,-9252.574275,229.828649
3138.853774,1628.453072,-11843.295072,-306.438199
3138.854101,2220.617826,-10807.006753,-1762.019645
3138.854429,1258.350101,-9252.574275,-1991.848295
3138.854757,444.123565,-10288.862594,-612.876398
3138.855084,518.144159,-9770.718434,459.657299
3138.855412,888.247130,-10362.883188,0.000000
3138.855740,518.144159,-10362.883188,-229.828649
3138.856067,148.041188,-9400.615463,-842.705048
3138.856395,444.123565,-8586.388927,-995.924147
3138.856723,0.000000,-9770.718434,1072.533697
3138.857050,0.000000,-7994.224174,2145.067394
3138.857378,-222.061783,-6365.771101,229.828649
3138.857706,-666.185348,-9104.533087,1149.143247
3138.858033,-148.041188,-11843.295072,919.314598
3138.858361,148.041188,-10807.006753,-1455.581446
3138.858689,814.226536,-10288.862594,-1991.848295
3138.859016,2146.597232,-10362.883188,-1225.752797
3138.859344,1036.288319,-9326.594869,-459.657299
3138.859672,592.164754,-10510.924376,0.000000
3138.859999,518.144159,-9474.636058,0.000000
3138.860327,-296.082377,-6809.894666,-1685.410096
3138.860655,-1332.370696,-9400.615463,-842.705048
3138.860982,-1998.556043,-11325.150913,1762.019645
3138.861310,-1480.411884,-7846.182985,842.705048
3138.861638,-222.061783,-8660.409521,0.000000
3138.861965,1924.535449,-12583.501014,536.266849
3138.862293,2812.782580,-10807.006753,0.000000
3138.862621,1776.494261,-8956.491898,-689.485948
3138.862948,296.082377,-10214.842000,-306.438199
3138.863276,-296.082377,-9992.780217,-1378.971896
3138.863604,-148.041188,-9252.574275,-2757.943793
3138.863931,-222.061783,-10288.862594,-1149.143247
3138.864259,74.020594,-9622.677246,-306.438199
3138.864587,148.041188,-9696.697840,-536.266849
3138.864914,-444.123565,-11547.212695,689.485948
3138.865242,-592.164754,-10807.006753,0.000000
3138.865570,0.000000,-8438.347739,-383.047749
3138.865897,1110.308913,-9178.553681,153.219100
3138.866225,962.267725,-9400.615463,1991.848295
3138.866553,1554.432478,-8512.368333,766.095498
3138.866880,1332.370696,-10066.800811,383.047749
3138.867208,74.020594,-10066.800811,689.485948
3138.867536,0.000000,-8882.471304,-995.924147
3138.867863,296.082377,-9178.553681,-1991.848295
3138.868191,296.082377,-9104.533087,-1302.362347
3138.868519,444.123565,-8808.450710,-536.266849
3138.868846,518.144159,-10436.903782,842.705048
3138.869174,518.144159,-9474.636058,2604.724693
3138.869502,0.000000,-7698.141797,1532.190996
3138.869829,370.102971,-8956.491898,842.705048
3138.870157,0.000000,-9400.615463,459.657299
3138.870485,-518.144159,-8734.430116,-459.657299
3138.870812,-222.061783,-9844.739029,-842.705048
3138.871140,370.102971,-10584.944971,-919.314598
3138.871468,962.267725,-9548.656652,-1685.410096
3138.871795,1258.350101,-10658.965565,-1072.533697
3138.872123,1036.288319,-11029.068536,-383.047749
3138.872451,592.164754,-9770.718434,-919.314598
3138.872778,444.123565,-10214.842000,-612.876398
3138.873106,666.185348,-9992.780217,0.000000
3138.873434,592.164754,-8290.306550,766.095498
3138.873761,0.000000,-8660.409521,1378.971896
3138.874089,814.226536,-10584.944971,1685.410096
3138.874417,740.205942,-9992.780217,995.924147
3138.874744,-444.123565,-10436.903782,-459.657299
3138.875072,-1850.514855,-11769.274478,-1532.190996
3138.875400,-1480.411884,-9474.636058,-3677.258390
3138.875727,-1110.308913,-9252.574275,-4749.792088
3138.876055,222.061783,-11473.192101,-2451.505594
3138.876383,1480.411884,-11103.089130,0.000000
3138.876710,2664.741391,-10955.047942,842.705048
3138.877038,1702.473667,-11251.130318,2221.676944
3138.877366,962.267725,-8216.285956,1532.190996
3138.877693,0.000000,-6439.791695,229.828649
3138.878021,-518.144159,-8438.347739,689.485948
3138.878349,-592.164754,-8734.430116,459.657299
3138.878676,-666.185348,-8734.430116,-459.657299
3138.879004,-518.144159,-10584.944971,-383.047749
3138.879332,222.061783,-10584.944971,-842.705048
3138.879659,222.061783,-8882.471304,-1991.848295
3138.879987,222.061783,-9622.677246,-1455.581446
3138.880315,962.267725,-9844.739029,-1149.143247
3138.880642,0.000000,-8438.347739,-919.314598
3138.880970,-296.082377,-9400.615463,919.314598
3138.881297,370.102971,-8586.388927,2604.724693
3138.881625,666.185348,-7624.121203,2374.896044
3138.881953,1480.411884,-10288.862594,1378.971896
3138.882280,1258.350101,-12361.439231,1302.362347
3138.882608,1036.288319,-10214.842000,-1072.533697
3138.882936,-592.164754,-9400.615463,-2221.676944
3138.883263,-888.247130,-10362.883188,-919.314598
3138.883591,-444.123565,-8586.388927,-919.314598
3138.883919,-1184.329507,-8068.244768,-536.266849
3138.884246,-1036.288319,-10658.965565,229.828649
3138.884574,0.000000,-11251.130318,-536.266849
3138.884902,296.082377,-9474.636058,-1225.752797
3138.885229,1332.370696,-8956.491898,153.219100
3138.885557,814.226536,-8808.450710,76.609550
3138.885885,666.185348,-10066.800811,766.095498
3138.886212,1406.391290,-11695.253884,1149.143247
3138.886540,1332.370696,-10658.965565,-383.047749
3138.886868,0.000000,-10732.986159,-1302.362347
3138.887195,-518.144159,-11177.109724,-1378.971896
3138.887523,-666.185348,-9326.594869,-1378.971896
3138.887851,-444.123565,-8438.347739,-1991.848295
3138.888178,666.185348,-9696.697840,-1838.629195
3138.888506,1628.453072,-9992.780217,-306.438199
3138.888834,1110.308913,-9474.636058,153.219100
3138.889161,518.144159,-9770.718434,1149.143247
3138.889489,-370.102971,-7105.977043,306.438199
3138.889817,-740.205942,-7105.977043,-689.485948
3138.890144,444.123565,-11029.068536,0.000000
3138.890472,1406.391290,-11843.295072,0.000000
3138.890800,1702.473667,-11473.192101,-229.828649
3138.891127,1110.308913,-12139.377449,306.438199
3138.891455,888.247130,-10881.027347,-842.705048
3138.891783,666.185348,-7624.121203,-1838.629195
3138.892110,444.123565,-8438.347739,-766.095498
3138.892438,0.000000,-9178.553681,-153.219100
3138.892766,-444.123565,-8586.388927,0.000000
3138.893093,-444.123565,-8882.471304,919.314598
3138.893421,0.000000,-8068.244768,919.314598
3138.893749,-888.247130,-7772.162391,1225.752797
3138.894076,592.164754,-10807.006753,-306.438199
3138.894404,2294.638420,-11251.130318,-383.047749
3138.894732,2368.659014,-9474.636058,-995.924147
3138.895059,1406.391290,-10881.027347,0.000000
3138.895387,0.000000,-10955.047942,1378.971896
3138.895715,-592.164754,-9400.615463,459.657299
3138.896042,-592.164754,-9474.636058,-919.314598
3138.896370,-740.205942,-9696.697840,-1838.629195
3138.896698,-592.164754,-8956.491898,-1762.019645
3138.897025,-148.041188,-9104.533087,-689.485948
3138.897353,74.020594,-9696.697840,76.609550
3138.897681,444.123565,-8438.347739,76.609550
3138.898008,74.020594,-8956.491898,0.000000
3138.898336,888.247130,-11473.192101,306.438199
3138.898664,1924.535449,-9844.739029,-612.876398
3138.898991,1110.308913,-9474.636058,842.705048
3138.899319,1406.391290,-11029.068536,766.095498
3138.899647,888.247130,-9104.533087,76.609550
3138.899974,-814.226536,-9400.615463,-383.047749
3138.900302,-962.267725,-11621.233289,-766.095498
3138.900630,-1184.329507,-10362.883188,-2528.115143
3138.900957,-444.123565,-8586.388927,-4443.353888
3138.901285,-518.144159,-9992.780217,-1762.019645
3138.901613,-222.061783,-9992.780217,689.485948
3138.901940,740.205942,-8956.491898,1532.190996
3138.902268,2146.597232,-10955.047942,1455.581446
3138.902596,3256.906145,-11251.130318,766.095498
3138.902923,2368.659014,-10510.924376,0.000000
3138.903251,1406.391290,-10584.944971,919.314598
3138.903579,296.082377,-7105.977043,1072.533697
3138.903906,-1258.350101,-6513.812290,0.000000
3138.904234,-1702.473667,-9918.759623,76.609550
3138.904562,-814.226536,-10214.842000,-229.828649
3138.904889,-1110.308913,-8734.430116,-1608.800546
3138.905217,-666.185348,-8956.491898,-1225.752797
3138.905545,-740.205942,-8808.450710,-919.314598
3138.905872,-2146.597232,-7550.100608,0.000000
3138.906200,444.123565,-9104.533087,306.438199
3138.906528,1702.473667,-10510.924376,1532.190996
3138.906855,2516.700203,-10214.842000,1072.533697
3138.907183,1850.514855,-10807.006753,1685.410096
3138.907511,814.226536,-10881.027347,1302.362347
3138.907838,444.123565,-9178.553681,76.609550
3138.908166,444.123565,-9918.759623,-766.095498
3138.908494,0.000000,-8660.409521,-919.314598
3138.908821,0.000000,-6735.874072,-1838.629195
3138.909149,-1628.453072,-8882.471304,-1378.971896
3138.909477,-2368.659014,-11621.233289,0.000000
3138.909804,-962.267725,-9992.780217,-612.876398
3138.910132,814.226536,-9696.697840,-1225.752797
3138.910460,2442.679609,-11547.212695,76.609550
3138.910787,2738.761985,-11103.089130,919.314598
3138.911115,2072.576638,-10510.924376,919.314598
3138.911443,2072.576638,-10881.027347,0.000000
3138.911770,148.041188,-9622.677246,-612.876398
3138.912098,-1702.473667,-8808.450710,-1072.533697
3138.912426,-1924.535449,-10288.862594,-995.924147
3138.912753,-1628.453072,-10214.842000,-612.876398
3138.913081,-1258.350101,-9030.512492,-1762.019645
3138.913409,-518.144159,-10658.965565,0.000000
3138.913736,74.020594,-9474.636058,919.314598
3138.914064,1110.308913,-7994.224174,0.000000
3138.914392,1110.308913,-9178.553681,919.314598
3138.914719,1184.329507,-9474.636058,76.609550
3138.915047,444.123565,-8438.347739,383.047749
3138.915375,1110.308913,-10881.027347,76.609550
3138.915702,0.000000,-10214.842000,1149.143247
3138.916030,-296.082377,-9770.718434,76.609550
3138.916358,592.164754,-11399.171507,-1149.143247
3138.916685,666.185348,-10881.027347,-2298.286494
3138.917013,-296.082377,-8660.409521,-2145.067394
3138.917341,-296.082377,-8216.285956,0.000000
3138.917668,-148.041188,-8586.388927,689.485948
3138.917996,0.000000,-8512.368333,612.876398
3138.918324,814.226536,-9326.594869,995.924147
3138.918651,1924.535449,-9474.636058,1149.143247
3138.918979,2146.597232,-8956.491898,306.438199
3138.919307,1554.432478,-10955.047942,612.876398
3138.919634,962.267725,-11103.089130,229.828649
3138.919962,1554.432478,-8956.491898,-1455.581446
3138.920290,1406.391290,-10214.842000,-1455.581446
3138.920617,1036.288319,-11473.192101,0.000000
3138.920945,0.000000,-9992.780217,0.000000
3138.921273,-1258.350101,-11547.212695,0.000000
3138.921600,-1184.329507,-10510.924376,153.219100
3138.921928,-814.226536,-7994.224174,-1302.362347
3138.922256,-1036.288319,-8142.265362,-2145.067394
3138.922583,518.144159,-9992.780217,-612.876398
3138.922911,888.247130,-9400.615463,76.609550
3138.923239,1480.411884,-10140.821405,459.657299
3138.923566,1480.411884,-10955.047942,766.095498
3138.923894,518.144159,-9844.739029,0.000000
3138.924222,-592.164754,-8882.471304,-383.047749
3138.924549,0.000000,-9696.697840,-536.266849
3138.924877,962.267725,-9696.697840,-842.705048
3138.925205,888.247130,-9622.677246,-229.828649
3138.925532,-518.144159,-9844.739029,1302.362347
3138.925860,-1184.329507,-8438.347739,612.876398
3138.926188,-370.102971,-8586.388927,-1378.971896
3138.926515,0.000000,-10584.944971,-2145.067394
3138.926843,518.144159,-9252.574275,-2298.286494
3138.927171,222.061783,-10066.800811,-1072.533697
3138.927498,740.205942,-12065.356855,1302.362347
3138.927826,1480.411884,-9844.739029,459.657299
3138.928154,666.185348,-9104.533087,-536.266849
3138.928481,814.226536,-10288.862594,306.438199
3138.928809,666.185348,-9844.739029,76.609550
3138.929137,222.061783,-7846.182985,229.828649
3138.929464,-1258.350101,-9252.574275,536.266849
3138.929792,-1480.411884,-9178.553681,536.266849
3138.930119,-888.247130,-7846.182985,-383.047749
3138.930447,962.267725,-10140.821405,459.657299
3138.930775,1554.432478,-11473.192101,-766.095498
3138.931102,1184.329507,-9622.677246,-1838.629195
3138.931430,518.144159,-9326.594869,-919.314598
3138.931758,518.144159,-9844.739029,0.000000
3138.932085,666.185348,-9104.533087,536.266849
3138.932413,666.185348,-10140.821405,1991.848295
3138.932740,740.205942,-9770.718434,2145.067394
3138.933068,1258.350101,-9548.656652,766.095498
3138.933396,518.144159,-9918.759623,-229.828649
3138.933723,0.000000,-9474.636058,459.657299
3138.934051,-1258.350101,-6069.688724,0.000000
3138.934379,-1036.288319,-6143.709319,-919.314598
3138.934706,-666.185348,-10362.883188,-842.705048
3138.935034,-518.144159,-11547.212695,-1149.143247
3138.935361,0.000000,-10732.986159,-1532.190996
3138.935689,1628.453072,-10955.047942,-766.095498
3138.936017,1406.391290,-9548.656652,-383.047749
3138.936344,740.205942,-10510.924376,459.657299
3138.936672,592.164754,-10881.027347,383.047749
3138.937000,814.226536,-9252.574275,-612.876398
3138.937327,296.082377,-9844.739029,-995.924147
3138.937655,-370.102971,-10288.862594,612.876398
3138.937982,-1480.411884,-8364.327145,153.219100
3138.938310,-666.185348,-8364.327145,-612.876398
3138.938638,1628.453072,-11621.233289,-1225.752797
3138.938965,1998.556043,-11917.315666,-1225.752797
3138.939293,1332.370696,-9992.780217,-1149.143247
3138.939621,814.226536,-9696.697840,-229.828649
3138.939948,222.061783,-8808.450710,-766.095498
3138.940276,-444.123565,-9400.615463,-459.657299
3138.940604,-148.041188,-10362.883188,612.876398
3138.940931,740.205942,-9326.594869,842.705048
3138.941259,148.041188,-9400.615463,612.876398
3138.941586,0.000000,-10732.986159,995.924147
3138.941914,-592.164754,-10214.842000,383.047749
3138.942242,-1110.308913,-7698.141797,-766.095498
3138.942569,444.123565,-8660.409521,-1991.848295
3138.942897,1776.494261,-10658.965565,-1302.362347
3138.943225,1702.473667,-9770.718434,-459.657299
3138.943552,1036.288319,-9770.718434,612.876398
3138.943880,1258.350101,-8882.471304,612.876398
3138.944207,666.185348,-9178.553681,229.828649
3138.944535,1036.288319,-10362.883188,0.000000
3138.944863,888.247130,-9030.512492,0.000000
3138.945190,0.000000,-7920.203579,229.828649
3138.945518,-888.247130,-9474.636058,842.705048
3138.945846,-1332.370696,-9548.656652,1302.362347
3138.946173,-1998.556043,-8290.306550,536.266849
3138.946501,-2072.576638,-9104.533087,-995.924147
3138.946828,-1110.308913,-11695.253884,-2145.067394
3138.947156,888.247130,-10510.924376,-1915.238745
3138.947484,962.267725,-9474.636058,-2298.286494
3138.947811,1332.370696,-10955.047942,-229.828649
3138.948139,1702.473667,-9474.636058,76.609550
3138.948467,1332.370696,-9770.718434,76.609550
3138.948794,962.267725,-10510.924376,229.828649
3138.949122,1110.308913,-9030.512492,306.438199
3138.949449,0.000000,-9474.636058,995.924147
3138.949777,0.000000,-10658.965565,995.924147
3138.950105,-444.123565,-8586.388927,689.485948
3138.950432,-370.102971,-7772.162391,-536.266849
3138.950760,444.123565,-11325.150913,-536.266849
3138.951088,592.164754,-12435.459826,-1225.752797
3138.951415,222.061783,-10955.047942,-2451.505594
3138.951743,1036.288319,-10362.883188,-2757.943793
3138.952071,592.164754,-9844.739029,-2068.457845
3138.952398,444.123565,-9844.739029,-995.924147
3138.952726,666.185348,-10807.006753,1149.143247
3138.953053,1850.514855,-9696.697840,1532.190996
3138.953381,1924.535449,-9622.677246,995.924147
3138.953709,962.267725,-10214.842000,1225.752797
3138.954036,-814.226536,-8438.347739,1915.238745
3138.954364,-1258.350101,-6365.771101,1915.238745
3138.954692,-148.041188,-8512.368333,153.219100
3138.955019,518.144159,-10658.965565,-689.485948
3138.955347,0.000000,-9252.574275,-995.924147
3138.955674,518.144159,-9696.697840,-536.266849
3138.956002,1628.453072,-10955.047942,-612.876398
3138.956330,1628.453072,-9104.533087,-1685.410096
3138.956657,0.000000,-7994.224174,76.609550
3138.956985,-222.061783,-7772.162391,612.876398
3138.957313,-444.123565,-8956.491898,689.485948
3138.957640,-222.061783,-10732.986159,1685.410096
3138.957968,-370.102971,-10214.842000,1838.629195
3138.958295,-592.164754,-8734.430116,842.705048
3138.958623,222.061783,-10140.821405,153.219100
3138.958951,1554.432478,-11843.295072,153.219100
3138.959278,1406.391290,-9104.533087,-1149.143247
3138.959606,592.164754,-7254.018232,-1378.971896
3138.959934,-962.267725,-9770.718434,-995.924147
3138.960261,-1332.370696,-9326.594869,-1302.362347
3138.960589,-666.185348,-9474.636058,-1838.629195
3138.960916,148.041188,-10362.883188,-1532.190996
3138.961244,1406.391290,-8882.471304,76.609550
3138.961572,370.102971,-10658.965565,689.485948
3138.961899,-148.041188,-12139.377449,1455.581446
3138.962227,296.082377,-10807.006753,459.657299
3138.962555,0.000000,-9474.636058,-459.657299
3138.962882,370.102971,-10807.006753,-306.438199
3138.963210,0.000000,-11029.068536,0.000000
3138.963538,0.000000,-9770.718434,-306.438199
3138.963865,296.082377,-9770.718434,-842.705048
3138.964193,518.144159,-9400.615463,-1762.019645
3138.964520,148.041188,-9326.594869,-2068.457845
3138.964848,-592.164754,-9474.636058,-536.266849
3138.965176,-740.205942,-7624.121203,153.219100
3138.965503,0.000000,-9400.615463,306.438199
3138.965831,148.041188,-11177.109724,919.314598
3138.966159,0.000000,-9696.697840,1838.629195
3138.966486,0.000000,-8290.306550,1608.800546
3138.966814,962.267725,-10807.006753,1225.752797
3138.967141,2220.617826,-12657.521608,0.000000
3138.967469,1480.411884,-9622.677246,-1685.410096
3138.967797,0.000000,-8142.265362,-1302.362347
3138.968124,518.144159,-8808.450710,-383.047749
3138.968452,0.000000,-9030.512492,-1455.581446
3138.968780,-592.164754,-8438.347739,-842.705048
3138.969107,444.123565,-8734.430116,-459.657299
3138.969435,1184.329507,-8956.491898,-306.438199
3138.969762,1258.350101,-11325.150913,1302.362347
3138.970090,1480.411884,-10288.862594,2451.505594
3138.970418,222.061783,-7254.018232,842.705048
3138.970745,740.205942,-9326.594869,919.314598
3138.971073,814.226536,-11325.150913,536.266849
3138.971401,-296.082377,-10955.047942,383.047749
3138.971728,-666.185348,-9844.739029,-1225.752797
3138.972056,0.000000,-11769.274478,-3753.867940
3138.972383,-1036.288319,-9622.677246,-3983.696590
3138.972711,-1258.350101,-8586.388927,-2911.162892
3138.973039,-740.205942,-8808.450710,-1532.190996
3138.973366,1184.329507,-9252.574275,-536.266849
3138.973694,1480.411884,-10732.986159,842.705048
3138.974022,1036.288319,-10881.027347,2221.676944
3138.974349,1110.308913,-7772.162391,2681.334243
3138.974677,296.082377,-9178.553681,2145.067394
3138.975004,1776.494261,-10955.047942,1378.971896
3138.975332,1480.411884,-9992.780217,-306.438199
3138.975660,0.000000,-8734.430116,-1685.410096
3138.975987,-444.123565,-10807.006753,-1302.362347
3138.976315,0.000000,-10510.924376,-2221.676944
3138.976643,222.061783,-8290.306550,-2451.505594
3138.976970,0.000000,-9326.594869,-536.266849
3138.977298,-518.144159,-9104.533087,459.657299
3138.977626,-962.267725,-9622.677246,-306.438199
3138.977953,-370.102971,-9696.697840,0.000000
3138.978281,962.267725,-7550.100608,-612.876398
3138.978608,962.267725,-8142.265362,919.314598
3138.978936,1702.473667,-11917.315666,3140.991542
3138.979264,3627.009116,-12731.542202,1915.238745
3138.979591,3108.864956,-10510.924376,-306.438199
3138.979919,1036.288319,-10436.903782,-1455.581446
3138.980247,-962.267725,-10288.862594,-2145.067394
3138.980574,-1776.494261,-7994.224174,-2987.772442
3138.980902,-1924.535449,-8216.285956,-2451.505594
3138.981229,-1036.288319,-8586.388927,-2145.067394
3138.981557,-1036.288319,-8068.244768,-229.828649
3138.981885,148.041188,-9474.636058,1072.533697
3138.982212,1258.350101,-9474.636058,2298.286494
3138.982540,740.205942,-8734.430116,2145.067394
3138.982868,0.000000,-9252.574275,1225.752797
3138.983195,1184.329507,-11103.089130,229.828649
3138.983523,1332.370696,-10362.883188,-459.657299
3138.983850,370.102971,-10140.821405,153.219100
3138.984178,518.144159,-11843.295072,536.266849
3138.984506,0.000000,-9474.636058,-1608.800546
3138.984833,0.000000,-9104.533087,-3064.381992
3138.985161,-592.164754,-9992.780217,-1915.238745
3138.985489,-444.123565,-8290.306550,-536.266849
3138.985816,-1110.308913,-8586.388927,919.314598
3138.986144,-962.267725,-7846.182985,1608.800546
3138.986471,-666.185348,-6735.874072,1455.581446
3138.986799,-592.164754,-7772.162391,1685.410096
3138.987127,444.123565,-10436.903782,1302.362347
3138.987454,1332.370696,-12731.542202,-536.266849
3138.987782,1480.411884,-12879.583391,-2068.457845
3138.988110,1924.535449,-12361.439231,-1608.800546
3138.988437,1036.288319,-10362.883188,-1608.800546
3138.988765,592.164754,-9326.594869,-459.657299
3138.989093,814.226536,-10140.821405,-536.266849
3138.989420,1036.288319,-9474.636058,-1149.143247
3138.989748,0.000000,-8956.491898,-842.705048
3138.990075,-1776.494261,-7994.224174,536.266849
3138.990403,-2812.782580,-6217.729913,459.657299
3138.990731,-1998.556043,-7994.224174,919.314598
3138.991058,-74.020594,-11621.233289,919.314598
3138.991386,1184.329507,-11769.274478,0.000000
3138.991714,1628.453072,-11769.274478,-459.657299
3138.992041,2812.782580,-11843.295072,-383.047749
3138.992369,2664.741391,-11621.233289,-383.047749
3138.992696,1628.453072,-9400.615463,-459.657299
3138.993024,-148.041188,-8882.471304,-76.609550
3138.993352,-518.144159,-8808.450710,-995.924147
3138.993679,-666.185348,-9104.533087,-1225.752797
3138.994007,-592.164754,-10214.842000,0.000000
3138.994335,-222.061783,-7772.162391,536.266849
3138.994662,-740.205942,-6513.812290,229.828649
3138.994990,0.000000,-9474.636058,459.657299
3138.995317,2738.761985,-11695.253884,76.609550
3138.995645,2368.659014,-9252.574275,0.000000
3138.995973,1998.556043,-9252.574275,1915.238745
3138.996300,1036.288319,-10732.986159,2451.505594
3138.996628,222.061783,-10362.883188,689.485948
3138.996956,-222.061783,-9178.553681,-1149.143247
3138.997283,0.000000,-10436.903782,-2374.896044
3138.997611,-592.164754,-8142.265362,-2221.676944
3138.997938,-814.226536,-8956.491898,-1072.533697
3138.998266,-814.226536,-9474.636058,-536.266849
3138.998594,0.000000,-9104.533087,-229.828649
3138.998921,444.123565,-9696.697840,612.876398
3138.999249,2368.659014,-11695.253884,1149.143247
3138.999577,2812.782580,-10510.924376,689.485948
3138.999904,2072.576638,-10066.800811,689.485948
3139.000232,1184.329507,-10658.965565,1532.190996
3139.000560,666.185348,-9178.553681,-306.438199
3139.000887,0.000000,-8216.285956,-1532.190996
3139.001215,0.000000,-10362.883188,-1072.533697
3139.001542,-370.102971,-9918.759623,-995.924147
3139.001870,-296.082377,-10066.800811,-1532.190996
3139.002198,-1998.556043,-10510.924376,-1072.533697
3139.002525,-1554.432478,-8586.388927,-1378.971896
3139.002853,-888.247130,-9326.594869,-1072.533697
3139.003181,370.102971,-10881.027347,76.609550
3139.003508,3330.926739,-10658.965565,229.828649
3139.003836,3775.050304,-9844.739029,919.314598
3139.004163,2368.659014,-11029.068536,2681.334243
3139.004491,222.061783,-10955.047942,2451.505594
3139.004819,-444.123565,-8882.471304,-459.657299
3139.005146,-1110.308913,-9030.512492,-2911.162892
3139.005474,-1924.535449,-9474.636058,-3064.381992
3139.005802,-2368.659014,-9770.718434,-2068.457845
3139.006129,-1924.535449,-10436.903782,-689.485948
3139.006457,-370.102971,-9992.780217,76.609550
3139.006784,-592.164754,-7550.100608,76.609550
3139.007112,0.000000,-8290.306550,76.609550
3139.007440,1480.411884,-8586.388927,229.828649
3139.007767,1406.391290,-8438.347739,1149.143247
3139.008095,1628.453072,-9770.718434,1455.581446
3139.008423,1998.556043,-10732.986159,1608.800546
3139.008750,1554.432478,-9548.656652,1072.533697
3139.009078,1924.535449,-10288.862594,153.219100
3139.009405,1036.288319,-11251.130318,-536.266849
3139.009733,-1036.288319,-8586.388927,-1762.019645
3139.010061,-2516.700203,-7846.182985,-2451.505594
3139.010388,-2368.659014,-8956.491898,-1455.581446
3139.010716,-1628.453072,-8068.244768,-459.657299
3139.011044,-1184.329507,-8586.388927,1838.629195
3139.011371,1258.350101,-11029.068536,1838.629195
3139.011699,1480.411884,-10436.903782,0.000000
3139.012027,962.267725,-9992.780217,-689.485948
3139.012354,1110.308913,-10436.903782,-536.266849
3139.012682,1110.308913,-9474.636058,-383.047749
3139.013009,888.247130,-9548.656652,-689.485948
3139.013337,0.000000,-11103.089130,0.000000
3139.013665,148.041188,-11991.336260,-1762.019645
3139.013992,0.000000,-10584.944971,-766.095498
3139.014320,592.164754,-10584.944971,-919.314598
3139.014648,592.164754,-9622.677246,-306.438199
3139.014975,0.000000,-8882.471304,229.828649
3139.015303,666.185348,-9400.615463,536.266849
3139.015630,1184.329507,-8142.265362,76.609550
3139.015958,666.185348,-9252.574275,0.000000
3139.016286,-296.082377,-10140.821405,689.485948
3139.016613,222.061783,-9992.780217,612.876398
3139.016941,148.041188,-9474.636058,-612.876398
3139.017269,1110.308913,-11029.068536,-1225.752797
3139.017596,1702.473667,-11843.295072,-1225.752797
3139.017924,1184.329507,-10288.862594,0.000000
3139.018251,296.082377,-9844.739029,689.485948
3139.018579,-296.082377,-8808.450710,689.485948
3139.018907,-370.102971,-6365.771101,0.000000
3139.019234,0.000000,-7624.121203,153.219100
3139.019562,1184.329507,-8734.430116,919.314598
3139.019890,1628.453072,-8808.450710,612.876398
3139.020217,814.226536,-9844.739029,1225.752797
3139.020545,888.247130,-11547.212695,-459.657299
3139.020872,1110.308913,-8808.450710,-2374.896044
3139.021200,148.041188,-8808.450710,-1455.581446
3139.021528,0.000000,-9992.780217,-306.438199
3139.021855,-296.082377,-10881.027347,229.828649
3139.022183,-1702.473667,-11177.109724,229.828649
3139.022511,-814.226536,-10658.965565,-383.047749
3139.022838,-1184.329507,-8438.347739,-1455.581446
3139.023166,-592.164754,-8956.491898,-766.095498
3139.023493,148.041188,-10436.903782,-919.314598
3139.023821,1480.411884,-10362.883188,-842.705048
3139.024149,1406.391290,-9770.718434,-306.438199
3139.024476,1406.391290,-11399.171507,383.047749
3139.024804,666.185348,-9992.780217,76.609550
3139.025132,0.000000,-8512.368333,229.828649
3139.025459,888.247130,-10362.883188,-306.438199
3139.025787,1258.350101,-9548.656652,-306.438199
3139.026115,666.185348,-9622.677246,0.000000
3139.026442,-370.102971,-9992.780217,1302.362347
3139.026770,0.000000,-9252.574275,383.047749
3139.027097,-888.247130,-9178.553681,-1302.362347
3139.027425,-296.082377,-9622.677246,-1302.362347
3139.027753,370.102971,-9178.553681,-1685.410096
3139.028080,740.205942,-9696.697840,-766.095498
3139.028408,370.102971,-11547.212695,153.219100
3139.028736,1406.391290,-10288.862594,0.000000
3139.029063,2220.617826,-8068.244768,0.000000
3139.029391,1924.535449,-9178.553681,1072.533697
3139.029718,888.247130,-10658.965565,2221.676944
3139.030046,-740.205942,-9622.677246,995.924147
3139.030374,-1554.432478,-8882.471304,-1149.143247
3139.030701,-888.247130,-9770.718434,-1608.800546
3139.031029,-2072.576638,-8956.491898,-536.266849
3139.031356,-2072.576638,-9178.553681,229.828649
3139.031684,370.102971,-10955.047942,-612.876398
3139.032012,1702.473667,-9474.636058,-2451.505594
3139.032339,518.144159,-9918.759623,-1915.238745
3139.032667,222.061783,-10362.883188,306.438199
3139.032995,296.082377,-7994.224174,536.266849
3139.033322,518.144159,-9178.553681,383.047749
3139.033650,962.267725,-10214.842000,229.828649
3139.033977,1110.308913,-9844.739029,459.657299
3139.034305,740.205942,-10510.924376,842.705048
3139.034633,1036.288319,-11251.130318,689.485948
3139.034960,0.000000,-8808.450710,153.219100
3139.035288,-740.205942,-7550.100608,-1455.581446
3139.035615,-740.205942,-9252.574275,-1608.800546
3139.035943,0.000000,-10066.800811,-1455.581446
3139.036271,740.205942,-10807.006753,-229.828649
3139.036598,1110.308913,-10732.986159,612.876398
3139.036926,2072.576638,-9400.615463,0.000000
3139.037253,814.226536,-8586.388927,-306.438199
3139.037581,1036.288319,-10362.883188,919.314598
3139.037909,2072.576638,-9474.636058,306.438199
3139.038236,-444.123565,-8290.306550,306.438199
3139.038564,-888.247130,-10436.903782,229.828649
3139.038891,-296.082377,-10584.944971,0.000000
3139.039219,518.144159,-8882.471304,0.000000
3139.039547,1480.411884,-9918.759623,153.219100
3139.039874,1998.556043,-11769.274478,-306.438199
3139.040202,1628.453072,-10955.047942,-766.095498
3139.040529,592.164754,-10362.883188,-383.047749
3139.040857,0.000000,-7624.121203,-1072.533697
3139.041185,-1110.308913,-6883.915261,0.000000
3139.041512,-1110.308913,-9992.780217,766.095498
3139.041840,296.082377,-10955.047942,0.000000
3139.042167,-370.102971,-9474.636058,306.438199
3139.042495,0.000000,-9770.718434,76.609550
3139.042823,222.061783,-11103.089130,0.000000
3139.043150,-1406.391290,-9252.574275,0.000000
3139.043478,-1036.288319,-9030.512492,0.000000
3139.043805,1184.329507,-11325.150913,-1532.190996
3139.044133,1036.288319,-9326.594869,-2068.457845
3139.044461,370.102971,-10658.965565,-383.047749
3139.044788,1184.329507,-10510.924376,612.876398
3139.045116,1036.288319,-7994.224174,76.609550
3139.045444,0.000000,-9696.697840,0.000000
3139.045771,0.000000,-10807.006753,-612.876398
3139.046099,74.020594,-7772.162391,-842.705048
3139.046426,-296.082377,-8290.306550,919.314598
3139.046754,-1480.411884,-10288.862594,1455.581446
3139.047082,-1924.535449,-9696.697840,995.924147
3139.047409,-1702.473667,-9030.512492,-612.876398
3139.047737,-666.185348,-11251.130318,-1685.410096
3139.048064,592.164754,-10807.006753,-1991.848295
3139.048392,1480.411884,-10066.800811,-1302.362347
3139.048720,2516.700203,-11177.109724,0.000000
3139.049047,2442.679609,-8956.491898,-229.828649
3139.049375,962.267725,-9252.574275,459.657299
3139.049702,0.000000,-10066.800811,536.266849
3139.050030,518.144159,-8364.327145,-612.876398
3139.050358,-444.123565,-9178.553681,-689.485948
3139.050685,-1036.288319,-10140.821405,536.266849
3139.051013,-814.226536,-9104.533087,383.047749
3139.051340,-814.226536,-7772.162391,919.314598
3139.051668,-370.102971,-10066.800811,153.219100
3139.051996,1406.391290,-11991.336260,-1072.533697
3139.052323,1924.535449,-10214.842000,-1685.410096
3139.052651,1628.453072,-9474.636058,-459.657299
3139.052978,2072.576638,-9400.615463,-536.266849
3139.053306,888.247130,-9992.780217,-229.828649
3139.053634,296.082377,-10584.944971,306.438199
3139.053961,1850.514855,-9918.759623,-612.876398
3139.054289,1480.411884,-9326.594869,-612.876398
3139.054616,1184.329507,-11177.109724,995.924147
3139.054944,666.185348,-11325.150913,1685.410096
3139.055272,296.082377,-8512.368333,2145.067394
3139.055599,592.164754,-8586.388927,-995.924147
3139.055927,1110.308913,-10807.006753,-1838.629195
3139.056255,0.000000,-10140.821405,-536.266849
3139.056582,-296.082377,-9696.697840,-383.047749
3139.056910,1406.391290,-9104.533087,-1915.238745
3139.057237,666.185348,-7994.224174,-2298.286494
3139.057565,0.000000,-9326.594869,383.047749
3139.057893,1110.308913,-9918.759623,153.219100
3139.058220,1258.350101,-8586.388927,-383.047749
3139.058548,0.000000,-9178.553681,612.876398
3139.058875,-444.123565,-10362.883188,1608.800546
3139.059203,814.226536,-9252.574275,1378.971896
3139.059531,962.267725,-9548.656652,1608.800546
3139.059858,1924.535449,-11695.253884,1838.629195
3139.060186,1776.494261,-9918.759623,842.705048
3139.060513,148.041188,-8438.347739,-306.438199
3139.060841,-1110.308913,-7994.224174,-1072.533697
3139.061169,-1850.514855,-7772.162391,-1762.019645
3139.061496,-3108.864956,-9178.553681,-766.095498
3139.061824,-814.226536,-10436.903782,-995.924147
3139.062151,1184.329507,-9104.533087,-1225.752797
3139.062479,-296.082377,-10510.924376,536.266849
3139.062807,-1406.391290,-11695.253884,2145.067394
3139.063134,296.082377,-9770.718434,536.266849
3139.063462,-296.082377,-8734.430116,-306.438199
3139.063789,148.041188,-11029.068536,383.047749
3139.064117,1998.556043,-10807.006753,536.266849
3139.064445,2072.576638,-9918.759623,1072.533697
3139.064772,518.144159,-10732.986159,536.266849
3139.065100,888.247130,-9918.759623,-842.705048
3139.065427,-518.144159,-8808.450710,-1532.190996
3139.065755,-1702.473667,-8142.265362,-2221.676944
3139.066083,-1184.329507,-8438.347739,-2757.943793
3139.066410,-1628.453072,-9548.656652,-842.705048
3139.066738,-814.226536,-11473.192101,1838.629195
3139.067065,740.205942,-9992.780217,1532.190996
3139.067393,0.000000,-8586.388927,919.314598
3139.067721,222.061783,-9992.780217,536.266849
3139.068048,1554.432478,-11103.089130,-459.657299
3139.068376,1258.350101,-9474.636058,-1225.752797
3139.068704,-296.082377,-9548.656652,-612.876398
3139.069031,0.000000,-9400.615463,-536.266849
3139.069359,370.102971,-8808.450710,-689.485948
3139.069686,-222.061783,-10140.821405,-766.095498
3139.070014,1628.453072,-9474.636058,-1685.410096
