#time,accel_x,accel_y,accel_z
3415.375871,0.000000,-9178.553681,-229.828649
3415.376199,0.000000,-9326.594869,-536.266849
3415.376526,222.061783,-9030.512492,-459.657299
3415.376854,296.082377,-9400.615463,153.219100
3415.377182,444.123565,-9474.636058,76.609550
3415.377509,518.144159,-9844.739029,-612.876398
3415.377837,962.267725,-9918.759623,229.828649
3415.378165,518.144159,-9992.780217,0.000000
3415.378493,592.164754,-9844.739029,0.000000
3415.378820,444.123565,-9474.636058,0.000000
3415.379148,0.000000,-9252.574275,-229.828649
3415.379476,518.144159,-9548.656652,-229.828649
3415.379803,0.000000,-9844.739029,-383.047749
3415.380131,0.000000,-9844.739029,-459.657299
3415.380459,0.000000,-9918.759623,-383.047749
3415.380786,222.061783,-10066.800811,-612.876398
3415.381114,296.082377,-9770.718434,0.000000
3415.381442,518.144159,-9918.759623,-383.047749
3415.381769,740.205942,-9918.759623,0.000000
3415.382097,296.082377,-9844.739029,153.219100
3415.382425,296.082377,-9622.677246,76.609550
3415.382752,74.020594,-9474.636058,-229.828649
3415.383080,148.041188,-9474.636058,-383.047749
3415.383408,74.020594,-9474.636058,-612.876398
3415.383735,0.000000,-9474.636058,-536.266849
3415.384063,-148.041188,-9178.553681,-536.266849
3415.384391,0.000000,-9696.697840,-229.828649
3415.384719,222.061783,-9770.718434,76.609550
3415.385046,518.144159,-9770.718434,-153.219100
3415.385374,518.144159,-9770.718434,229.828649
3415.385702,592.164754,-9474.636058,-229.828649
3415.386029,592.164754,-9252.574275,536.266849
3415.386357,444.123565,-9326.594869,0.000000
3415.386685,0.000000,-9326.594869,0.000000
3415.387012,0.000000,-9178.553681,-229.828649
3415.387340,0.000000,-9474.636058,-383.047749
3415.387668,0.000000,-9474.636058,-612.876398
3415.387995,0.000000,-9326.594869,-229.828649
3415.388323,1406.391290,-9622.677246,0.000000
3415.388651,1776.494261,-9622.677246,0.000000
3415.388978,2590.720797,-9622.677246,153.219100
3415.389306,3552.988522,-9400.615463,153.219100
3415.389634,4293.194464,-9104.533087,229.828649
3415.389961,5107.421000,-9474.636058,306.438199
3415.390289,5551.544565,-9992.780217,153.219100
3415.390617,5995.668130,-9400.615463,0.000000
3415.390945,6513.812290,-9474.636058,-919.314598
3415.391272,7031.956449,-9992.780217,-229.828649
3415.391600,7994.224174,-10584.944971,-612.876398
3415.391928,8142.265362,-11251.130318,153.219100
3415.392255,8734.430116,-10881.027347,612.876398
3415.392583,9696.697840,-9548.656652,383.047749
3415.392911,9622.677246,-8660.409521,0.000000
3415.393238,9696.697840,-8364.327145,153.219100
3415.393566,10214.842000,-8512.368333,383.047749
3415.393894,10807.006753,-8808.450710,76.609550
3415.394221,11399.171507,-9474.636058,459.657299
3415.394549,11103.089130,-9474.636058,76.609550
3415.394877,9844.739029,-9992.780217,0.000000
3415.395204,10584.944971,-8364.327145,-153.219100
3415.395532,11621.233289,-9400.615463,-229.828649
3415.395860,13323.706956,-11029.068536,-536.266849
3415.396187,14211.954086,-10584.944971,459.657299
3415.396515,15322.262999,-9178.553681,919.314598
3415.396843,14730.098246,-8586.388927,689.485948
3415.397171,13989.892304,-9400.615463,1455.581446
3415.397498,12953.603985,-8882.471304,842.705048
3415.397826,12731.542202,-9104.533087,536.266849
3415.398154,12435.459826,-9918.759623,0.000000
3415.398481,12953.603985,-9696.697840,-306.438199
3415.398809,12065.356855,-9326.594869,536.266849
3415.399137,11695.253884,-9474.636058,1608.800546
3415.399464,11473.192101,-9474.636058,842.705048
3415.399792,11695.253884,-10436.903782,153.219100
3415.400120,10584.944971,-10214.842000,536.266849
3415.400447,10066.800811,-9400.615463,0.000000
3415.400775,8438.347739,-8882.471304,0.000000
3415.401103,7328.038826,-8512.368333,229.828649
3415.401430,8438.347739,-8586.388927,0.000000
3415.401758,9844.739029,-9104.533087,-842.705048
3415.402086,10658.965565,-11473.192101,383.047749
3415.402413,10362.883188,-12435.459826,153.219100
3415.402741,8956.491898,-10658.965565,0.000000
3415.403069,8512.368333,-8956.491898,0.000000
3415.403396,8290.306550,-7994.224174,76.609550
3415.403724,9030.512492,-9104.533087,766.095498
3415.404052,9104.533087,-10658.965565,1302.362347
3415.404380,9474.636058,-11843.295072,612.876398
3415.404707,8808.450710,-8438.347739,0.000000
3415.405035,7328.038826,-8068.244768,-306.438199
3415.405363,5181.441594,-9252.574275,306.438199
3415.405690,4959.379811,-9918.759623,-1072.533697
3415.406018,7105.977043,-9622.677246,-2604.724693
3415.406346,9474.636058,-10140.821405,-2757.943793
3415.406673,10584.944971,-9844.739029,-995.924147
3415.407001,9178.553681,-8364.327145,2757.943793
3415.407329,8290.306550,-7994.224174,3524.039291
3415.407656,10214.842000,-9622.677246,1225.752797
3415.407984,11843.295072,-10881.027347,-1072.533697
3415.408312,11843.295072,-10066.800811,-1685.410096
3415.408639,10732.986159,-8734.430116,-459.657299
3415.408967,9252.574275,-9178.553681,612.876398
3415.409295,8290.306550,-9474.636058,612.876398
3415.409622,7846.182985,-8660.409521,-383.047749
3415.409950,8068.244768,-8216.285956,-995.924147
3415.410278,10140.821405,-10288.862594,-1455.581446
3415.410606,11547.212695,-10658.965565,-689.485948
3415.410933,10881.027347,-9696.697840,612.876398
3415.411261,10658.965565,-9696.697840,919.314598
3415.411589,11399.171507,-7920.203579,-612.876398
3415.411916,10362.883188,-7698.141797,-612.876398
3415.412244,12213.398043,-9918.759623,-306.438199
3415.412572,16136.489536,-11177.109724,-995.924147
3415.412899,16728.654289,-10584.944971,-459.657299
3415.413227,14730.098246,-11251.130318,1302.362347
3415.413555,11991.336260,-10436.903782,2528.115143
3415.413882,10732.986159,-9770.718434,536.266849
3415.414210,9696.697840,-10955.047942,-2528.115143
3415.414538,9696.697840,-10214.842000,-3524.039291
3415.414865,11325.150913,-8216.285956,-2757.943793
3415.415193,11029.068536,-10510.924376,1991.848295
3415.415521,11399.171507,-10955.047942,5439.278036
3415.415848,9992.780217,-8290.306550,2911.162892
3415.416176,6809.894666,-8364.327145,1991.848295
3415.416504,6661.853478,-8660.409521,-383.047749
3415.416832,7031.956449,-8216.285956,-2834.553343
3415.417159,6439.791695,-7328.038826,-995.924147
3415.417487,8290.306550,-7994.224174,383.047749
3415.417815,8586.388927,-11029.068536,1378.971896
3415.418142,8438.347739,-11695.253884,2681.334243
3415.418470,9252.574275,-11695.253884,1302.362347
3415.418798,7698.141797,-11547.212695,0.000000
3415.419125,5255.462188,-10807.006753,-766.095498
3415.419453,2738.761985,-9992.780217,-383.047749
3415.419781,592.164754,-8660.409521,229.828649
3415.420108,-518.144159,-9030.512492,1838.629195
3415.420436,-222.061783,-8142.265362,3370.820191
3415.420764,-1258.350101,-7179.997637,1991.848295
3415.421091,-1036.288319,-7402.059420,612.876398
3415.421419,-370.102971,-7550.100608,-1149.143247
3415.421747,-1628.453072,-8882.471304,-1532.190996
3415.422074,-1776.494261,-8808.450710,-1608.800546
3415.422402,-296.082377,-9400.615463,-459.657299
3415.422730,1628.453072,-9696.697840,-1225.752797
3415.423057,3330.926739,-11473.192101,-1149.143247
3415.423385,4663.297435,-13915.871710,0.000000
3415.423713,5403.503377,-14211.954086,-995.924147
3415.424041,1702.473667,-12139.377449,0.000000
3415.424368,-1924.535449,-10436.903782,459.657299
3415.424696,-3997.112087,-8512.368333,-229.828649
3415.425024,-5033.400406,-7772.162391,-383.047749
3415.425351,-4737.318029,-7402.059420,-536.266849
3415.425679,-4737.318029,-5921.647536,-689.485948
3415.426007,-4885.359217,-8512.368333,1072.533697
3415.426334,-3997.112087,-8216.285956,76.609550
3415.426662,-2368.659014,-8586.388927,-2298.286494
3415.426990,-3108.864956,-8882.471304,-2604.724693
3415.427317,-2812.782580,-10436.903782,-2451.505594
3415.427645,0.000000,-9474.636058,-4060.306139
3415.427973,3330.926739,-10955.047942,-2757.943793
3415.428300,3552.988522,-14211.954086,-612.876398
3415.428628,4145.153275,-14285.974681,1685.410096
3415.428956,3478.967927,-11917.315666,1762.019645
3415.429283,2590.720797,-11547.212695,0.000000
3415.429611,2368.659014,-11251.130318,-1378.971896
3415.429939,1554.432478,-7994.224174,-2068.457845
3415.430267,222.061783,-5107.421000,-229.828649
3415.430594,2072.576638,-4589.276840,612.876398
3415.430922,3552.988522,-7254.018232,1608.800546
3415.431250,2886.803174,-7772.162391,2757.943793
3415.431577,4737.318029,-9400.615463,1072.533697
3415.431905,4811.338623,-11473.192101,-1378.971896
3415.432233,4737.318029,-13027.624579,-1455.581446
3415.432560,3701.029710,-12805.562797,-2068.457845
3415.432888,3330.926739,-11991.336260,-1991.848295
3415.433216,2590.720797,-11843.295072,-1532.190996
3415.433543,2368.659014,-13323.706956,1225.752797
3415.433871,-444.123565,-11769.274478,2451.505594
3415.434199,-222.061783,-9030.512492,0.000000
3415.434526,-814.226536,-4811.338623,-995.924147
3415.434854,-962.267725,-6883.915261,-2298.286494
3415.435182,-1406.391290,-8734.430116,766.095498
3415.435509,-518.144159,-6883.915261,3294.210641
3415.435837,1332.370696,-3552.988522,1378.971896
3415.436165,3478.967927,-8660.409521,0.000000
3415.436493,2516.700203,-14211.954086,229.828649
3415.436820,2590.720797,-11621.233289,306.438199
3415.437148,2812.782580,-10807.006753,-76.609550
3415.437476,2738.761985,-13027.624579,-1302.362347
3415.437801,-962.267725,-14359.995275,0.000000
3415.438129,-2886.803174,-12509.480420,1532.190996
3415.438457,-1480.411884,-8068.244768,0.000000
3415.438785,-2886.803174,-8142.265362,-1302.362347
3415.439112,-3923.091493,-8068.244768,76.609550
3415.439440,-3923.091493,-5107.421000,0.000000
3415.439768,-4441.235652,-5033.400406,842.705048
3415.440096,-3182.885551,-5403.503377,842.705048
3415.440423,-370.102971,-8142.265362,-459.657299
3415.440751,-296.082377,-10214.842000,1302.362347
3415.441079,1628.453072,-9400.615463,612.876398
3415.441407,3923.091493,-12583.501014,-689.485948
3415.441734,1850.514855,-16506.592507,-612.876398
3415.442062,666.185348,-16432.571912,-995.924147
3415.442390,-370.102971,-10955.047942,-3064.381992
3415.442718,-4737.318029,-8956.491898,-1991.848295
3415.443045,-5921.647536,-8364.327145,-1378.971896
3415.443373,-5107.421000,-8068.244768,-1225.752797
3415.443701,-6217.729913,-6809.894666,-459.657299
3415.444029,-3775.050304,-5181.441594,-1072.533697
3415.444356,-2738.761985,-5181.441594,-1302.362347
3415.444684,-2146.597232,-7772.162391,689.485948
3415.445012,1998.556043,-8364.327145,689.485948
3415.445340,5329.482782,-9400.615463,-766.095498
3415.445667,5255.462188,-12287.418637,0.000000
3415.445995,5699.585753,-13471.748144,766.095498
3415.446323,4219.173869,-14063.912898,536.266849
3415.446651,1998.556043,-14211.954086,-842.705048
3415.446978,0.000000,-14285.974681,-2374.896044
3415.447306,-1998.556043,-11843.295072,-3447.429741
3415.447634,-1850.514855,-7772.162391,-3217.601092
3415.447962,740.205942,-7254.018232,-1455.581446
3415.448289,1776.494261,-6883.915261,2374.896044
3415.448617,1480.411884,-4589.276840,3140.991542
3415.448945,1480.411884,-5403.503377,3294.210641
3415.449273,2442.679609,-6735.874072,1455.581446
3415.449600,1924.535449,-7698.141797,229.828649
3415.449928,2738.761985,-8956.491898,76.609550
3415.450256,4515.256246,-10584.944971,-1225.752797
3415.450584,4663.297435,-13101.645173,-1149.143247
3415.450911,3182.885551,-13915.871710,689.485948
3415.451239,1184.329507,-15100.201217,-995.924147
3415.451567,888.247130,-14211.954086,-2834.553343
3415.451895,-740.205942,-9918.759623,-3600.648841
3415.452222,0.000000,-7550.100608,-2451.505594
3415.452550,-1998.556043,-7476.080014,1072.533697
3415.452878,-1110.308913,-6439.791695,3907.087040
3415.453206,888.247130,-4293.194464,3140.991542
3415.453533,1332.370696,-5403.503377,1915.238745
3415.453861,1406.391290,-8216.285956,842.705048
3415.454189,2590.720797,-9844.739029,-306.438199
3415.454517,1406.391290,-10140.821405,76.609550
3415.454844,-888.247130,-10214.842000,0.000000
3415.455172,0.000000,-14582.057057,383.047749
3415.455500,1850.514855,-14359.995275,-1532.190996
3415.455828,814.226536,-14137.933492,-766.095498
3415.456155,370.102971,-12435.459826,-612.876398
3415.456483,-1480.411884,-7698.141797,-1378.971896
3415.456811,-4811.338623,-7476.080014,-1149.143247
3415.457139,-6439.791695,-7846.182985,-459.657299
3415.457466,-5255.462188,-3997.112087,-383.047749
3415.457794,-2960.823768,-3552.988522,0.000000
3415.458122,-444.123565,-7031.956449,919.314598
3415.458450,1406.391290,-10436.903782,1149.143247
3415.458777,2738.761985,-12361.439231,995.924147
3415.459105,3923.091493,-11917.315666,919.314598
3415.459433,3775.050304,-12509.480420,-689.485948
3415.459761,0.000000,-11769.274478,-536.266849
3415.460088,-3775.050304,-10510.924376,0.000000
3415.460416,-3552.988522,-9252.574275,-1072.533697
3415.460744,-4293.194464,-10955.047942,-1685.410096
3415.461072,-4589.276840,-10362.883188,-1608.800546
3415.461399,-3775.050304,-8068.244768,-1302.362347
3415.461727,-3775.050304,-6143.709319,-1762.019645
3415.462055,-2146.597232,-7772.162391,-1378.971896
3415.462383,222.061783,-7105.977043,-1378.971896
3415.462710,1702.473667,-7920.203579,229.828649
3415.463038,2960.823768,-8734.430116,1685.410096
3415.463366,5107.421000,-11103.089130,2604.724693
3415.463694,4885.359217,-11843.295072,2451.505594
3415.464021,4293.194464,-13027.624579,1838.629195
3415.464349,2368.659014,-13027.624579,-1072.533697
3415.464677,1184.329507,-11769.274478,-3753.867940
3415.465005,1554.432478,-10510.924376,-3753.867940
3415.465332,1110.308913,-12213.398043,-1378.971896
3415.465660,-592.164754,-9548.656652,766.095498
3415.465988,-888.247130,-6217.729913,842.705048
3415.466316,-1406.391290,-6143.709319,76.609550
3415.466643,-814.226536,-7920.203579,-995.924147
3415.466971,0.000000,-7105.977043,842.705048
3415.467299,2442.679609,-6735.874072,0.000000
3415.467627,4589.276840,-8216.285956,306.438199
3415.467954,4441.235652,-12731.542202,1762.019645
3415.468282,2664.741391,-14804.118840,2528.115143
3415.468610,1776.494261,-11843.295072,0.000000
3415.468938,814.226536,-10510.924376,-2757.943793
3415.469265,-666.185348,-10807.006753,-3140.991542
3415.469593,-1480.411884,-11843.295072,-1378.971896
3415.469921,-1480.411884,-9918.759623,1608.800546
3415.470249,444.123565,-7179.997637,2145.067394
3415.470576,1702.473667,-8142.265362,919.314598
3415.470904,592.164754,-8882.471304,1225.752797
3415.471232,-740.205942,-5403.503377,1608.800546
3415.471560,0.000000,-3997.112087,-689.485948
3415.471887,0.000000,-7402.059420,-306.438199
3415.472215,-888.247130,-11177.109724,1072.533697
3415.472543,740.205942,-11325.150913,2911.162892
3415.472871,2812.782580,-10807.006753,1302.362347
3415.473198,4219.173869,-14878.139434,-1608.800546
3415.473526,1776.494261,-14137.933492,-1685.410096
3415.473854,-1702.473667,-9474.636058,-1915.238745
3415.474182,-5625.565159,-8068.244768,-1455.581446
3415.474509,-4885.359217,-9030.512492,-1838.629195
3415.474837,-1850.514855,-7772.162391,-1225.752797
3415.475165,-1110.308913,-7920.203579,1838.629195
3415.475493,0.000000,-7328.038826,2757.943793
3415.475820,1406.391290,-9178.553681,612.876398
3415.476148,2516.700203,-10362.883188,383.047749
3415.476476,592.164754,-9770.718434,-153.219100
3415.476804,-518.144159,-10140.821405,-383.047749
3415.477131,-518.144159,-8586.388927,-1072.533697
3415.477459,-444.123565,-9548.656652,-995.924147
3415.477787,-222.061783,-13989.892304,-229.828649
3415.478115,-1184.329507,-13619.789333,766.095498
3415.478442,-1110.308913,-10214.842000,-229.828649
3415.478770,-1332.370696,-9030.512492,-2451.505594
3415.479098,-2738.761985,-9400.615463,-3830.477490
3415.479426,-4367.215058,-7402.059420,-2451.505594
3415.479753,-2146.597232,-6069.688724,-1608.800546
3415.480081,1036.288319,-6439.791695,0.000000
3415.480409,2072.576638,-8216.285956,2298.286494
3415.480736,3182.885551,-9474.636058,4673.182538
3415.481064,4293.194464,-11547.212695,3600.648841
3415.481392,4367.215058,-11695.253884,306.438199
3415.481720,3552.988522,-11843.295072,-2834.553343
3415.482047,1332.370696,-11991.336260,-2451.505594
3415.482375,740.205942,-10066.800811,-612.876398
3415.482703,888.247130,-7994.224174,0.000000
3415.483031,814.226536,-9326.594869,1302.362347
3415.483358,148.041188,-12139.377449,1378.971896
3415.483686,1110.308913,-10066.800811,153.219100
3415.484014,1110.308913,-5625.565159,-2145.067394
3415.484342,74.020594,-7846.182985,-1915.238745
3415.484669,-518.144159,-10436.903782,-1072.533697
3415.484997,-1332.370696,-7846.182985,1225.752797
3415.485325,222.061783,-8068.244768,689.485948
3415.485653,1702.473667,-10288.862594,-1302.362347
3415.485980,1480.411884,-12657.521608,-995.924147
3415.486308,2072.576638,-11547.212695,-536.266849
3415.486636,2590.720797,-11251.130318,-1072.533697
3415.486964,2072.576638,-12879.583391,-306.438199
3415.487291,592.164754,-11843.295072,-306.438199
3415.487619,-814.226536,-7624.121203,0.000000
3415.487947,-296.082377,-6513.812290,-536.266849
3415.488275,-1628.453072,-7994.224174,766.095498
3415.488602,-888.247130,-9030.512492,842.705048
3415.488930,-1776.494261,-7031.956449,689.485948
3415.489258,148.041188,-7624.121203,0.000000
3415.489586,1406.391290,-9696.697840,612.876398
3415.489913,2146.597232,-10807.006753,153.219100
3415.490241,1110.308913,-11177.109724,2374.896044
3415.490569,1332.370696,-9622.677246,229.828649
3415.490897,1258.350101,-8882.471304,-2987.772442
3415.491224,-2664.741391,-10881.027347,-1838.629195
3415.491552,-4589.276840,-11695.253884,0.000000
3415.491880,-1332.370696,-10140.821405,-1302.362347
3415.492208,1480.411884,-9178.553681,-2068.457845
3415.492535,1184.329507,-10288.862594,-1149.143247
3415.492863,-518.144159,-11177.109724,536.266849
3415.493191,0.000000,-9474.636058,995.924147
3415.493519,2220.617826,-7105.977043,-995.924147
3415.493846,592.164754,-8068.244768,-766.095498
3415.494174,-1850.514855,-8438.347739,1378.971896
3415.494502,-592.164754,-7920.203579,919.314598
3415.494830,2294.638420,-9696.697840,0.000000
3415.495157,2146.597232,-13767.830521,0.000000
3415.495485,1480.411884,-13323.706956,0.000000
3415.495813,1776.494261,-10436.903782,-612.876398
3415.496141,-518.144159,-9992.780217,-1685.410096
3415.496468,-3182.885551,-10807.006753,-2604.724693
3415.496796,-3997.112087,-9178.553681,-1685.410096
3415.497124,-2442.679609,-7476.080014,-2528.115143
3415.497452,-370.102971,-7179.997637,-1762.019645
3415.497779,-148.041188,-8364.327145,1685.410096
3415.498107,1036.288319,-9326.594869,2604.724693
3415.498435,3182.885551,-10436.903782,1225.752797
3415.498763,2368.659014,-10510.924376,-689.485948
3415.499090,1258.350101,-9474.636058,-2298.286494
3415.499418,888.247130,-10658.965565,-306.438199
3415.499746,2664.741391,-11621.233289,-383.047749
3415.500074,2294.638420,-11029.068536,919.314598
3415.500401,2738.761985,-10362.883188,1608.800546
3415.500729,2886.803174,-9992.780217,919.314598
3415.501057,2146.597232,-9178.553681,766.095498
3415.501385,740.205942,-8290.306550,153.219100
3415.501712,-444.123565,-9474.636058,-306.438199
3415.502040,-1258.350101,-8882.471304,0.000000
3415.502368,-1480.411884,-7846.182985,-1532.190996
3415.502696,-2368.659014,-9844.739029,-1991.848295
3415.503023,-2590.720797,-10288.862594,-842.705048
3415.503351,-296.082377,-9474.636058,-842.705048
3415.503679,1184.329507,-11399.171507,-1072.533697
3415.504007,518.144159,-11843.295072,459.657299
3415.504334,-222.061783,-9474.636058,536.266849
3415.504662,444.123565,-8438.347739,-306.438199
3415.504990,370.102971,-9770.718434,-229.828649
3415.505318,962.267725,-9992.780217,0.000000
3415.505645,444.123565,-8882.471304,689.485948
3415.505973,1184.329507,-7476.080014,612.876398
3415.506301,814.226536,-8660.409521,766.095498
3415.506629,814.226536,-9844.739029,383.047749
3415.506956,-518.144159,-9770.718434,1378.971896
3415.507284,-740.205942,-8808.450710,383.047749
3415.507612,148.041188,-7846.182985,-536.266849
3415.507940,1036.288319,-8290.306550,-2068.457845
3415.508267,-740.205942,-10955.047942,306.438199
3415.508595,-444.123565,-10881.027347,1072.533697
3415.508923,1628.453072,-9622.677246,-306.438199
3415.509251,2072.576638,-11621.233289,-689.485948
3415.509578,1258.350101,-12805.562797,0.000000
3415.509906,-370.102971,-9622.677246,-383.047749
3415.510234,-1480.411884,-8734.430116,-306.438199
3415.510562,0.000000,-9918.759623,-1685.410096
3415.510889,-592.164754,-9844.739029,-1455.581446
3415.511217,-1776.494261,-8364.327145,383.047749
3415.511545,592.164754,-7550.100608,229.828649
3415.511873,2886.803174,-9844.739029,-459.657299
3415.512200,2368.659014,-12805.562797,-153.219100
3415.512528,222.061783,-11769.274478,1685.410096
3415.512856,0.000000,-7105.977043,612.876398
3415.513184,0.000000,-8586.388927,-1302.362347
3415.513511,-1258.350101,-11917.315666,-1302.362347
3415.513839,-1332.370696,-11177.109724,-383.047749
3415.514167,0.000000,-8068.244768,-1608.800546
3415.514495,444.123565,-10362.883188,-459.657299
3415.514822,1406.391290,-11177.109724,-995.924147
3415.515150,0.000000,-9770.718434,995.924147
3415.515478,-1184.329507,-7105.977043,1532.190996
3415.515806,1184.329507,-7698.141797,-1302.362347
3415.516133,962.267725,-9400.615463,-1532.190996
3415.516461,518.144159,-10584.944971,766.095498
3415.516789,1628.453072,-10140.821405,2145.067394
3415.517117,2294.638420,-9622.677246,536.266849
3415.517444,1776.494261,-10140.821405,-1072.533697
3415.517772,1628.453072,-12435.459826,-919.314598
3415.518100,592.164754,-10140.821405,-995.924147
3415.518428,444.123565,-6883.915261,-995.924147
3415.518755,1258.350101,-9326.594869,-766.095498
3415.519083,0.000000,-11399.171507,766.095498
3415.519411,-1184.329507,-10807.006753,2451.505594
3415.519739,-1110.308913,-9326.594869,-459.657299
3415.520066,-1776.494261,-9918.759623,-3217.601092
3415.520394,-1036.288319,-10362.883188,-4290.134789
3415.520722,-296.082377,-9178.553681,-2681.334243
3415.521050,-592.164754,-8808.450710,766.095498
3415.521377,-296.082377,-9992.780217,2834.553343
3415.521705,370.102971,-10288.862594,459.657299
3415.522033,814.226536,-9844.739029,0.000000
3415.522361,1998.556043,-10066.800811,-689.485948
3415.522688,2368.659014,-9252.574275,-383.047749
3415.523016,1184.329507,-9548.656652,1149.143247
3415.523344,740.205942,-10436.903782,1378.971896
3415.523672,222.061783,-9252.574275,842.705048
3415.523999,-222.061783,-7846.182985,306.438199
3415.524327,-814.226536,-8142.265362,995.924147
3415.524655,-814.226536,-10288.862594,689.485948
3415.524983,74.020594,-7920.203579,-459.657299
3415.525310,74.020594,-6809.894666,-1762.019645
3415.525638,-1554.432478,-10436.903782,153.219100
3415.525966,222.061783,-10584.944971,1149.143247
3415.526294,1776.494261,-9474.636058,689.485948
3415.526621,2146.597232,-9918.759623,0.000000
3415.526949,962.267725,-10807.006753,-1149.143247
3415.527277,296.082377,-11103.089130,-766.095498
3415.527605,1406.391290,-11103.089130,459.657299
3415.527932,1702.473667,-9474.636058,536.266849
3415.528260,-370.102971,-7772.162391,0.000000
3415.528588,-1406.391290,-8438.347739,0.000000
3415.528916,0.000000,-11103.089130,-995.924147
3415.529243,-592.164754,-9992.780217,-1149.143247
3415.529571,-592.164754,-8734.430116,536.266849
3415.529899,814.226536,-9030.512492,1532.190996
3415.530227,1998.556043,-10066.800811,306.438199
3415.530554,518.144159,-9918.759623,-459.657299
3415.530882,0.000000,-10140.821405,-306.438199
3415.531210,-370.102971,-10288.862594,-1378.971896
3415.531538,370.102971,-11843.295072,-1838.629195
3415.531865,-1998.556043,-9918.759623,-842.705048
3415.532193,-2368.659014,-8512.368333,-766.095498
3415.532521,-814.226536,-9474.636058,-995.924147
3415.532849,444.123565,-11251.130318,-1532.190996
3415.533176,518.144159,-10214.842000,-995.924147
3415.533504,1406.391290,-8882.471304,689.485948
3415.533832,2146.597232,-9474.636058,1915.238745
3415.534160,1924.535449,-9770.718434,1302.362347
3415.534487,592.164754,-9474.636058,1225.752797
3415.534815,0.000000,-8438.347739,459.657299
3415.535143,666.185348,-8068.244768,0.000000
3415.535471,888.247130,-8586.388927,-766.095498
3415.535798,1332.370696,-11103.089130,153.219100
3415.536126,1702.473667,-10584.944971,919.314598
3415.536454,518.144159,-9030.512492,306.438199
3415.536782,-1628.453072,-10436.903782,-383.047749
3415.537109,-2738.761985,-11695.253884,-2068.457845
3415.537437,-2368.659014,-9400.615463,-2451.505594
3415.537765,-740.205942,-7846.182985,-3217.601092
3415.538093,-962.267725,-9030.512492,-919.314598
3415.538420,-592.164754,-11325.150913,2374.896044
3415.538748,-148.041188,-10436.903782,3140.991542
3415.539076,2072.576638,-9326.594869,0.000000
3415.539404,1776.494261,-9252.574275,-1762.019645
3415.539731,888.247130,-9622.677246,-1532.190996
3415.540059,-444.123565,-9770.718434,383.047749
3415.540387,1036.288319,-8290.306550,-459.657299
3415.540715,1702.473667,-9104.533087,153.219100
3415.541043,1628.453072,-11325.150913,1915.238745
3415.541370,1924.535449,-11843.295072,2451.505594
3415.541698,1628.453072,-10658.965565,536.266849
3415.542026,1628.453072,-8290.306550,0.000000
3415.542354,1184.329507,-7698.141797,-1685.410096
3415.542682,-1628.453072,-9400.615463,-383.047749
3415.543009,-3330.926739,-8512.368333,689.485948
3415.543337,-2146.597232,-7476.080014,0.000000
3415.543665,444.123565,-10066.800811,-1378.971896
3415.543993,1480.411884,-12435.459826,-689.485948
3415.544321,1480.411884,-10955.047942,0.000000
3415.544648,1850.514855,-10214.842000,306.438199
3415.544976,2442.679609,-11251.130318,-306.438199
3415.545304,1850.514855,-10658.965565,0.000000
3415.545632,-1110.308913,-8216.285956,0.000000
3415.545959,0.000000,-7328.038826,-383.047749
3415.546287,814.226536,-9474.636058,-229.828649
3415.546615,1110.308913,-10436.903782,689.485948
3415.546943,518.144159,-10584.944971,1838.629195
3415.547271,1702.473667,-10066.800811,229.828649
3415.547598,1702.473667,-8956.491898,-1915.238745
3415.547926,444.123565,-10658.965565,-1915.238745
3415.548254,-1776.494261,-10732.986159,-766.095498
3415.548582,-1628.453072,-8956.491898,-842.705048
3415.548910,74.020594,-8586.388927,-919.314598
3415.549237,-740.205942,-9030.512492,-766.095498
3415.549565,-2368.659014,-10140.821405,842.705048
3415.549893,0.000000,-10436.903782,0.000000
3415.550221,1332.370696,-9992.780217,-2145.067394
3415.550548,296.082377,-10584.944971,-2221.676944
3415.550876,222.061783,-10881.027347,-536.266849
3415.551204,444.123565,-10214.842000,1762.019645
3415.551532,1406.391290,-9252.574275,1072.533697
3415.551860,666.185348,-8882.471304,0.000000
3415.552187,962.267725,-9622.677246,689.485948
3415.552515,2072.576638,-9844.739029,689.485948
3415.552843,2812.782580,-8364.327145,0.000000
3415.553171,1258.350101,-10214.842000,1302.362347
3415.553499,814.226536,-9326.594869,612.876398
3415.553826,-1184.329507,-8586.388927,612.876398
3415.554154,-3330.926739,-9104.533087,-689.485948
3415.554482,-3478.967927,-9844.739029,-3907.087040
3415.554810,-1850.514855,-9844.739029,-2911.162892
3415.555137,1184.329507,-10214.842000,-2221.676944
3415.555465,1554.432478,-9918.759623,-383.047749
3415.555793,814.226536,-11325.150913,3524.039291
3415.556121,1332.370696,-10214.842000,1991.848295
3415.556449,2220.617826,-8956.491898,-1149.143247
3415.556776,518.144159,-9104.533087,-1072.533697
3415.557104,-1702.473667,-7772.162391,-229.828649
3415.557432,-370.102971,-7179.997637,76.609550
3415.557760,888.247130,-9030.512492,842.705048
3415.558088,592.164754,-10807.006753,1455.581446
3415.558415,962.267725,-11695.253884,1302.362347
3415.558743,888.247130,-10140.821405,0.000000
3415.559071,888.247130,-10214.842000,-2987.772442
3415.559399,370.102971,-11177.109724,-1685.410096
3415.559726,518.144159,-8364.327145,-842.705048
3415.560054,-888.247130,-8660.409521,1685.410096
3415.560382,-1332.370696,-9770.718434,1149.143247
3415.560710,370.102971,-9474.636058,-153.219100
3415.561038,814.226536,-8956.491898,-766.095498
3415.561365,962.267725,-9474.636058,-919.314598
3415.561693,444.123565,-11473.192101,-919.314598
3415.562021,1110.308913,-10436.903782,-153.219100
3415.562349,1406.391290,-9474.636058,-689.485948
3415.562677,1184.329507,-10732.986159,153.219100
3415.563004,-222.061783,-8660.409521,0.000000
3415.563332,222.061783,-8290.306550,-995.924147
3415.563660,592.164754,-10881.027347,0.000000
3415.563988,740.205942,-10807.006753,1072.533697
3415.564316,2072.576638,-10362.883188,995.924147
3415.564643,1480.411884,-9918.759623,459.657299
3415.564971,-296.082377,-9252.574275,-536.266849
3415.565299,-962.267725,-9474.636058,-1378.971896
3415.565627,-2146.597232,-8660.409521,-919.314598
3415.565954,-2442.679609,-7179.997637,-766.095498
3415.566282,-888.247130,-9474.636058,76.609550
3415.566610,444.123565,-9474.636058,383.047749
3415.566938,592.164754,-9622.677246,536.266849
3415.567266,1480.411884,-10732.986159,-153.219100
3415.567593,1110.308913,-10658.965565,-689.485948
3415.567921,666.185348,-9400.615463,-1532.190996
3415.568249,1110.308913,-8660.409521,-1455.581446
3415.568577,296.082377,-9548.656652,766.095498
3415.568905,518.144159,-10436.903782,2068.457845
3415.569232,962.267725,-8882.471304,689.485948
3415.569560,296.082377,-8882.471304,-689.485948
3415.569888,666.185348,-10288.862594,-1072.533697
3415.570216,666.185348,-11473.192101,-689.485948
3415.570543,74.020594,-8956.491898,0.000000
3415.570871,-1036.288319,-7920.203579,1378.971896
3415.571199,-1480.411884,-9474.636058,536.266849
3415.571527,-518.144159,-11399.171507,-1225.752797
3415.571855,-666.185348,-11547.212695,-1302.362347
3415.572182,888.247130,-8882.471304,-2451.505594
3415.572510,888.247130,-9918.759623,-612.876398
3415.572838,370.102971,-12731.542202,1072.533697
3415.573166,-296.082377,-11399.171507,1685.410096
3415.573494,222.061783,-8216.285956,-995.924147
3415.573821,0.000000,-7698.141797,-1991.848295
3415.574149,0.000000,-9400.615463,-1378.971896
3415.574477,518.144159,-10140.821405,1225.752797
3415.574805,518.144159,-7550.100608,1072.533697
3415.575132,740.205942,-6809.894666,1149.143247
3415.575460,2294.638420,-9844.739029,1072.533697
3415.575788,1110.308913,-12065.356855,1302.362347
3415.576116,-1332.370696,-10807.006753,1378.971896
3415.576444,222.061783,-7179.997637,-766.095498
3415.576771,666.185348,-7846.182985,-2911.162892
3415.577099,-296.082377,-10362.883188,-919.314598
3415.577427,-1924.535449,-9474.636058,536.266849
3415.577755,-1554.432478,-8364.327145,1685.410096
3415.578083,2072.576638,-10732.986159,0.000000
3415.578410,2738.761985,-12583.501014,-1838.629195
3415.578738,444.123565,-10288.862594,306.438199
3415.579066,888.247130,-7994.224174,1762.019645
3415.579394,666.185348,-8734.430116,306.438199
3415.579721,1036.288319,-9992.780217,-919.314598
3415.580049,-148.041188,-8882.471304,0.000000
3415.580377,-666.185348,-7550.100608,-229.828649
3415.580705,296.082377,-8956.491898,-919.314598
3415.581033,2368.659014,-13323.706956,-1532.190996
3415.581360,592.164754,-11917.315666,766.095498
3415.581688,592.164754,-9992.780217,842.705048
3415.582016,1702.473667,-8808.450710,-1302.362347
3415.582344,444.123565,-12213.398043,-1149.143247
3415.582672,222.061783,-12287.418637,-1762.019645
3415.582999,0.000000,-7402.059420,-1838.629195
3415.583327,444.123565,-7476.080014,-689.485948
3415.583655,222.061783,-9992.780217,306.438199
3415.583983,-814.226536,-10732.986159,1838.629195
3415.584311,-1998.556043,-8660.409521,689.485948
3415.584638,-444.123565,-7402.059420,-2681.334243
3415.584966,-1184.329507,-10214.842000,-2298.286494
3415.585294,-592.164754,-11103.089130,-919.314598
3415.585622,1036.288319,-8956.491898,229.828649
3415.585949,3108.864956,-9474.636058,1225.752797
3415.586277,3627.009116,-10584.944971,1378.971896
3415.586605,2368.659014,-11325.150913,2374.896044
3415.586933,592.164754,-9104.533087,1225.752797
3415.587261,444.123565,-7698.141797,-229.828649
3415.587588,-518.144159,-8882.471304,-306.438199
3415.587916,0.000000,-9252.574275,-919.314598
3415.588244,370.102971,-7476.080014,-995.924147
3415.588572,-370.102971,-7105.977043,2451.505594
3415.588900,0.000000,-11103.089130,842.705048
3415.589227,444.123565,-13027.624579,-1762.019645
3415.589555,-814.226536,-10955.047942,-2681.334243
3415.589883,-370.102971,-8290.306550,-2911.162892
3415.590211,-296.082377,-9474.636058,0.000000
3415.590538,-1110.308913,-11769.274478,2451.505594
3415.590866,1184.329507,-10140.821405,2068.457845
3415.591194,2516.700203,-7846.182985,-612.876398
3415.591522,1480.411884,-10066.800811,-1608.800546
3415.591850,666.185348,-11177.109724,-995.924147
3415.592177,1258.350101,-9622.677246,0.000000
3415.592505,0.000000,-7994.224174,612.876398
3415.592833,-740.205942,-7994.224174,919.314598
3415.593161,-1258.350101,-9030.512492,2451.505594
3415.593489,1554.432478,-10807.006753,306.438199
3415.593816,1924.535449,-11621.233289,0.000000
3415.594144,814.226536,-10436.903782,0.000000
3415.594472,666.185348,-7846.182985,-1378.971896
3415.594800,0.000000,-8364.327145,-1225.752797
3415.595127,-2146.597232,-9844.739029,76.609550
3415.595455,-2368.659014,-8586.388927,766.095498
3415.595783,-1110.308913,-8512.368333,459.657299
3415.596111,1332.370696,-11029.068536,-536.266849
3415.596439,1776.494261,-12583.501014,-1225.752797
3415.596766,1258.350101,-11695.253884,459.657299
3415.597094,962.267725,-9252.574275,536.266849
3415.597422,1702.473667,-8364.327145,-1149.143247
3415.597750,444.123565,-8660.409521,-612.876398
3415.598078,-2368.659014,-7846.182985,1149.143247
3415.598405,-1406.391290,-8068.244768,2068.457845
3415.598733,592.164754,-9104.533087,1149.143247
3415.599061,1480.411884,-10214.842000,76.609550
3415.599389,814.226536,-11695.253884,766.095498
3415.599716,1406.391290,-10807.006753,-1225.752797
3415.600044,740.205942,-9178.553681,-3217.601092
3415.600372,1406.391290,-10436.903782,-2987.772442
3415.600700,0.000000,-11473.192101,-689.485948
3415.601028,-666.185348,-9474.636058,1915.238745
3415.601355,518.144159,-8290.306550,1762.019645
3415.601683,592.164754,-9474.636058,383.047749
3415.602011,-1480.411884,-11177.109724,0.000000
3415.602339,-1332.370696,-9474.636058,-1302.362347
3415.602667,370.102971,-8290.306550,-3600.648841
3415.602994,1258.350101,-9252.574275,-3064.381992
3415.603322,2442.679609,-11547.212695,-459.657299
3415.603650,1776.494261,-11103.089130,2757.943793
3415.603978,1850.514855,-9770.718434,2221.676944
3415.604306,1776.494261,-8882.471304,1072.533697
3415.604633,1332.370696,-10955.047942,-612.876398
3415.604961,-592.164754,-9844.739029,-153.219100
3415.605289,1258.350101,-7994.224174,-1685.410096
3415.605617,814.226536,-8216.285956,-1378.971896
3415.605944,-296.082377,-11251.130318,1149.143247
3415.606272,-1776.494261,-10732.986159,1378.971896
3415.606600,-2294.638420,-8882.471304,-1532.190996
3415.606928,-2812.782580,-7846.182985,-3294.210641
3415.607256,-1184.329507,-9622.677246,-3677.258390
3415.607583,-1480.411884,-11399.171507,-383.047749
3415.607911,74.020594,-10658.965565,2374.896044
3415.608239,2368.659014,-8586.388927,1378.971896
3415.608567,3701.029710,-9770.718434,-306.438199
3415.608895,1110.308913,-11103.089130,153.219100
3415.609222,-148.041188,-9474.636058,919.314598
3415.609550,74.020594,-5625.565159,459.657299
3415.609878,-740.205942,-6883.915261,-306.438199
3415.610206,-592.164754,-10807.006753,1149.143247
3415.610533,222.061783,-11103.089130,1915.238745
3415.610861,2220.617826,-9474.636058,0.000000
3415.611189,2368.659014,-11029.068536,-612.876398
3415.611517,1480.411884,-11473.192101,-1225.752797
3415.611845,222.061783,-8438.347739,-459.657299
3415.612172,-1480.411884,-5329.482782,-306.438199
3415.612500,-4367.215058,-7550.100608,229.828649
3415.612828,-3478.967927,-10732.986159,689.485948
3415.613156,74.020594,-10807.006753,459.657299
3415.613484,2220.617826,-10881.027347,-1149.143247
3415.613811,2146.597232,-11547.212695,-1225.752797
3415.614139,2294.638420,-12953.603985,-612.876398
3415.614467,1184.329507,-12065.356855,-536.266849
3415.614795,888.247130,-8660.409521,-1149.143247
3415.615122,-1184.329507,-5773.606348,-1149.143247
3415.615450,-1332.370696,-9030.512492,459.657299
3415.615778,0.000000,-11547.212695,1991.848295
3415.616106,2368.659014,-10436.903782,1532.190996
3415.616434,3256.906145,-9030.512492,612.876398
3415.616761,2220.617826,-11473.192101,459.657299
3415.617089,1110.308913,-12583.501014,-995.924147
3415.617417,-518.144159,-9474.636058,-1991.848295
3415.617745,-1776.494261,-6513.812290,-2145.067394
3415.618073,-1480.411884,-7772.162391,-383.047749
3415.618400,-592.164754,-10214.842000,76.609550
3415.618728,-1036.288319,-10288.862594,2451.505594
3415.619056,666.185348,-9104.533087,1302.362347
3415.619384,1036.288319,-9548.656652,-995.924147
3415.619711,0.000000,-11251.130318,-1991.848295
3415.620039,-296.082377,-9474.636058,-1225.752797
3415.620367,0.000000,-7476.080014,229.828649
3415.620695,1110.308913,-7920.203579,995.924147
3415.621023,1406.391290,-10288.862594,2068.457845
3415.621350,1628.453072,-10510.924376,1608.800546
3415.621678,2442.679609,-9252.574275,0.000000
3415.622006,2368.659014,-9326.594869,-459.657299
3415.622334,1258.350101,-9918.759623,-919.314598
3415.622662,1850.514855,-10955.047942,-995.924147
3415.622989,1480.411884,-9622.677246,383.047749
3415.623317,0.000000,-8734.430116,1225.752797
3415.623645,-1036.288319,-9844.739029,229.828649
3415.623973,-518.144159,-11843.295072,-2528.115143
3415.624301,-1406.391290,-10807.006753,-3370.820191
3415.624628,-1036.288319,-10066.800811,-3447.429741
3415.624956,-1258.350101,-9770.718434,-995.924147
3415.625284,-222.061783,-11029.068536,842.705048
3415.625612,666.185348,-10288.862594,1072.533697
3415.625939,962.267725,-8216.285956,-919.314598
3415.626267,74.020594,-9178.553681,-612.876398
3415.626595,518.144159,-9474.636058,229.828649
3415.626923,444.123565,-8364.327145,459.657299
3415.627251,148.041188,-8586.388927,689.485948
3415.627578,-666.185348,-8512.368333,1685.410096
3415.627906,888.247130,-9992.780217,995.924147
3415.628234,592.164754,-11029.068536,383.047749
3415.628562,0.000000,-10807.006753,0.000000
3415.628890,-444.123565,-8438.347739,-612.876398
3415.629217,-296.082377,-6735.874072,-459.657299
3415.629545,-962.267725,-7772.162391,-995.924147
3415.629873,-2812.782580,-9474.636058,689.485948
3415.630201,-1110.308913,-9474.636058,1685.410096
3415.630528,2072.576638,-10214.842000,229.828649
3415.630856,3108.864956,-11769.274478,-1378.971896
3415.631184,1332.370696,-12065.356855,-153.219100
3415.631512,222.061783,-9474.636058,459.657299
3415.631840,0.000000,-8586.388927,153.219100
3415.632167,0.000000,-8290.306550,-612.876398
3415.632495,-1554.432478,-8882.471304,-383.047749
3415.632823,-1702.473667,-8142.265362,-306.438199
3415.633151,666.185348,-9992.780217,0.000000
3415.633479,2664.741391,-11621.233289,-766.095498
3415.633806,1924.535449,-12139.377449,919.314598
3415.634134,74.020594,-10658.965565,1685.410096
3415.634462,444.123565,-8142.265362,-995.924147
3415.634790,-370.102971,-8586.388927,-2528.115143
3415.635117,-444.123565,-10881.027347,-2221.676944
3415.635445,-962.267725,-9252.574275,-1149.143247
3415.635773,0.000000,-9474.636058,842.705048
3415.636101,1332.370696,-10584.944971,536.266849
3415.636429,962.267725,-10881.027347,-842.705048
3415.636756,-1110.308913,-10140.821405,0.000000
3415.637084,370.102971,-9030.512492,-2374.896044
3415.637412,0.000000,-9770.718434,-1685.410096
3415.637740,1776.494261,-11177.109724,0.000000
3415.638067,1924.535449,-9178.553681,1762.019645
3415.638395,2664.741391,-9252.574275,1915.238745
3415.638723,3256.906145,-8660.409521,1072.533697
3415.639051,2220.617826,-9622.677246,76.609550
3415.639378,962.267725,-9178.553681,306.438199
3415.639706,-592.164754,-7031.956449,-1072.533697
3415.640034,740.205942,-7698.141797,-766.095498
3415.640361,1332.370696,-10362.883188,459.657299
3415.640689,0.000000,-10584.944971,2221.676944
3415.641017,-1110.308913,-10140.821405,1149.143247
3415.641345,-666.185348,-10510.924376,-2911.162892
3415.641672,-962.267725,-11399.171507,-3753.867940
3415.642000,444.123565,-10584.944971,-2068.457845
3415.642328,-296.082377,-8956.491898,612.876398
3415.642656,-666.185348,-8808.450710,2757.943793
3415.642983,1110.308913,-9030.512492,1378.971896
3415.643311,1924.535449,-10288.862594,-1225.752797
3415.643639,-296.082377,-10362.883188,-229.828649
3415.643966,0.000000,-7476.080014,-766.095498
3415.644294,444.123565,-8068.244768,-1838.629195
3415.644622,444.123565,-11029.068536,-612.876398
3415.644950,0.000000,-10807.006753,995.924147
3415.645277,592.164754,-9474.636058,1915.238745
3415.645605,1406.391290,-9474.636058,1685.410096
3415.645933,2220.617826,-12435.459826,-1302.362347
3415.646261,444.123565,-10658.965565,-1149.143247
3415.646588,-296.082377,-5403.503377,-1072.533697
3415.646916,-444.123565,-6069.688724,-1991.848295
3415.647244,-1258.350101,-11547.212695,-306.438199
3415.647571,-1850.514855,-11325.150913,1378.971896
3415.647899,1110.308913,-9992.780217,306.438199
3415.648227,1924.535449,-10214.842000,-919.314598
3415.648555,1480.411884,-11177.109724,-1378.971896
3415.648882,814.226536,-11843.295072,229.828649
3415.649210,1036.288319,-9474.636058,459.657299
3415.649538,1036.288319,-7772.162391,-306.438199
3415.649865,0.000000,-9400.615463,-229.828649
3415.650193,-370.102971,-9474.636058,459.657299
3415.650521,-814.226536,-8586.388927,1149.143247
3415.650849,0.000000,-8438.347739,459.657299
3415.651176,-148.041188,-10658.965565,536.266849
3415.651504,0.000000,-12213.398043,-306.438199
3415.651832,0.000000,-9474.636058,-1838.629195
3415.652160,-296.082377,-8660.409521,-2528.115143
3415.652487,-1036.288319,-9622.677246,-1455.581446
3415.652815,0.000000,-8956.491898,-229.828649
3415.653143,-888.247130,-9474.636058,612.876398
3415.653470,-592.164754,-8660.409521,383.047749
3415.653798,-1406.391290,-8068.244768,0.000000
3415.654126,-1332.370696,-11621.233289,-842.705048
3415.654454,-1480.411884,-11251.130318,-1915.238745
3415.654781,-296.082377,-8956.491898,-1532.190996
3415.655109,1776.494261,-9474.636058,-995.924147
3415.655437,2220.617826,-11695.253884,229.828649
3415.655765,2664.741391,-11325.150913,2221.676944
3415.656092,1702.473667,-7772.162391,1225.752797
3415.656420,222.061783,-8364.327145,536.266849
3415.656748,444.123565,-9474.636058,-459.657299
3415.657075,666.185348,-8216.285956,-689.485948
3415.657403,148.041188,-9844.739029,459.657299
3415.657731,1332.370696,-10362.883188,536.266849
3415.658059,2368.659014,-10955.047942,-1149.143247
3415.658386,444.123565,-11251.130318,-689.485948
3415.658714,-2146.597232,-9844.739029,-459.657299
3415.659042,-1406.391290,-8882.471304,-1072.533697
3415.659369,-1702.473667,-7550.100608,-689.485948
3415.659697,-2072.576638,-8290.306550,383.047749
3415.660025,-1110.308913,-9770.718434,919.314598
3415.660353,1110.308913,-9622.677246,0.000000
3415.660680,2294.638420,-9622.677246,-306.438199
3415.661008,3256.906145,-10584.944971,459.657299
3415.661336,1554.432478,-10066.800811,1302.362347
3415.661664,1036.288319,-9400.615463,1915.238745
3415.661991,518.144159,-8142.265362,229.828649
3415.662319,518.144159,-8586.388927,-1532.190996
3415.662647,74.020594,-9918.759623,153.219100
3415.662974,0.000000,-10066.800811,383.047749
3415.663302,814.226536,-9992.780217,-612.876398
3415.663630,0.000000,-8956.491898,-766.095498
3415.663958,0.000000,-9178.553681,-919.314598
3415.664285,-592.164754,-9326.594869,153.219100
3415.664613,962.267725,-9548.656652,153.219100
3415.664941,1184.329507,-9474.636058,229.828649
3415.665268,1628.453072,-10362.883188,689.485948
3415.665596,3330.926739,-8586.388927,0.000000
3415.665924,2072.576638,-7994.224174,-995.924147
3415.666252,-370.102971,-9844.739029,0.000000
3415.666579,-1184.329507,-10807.006753,-612.876398
3415.666907,74.020594,-11103.089130,-1225.752797
3415.667235,1850.514855,-11103.089130,-1915.238745
3415.667563,1776.494261,-11029.068536,-995.924147
3415.667890,1406.391290,-10732.986159,1149.143247
3415.668218,2368.659014,-10362.883188,1302.362347
3415.668546,2368.659014,-9696.697840,229.828649
3415.668873,-296.082377,-7994.224174,-919.314598
3415.669201,-2368.659014,-7179.997637,-1378.971896
3415.669529,-1776.494261,-9844.739029,-1225.752797
3415.669857,-1258.350101,-9992.780217,153.219100
3415.670184,-296.082377,-9474.636058,-229.828649
3415.670512,-1258.350101,-11103.089130,612.876398
3415.670840,-592.164754,-10658.965565,-536.266849
3415.671168,-74.020594,-9918.759623,-2221.676944
3415.671495,-148.041188,-8882.471304,-2451.505594
3415.671823,-592.164754,-9030.512492,-229.828649
3415.672151,0.000000,-10362.883188,842.705048
3415.672478,-740.205942,-11177.109724,2145.067394
3415.672806,-296.082377,-9622.677246,1378.971896
3415.673134,666.185348,-7994.224174,-229.828649
3415.673462,0.000000,-8808.450710,0.000000
3415.673789,-1110.308913,-9474.636058,-76.609550
3415.674117,-148.041188,-7772.162391,-1072.533697
3415.674445,888.247130,-8660.409521,0.000000
3415.674772,2590.720797,-11029.068536,919.314598
3415.675100,1776.494261,-10807.006753,919.314598
3415.675428,0.000000,-9696.697840,1608.800546
3415.675756,-1332.370696,-9104.533087,76.609550
3415.676083,-1258.350101,-9548.656652,-2145.067394
3415.676411,-1702.473667,-9400.615463,-2145.067394
3415.676739,-2516.700203,-9696.697840,-383.047749
3415.677067,-1776.494261,-9770.718434,-153.219100
3415.677394,74.020594,-10140.821405,-1685.410096
3415.677722,1036.288319,-11547.212695,-2528.115143
3415.678050,1258.350101,-11473.192101,-995.924147
3415.678377,1258.350101,-9326.594869,229.828649
3415.678705,888.247130,-9844.739029,1532.190996
3415.679033,1480.411884,-10732.986159,689.485948
3415.679361,1776.494261,-10658.965565,-459.657299
3415.679688,370.102971,-9252.574275,229.828649
3415.680016,740.205942,-7772.162391,-229.828649
3415.680344,518.144159,-8512.368333,-306.438199
3415.680672,666.185348,-9992.780217,689.485948
3415.680999,-962.267725,-8882.471304,306.438199
3415.681327,0.000000,-8068.244768,0.000000
3415.681655,1258.350101,-10140.821405,-383.047749
3415.681982,1850.514855,-12213.398043,0.000000
3415.682310,1628.453072,-10362.883188,1685.410096
3415.682638,1702.473667,-5921.647536,0.000000
3415.682966,888.247130,-8808.450710,-689.485948
3415.683293,444.123565,-10732.986159,-459.657299
3415.683621,444.123565,-9252.574275,766.095498
3415.683949,296.082377,-8290.306550,842.705048
3415.684276,592.164754,-9696.697840,306.438199
3415.684604,1332.370696,-11695.253884,-766.095498
3415.684932,1110.308913,-10288.862594,-995.924147
3415.685260,1406.391290,-8142.265362,0.000000
3415.685587,1406.391290,-9326.594869,153.219100
3415.685915,740.205942,-10066.800811,0.000000
3415.686243,-296.082377,-8808.450710,-229.828649
3415.686571,-296.082377,-9252.574275,229.828649
3415.686898,444.123565,-9252.574275,76.609550
3415.687226,0.000000,-11251.130318,229.828649
3415.687554,-444.123565,-11695.253884,0.000000
3415.687881,-518.144159,-9622.677246,-1685.410096
3415.688209,-666.185348,-9326.594869,-2834.553343
3415.688537,-1036.288319,-11251.130318,-2757.943793
3415.688865,-1110.308913,-10881.027347,-2221.676944
3415.689192,-962.267725,-9992.780217,383.047749
3415.689520,-370.102971,-9474.636058,1455.581446
3415.689848,222.061783,-10510.924376,1302.362347
3415.690175,592.164754,-9400.615463,0.000000
3415.690503,0.000000,-9474.636058,-306.438199
3415.690831,-296.082377,-8438.347739,-612.876398
3415.691159,370.102971,-8068.244768,-612.876398
3415.691486,1036.288319,-10140.821405,-919.314598
3415.691814,222.061783,-10362.883188,1149.143247
3415.692142,666.185348,-9474.636058,1072.533697
3415.692470,148.041188,-9918.759623,-612.876398
3415.692797,-518.144159,-11547.212695,-1072.533697
3415.693125,-962.267725,-10436.903782,-1302.362347
3415.693453,-962.267725,-8660.409521,-766.095498
3415.693780,-1850.514855,-8068.244768,459.657299
3415.694108,-1406.391290,-8660.409521,459.657299
3415.694436,-888.247130,-9622.677246,-766.095498
3415.694764,74.020594,-8808.450710,-1225.752797
3415.695091,1776.494261,-8512.368333,-536.266849
3415.695419,1332.370696,-9770.718434,536.266849
3415.695747,296.082377,-11029.068536,1685.410096
3415.696075,1776.494261,-9918.759623,459.657299
3415.696402,2516.700203,-10288.862594,-1455.581446
3415.696730,1480.411884,-9252.574275,-766.095498
3415.697058,1554.432478,-9844.739029,-383.047749
3415.697385,1258.350101,-10362.883188,229.828649
3415.697713,1110.308913,-9252.574275,-306.438199
3415.698041,-370.102971,-7994.224174,229.828649
3415.698369,-518.144159,-9252.574275,306.438199
3415.698696,592.164754,-9474.636058,-459.657299
3415.699024,1258.350101,-10658.965565,-689.485948
3415.699352,2368.659014,-9252.574275,-1915.238745
3415.699679,2590.720797,-8586.388927,-2068.457845
3415.700007,1480.411884,-11103.089130,-1378.971896
3415.700335,0.000000,-11029.068536,0.000000
3415.700663,592.164754,-9400.615463,153.219100
3415.700990,2368.659014,-10510.924376,612.876398
3415.701318,2072.576638,-11695.253884,0.000000
3415.701646,1258.350101,-10955.047942,0.000000
3415.701974,1850.514855,-9622.677246,-383.047749
3415.702301,1850.514855,-8586.388927,-229.828649
3415.702629,592.164754,-9474.636058,536.266849
3415.702957,-1554.432478,-8364.327145,919.314598
3415.703284,-2738.761985,-7105.977043,383.047749
3415.703612,-962.267725,-7772.162391,-1532.190996
3415.703940,-370.102971,-10807.006753,-689.485948
3415.704268,0.000000,-11843.295072,1149.143247
3415.704595,888.247130,-10584.944971,995.924147
3415.704923,592.164754,-9400.615463,-842.705048
3415.705251,888.247130,-9622.677246,-1378.971896
3415.705579,0.000000,-9104.533087,-1225.752797
3415.705906,-1184.329507,-8734.430116,229.828649
3415.706234,-1480.411884,-7846.182985,1149.143247
3415.706562,-148.041188,-9770.718434,995.924147
3415.706889,0.000000,-11177.109724,536.266849
3415.707217,148.041188,-10807.006753,0.000000
3415.707545,296.082377,-8364.327145,-995.924147
3415.707873,444.123565,-8512.368333,-1072.533697
3415.708200,-222.061783,-9104.533087,-612.876398
3415.708528,0.000000,-9474.636058,1302.362347
3415.708856,-222.061783,-9474.636058,1378.971896
3415.709183,444.123565,-8956.491898,459.657299
3415.709511,1110.308913,-11843.295072,-536.266849
3415.709839,-740.205942,-11843.295072,-1225.752797
3415.710167,-814.226536,-10140.821405,-2681.334243
3415.710494,-1258.350101,-8438.347739,-2221.676944
3415.710822,-1480.411884,-8808.450710,-1532.190996
3415.711150,-2738.761985,-10436.903782,0.000000
3415.711478,-2368.659014,-10584.944971,76.609550
3415.711805,296.082377,-8364.327145,-1532.190996
3415.712133,2886.803174,-9400.615463,-1685.410096
3415.712461,2072.576638,-10510.924376,459.657299
3415.712788,1776.494261,-11177.109724,2298.286494
3415.713116,2294.638420,-9474.636058,1762.019645
3415.713444,3627.009116,-9770.718434,-919.314598
3415.713772,888.247130,-10362.883188,-689.485948
3415.714099,-1184.329507,-9622.677246,153.219100
3415.714427,-2072.576638,-7846.182985,0.000000
3415.714755,-1110.308913,-8142.265362,-689.485948
3415.715082,296.082377,-9918.759623,-1378.971896
3415.715410,592.164754,-10214.842000,842.705048
3415.715738,1628.453072,-9474.636058,919.314598
3415.716066,2368.659014,-9548.656652,0.000000
3415.716393,1776.494261,-10288.862594,-459.657299
3415.716721,518.144159,-8660.409521,995.924147
3415.717049,370.102971,-5995.668130,0.000000
3415.717377,-296.082377,-7772.162391,1378.971896
3415.717704,1554.432478,-9770.718434,1072.533697
3415.718032,2812.782580,-12287.418637,306.438199
3415.718360,3034.844362,-12065.356855,-536.266849
3415.718687,2516.700203,-11325.150913,-2221.676944
3415.719015,1480.411884,-10881.027347,-2068.457845
3415.719343,962.267725,-10362.883188,-306.438199
3415.719671,148.041188,-8808.450710,383.047749
3415.719998,-1036.288319,-7624.121203,2068.457845
3415.720326,-444.123565,-8290.306550,383.047749
3415.720654,148.041188,-9696.697840,0.000000
3415.720982,0.000000,-10807.006753,0.000000
3415.721309,0.000000,-9770.718434,-536.266849
3415.721637,1036.288319,-10214.842000,-1838.629195
3415.721965,518.144159,-9918.759623,-2374.896044
3415.722292,0.000000,-10362.883188,-995.924147
3415.722620,-444.123565,-10955.047942,1149.143247
3415.722948,-148.041188,-9696.697840,1149.143247
3415.723276,222.061783,-11029.068536,-229.828649
3415.723603,-814.226536,-10881.027347,76.609550
3415.723931,-888.247130,-8142.265362,-919.314598
3415.724259,0.000000,-7179.997637,-689.485948
3415.724586,-296.082377,-9400.615463,-995.924147
3415.724914,-1184.329507,-10066.800811,0.000000
3415.725242,-370.102971,-8512.368333,383.047749
3415.725570,-222.061783,-8142.265362,1532.190996
3415.725897,-222.061783,-9178.553681,2068.457845
3415.726225,666.185348,-9918.759623,766.095498
3415.726553,148.041188,-9696.697840,0.000000
3415.726881,888.247130,-8364.327145,-1378.971896
3415.727208,1406.391290,-9770.718434,-1149.143247
3415.727536,888.247130,-12657.521608,0.000000
3415.727864,0.000000,-10288.862594,383.047749
3415.728191,-2368.659014,-7846.182985,842.705048
3415.728519,-3997.112087,-8734.430116,153.219100
3415.728847,-3404.947333,-10436.903782,-1915.238745
3415.729175,-2072.576638,-8660.409521,-2374.896044
3415.729502,962.267725,-7994.224174,-3064.381992
3415.729830,1406.391290,-10066.800811,-919.314598
3415.730158,2516.700203,-12953.603985,1149.143247
3415.730486,1628.453072,-10436.903782,1838.629195
3415.730813,1628.453072,-9844.739029,1149.143247
3415.731141,740.205942,-9400.615463,1072.533697
3415.731469,518.144159,-9770.718434,-306.438199
3415.731796,0.000000,-10214.842000,153.219100
3415.732124,592.164754,-9178.553681,-536.266849
3415.732452,592.164754,-8586.388927,-1455.581446
3415.732780,444.123565,-9326.594869,0.000000
3415.733107,0.000000,-11177.109724,0.000000
3415.733435,370.102971,-10584.944971,-229.828649
3415.733763,1036.288319,-8216.285956,689.485948
3415.734090,1924.535449,-6661.853478,229.828649
3415.734418,962.267725,-8364.327145,1149.143247
3415.734746,-370.102971,-9918.759623,2451.505594
3415.735074,1184.329507,-8586.388927,612.876398
3415.735401,2442.679609,-10510.924376,-1838.629195
3415.735729,2590.720797,-12213.398043,-2221.676944
3415.736057,1184.329507,-11251.130318,-383.047749
3415.736385,814.226536,-10214.842000,689.485948
3415.736712,222.061783,-8734.430116,1685.410096
3415.737040,296.082377,-9474.636058,766.095498
3415.737368,-444.123565,-8882.471304,-153.219100
3415.737695,-888.247130,-7105.977043,-536.266849
3415.738023,-222.061783,-8216.285956,-1072.533697
3415.738351,1702.473667,-10066.800811,-842.705048
3415.738679,814.226536,-11103.089130,842.705048
3415.739006,740.205942,-10510.924376,1608.800546
3415.739334,1036.288319,-8734.430116,459.657299
3415.739662,666.185348,-10288.862594,0.000000
3415.739990,296.082377,-10732.986159,-766.095498
3415.740317,0.000000,-10732.986159,-766.095498
3415.740645,-1554.432478,-9696.697840,-766.095498
3415.740973,-1036.288319,-9992.780217,-1762.019645
3415.741301,-1184.329507,-10214.842000,-1915.238745
3415.741629,-888.247130,-10362.883188,-1302.362347
3415.741956,-962.267725,-9622.677246,-536.266849
3415.742284,0.000000,-9474.636058,689.485948
3415.742612,1036.288319,-10140.821405,689.485948
3415.742940,666.185348,-10510.924376,612.876398
3415.743267,370.102971,-8142.265362,842.705048
3415.743595,518.144159,-7698.141797,0.000000
3415.743923,666.185348,-10066.800811,-995.924147
3415.744251,-518.144159,-10881.027347,-995.924147
3415.744579,0.000000,-11177.109724,-459.657299
3415.744906,0.000000,-9844.739029,153.219100
3415.745234,-222.061783,-9844.739029,1838.629195
3415.745562,-3256.906145,-10140.821405,1532.190996
3415.745890,-3701.029710,-10436.903782,0.000000
3415.746217,-2072.576638,-7328.038826,-3830.477490
3415.746545,518.144159,-7476.080014,-4443.353888
3415.746873,-222.061783,-9770.718434,-842.705048
3415.747201,0.000000,-10881.027347,3447.429741
3415.747529,1406.391290,-8216.285956,3217.601092
3415.747856,2146.597232,-8808.450710,1072.533697
3415.748184,592.164754,-11621.233289,536.266849
3415.748512,666.185348,-9400.615463,-383.047749
3415.748840,666.185348,-6587.832884,-612.876398
3415.749167,2368.659014,-8290.306550,-612.876398
3415.749495,1554.432478,-10881.027347,-459.657299
3415.749823,0.000000,-11103.089130,1072.533697
3415.750151,1480.411884,-8882.471304,1072.533697
3415.750479,1776.494261,-10362.883188,-842.705048
3415.750806,1258.350101,-11769.274478,-383.047749
3415.751134,666.185348,-7105.977043,-766.095498
3415.751462,-592.164754,-7031.956449,-383.047749
3415.751790,-222.061783,-9474.636058,-1302.362347
3415.752117,1628.453072,-12361.439231,-1225.752797
3415.752445,1702.473667,-11695.253884,0.000000
3415.752773,2368.659014,-11325.150913,-383.047749
3415.753101,2220.617826,-12361.439231,-1149.143247
3415.753429,1998.556043,-11695.253884,-153.219100
3415.753756,1924.535449,-9844.739029,-229.828649
3415.754084,370.102971,-8586.388927,1378.971896
3415.754412,0.000000,-7254.018232,842.705048
3415.754740,888.247130,-8216.285956,-306.438199
3415.755067,1036.288319,-11029.068536,-1532.190996
3415.755395,962.267725,-9992.780217,-1225.752797
3415.755723,74.020594,-9918.759623,612.876398
3415.756051,0.000000,-10807.006753,1991.848295
3415.756379,592.164754,-9696.697840,-612.876398
3415.756706,444.123565,-9770.718434,-1225.752797
3415.757034,-814.226536,-9104.533087,0.000000
3415.757362,814.226536,-9474.636058,-766.095498
3415.757690,444.123565,-10807.006753,0.000000
3415.758017,-1184.329507,-9400.615463,536.266849
3415.758345,-2368.659014,-7994.224174,995.924147
3415.758673,-1998.556043,-7179.997637,0.000000
3415.759001,-1480.411884,-8808.450710,-1915.238745
3415.759329,-296.082377,-10436.903782,-995.924147
3415.759656,1332.370696,-10140.821405,536.266849
3415.759984,2146.597232,-9770.718434,1225.752797
3415.760312,2442.679609,-9030.512492,229.828649
3415.760640,592.164754,-9252.574275,842.705048
3415.760967,-740.205942,-9252.574275,1762.019645
3415.761295,-1332.370696,-8808.450710,0.000000
3415.761623,1628.453072,-8660.409521,-1991.848295
3415.761951,0.000000,-9844.739029,-153.219100
3415.762279,-2072.576638,-11325.150913,2068.457845
3415.762606,-3256.906145,-11325.150913,459.657299
3415.762934,-3182.885551,-10436.903782,-3907.087040
3415.763262,-2220.617826,-9252.574275,-5975.544884
3415.763590,-888.247130,-9918.759623,-4213.525239
3415.763917,0.000000,-11029.068536,612.876398
3415.764245,2886.803174,-11399.171507,3140.991542
3415.764573,3849.070898,-10732.986159,2145.067394
3415.764901,2220.617826,-10881.027347,612.876398
3415.765229,-592.164754,-9474.636058,229.828649
3415.765556,-370.102971,-7402.059420,-1532.190996
3415.765884,-444.123565,-7624.121203,-1991.848295
3415.766212,-296.082377,-9696.697840,-1072.533697
3415.766540,296.082377,-10807.006753,689.485948
3415.766867,1850.514855,-10881.027347,1762.019645
3415.767195,2960.823768,-10881.027347,1225.752797
3415.767523,1110.308913,-10436.903782,229.828649
3415.767851,444.123565,-8512.368333,153.219100
3415.768179,1110.308913,-4737.318029,-1608.800546
3415.768506,-296.082377,-5921.647536,-1378.971896
3415.768834,-666.185348,-10066.800811,1149.143247
3415.769162,444.123565,-10436.903782,2145.067394
3415.769490,2590.720797,-10732.986159,1455.581446
3415.769817,3182.885551,-11103.089130,-842.705048
3415.770145,1998.556043,-11843.295072,-766.095498
3415.770473,1332.370696,-11473.192101,-1302.362347
3415.770801,1110.308913,-8142.265362,-1685.410096
3415.771129,814.226536,-7920.203579,-536.266849
3415.771456,-370.102971,-8216.285956,919.314598
3415.771784,-1184.329507,-9622.677246,1149.143247
3415.772112,0.000000,-9844.739029,229.828649
3415.772440,888.247130,-9178.553681,-1149.143247
3415.772767,888.247130,-9400.615463,306.438199
3415.773095,1628.453072,-11029.068536,383.047749
3415.773423,1850.514855,-10732.986159,-536.266849
3415.773751,962.267725,-9326.594869,-1608.800546
3415.774079,740.205942,-10436.903782,-1991.848295
3415.774406,74.020594,-11843.295072,-1455.581446
3415.774734,-814.226536,-10288.862594,689.485948
3415.775062,-740.205942,-9030.512492,536.266849
3415.775390,-1776.494261,-9622.677246,1149.143247
3415.775717,0.000000,-10955.047942,-766.095498
3415.776045,-740.205942,-9474.636058,-1532.190996
3415.776373,-296.082377,-7994.224174,-1685.410096
3415.776701,0.000000,-7624.121203,-306.438199
3415.777029,370.102971,-9844.739029,766.095498
3415.777356,148.041188,-9992.780217,1455.581446
3415.777684,0.000000,-8438.347739,612.876398
3415.778012,0.000000,-10436.903782,0.000000
3415.778340,666.185348,-11621.233289,-306.438199
3415.778667,2294.638420,-10140.821405,-1072.533697
3415.778995,1480.411884,-8956.491898,0.000000
3415.779323,-592.164754,-8586.388927,1532.190996
3415.779651,-1628.453072,-10214.842000,1072.533697
3415.779979,-2294.638420,-11029.068536,-1455.581446
3415.780306,-3034.844362,-7846.182985,-2987.772442
3415.780634,-1998.556043,-7328.038826,-2604.724693
3415.780962,-1406.391290,-10140.821405,-383.047749
3415.781290,814.226536,-11251.130318,1072.533697
3415.781617,1702.473667,-9770.718434,229.828649
3415.781945,1332.370696,-7772.162391,0.000000
3415.782273,1110.308913,-9252.574275,-536.266849
3415.782601,1184.329507,-10436.903782,-229.828649
3415.782929,-518.144159,-8586.388927,459.657299
3415.783256,-962.267725,-9252.574275,229.828649
3415.783584,0.000000,-9696.697840,842.705048
3415.783912,2812.782580,-11251.130318,536.266849
3415.784240,2294.638420,-11769.274478,459.657299
3415.784567,592.164754,-10955.047942,1072.533697
3415.784895,-296.082377,-7846.182985,-1225.752797
3415.785223,814.226536,-5329.482782,-3294.210641
3415.785551,-1184.329507,-8956.491898,-1532.190996
3415.785879,-3108.864956,-9770.718434,1225.752797
3415.786206,-1480.411884,-9474.636058,2451.505594
3415.786534,2590.720797,-10955.047942,1302.362347
3415.786862,4515.256246,-13619.789333,-1455.581446
3415.787190,1628.453072,-12435.459826,0.000000
3415.787517,1850.514855,-9696.697840,-306.438199
3415.787845,1776.494261,-8290.306550,-689.485948
3415.788173,1258.350101,-9474.636058,-1072.533697
3415.788501,-1850.514855,-8142.265362,229.828649
3415.788829,-2590.720797,-8438.347739,1302.362347
3415.789156,444.123565,-9622.677246,459.657299
3415.789484,2368.659014,-11473.192101,-1532.190996
3415.789812,1406.391290,-12065.356855,536.266849
3415.790140,1406.391290,-9030.512492,76.609550
3415.790467,1480.411884,-7179.997637,-1149.143247
3415.790795,1776.494261,-10140.821405,-766.095498
3415.791123,1258.350101,-10140.821405,-689.485948
3415.791451,-296.082377,-8660.409521,229.828649
3415.791778,-592.164754,-8660.409521,1455.581446
3415.792106,444.123565,-12213.398043,995.924147
3415.792434,-888.247130,-13101.645173,995.924147
3415.792762,-1776.494261,-10362.883188,-612.876398
3415.793090,-1480.411884,-7031.956449,-4903.011187
3415.793417,74.020594,-7624.121203,-4366.744339
3415.793745,518.144159,-9104.533087,-919.314598
3415.794073,222.061783,-9992.780217,3217.601092
3415.794401,666.185348,-8586.388927,3907.087040
3415.794728,1480.411884,-8734.430116,1532.190996
3415.795056,592.164754,-10955.047942,153.219100
3415.795384,-1258.350101,-10066.800811,-153.219100
3415.795712,222.061783,-10288.862594,-1991.848295
3415.796040,2294.638420,-10140.821405,-2834.553343
3415.796367,1628.453072,-10881.027347,-1685.410096
3415.796695,-1258.350101,-11177.109724,842.705048
3415.797023,-2368.659014,-10955.047942,1455.581446
3415.797351,-2220.617826,-9992.780217,-995.924147
3415.797678,-1184.329507,-9474.636058,-3064.381992
3415.798006,-2146.597232,-9918.759623,-2451.505594
3415.798334,-222.061783,-10214.842000,306.438199
3415.798662,2072.576638,-9178.553681,842.705048
3415.798990,1702.473667,-9918.759623,1225.752797
3415.799317,1184.329507,-9622.677246,0.000000
3415.799645,-444.123565,-8142.265362,-689.485948
3415.799973,-1258.350101,-7772.162391,-1302.362347
3415.800301,-666.185348,-8734.430116,-1378.971896
3415.800628,0.000000,-9992.780217,689.485948
3415.800956,888.247130,-10658.965565,2451.505594
3415.801284,3256.906145,-10955.047942,536.266849
3415.801612,2590.720797,-11029.068536,76.609550
3415.801940,2072.576638,-9918.759623,-229.828649
3415.802267,444.123565,-7698.141797,-229.828649
3415.802595,-1110.308913,-3478.967927,-612.876398
3415.802923,-2886.803174,-5329.482782,-153.219100
3415.803251,-2368.659014,-11473.192101,995.924147
3415.803578,74.020594,-12731.542202,1915.238745
3415.803906,2516.700203,-11769.274478,0.000000
3415.804234,2220.617826,-11473.192101,-2451.505594
3415.804562,2516.700203,-12361.439231,-2451.505594
3415.804890,1850.514855,-9918.759623,-1838.629195
3415.805217,1628.453072,-9178.553681,-383.047749
3415.805545,-370.102971,-7994.224174,1302.362347
3415.805873,222.061783,-9400.615463,766.095498
3415.806201,148.041188,-10584.944971,689.485948
3415.806528,296.082377,-9474.636058,229.828649
3415.806856,0.000000,-9992.780217,-1072.533697
3415.807184,444.123565,-10807.006753,-1532.190996
3415.807512,1480.411884,-10362.883188,-2834.553343
3415.807840,1110.308913,-10214.842000,-2451.505594
3415.808167,444.123565,-9178.553681,76.609550
3415.808495,1480.411884,-9844.739029,842.705048
3415.808823,2220.617826,-11399.171507,842.705048
3415.809151,1406.391290,-10584.944971,1991.848295
3415.809478,148.041188,-9474.636058,1149.143247
3415.809806,-592.164754,-9770.718434,383.047749
3415.810134,-1184.329507,-9178.553681,-1762.019645
3415.810462,-1258.350101,-10214.842000,-2757.943793
3415.810790,-666.185348,-8586.388927,-1915.238745
3415.811117,-1110.308913,-7254.018232,0.000000
3415.811445,-1036.288319,-8586.388927,1149.143247
3415.811773,-444.123565,-8512.368333,306.438199
3415.812101,592.164754,-8660.409521,229.828649
3415.812428,1110.308913,-9992.780217,459.657299
3415.812756,1702.473667,-10436.903782,536.266849
3415.813084,2072.576638,-11473.192101,-383.047749
3415.813412,1110.308913,-10658.965565,229.828649
3415.813740,962.267725,-8142.265362,153.219100
3415.814067,0.000000,-6587.832884,612.876398
3415.814395,-666.185348,-8586.388927,306.438199
3415.814723,-2442.679609,-11325.150913,-153.219100
3415.815051,-2146.597232,-12435.459826,-2298.286494
3415.815378,0.000000,-10066.800811,-3983.696590
3415.815706,518.144159,-8882.471304,-3140.991542
3415.816034,-592.164754,-10584.944971,306.438199
3415.816362,-148.041188,-11547.212695,2145.067394
3415.816690,1332.370696,-8956.491898,-459.657299
3415.817017,2072.576638,-9030.512492,-1838.629195
3415.817345,0.000000,-11251.130318,-612.876398
3415.817673,0.000000,-9548.656652,919.314598
3415.818001,296.082377,-7476.080014,612.876398
3415.818328,518.144159,-9252.574275,0.000000
3415.818656,74.020594,-11547.212695,-459.657299
3415.818984,-814.226536,-11399.171507,612.876398
3415.819312,296.082377,-8882.471304,0.000000
3415.819640,1480.411884,-9030.512492,-919.314598
3415.819967,1110.308913,-9400.615463,536.266849
3415.820295,296.082377,-6439.791695,1685.410096
3415.820623,-666.185348,-7031.956449,1378.971896
3415.820951,-1554.432478,-8438.347739,306.438199
3415.821278,-740.205942,-9474.636058,0.000000
3415.821606,0.000000,-9474.636058,-536.266849
3415.821934,1406.391290,-9918.759623,-919.314598
3415.822262,1480.411884,-10510.924376,0.000000
3415.822590,2664.741391,-12361.439231,0.000000
3415.822917,2516.700203,-11473.192101,-229.828649
3415.823245,1776.494261,-8734.430116,229.828649
3415.823573,74.020594,-7698.141797,-306.438199
3415.823901,-1036.288319,-8364.327145,0.000000
3415.824228,-1776.494261,-8734.430116,0.000000
3415.824556,-888.247130,-9474.636058,0.000000
3415.824884,518.144159,-10510.924376,76.609550
3415.825212,2072.576638,-11029.068536,-306.438199
3415.825540,2072.576638,-11177.109724,-766.095498
3415.825867,814.226536,-10807.006753,-842.705048
3415.826195,74.020594,-9474.636058,-1991.848295
3415.826523,814.226536,-9548.656652,-2145.067394
3415.826851,-444.123565,-11177.109724,0.000000
3415.827178,-1110.308913,-10881.027347,1838.629195
3415.827506,-518.144159,-10362.883188,383.047749
3415.827834,0.000000,-10584.944971,-1378.971896
3415.828162,-518.144159,-9992.780217,-2451.505594
3415.828490,-1480.411884,-9326.594869,-1915.238745
3415.828817,-666.185348,-6957.935855,-306.438199
3415.829145,-148.041188,-7994.224174,-229.828649
3415.829473,444.123565,-10066.800811,0.000000
3415.829801,148.041188,-9918.759623,689.485948
3415.830128,814.226536,-10658.965565,1608.800546
3415.830456,814.226536,-10140.821405,766.095498
3415.830784,2516.700203,-10436.903782,-536.266849
3415.831112,2886.803174,-9844.739029,0.000000
3415.831440,1776.494261,-7105.977043,919.314598
3415.831767,74.020594,-8512.368333,1072.533697
3415.832095,0.000000,-12361.439231,1225.752797
3415.832423,-222.061783,-11843.295072,-689.485948
3415.832751,-740.205942,-7698.141797,-2221.676944
3415.833078,-1406.391290,-7179.997637,-2757.943793
3415.833406,-1406.391290,-10807.006753,0.000000
3415.833734,444.123565,-12509.480420,0.000000
3415.834062,148.041188,-9844.739029,-536.266849
3415.834390,296.082377,-7698.141797,-1762.019645
3415.834717,1184.329507,-7624.121203,-1762.019645
3415.835045,1924.535449,-8438.347739,383.047749
3415.835373,-222.061783,-8438.347739,2451.505594
3415.835701,148.041188,-9770.718434,2604.724693
3415.836028,1480.411884,-9548.656652,842.705048
3415.836356,2812.782580,-12731.542202,0.000000
3415.836684,1406.391290,-11547.212695,-612.876398
3415.837012,518.144159,-10214.842000,-689.485948
3415.837340,0.000000,-7105.977043,-459.657299
3415.837667,1110.308913,-8068.244768,-1991.848295
3415.837995,-1776.494261,-11103.089130,-536.266849
3415.838323,-2590.720797,-9696.697840,919.314598
3415.838651,-1850.514855,-8364.327145,612.876398
3415.838978,1628.453072,-10807.006753,383.047749
3415.839306,2294.638420,-11769.274478,-995.924147
3415.839634,888.247130,-11103.089130,383.047749
3415.839962,1036.288319,-8290.306550,536.266849
3415.840290,2294.638420,-9548.656652,-459.657299
3415.840617,1184.329507,-10436.903782,-919.314598
3415.840945,-2294.638420,-8364.327145,0.000000
3415.841273,-3404.947333,-7328.038826,459.657299
3415.841601,-1480.411884,-8956.491898,842.705048
3415.841928,518.144159,-12953.603985,-766.095498
3415.842256,1406.391290,-11991.336260,-229.828649
3415.842584,2516.700203,-8290.306550,-536.266849
3415.842912,2220.617826,-9992.780217,-766.095498
3415.843240,1924.535449,-10658.965565,0.000000
3415.843567,740.205942,-9548.656652,-766.095498
3415.843895,-1776.494261,-7846.182985,995.924147
3415.844223,-2220.617826,-7550.100608,1149.143247
3415.844551,-1480.411884,-9770.718434,536.266849
3415.844879,-1036.288319,-11029.068536,-229.828649
3415.845206,-592.164754,-10288.862594,-1685.410096
3415.845534,-370.102971,-8882.471304,-3370.820191
3415.845862,-814.226536,-7772.162391,-2068.457845
3415.846190,444.123565,-10140.821405,0.000000
3415.846517,1628.453072,-10288.862594,1378.971896
3415.846845,1258.350101,-8660.409521,1685.410096
3415.847173,666.185348,-10214.842000,1685.410096
3415.847501,1110.308913,-12805.562797,612.876398
3415.847829,1850.514855,-10881.027347,-536.266849
3415.848156,1110.308913,-8364.327145,-536.266849
3415.848484,1110.308913,-7698.141797,-383.047749
3415.848812,1036.288319,-8290.306550,-383.047749
3415.849140,0.000000,-10288.862594,0.000000
3415.849467,-1702.473667,-12583.501014,919.314598
3415.849795,-1184.329507,-10807.006753,-1532.190996
3415.850123,666.185348,-9178.553681,-3447.429741
3415.850451,-666.185348,-9474.636058,-1302.362347
3415.850779,-444.123565,-10510.924376,689.485948
3415.851106,814.226536,-8734.430116,1302.362347
3415.851434,2146.597232,-9844.739029,-306.438199
3415.851762,1036.288319,-10140.821405,-689.485948
3415.852090,1036.288319,-8660.409521,-383.047749
3415.852417,0.000000,-7031.956449,995.924147
3415.852745,0.000000,-9104.533087,1532.190996
3415.853073,74.020594,-10881.027347,842.705048
3415.853401,1184.329507,-11029.068536,919.314598
3415.853729,2368.659014,-9770.718434,-306.438199
3415.854056,2368.659014,-10362.883188,383.047749
3415.854384,2368.659014,-9400.615463,459.657299
3415.854712,74.020594,-6883.915261,1072.533697
3415.855040,-1776.494261,-6513.812290,0.000000
3415.855367,-2738.761985,-7846.182985,-536.266849
3415.855695,-814.226536,-9770.718434,-1149.143247
3415.856023,148.041188,-11621.233289,612.876398
3415.856351,1480.411884,-11843.295072,153.219100
3415.856679,1184.329507,-11621.233289,-612.876398
3415.857006,2072.576638,-11399.171507,-1685.410096
3415.857334,1998.556043,-9696.697840,-1455.581446
3415.857662,666.185348,-8956.491898,229.828649
3415.857990,-888.247130,-6661.853478,459.657299
3415.858318,-1184.329507,-8660.409521,612.876398
3415.858645,-962.267725,-10288.862594,842.705048
3415.858973,-592.164754,-10510.924376,459.657299
3415.859301,-814.226536,-10214.842000,-1072.533697
3415.859629,1554.432478,-11029.068536,-1915.238745
3415.859956,1332.370696,-10436.903782,-3677.258390
3415.860284,1924.535449,-11769.274478,-1378.971896
3415.860612,444.123565,-10510.924376,0.000000
3415.860940,1036.288319,-9474.636058,536.266849
3415.861268,222.061783,-10807.006753,2298.286494
3415.861595,-222.061783,-10066.800811,2145.067394
3415.861923,-1924.535449,-8660.409521,153.219100
3415.862251,-2072.576638,-8364.327145,-995.924147
3415.862579,-1406.391290,-8882.471304,-4290.134789
3415.862906,-1628.453072,-7772.162391,-3983.696590
3415.863234,-1998.556043,-8808.450710,-612.876398
3415.863562,370.102971,-9178.553681,766.095498
3415.863890,1406.391290,-11399.171507,2451.505594
3415.864218,1776.494261,-11325.150913,1991.848295
3415.864545,1554.432478,-11103.089130,1072.533697
3415.864873,1480.411884,-8142.265362,-919.314598
3415.865201,2738.761985,-8438.347739,-766.095498
3415.865529,962.267725,-10362.883188,-229.828649
3415.865856,888.247130,-8512.368333,612.876398
3415.866184,-370.102971,-6365.771101,919.314598
3415.866512,0.000000,-9474.636058,1072.533697
3415.866840,-1036.288319,-13323.706956,-229.828649
3415.867168,0.000000,-11917.315666,-2145.067394
3415.867495,222.061783,-7920.203579,-2451.505594
3415.867823,0.000000,-8512.368333,-1991.848295
3415.868151,1036.288319,-10732.986159,-1685.410096
3415.868479,814.226536,-11103.089130,76.609550
3415.868806,518.144159,-9918.759623,842.705048
3415.869134,1628.453072,-7994.224174,536.266849
3415.869462,2738.761985,-9770.718434,383.047749
3415.869790,1110.308913,-10214.842000,1762.019645
3415.870118,740.205942,-9696.697840,1991.848295
3415.870445,1036.288319,-8956.491898,0.000000
3415.870773,1628.453072,-10362.883188,-1532.190996
3415.871101,740.205942,-10881.027347,-1991.848295
3415.871429,-592.164754,-10214.842000,-612.876398
3415.871757,0.000000,-6883.915261,306.438199
3415.872084,1258.350101,-7624.121203,153.219100
3415.872412,-444.123565,-10288.862594,995.924147
3415.872740,-1258.350101,-10066.800811,1608.800546
3415.873068,-592.164754,-8956.491898,1225.752797
3415.873395,1628.453072,-9918.759623,-153.219100
3415.873723,2220.617826,-11029.068536,-1838.629195
3415.874051,-370.102971,-10955.047942,-1072.533697
3415.874379,-1184.329507,-9030.512492,-459.657299
3415.874707,1554.432478,-9400.615463,-1072.533697
3415.875034,740.205942,-10955.047942,-153.219100
3415.875362,-370.102971,-9474.636058,1072.533697
3415.875690,-1628.453072,-7920.203579,1455.581446
3415.876018,-1110.308913,-7550.100608,0.000000
3415.876345,-370.102971,-8808.450710,-1072.533697
3415.876673,-666.185348,-9992.780217,-1149.143247
3415.877001,-222.061783,-7846.182985,-459.657299
3415.877329,740.205942,-10362.883188,-229.828649
3415.877657,2886.803174,-13027.624579,-612.876398
3415.877984,2368.659014,-11547.212695,-229.828649
3415.878312,-296.082377,-9326.594869,229.828649
3415.878640,-962.267725,-9400.615463,153.219100
3415.878968,-1332.370696,-10066.800811,76.609550
3415.879295,-1110.308913,-10732.986159,-1302.362347
3415.879623,-2368.659014,-9326.594869,-2068.457845
3415.879951,-2146.597232,-8660.409521,-2451.505594
3415.880279,-1406.391290,-7550.100608,-1378.971896
3415.880607,-1184.329507,-11103.089130,0.000000
3415.880934,-518.144159,-11251.130318,1072.533697
3415.881262,296.082377,-8290.306550,612.876398
3415.881590,1554.432478,-8660.409521,0.000000
3415.881918,3182.885551,-12139.377449,-689.485948
3415.882246,2442.679609,-11473.192101,0.000000
3415.882573,592.164754,-8956.491898,459.657299
3415.882901,-444.123565,-8290.306550,-612.876398
3415.883229,1184.329507,-10214.842000,-1225.752797
3415.883557,1332.370696,-9474.636058,0.000000
3415.883884,888.247130,-9622.677246,1838.629195
3415.884212,1998.556043,-10584.944971,1378.971896
3415.884540,3256.906145,-10881.027347,-919.314598
3415.884868,740.205942,-9770.718434,-1685.410096
3415.885196,-1702.473667,-8142.265362,-1608.800546
3415.885523,-2960.823768,-5477.523971,-1685.410096
3415.885851,-1480.411884,-9770.718434,-612.876398
3415.886179,0.000000,-13323.706956,383.047749
3415.886507,1776.494261,-11399.171507,459.657299
3415.886834,3256.906145,-8216.285956,0.000000
3415.887162,2590.720797,-9844.739029,1072.533697
3415.887490,2516.700203,-12361.439231,1225.752797
3415.887818,2368.659014,-10436.903782,0.000000
3415.888146,666.185348,-6957.935855,-1991.848295
3415.888473,-888.247130,-7624.121203,-612.876398
3415.888801,222.061783,-11029.068536,0.000000
3415.889129,444.123565,-10362.883188,1225.752797
3415.889457,370.102971,-8364.327145,1149.143247
3415.889784,-1554.432478,-8586.388927,-766.095498
3415.890112,0.000000,-9400.615463,-995.924147
3415.890440,666.185348,-9474.636058,-1072.533697
3415.890768,148.041188,-9400.615463,0.000000
3415.891096,0.000000,-9918.759623,1532.190996
3415.891423,1998.556043,-10955.047942,1762.019645
3415.891751,2886.803174,-9844.739029,-612.876398
3415.892079,518.144159,-9622.677246,689.485948
3415.892407,-888.247130,-10214.842000,-229.828649
3415.892734,-296.082377,-9844.739029,-995.924147
3415.893062,74.020594,-10658.965565,-2221.676944
3415.893390,-1332.370696,-9474.636058,-1378.971896
3415.893718,-2368.659014,-9030.512492,229.828649
3415.894046,-592.164754,-8956.491898,0.000000
3415.894373,1924.535449,-9548.656652,-1072.533697
3415.894701,1628.453072,-11325.150913,536.266849
3415.895029,666.185348,-9992.780217,842.705048
3415.895357,296.082377,-8216.285956,612.876398
3415.895685,444.123565,-9400.615463,-306.438199
3415.896012,-592.164754,-9844.739029,0.000000
3415.896340,-1628.453072,-10362.883188,1072.533697
3415.896668,-2516.700203,-8808.450710,-689.485948
3415.896996,-814.226536,-8956.491898,-2987.772442
3415.897323,-1480.411884,-10214.842000,-2757.943793
3415.897651,-888.247130,-10140.821405,-1225.752797
3415.897979,-370.102971,-9400.615463,0.000000
3415.898307,1406.391290,-10362.883188,995.924147
3415.898635,2368.659014,-11473.192101,689.485948
3415.898962,1850.514855,-11325.150913,0.000000
3415.899290,74.020594,-8438.347739,0.000000
3415.899618,666.185348,-7920.203579,-383.047749
3415.899946,814.226536,-10288.862594,612.876398
3415.900273,1702.473667,-10658.965565,689.485948
3415.900601,962.267725,-8882.471304,0.000000
3415.900929,1332.370696,-8734.430116,0.000000
3415.901257,2220.617826,-12287.418637,-1072.533697
3415.901585,888.247130,-12509.480420,-229.828649
3415.901912,-370.102971,-8290.306550,-612.876398
3415.902240,-2146.597232,-7031.956449,-1378.971896
3415.902568,222.061783,-9548.656652,-2221.676944
3415.902896,-888.247130,-9326.594869,-383.047749
3415.903223,-1554.432478,-9696.697840,2298.286494
3415.903551,-1480.411884,-9400.615463,76.609550
3415.903879,740.205942,-9030.512492,-2528.115143
3415.904207,592.164754,-10510.924376,-3447.429741
3415.904535,74.020594,-10955.047942,229.828649
3415.904862,1258.350101,-9844.739029,1532.190996
3415.905190,2960.823768,-9918.759623,995.924147
3415.905518,2072.576638,-11251.130318,306.438199
3415.905846,666.185348,-10214.842000,1302.362347
3415.906174,962.267725,-6587.832884,-1532.190996
3415.906501,592.164754,-7402.059420,383.047749
3415.906829,370.102971,-10066.800811,0.000000
3415.907157,-888.247130,-9622.677246,153.219100
3415.907485,-1110.308913,-8882.471304,689.485948
3415.907812,0.000000,-8586.388927,-689.485948
3415.908140,888.247130,-10955.047942,-1225.752797
3415.908468,814.226536,-10732.986159,689.485948
3415.908796,1406.391290,-8956.491898,383.047749
3415.909124,1110.308913,-8438.347739,-612.876398
3415.909451,1332.370696,-10288.862594,-1072.533697
3415.909779,592.164754,-10436.903782,0.000000
3415.910107,0.000000,-9548.656652,1455.581446
3415.910435,-148.041188,-8512.368333,0.000000
3415.910762,148.041188,-9844.739029,-1225.752797
3415.911090,666.185348,-10584.944971,-2221.676944
3415.911418,1776.494261,-9622.677246,-1455.581446
3415.911746,2368.659014,-10214.842000,-459.657299
3415.912074,2072.576638,-11695.253884,689.485948
3415.912401,888.247130,-9548.656652,229.828649
3415.912729,-1110.308913,-8808.450710,1072.533697
3415.913057,-1702.473667,-9474.636058,-842.705048
3415.913385,-1776.494261,-9252.574275,76.609550
3415.913712,-740.205942,-9770.718434,0.000000
3415.914040,-518.144159,-10140.821405,-536.266849
3415.914368,-592.164754,-9918.759623,-995.924147
3415.914696,-666.185348,-9178.553681,-1532.190996
3415.915024,-1628.453072,-9474.636058,-1378.971896
3415.915351,-1332.370696,-9844.739029,-689.485948
3415.915679,-296.082377,-10732.986159,0.000000
3415.916007,0.000000,-10732.986159,459.657299
3415.916335,1480.411884,-10436.903782,383.047749
3415.916662,2516.700203,-10214.842000,-229.828649
3415.916990,1480.411884,-9326.594869,1302.362347
3415.917318,222.061783,-7772.162391,2068.457845
3415.917646,888.247130,-7698.141797,766.095498
3415.917974,0.000000,-8512.368333,0.000000
3415.918301,296.082377,-10066.800811,76.609550
3415.918629,0.000000,-10732.986159,-383.047749
3415.918957,518.144159,-10214.842000,-383.047749
3415.919285,148.041188,-9992.780217,-1072.533697
3415.919613,-888.247130,-11473.192101,-612.876398
3415.919940,-1184.329507,-8660.409521,-2987.772442
3415.920268,-370.102971,-9178.553681,-1532.190996
3415.920596,-666.185348,-10584.944971,-306.438199
3415.920924,-518.144159,-9770.718434,153.219100
3415.921251,-518.144159,-8512.368333,306.438199
3415.921579,296.082377,-8808.450710,153.219100
3415.921907,1406.391290,-11325.150913,0.000000
3415.922235,1850.514855,-10955.047942,229.828649
3415.922563,1258.350101,-9474.636058,76.609550
3415.922890,962.267725,-9548.656652,-306.438199
3415.923218,1554.432478,-9918.759623,-1225.752797
3415.923546,0.000000,-10288.862594,-459.657299
3415.923874,-1924.535449,-8882.471304,689.485948
3415.924201,-1332.370696,-8438.347739,0.000000
3415.924529,-518.144159,-8956.491898,-612.876398
3415.924857,814.226536,-9178.553681,-306.438199
3415.925185,1184.329507,-9844.739029,459.657299
3415.925513,1776.494261,-9030.512492,689.485948
3415.925840,2664.741391,-8882.471304,459.657299
3415.926168,222.061783,-10658.965565,76.609550
3415.926496,-518.144159,-10140.821405,0.000000
3415.926824,-666.185348,-8512.368333,-2298.286494
3415.927151,-444.123565,-8956.491898,-689.485948
3415.927479,1480.411884,-11473.192101,0.000000
3415.927807,1628.453072,-11177.109724,459.657299
3415.928135,1924.535449,-9400.615463,383.047749
3415.928463,2442.679609,-8364.327145,-229.828649
3415.928790,3034.844362,-8586.388927,-1149.143247
3415.929118,518.144159,-10362.883188,306.438199
3415.929446,-444.123565,-9844.739029,1455.581446
3415.929774,-592.164754,-8512.368333,0.000000
3415.930102,-518.144159,-11251.130318,229.828649
3415.930429,0.000000,-11325.150913,-306.438199
3415.930757,-518.144159,-9622.677246,0.000000
3415.931085,-666.185348,-8734.430116,-1225.752797
3415.931413,-370.102971,-8808.450710,-2451.505594
3415.931740,-666.185348,-10066.800811,-3370.820191
3415.932068,-2146.597232,-9474.636058,-536.266849
3415.932396,-1184.329507,-8660.409521,306.438199
3415.932724,1406.391290,-10732.986159,1072.533697
3415.933052,2220.617826,-12287.418637,612.876398
3415.933379,1850.514855,-11473.192101,1378.971896
3415.933707,1776.494261,-9326.594869,-1302.362347
3415.934035,2072.576638,-7846.182985,-1838.629195
3415.934363,962.267725,-9770.718434,-842.705048
3415.934690,-444.123565,-10140.821405,995.924147
3415.935018,-740.205942,-8586.388927,842.705048
3415.935346,-296.082377,-8808.450710,995.924147
3415.935674,1406.391290,-12435.459826,1225.752797
3415.936002,1480.411884,-12287.418637,306.438199
3415.936329,1480.411884,-9474.636058,-306.438199
3415.936657,-1406.391290,-7105.977043,-919.314598
3415.936985,-888.247130,-8808.450710,-2604.724693
3415.937313,-1628.453072,-8216.285956,-2604.724693
3415.937640,-3108.864956,-9770.718434,536.266849
3415.937968,-4145.153275,-9474.636058,2068.457845
3415.938296,-1036.288319,-8364.327145,-306.438199
3415.938624,592.164754,-9400.615463,-2068.457845
3415.938952,1850.514855,-11325.150913,0.000000
3415.939279,1850.514855,-10436.903782,1302.362347
3415.939607,2294.638420,-9548.656652,1378.971896
3415.939935,1998.556043,-8660.409521,-766.095498
3415.940263,222.061783,-9104.533087,-1149.143247
3415.940590,-962.267725,-9400.615463,689.485948
3415.940918,-2294.638420,-7772.162391,1149.143247
3415.941246,-1110.308913,-8956.491898,766.095498
3415.941574,0.000000,-10807.006753,-1455.581446
3415.941902,518.144159,-10584.944971,-1915.238745
3415.942229,444.123565,-9770.718434,-1455.581446
3415.942557,1628.453072,-9474.636058,-919.314598
3415.942885,962.267725,-9178.553681,-995.924147
3415.943213,814.226536,-10066.800811,-153.219100
3415.943540,-740.205942,-9474.636058,0.000000
3415.943868,0.000000,-9696.697840,1072.533697
3415.944196,1850.514855,-10584.944971,153.219100
3415.944523,1998.556043,-11695.253884,153.219100
3415.944851,0.000000,-9696.697840,-306.438199
3415.945179,222.061783,-9474.636058,-1378.971896
3415.945507,1554.432478,-9474.636058,-2298.286494
3415.945834,1480.411884,-9030.512492,-1378.971896
3415.946162,1110.308913,-9252.574275,0.000000
3415.946490,0.000000,-10881.027347,1915.238745
3415.946817,1924.535449,-12287.418637,1915.238745
3415.947145,2294.638420,-10066.800811,689.485948
3415.947473,740.205942,-9178.553681,536.266849
3415.947801,-148.041188,-7624.121203,0.000000
3415.948128,-518.144159,-9474.636058,-459.657299
3415.948456,-1258.350101,-9326.594869,-1225.752797
3415.948784,-1628.453072,-8364.327145,-2068.457845
3415.949111,-3034.844362,-7550.100608,-1608.800546
3415.949439,-1776.494261,-9178.553681,-153.219100
3415.949767,-962.267725,-10732.986159,-612.876398
3415.950095,1184.329507,-11843.295072,536.266849
3415.950422,1924.535449,-10214.842000,612.876398
3415.950750,3034.844362,-10807.006753,383.047749
3415.951078,2590.720797,-9326.594869,-612.876398
3415.951405,2072.576638,-8068.244768,-306.438199
3415.951733,0.000000,-7698.141797,919.314598
3415.952061,-518.144159,-8438.347739,1072.533697
3415.952389,0.000000,-10066.800811,306.438199
3415.952716,888.247130,-11029.068536,383.047749
3415.953044,888.247130,-12583.501014,689.485948
3415.953372,1924.535449,-11177.109724,-612.876398
3415.953699,222.061783,-9548.656652,-2451.505594
3415.954027,-1036.288319,-9252.574275,-1991.848295
3415.954355,-1628.453072,-8216.285956,-2221.676944
3415.954682,-2664.741391,-8142.265362,0.000000
3415.955010,-2146.597232,-10658.965565,1762.019645
3415.955338,-962.267725,-10881.027347,766.095498
3415.955666,0.000000,-9178.553681,229.828649
3415.955993,1850.514855,-9178.553681,-1149.143247
3415.956321,2072.576638,-11769.274478,-1302.362347
3415.956649,1258.350101,-11325.150913,-229.828649
3415.956976,74.020594,-7476.080014,-383.047749
3415.957304,296.082377,-7846.182985,-1072.533697
3415.957632,-740.205942,-10362.883188,153.219100
3415.957960,-296.082377,-11621.233289,1991.848295
3415.958287,-888.247130,-7698.141797,1991.848295
3415.958615,-518.144159,-7994.224174,-229.828649
3415.958943,518.144159,-10140.821405,-1455.581446
3415.959270,814.226536,-10436.903782,-1838.629195
3415.959598,0.000000,-7402.059420,-229.828649
3415.959926,1702.473667,-7920.203579,-383.047749
3415.960254,592.164754,-9400.615463,-766.095498
3415.960581,-296.082377,-11917.315666,842.705048
3415.960909,-740.205942,-10214.842000,1072.533697
3415.961237,1332.370696,-9844.739029,612.876398
3415.961564,3034.844362,-9474.636058,-383.047749
3415.961892,2072.576638,-10807.006753,-153.219100
3415.962220,0.000000,-10214.842000,459.657299
3415.962548,1406.391290,-8882.471304,-153.219100
3415.962875,1036.288319,-7698.141797,-1532.190996
3415.963203,-962.267725,-9252.574275,229.828649
3415.963531,-888.247130,-10362.883188,-229.828649
3415.963858,296.082377,-10288.862594,229.828649
3415.964186,1406.391290,-12731.542202,0.000000
3415.964514,1850.514855,-11843.295072,-689.485948
3415.964842,1554.432478,-9770.718434,-842.705048
3415.965169,148.041188,-7772.162391,0.000000
3415.965497,-740.205942,-9326.594869,-229.828649
3415.965825,-1258.350101,-9030.512492,-919.314598
3415.966152,-2146.597232,-9178.553681,0.000000
3415.966480,-1480.411884,-9104.533087,-1072.533697
3415.966808,-1110.308913,-9326.594869,-536.266849
3415.967136,-740.205942,-10288.862594,-612.876398
3415.967463,592.164754,-10955.047942,-919.314598
3415.967791,888.247130,-10510.924376,-1378.971896
3415.968119,1406.391290,-9696.697840,-459.657299
3415.968446,1110.308913,-9104.533087,-229.828649
3415.968774,1850.514855,-9844.739029,1608.800546
3415.969102,1480.411884,-9622.677246,1532.190996
3415.969430,296.082377,-9844.739029,2451.505594
3415.969757,74.020594,-7698.141797,306.438199
3415.970085,962.267725,-8438.347739,-995.924147
3415.970413,814.226536,-10510.924376,-689.485948
3415.970740,1036.288319,-11769.274478,0.000000
3415.971068,-74.020594,-9030.512492,-1225.752797
3415.971396,0.000000,-7624.121203,-1915.238745
3415.971724,-1628.453072,-10140.821405,-1072.533697
3415.972051,-2590.720797,-11547.212695,229.828649
3415.972379,-1332.370696,-9474.636058,-919.314598
3415.972707,962.267725,-8586.388927,-1532.190996
3415.973034,1332.370696,-9548.656652,-459.657299
3415.973362,888.247130,-10140.821405,842.705048
3415.973690,1924.535449,-9696.697840,1915.238745
3415.974018,1776.494261,-8438.347739,919.314598
3415.974345,1110.308913,-9770.718434,-536.266849
3415.974673,-444.123565,-9622.677246,-229.828649
3415.975001,0.000000,-8808.450710,229.828649
3415.975328,-444.123565,-8660.409521,0.000000
3415.975656,0.000000,-11917.315666,0.000000
3415.975984,-518.144159,-9474.636058,-612.876398
3415.976312,518.144159,-8660.409521,-536.266849
3415.976639,1480.411884,-9178.553681,306.438199
3415.976967,740.205942,-10140.821405,1225.752797
3415.977295,-296.082377,-9400.615463,1072.533697
3415.977622,-814.226536,-9326.594869,-383.047749
3415.977950,-740.205942,-10807.006753,-995.924147
3415.978278,592.164754,-9844.739029,-919.314598
3415.978606,222.061783,-9474.636058,0.000000
3415.978933,222.061783,-9474.636058,536.266849
3415.979261,222.061783,-9548.656652,-689.485948
3415.979589,-148.041188,-9030.512492,-919.314598
3415.979916,518.144159,-8660.409521,-612.876398
3415.980244,0.000000,-8882.471304,76.609550
3415.980572,-222.061783,-11399.171507,1225.752797
3415.980900,222.061783,-9918.759623,0.000000
3415.981227,1998.556043,-10362.883188,-1378.971896
3415.981555,2072.576638,-10066.800811,-612.876398
3415.981883,444.123565,-10214.842000,0.000000
3415.982210,-370.102971,-9548.656652,383.047749
3415.982538,0.000000,-9844.739029,0.000000
3415.982866,888.247130,-9548.656652,-2757.943793
3415.983194,-444.123565,-9474.636058,-153.219100
3415.983521,-1406.391290,-9474.636058,766.095498
3415.983849,-962.267725,-9918.759623,536.266849
3415.984177,-222.061783,-10140.821405,-766.095498
3415.984504,-1332.370696,-8438.347739,-2528.115143
3415.984832,-2368.659014,-8068.244768,-1762.019645
3415.985160,-1998.556043,-7624.121203,0.000000
3415.985488,1406.391290,-10436.903782,-1072.533697
3415.985815,2146.597232,-11621.233289,76.609550
3415.986143,1628.453072,-11843.295072,536.266849
3415.986471,1628.453072,-9844.739029,459.657299
3415.986798,2294.638420,-9992.780217,0.000000
3415.987126,1702.473667,-9030.512492,-536.266849
3415.987454,1332.370696,-9474.636058,-536.266849
3415.987782,296.082377,-7624.121203,536.266849
3415.988109,1850.514855,-8882.471304,689.485948
3415.988437,2442.679609,-9770.718434,-689.485948
3415.988765,962.267725,-11547.212695,2068.457845
3415.989092,0.000000,-10807.006753,612.876398
3415.989420,296.082377,-9918.759623,-2374.896044
3415.989748,-1184.329507,-9844.739029,-2834.553343
3415.990076,-1702.473667,-9252.574275,-2145.067394
3415.990403,-1480.411884,-8290.306550,-919.314598
3415.990731,444.123565,-9548.656652,1685.410096
3415.991059,2516.700203,-11917.315666,1072.533697
3415.991386,962.267725,-9992.780217,689.485948
3415.991714,74.020594,-7550.100608,536.266849
3415.992042,1480.411884,-8438.347739,-766.095498
3415.992370,1036.288319,-11251.130318,0.000000
3415.992697,0.000000,-9178.553681,459.657299
3415.993025,-370.102971,-7328.038826,842.705048
3415.993353,222.061783,-7994.224174,459.657299
3415.993680,2516.700203,-12065.356855,76.609550
3415.994008,666.185348,-10288.862594,229.828649
3415.994336,-1406.391290,-9178.553681,919.314598
3415.994664,-1998.556043,-9474.636058,-1532.190996
3415.994991,0.000000,-10362.883188,-2757.943793
3415.995319,-888.247130,-9474.636058,-689.485948
3415.995647,-1036.288319,-8734.430116,842.705048
3415.995974,148.041188,-8660.409521,2298.286494
3415.996302,1332.370696,-10658.965565,1149.143247
3415.996630,1184.329507,-10807.006753,-612.876398
3415.996958,-370.102971,-8512.368333,-153.219100
3415.997285,296.082377,-8290.306550,-1608.800546
3415.997613,-222.061783,-9400.615463,-2068.457845
3415.997941,-814.226536,-11547.212695,229.828649
3415.998268,74.020594,-9918.759623,-459.657299
3415.998596,814.226536,-10362.883188,-306.438199
3415.998924,1184.329507,-11103.089130,153.219100
3415.999252,1776.494261,-11399.171507,0.000000
3415.999579,296.082377,-8068.244768,842.705048
3415.999907,666.185348,-10066.800811,229.828649
3416.000235,666.185348,-10955.047942,-1149.143247
3416.000562,0.000000,-9400.615463,0.000000
3416.000890,-1998.556043,-7846.182985,0.000000
3416.001218,-1776.494261,-9252.574275,0.000000
3416.001546,-1850.514855,-9474.636058,-766.095498
3416.001873,-962.267725,-9622.677246,-1302.362347
3416.002201,-1554.432478,-7846.182985,-1532.190996
3416.002529,-888.247130,-9400.615463,0.000000
3416.002856,148.041188,-10584.944971,-612.876398
3416.003184,2294.638420,-10807.006753,0.000000
3416.003512,1998.556043,-10807.006753,306.438199
3416.003840,1406.391290,-9474.636058,689.485948
3416.004167,592.164754,-9252.574275,995.924147
3416.004495,1258.350101,-8882.471304,612.876398
3416.004823,1480.411884,-9030.512492,-153.219100
3416.005150,1332.370696,-9696.697840,383.047749
3416.005478,1998.556043,-9548.656652,0.000000
3416.005806,1554.432478,-9178.553681,-1072.533697
3416.006133,296.082377,-11769.274478,0.000000
3416.006461,0.000000,-11991.336260,-995.924147
3416.006789,74.020594,-9474.636058,-2221.676944
3416.007117,0.000000,-7994.224174,-2221.676944
3416.007444,296.082377,-10881.027347,-383.047749
3416.007772,370.102971,-11251.130318,1225.752797
3416.008100,1480.411884,-10140.821405,612.876398
3416.008427,1406.391290,-9252.574275,-1532.190996
3416.008755,444.123565,-9992.780217,-1149.143247
3416.009083,-518.144159,-8882.471304,-612.876398
3416.009411,518.144159,-7994.224174,-153.219100
3416.009738,444.123565,-8364.327145,76.609550
3416.010066,1998.556043,-10510.924376,1532.190996
3416.010394,3182.885551,-12065.356855,2221.676944
3416.010721,3478.967927,-8438.347739,1378.971896
3416.011049,2072.576638,-9252.574275,306.438199
3416.011377,444.123565,-9474.636058,1072.533697
3416.011705,-740.205942,-8734.430116,0.000000
3416.012032,-3330.926739,-7550.100608,-1455.581446
3416.012360,-3404.947333,-9696.697840,-1225.752797
3416.012688,-1628.453072,-9918.759623,-306.438199
3416.013015,814.226536,-10955.047942,0.000000
3416.013343,222.061783,-11103.089130,689.485948
3416.013671,296.082377,-10288.862594,1225.752797
3416.013999,888.247130,-7550.100608,-229.828649
3416.014326,592.164754,-8364.327145,689.485948
3416.014654,0.000000,-8882.471304,-306.438199
3416.014982,-962.267725,-8364.327145,0.000000
3416.015309,-2072.576638,-8364.327145,612.876398
3416.015637,222.061783,-11029.068536,153.219100
3416.015965,1036.288319,-12213.398043,0.000000
3416.016293,444.123565,-10436.903782,536.266849
3416.016620,0.000000,-9696.697840,-306.438199
3416.016948,740.205942,-10732.986159,-2681.334243
3416.017276,888.247130,-11029.068536,-2221.676944
3416.017603,296.082377,-11325.150913,0.000000
3416.017931,0.000000,-9326.594869,612.876398
3416.018259,0.000000,-7476.080014,1455.581446
3416.018587,518.144159,-9030.512492,1685.410096
3416.018914,-962.267725,-9622.677246,612.876398
3416.019242,-2516.700203,-9474.636058,-306.438199
3416.019570,-2220.617826,-9474.636058,-2298.286494
3416.019897,-666.185348,-9548.656652,-4366.744339
3416.020225,-1776.494261,-10140.821405,-2987.772442
3416.020553,-2368.659014,-10436.903782,306.438199
3416.020881,-592.164754,-8808.450710,383.047749
3416.021208,2146.597232,-10658.965565,536.266849
3416.021536,3404.947333,-12435.459826,1608.800546
3416.021864,1628.453072,-9622.677246,2604.724693
3416.022191,2368.659014,-6661.853478,536.266849
3416.022519,3478.967927,-7846.182985,229.828649
3416.022847,3182.885551,-9548.656652,-612.876398
3416.023175,0.000000,-9400.615463,1838.629195
3416.023502,-2072.576638,-8882.471304,1455.581446
3416.023830,74.020594,-10140.821405,-1455.581446
3416.024158,1184.329507,-13767.830521,-2911.162892
3416.024485,1184.329507,-12287.418637,-995.924147
3416.024813,222.061783,-8438.347739,306.438199
3416.025141,1036.288319,-9474.636058,459.657299
3416.025469,1554.432478,-10584.944971,-1225.752797
3416.025796,74.020594,-8882.471304,-1608.800546
3416.026124,-1850.514855,-6809.894666,76.609550
3416.026452,-1924.535449,-7624.121203,689.485948
3416.026779,-592.164754,-9548.656652,689.485948
3416.027107,592.164754,-8956.491898,229.828649
3416.027435,1406.391290,-9400.615463,689.485948
3416.027763,3404.947333,-10955.047942,153.219100
3416.028090,4737.318029,-11843.295072,153.219100
3416.028418,2886.803174,-10140.821405,-306.438199
3416.028746,1036.288319,-7920.203579,-229.828649
3416.029073,-888.247130,-7402.059420,0.000000
3416.029401,-962.267725,-8734.430116,229.828649
3416.029729,-888.247130,-10584.944971,766.095498
3416.030057,-444.123565,-10881.027347,1608.800546
3416.030384,518.144159,-9474.636058,229.828649
3416.030712,1332.370696,-9992.780217,-2298.286494
3416.031040,370.102971,-9474.636058,-2374.896044
3416.031367,0.000000,-9178.553681,-766.095498
3416.031695,-1036.288319,-8512.368333,153.219100
3416.032023,-370.102971,-8956.491898,-306.438199
3416.032351,444.123565,-10140.821405,-919.314598
3416.032678,740.205942,-9622.677246,1378.971896
3416.033006,592.164754,-10510.924376,1378.971896
3416.033334,1258.350101,-11103.089130,842.705048
3416.033661,1332.370696,-10288.862594,-995.924147
3416.033989,148.041188,-9770.718434,-1915.238745
3416.034317,-1258.350101,-8438.347739,-689.485948
3416.034645,-1110.308913,-8808.450710,-536.266849
3416.034972,74.020594,-11325.150913,-536.266849
3416.035300,1110.308913,-11917.315666,306.438199
3416.035628,-370.102971,-10732.986159,1455.581446
3416.035955,-592.164754,-8660.409521,842.705048
3416.036283,-888.247130,-7624.121203,612.876398
3416.036611,-1554.432478,-9474.636058,-919.314598
3416.036939,-2812.782580,-8142.265362,-1149.143247
3416.037266,-2072.576638,-7698.141797,-2451.505594
3416.037594,-1702.473667,-7994.224174,-1838.629195
3416.037922,-1036.288319,-10807.006753,-612.876398
3416.038249,296.082377,-11621.233289,0.000000
3416.038577,1628.453072,-10955.047942,76.609550
3416.038905,1924.535449,-10584.944971,76.609550
3416.039233,3330.926739,-10732.986159,-383.047749
3416.039560,2886.803174,-8290.306550,-383.047749
3416.039888,1776.494261,-8660.409521,1149.143247
3416.040216,2294.638420,-8512.368333,1532.190996
3416.040543,1110.308913,-10288.862594,2068.457845
3416.040871,-1110.308913,-9844.739029,1225.752797
3416.041199,-518.144159,-10807.006753,-1608.800546
3416.041526,518.144159,-11769.274478,-2911.162892
3416.041854,1332.370696,-11769.274478,-2757.943793
3416.042182,222.061783,-10510.924376,-1149.143247
3416.042509,-1110.308913,-10288.862594,612.876398
3416.042837,-1110.308913,-8882.471304,-842.705048
3416.043165,-444.123565,-8512.368333,-1455.581446
3416.043492,-148.041188,-8882.471304,0.000000
3416.043820,-592.164754,-7846.182985,1991.848295
3416.044148,148.041188,-7476.080014,842.705048
3416.044475,740.205942,-8364.327145,229.828649
3416.044803,2368.659014,-11843.295072,0.000000
3416.045131,3478.967927,-10807.006753,153.219100
3416.045458,2664.741391,-8956.491898,612.876398
3416.045786,1554.432478,-9104.533087,766.095498
3416.046114,1480.411884,-10510.924376,995.924147
3416.046441,444.123565,-9252.574275,536.266849
3416.046769,-222.061783,-8512.368333,1455.581446
3416.047097,-814.226536,-8438.347739,689.485948
3416.047424,-518.144159,-10510.924376,1225.752797
3416.047752,-962.267725,-9844.739029,-536.266849
3416.048080,-962.267725,-9030.512492,-1378.971896
3416.048407,-592.164754,-8364.327145,-1685.410096
3416.048735,1332.370696,-8512.368333,-842.705048
3416.049063,1036.288319,-10807.006753,842.705048
3416.049390,1184.329507,-10881.027347,1149.143247
3416.049718,888.247130,-8956.491898,0.000000
3416.050046,74.020594,-10214.842000,-229.828649
3416.050373,0.000000,-10807.006753,-536.266849
3416.050701,-814.226536,-8956.491898,-612.876398
3416.051029,-592.164754,-9400.615463,-995.924147
3416.051356,1702.473667,-11399.171507,-689.485948
3416.051684,3404.947333,-11621.233289,-919.314598
3416.052012,3256.906145,-12139.377449,0.000000
3416.052339,1850.514855,-11621.233289,1149.143247
3416.052667,222.061783,-8068.244768,383.047749
3416.052995,-888.247130,-8512.368333,-612.876398
3416.053322,-3330.926739,-8586.388927,-612.876398
3416.053650,-3923.091493,-8586.388927,-306.438199
3416.053978,-2886.803174,-9252.574275,-1302.362347
3416.054305,-740.205942,-10362.883188,-2298.286494
3416.054633,0.000000,-10584.944971,-2068.457845
3416.054961,-1258.350101,-9252.574275,-536.266849
3416.055288,-222.061783,-8660.409521,536.266849
3416.055616,1998.556043,-10436.903782,-536.266849
3416.055944,1702.473667,-11103.089130,76.609550
3416.056271,-222.061783,-9474.636058,1915.238745
3416.056599,592.164754,-7550.100608,1532.190996
3416.056927,2368.659014,-7402.059420,0.000000
3416.057254,1776.494261,-10140.821405,0.000000
3416.057582,1480.411884,-9400.615463,0.000000
3416.057910,296.082377,-8068.244768,-229.828649
3416.058237,2146.597232,-9992.780217,-1685.410096
3416.058565,2368.659014,-12731.542202,-689.485948
3416.058893,-1258.350101,-13027.624579,1838.629195
3416.059220,-2146.597232,-9844.739029,995.924147
3416.059548,-1110.308913,-7772.162391,-2451.505594
3416.059876,-370.102971,-10362.883188,-2757.943793
3416.060203,-1036.288319,-9696.697840,-919.314598
3416.060531,-1110.308913,-8142.265362,1072.533697
3416.060859,0.000000,-8364.327145,459.657299
3416.061186,1036.288319,-9844.739029,-995.924147
3416.061514,-1110.308913,-10436.903782,-612.876398
3416.061842,-1406.391290,-8290.306550,536.266849
3416.062169,2146.597232,-9844.739029,76.609550
3416.062497,3923.091493,-9770.718434,612.876398
3416.062824,2664.741391,-11399.171507,2451.505594
3416.063152,1998.556043,-10362.883188,2451.505594
3416.063480,2886.803174,-9400.615463,0.000000
3416.063807,1702.473667,-8512.368333,-1762.019645
3416.064135,-444.123565,-10362.883188,-612.876398
3416.064463,-2812.782580,-8068.244768,459.657299
3416.064790,-1628.453072,-6735.874072,153.219100
3416.065118,-962.267725,-9178.553681,-306.438199
3416.065446,222.061783,-12213.398043,76.609550
3416.065773,222.061783,-10214.842000,0.000000
3416.066101,1332.370696,-8956.491898,229.828649
3416.066429,2220.617826,-8586.388927,-1378.971896
3416.066756,1776.494261,-10214.842000,-1225.752797
3416.067084,-222.061783,-9622.677246,842.705048
3416.067412,74.020594,-8068.244768,1149.143247
3416.067739,0.000000,-9474.636058,689.485948
3416.068067,-370.102971,-10807.006753,612.876398
3416.068395,-296.082377,-10436.903782,-459.657299
3416.068722,148.041188,-10362.883188,-1991.848295
3416.069050,962.267725,-10436.903782,-3064.381992
3416.069378,2516.700203,-10955.047942,-1838.629195
3416.069705,2960.823768,-10955.047942,-383.047749
3416.070033,888.247130,-9474.636058,536.266849
3416.070361,-740.205942,-9030.512492,1915.238745
3416.070688,-740.205942,-8586.388927,459.657299
3416.071016,-518.144159,-9918.759623,383.047749
3416.071344,-1776.494261,-9104.533087,536.266849
3416.071671,-2590.720797,-8734.430116,-1302.362347
3416.071999,-2442.679609,-9918.759623,-2528.115143
3416.072327,0.000000,-11251.130318,-3907.087040
3416.072654,-1184.329507,-10436.903782,-2911.162892
3416.072982,-1480.411884,-10066.800811,229.828649
3416.073310,1554.432478,-10140.821405,1762.019645
3416.073637,3034.844362,-11177.109724,3217.601092
3416.073965,2812.782580,-10066.800811,3677.258390
3416.074293,2516.700203,-7179.997637,2298.286494
3416.074620,1702.473667,-6661.853478,612.876398
3416.074948,1924.535449,-9104.533087,-612.876398
3416.075276,666.185348,-9474.636058,-1072.533697
3416.075603,0.000000,-8512.368333,-1455.581446
3416.075931,-1036.288319,-10066.800811,-536.266849
3416.076259,-740.205942,-14285.974681,153.219100
3416.076586,0.000000,-13101.645173,-306.438199
3416.076914,-222.061783,-8808.450710,-1149.143247
3416.077242,-888.247130,-8660.409521,-1838.629195
3416.077569,-1036.288319,-8438.347739,-2221.676944
3416.077897,-1110.308913,-8882.471304,-459.657299
3416.078225,-740.205942,-8068.244768,536.266849
3416.078552,-962.267725,-7772.162391,306.438199
3416.078880,-1184.329507,-8290.306550,919.314598
3416.079208,518.144159,-11177.109724,842.705048
3416.079535,2590.720797,-11325.150913,306.438199
3416.079863,3552.988522,-10584.944971,0.000000
3416.080191,1998.556043,-9770.718434,-459.657299
3416.080518,2590.720797,-10288.862594,0.000000
3416.080846,2072.576638,-9770.718434,-459.657299
3416.081174,370.102971,-9326.594869,612.876398
3416.081501,-814.226536,-8956.491898,1225.752797
3416.081829,-296.082377,-8438.347739,229.828649
3416.082157,-222.061783,-9474.636058,153.219100
3416.082484,-888.247130,-10807.006753,842.705048
3416.082812,-1184.329507,-9696.697840,-612.876398
3416.083140,148.041188,-9474.636058,-2451.505594
3416.083467,444.123565,-10288.862594,-3140.991542
3416.083795,-296.082377,-10288.862594,-1378.971896
3416.084123,-1036.288319,-9400.615463,383.047749
3416.084450,444.123565,-8660.409521,1072.533697
3416.084778,2146.597232,-10510.924376,1302.362347
3416.085106,1480.411884,-10288.862594,1991.848295
3416.085433,-592.164754,-7402.059420,1762.019645
3416.085761,1110.308913,-8142.265362,-995.924147
3416.086089,1406.391290,-11177.109724,-2528.115143
3416.086416,888.247130,-10732.986159,-1915.238745
3416.086744,-444.123565,-9400.615463,-306.438199
3416.087072,444.123565,-9178.553681,-612.876398
3416.087399,1036.288319,-11177.109724,383.047749
3416.087727,1628.453072,-11399.171507,153.219100
3416.088055,-814.226536,-7994.224174,766.095498
3416.088382,-1258.350101,-7994.224174,153.219100
3416.088710,0.000000,-9400.615463,-1532.190996
3416.089038,-962.267725,-9252.574275,-2528.115143
3416.089365,-2886.803174,-8438.347739,-1149.143247
3416.089693,-2590.720797,-8660.409521,-459.657299
3416.090021,-592.164754,-9696.697840,-1378.971896
3416.090348,1776.494261,-11991.336260,306.438199
3416.090676,2516.700203,-12435.459826,1762.019645
3416.091004,2220.617826,-10510.924376,2145.067394
3416.091331,2738.761985,-8438.347739,612.876398
3416.091659,2368.659014,-9252.574275,-766.095498
3416.091987,222.061783,-8734.430116,-689.485948
3416.092314,296.082377,-7772.162391,-842.705048
3416.092642,666.185348,-7698.141797,-612.876398
3416.092970,3256.906145,-12139.377449,-459.657299
3416.093297,2590.720797,-14508.036463,1302.362347
3416.093625,518.144159,-11251.130318,2145.067394
3416.093953,-962.267725,-8364.327145,0.000000
3416.094280,-740.205942,-9622.677246,-3524.039291
3416.094608,-2072.576638,-8364.327145,-4290.134789
3416.094935,-2590.720797,-7624.121203,-1455.581446
3416.095263,-2368.659014,-9178.553681,689.485948
3416.095591,518.144159,-10807.006753,1455.581446
3416.095918,2220.617826,-10362.883188,1532.190996
3416.096246,1628.453072,-9252.574275,2757.943793
3416.096574,1924.535449,-9696.697840,2298.286494
3416.096901,3330.926739,-9400.615463,306.438199
3416.097229,2664.741391,-9104.533087,-1915.238745
3416.097557,-518.144159,-8216.285956,0.000000
3416.097884,-888.247130,-9474.636058,995.924147
3416.098212,-296.082377,-8808.450710,842.705048
3416.098540,0.000000,-11103.089130,1685.410096
3416.098867,-666.185348,-10807.006753,76.609550
3416.099195,148.041188,-9178.553681,229.828649
3416.099523,1184.329507,-7920.203579,-1072.533697
3416.099850,222.061783,-9400.615463,-689.485948
3416.100178,-1924.535449,-9104.533087,0.000000
3416.100506,-592.164754,-8660.409521,0.000000
3416.100833,296.082377,-9622.677246,-1532.190996
3416.101161,222.061783,-11547.212695,0.000000
3416.101489,888.247130,-11325.150913,0.000000
3416.101816,370.102971,-9992.780217,689.485948
3416.102144,962.267725,-10584.944971,229.828649
3416.102472,592.164754,-9992.780217,-689.485948
3416.102799,-518.144159,-9400.615463,-1378.971896
3416.103127,-1480.411884,-9400.615463,-1302.362347
3416.103455,-740.205942,-9622.677246,-1149.143247
3416.103782,74.020594,-10288.862594,0.000000
3416.104110,2072.576638,-11621.233289,995.924147
3416.104438,1406.391290,-10955.047942,766.095498
3416.104765,222.061783,-9548.656652,1302.362347
3416.105093,444.123565,-9252.574275,-766.095498
3416.105421,148.041188,-9622.677246,-1838.629195
3416.105748,-3108.864956,-8734.430116,-2374.896044
3416.106076,-3330.926739,-8808.450710,-1225.752797
3416.106404,-2368.659014,-9474.636058,-2374.896044
3416.106731,-1110.308913,-10066.800811,-536.266849
3416.107059,0.000000,-9474.636058,-229.828649
3416.107387,1480.411884,-10807.006753,689.485948
3416.107714,2812.782580,-10807.006753,1608.800546
3416.108042,4441.235652,-9030.512492,459.657299
3416.108370,1554.432478,-6513.812290,995.924147
3416.108697,-148.041188,-6661.853478,689.485948
3416.109025,0.000000,-8586.388927,153.219100
3416.109353,0.000000,-9696.697840,229.828649
3416.109680,1184.329507,-10732.986159,-842.705048
3416.110008,1406.391290,-10955.047942,-689.485948
3416.110336,2590.720797,-13249.686362,0.000000
3416.110663,2960.823768,-10955.047942,-536.266849
3416.110991,1998.556043,-9178.553681,-995.924147
3416.111319,-592.164754,-8068.244768,0.000000
3416.111646,-1110.308913,-9178.553681,-1072.533697
3416.111974,-740.205942,-8142.265362,-1685.410096
3416.112302,-962.267725,-8586.388927,0.000000
3416.112629,-1776.494261,-10658.965565,1378.971896
3416.112957,-666.185348,-10510.924376,153.219100
3416.113285,1480.411884,-9252.574275,-2681.334243
3416.113612,2294.638420,-10881.027347,-2681.334243
3416.113940,1628.453072,-11621.233289,-612.876398
3416.114268,1480.411884,-9844.739029,1608.800546
3416.114595,2516.700203,-8290.306550,1225.752797
3416.114923,1776.494261,-10288.862594,459.657299
3416.115251,0.000000,-11399.171507,1072.533697
3416.115578,-814.226536,-9252.574275,1532.190996
3416.115906,-370.102971,-7624.121203,-919.314598
3416.116234,148.041188,-9548.656652,-2834.553343
3416.116561,-740.205942,-10658.965565,-842.705048
3416.116889,-1332.370696,-9104.533087,612.876398
3416.117217,592.164754,-8364.327145,0.000000
3416.117544,0.000000,-9104.533087,-689.485948
3416.117872,0.000000,-10214.842000,1072.533697
3416.118200,-222.061783,-8956.491898,689.485948
3416.118527,370.102971,-9622.677246,689.485948
3416.118855,1036.288319,-9400.615463,-536.266849
3416.119183,1332.370696,-9918.759623,-306.438199
3416.119510,0.000000,-9178.553681,995.924147
3416.119838,518.144159,-8660.409521,153.219100
3416.120166,0.000000,-8364.327145,-995.924147
3416.120493,-444.123565,-10732.986159,-536.266849
3416.120821,148.041188,-11473.192101,-842.705048
3416.121149,0.000000,-10214.842000,0.000000
3416.121476,666.185348,-10288.862594,153.219100
3416.121804,1184.329507,-9696.697840,-459.657299
3416.122132,148.041188,-9104.533087,689.485948
3416.122459,-518.144159,-9622.677246,-229.828649
3416.122787,-1258.350101,-9104.533087,-766.095498
3416.123115,-1702.473667,-9326.594869,0.000000
3416.123442,-444.123565,-10881.027347,-689.485948
3416.123770,-1850.514855,-10066.800811,-306.438199
3416.124098,-1924.535449,-9474.636058,76.609550
3416.124425,-296.082377,-9696.697840,-2221.676944
3416.124753,1184.329507,-11029.068536,-1762.019645
3416.125081,814.226536,-10807.006753,-842.705048
3416.125408,1110.308913,-9696.697840,689.485948
3416.125736,962.267725,-8216.285956,1532.190996
3416.126064,2590.720797,-9400.615463,383.047749
3416.126391,1036.288319,-9770.718434,766.095498
3416.126719,518.144159,-9770.718434,919.314598
3416.127046,2294.638420,-8438.347739,-995.924147
3416.127374,1850.514855,-9474.636058,-1838.629195
3416.127702,222.061783,-12361.439231,0.000000
3416.128029,1110.308913,-10955.047942,0.000000
3416.128357,592.164754,-8142.265362,-766.095498
3416.128685,-370.102971,-9104.533087,306.438199
3416.129012,1036.288319,-10658.965565,-1532.190996
3416.129340,-148.041188,-9252.574275,-383.047749
3416.129668,-1628.453072,-8438.347739,1149.143247
3416.129995,-370.102971,-9104.533087,-306.438199
3416.130323,0.000000,-9844.739029,-1762.019645
3416.130651,592.164754,-9474.636058,-1455.581446
3416.130978,888.247130,-9622.677246,306.438199
3416.131306,1628.453072,-9252.574275,1149.143247
3416.131634,3627.009116,-12065.356855,536.266849
3416.131961,2368.659014,-9622.677246,-689.485948
3416.132289,814.226536,-8438.347739,0.000000
3416.132617,1184.329507,-10214.842000,0.000000
3416.132944,888.247130,-11547.212695,229.828649
3416.133272,-740.205942,-8956.491898,-306.438199
3416.133600,-1850.514855,-9104.533087,-383.047749
3416.133927,-740.205942,-9770.718434,229.828649
3416.134255,2516.700203,-10066.800811,0.000000
3416.134583,1406.391290,-9844.739029,-153.219100
3416.134910,-814.226536,-9474.636058,1455.581446
3416.135238,148.041188,-8364.327145,229.828649
3416.135566,370.102971,-9104.533087,-1838.629195
3416.135893,-1628.453072,-11029.068536,-689.485948
3416.136221,-1110.308913,-9252.574275,-1302.362347
3416.136549,-814.226536,-8660.409521,76.609550
3416.136876,888.247130,-10807.006753,689.485948
3416.137204,2368.659014,-11177.109724,-612.876398
3416.137532,666.185348,-9178.553681,766.095498
3416.137859,-74.020594,-9400.615463,2145.067394
3416.138187,1110.308913,-9770.718434,-1532.190996
3416.138515,74.020594,-9400.615463,-2068.457845
3416.138842,-1554.432478,-9548.656652,0.000000
3416.139170,-1184.329507,-9992.780217,0.000000
3416.139498,-666.185348,-9252.574275,-229.828649
3416.139825,1628.453072,-9844.739029,229.828649
3416.140153,962.267725,-9474.636058,383.047749
3416.140481,-444.123565,-9548.656652,1455.581446
3416.140808,-962.267725,-8956.491898,0.000000
3416.141136,0.000000,-9474.636058,-2681.334243
3416.141464,-1924.535449,-9844.739029,-2681.334243
3416.141791,-3775.050304,-9770.718434,-153.219100
3416.142119,-1850.514855,-7920.203579,0.000000
3416.142447,1998.556043,-9770.718434,-383.047749
3416.142774,3701.029710,-11769.274478,-1378.971896
3416.143102,1702.473667,-10362.883188,1685.410096
3416.143429,1110.308913,-8364.327145,459.657299
3416.143757,1110.308913,-8142.265362,-1225.752797
3416.144084,296.082377,-11103.089130,-1072.533697
3416.144412,-962.267725,-9474.636058,306.438199
3416.144740,74.020594,-7402.059420,612.876398
3416.145067,1480.411884,-9622.677246,1149.143247
3416.145395,4071.132681,-13545.768739,612.876398
3416.145722,2812.782580,-11769.274478,766.095498
3416.146050,1406.391290,-9252.574275,612.876398
3416.146377,148.041188,-8068.244768,-2451.505594
3416.146705,-2738.761985,-10140.821405,-1685.410096
3416.147032,-3997.112087,-9104.533087,-1455.581446
3416.147360,-1924.535449,-9400.615463,-1838.629195
3416.147688,-592.164754,-9178.553681,-1608.800546
3416.148015,2368.659014,-10436.903782,0.000000
3416.148343,2590.720797,-9918.759623,2068.457845
3416.148670,3256.906145,-10436.903782,3370.820191
3416.148998,3256.906145,-9696.697840,306.438199
3416.149325,1110.308913,-8512.368333,-995.924147
3416.149653,-1036.288319,-8142.265362,-229.828649
3416.149981,-740.205942,-8512.368333,612.876398
3416.150308,-814.226536,-9696.697840,459.657299
3416.150636,-740.205942,-9030.512492,919.314598
3416.150963,962.267725,-11029.068536,229.828649
3416.151291,1628.453072,-11029.068536,0.000000
3416.151618,1554.432478,-9400.615463,-306.438199
3416.151946,-296.082377,-7698.141797,229.828649
3416.152274,592.164754,-8808.450710,0.000000
3416.152601,-666.185348,-8068.244768,-842.705048
3416.152929,-962.267725,-9770.718434,0.000000
3416.153256,-296.082377,-9252.574275,229.828649
3416.153584,1480.411884,-10658.965565,995.924147
3416.153911,1480.411884,-10658.965565,-306.438199
3416.154239,0.000000,-10140.821405,0.000000
3416.154566,-814.226536,-8956.491898,-1455.581446
3416.154894,-444.123565,-9474.636058,-1685.410096
3416.155222,-148.041188,-11029.068536,-1378.971896
3416.155549,0.000000,-10955.047942,-919.314598
3416.155877,0.000000,-9474.636058,689.485948
3416.156204,1924.535449,-10510.924376,1302.362347
3416.156532,2368.659014,-11769.274478,766.095498
3416.156859,-296.082377,-9548.656652,766.095498
3416.157187,-1406.391290,-8364.327145,383.047749
3416.157515,-1184.329507,-8290.306550,-1838.629195
3416.157842,-1554.432478,-10584.944971,-1915.238745
3416.158170,-1998.556043,-10658.965565,-1991.848295
3416.158497,-1036.288319,-10140.821405,-1455.581446
3416.158825,-2072.576638,-9548.656652,-229.828649
3416.159152,-296.082377,-10214.842000,459.657299
3416.159480,444.123565,-9474.636058,229.828649
3416.159808,1184.329507,-9992.780217,1378.971896
3416.160135,2368.659014,-8734.430116,612.876398
3416.160463,2442.679609,-8660.409521,612.876398
3416.160790,1258.350101,-8734.430116,0.000000
3416.161118,148.041188,-9104.533087,919.314598
3416.161445,-814.226536,-8882.471304,229.828649
3416.161773,-444.123565,-9252.574275,-229.828649
3416.162100,814.226536,-11029.068536,-1149.143247
3416.162428,1406.391290,-11473.192101,-383.047749
3416.162756,2146.597232,-11621.233289,-229.828649
3416.163083,2886.803174,-9918.759623,229.828649
3416.163411,1850.514855,-9326.594869,0.000000
3416.163738,-2146.597232,-8882.471304,612.876398
3416.164066,-2886.803174,-8734.430116,0.000000
3416.164393,-1480.411884,-7846.182985,-2221.676944
3416.164721,296.082377,-9696.697840,-1991.848295
3416.165049,74.020594,-10436.903782,76.609550
3416.165376,296.082377,-9918.759623,1991.848295
3416.165704,2294.638420,-9696.697840,459.657299
3416.166031,3330.926739,-11325.150913,-1302.362347
3416.166359,2294.638420,-10807.006753,-2298.286494
3416.166686,-666.185348,-8364.327145,0.000000
3416.167014,0.000000,-8660.409521,995.924147
3416.167342,2368.659014,-9770.718434,229.828649
3416.167669,1110.308913,-9918.759623,1685.410096
3416.167997,296.082377,-10288.862594,2681.334243
3416.168324,1998.556043,-9474.636058,-306.438199
3416.168652,2146.597232,-10214.842000,-1532.190996
3416.168979,592.164754,-9992.780217,-1455.581446
3416.169307,-1628.453072,-7105.977043,-306.438199
3416.169634,-1480.411884,-7772.162391,0.000000
3416.169962,-370.102971,-10584.944971,-689.485948
3416.170290,1110.308913,-11769.274478,-995.924147
3416.170617,222.061783,-9992.780217,766.095498
3416.170945,1332.370696,-9992.780217,842.705048
3416.171272,1184.329507,-8882.471304,-536.266849
3416.171600,0.000000,-9770.718434,-995.924147
3416.171927,-2368.659014,-9030.512492,-383.047749
3416.172255,-1406.391290,-9400.615463,-536.266849
3416.172583,-296.082377,-9252.574275,-2298.286494
3416.172910,740.205942,-9918.759623,-1302.362347
3416.173238,296.082377,-11991.336260,306.438199
3416.173565,1332.370696,-12065.356855,1072.533697
3416.173893,1406.391290,-9178.553681,306.438199
3416.174220,888.247130,-8142.265362,0.000000
3416.174548,-222.061783,-8734.430116,-612.876398
3416.174876,-2664.741391,-8808.450710,1072.533697
3416.175203,-1924.535449,-9252.574275,0.000000
3416.175531,-370.102971,-9326.594869,-2145.067394
3416.175858,-1480.411884,-10658.965565,-1762.019645
3416.176186,-2072.576638,-10436.903782,229.828649
3416.176513,-814.226536,-9770.718434,-383.047749
3416.176841,222.061783,-11251.130318,-1302.362347
3416.177168,1406.391290,-12139.377449,-1302.362347
3416.177496,296.082377,-9252.574275,-1532.190996
3416.177824,148.041188,-7920.203579,459.657299
3416.178151,1258.350101,-8438.347739,842.705048
3416.178479,2368.659014,-10881.027347,1608.800546
3416.178806,518.144159,-10140.821405,1608.800546
3416.179134,814.226536,-8808.450710,1302.362347
3416.179461,1480.411884,-9474.636058,-995.924147
3416.179789,2368.659014,-11843.295072,0.000000
3416.180117,2368.659014,-10807.006753,-689.485948
3416.180444,-148.041188,-7772.162391,306.438199
3416.180772,-2812.782580,-9474.636058,995.924147
3416.181099,-1924.535449,-10955.047942,-995.924147
3416.181427,-962.267725,-9474.636058,-3600.648841
3416.181754,-1036.288319,-8068.244768,-2604.724693
3416.182082,-148.041188,-9178.553681,-229.828649
