#time,accel_x,accel_y,accel_z
2727.508934,0.000000,-9030.512492,-383.047749
2727.509261,0.000000,-9622.677246,-612.876398
2727.509589,222.061783,-9178.553681,-536.266849
2727.509917,666.185348,-9770.718434,-689.485948
2727.510244,592.164754,-9992.780217,-459.657299
2727.510572,518.144159,-9844.739029,76.609550
2727.510900,814.226536,-10436.903782,0.000000
2727.511227,666.185348,-10140.821405,0.000000
2727.511555,444.123565,-10066.800811,-306.438199
2727.511883,296.082377,-9918.759623,0.000000
2727.512210,0.000000,-9622.677246,0.000000
2727.512538,148.041188,-9770.718434,-229.828649
2727.512866,-222.061783,-9918.759623,76.609550
2727.513193,-296.082377,-9992.780217,-689.485948
2727.513521,-222.061783,-9992.780217,-766.095498
2727.513848,74.020594,-10584.944971,-766.095498
2727.514176,296.082377,-10362.883188,-229.828649
2727.514504,666.185348,-9918.759623,0.000000
2727.514831,592.164754,-9622.677246,0.000000
2727.515159,592.164754,-9844.739029,0.000000
2727.515487,518.144159,-9548.656652,0.000000
2727.515814,0.000000,-9326.594869,0.000000
2727.516142,0.000000,-8956.491898,0.000000
2727.516470,0.000000,-9326.594869,76.609550
2727.516797,-222.061783,-8956.491898,76.609550
2727.517125,0.000000,-9400.615463,-306.438199
2727.517452,0.000000,-9474.636058,229.828649
2727.517780,148.041188,-9474.636058,229.828649
2727.518108,444.123565,-9548.656652,306.438199
2727.518435,592.164754,-9548.656652,229.828649
2727.518763,592.164754,-9400.615463,229.828649
2727.519091,666.185348,-9326.594869,0.000000
2727.519418,888.247130,-9178.553681,689.485948
2727.519746,0.000000,-9030.512492,459.657299
2727.520074,222.061783,-9326.594869,-153.219100
2727.520401,74.020594,-9326.594869,-383.047749
2727.520729,222.061783,-9622.677246,-459.657299
2727.521057,222.061783,-9770.718434,-766.095498
2727.521384,0.000000,-10140.821405,-536.266849
2727.521712,592.164754,-9992.780217,-383.047749
2727.522039,814.226536,-9844.739029,-153.219100
2727.522367,592.164754,-10140.821405,-229.828649
2727.522695,592.164754,-10066.800811,-229.828649
2727.523022,222.061783,-10140.821405,-229.828649
2727.523350,0.000000,-9918.759623,-383.047749
2727.523678,74.020594,-9474.636058,-1072.533697
2727.524005,0.000000,-9252.574275,-995.924147
2727.524333,518.144159,-9474.636058,-842.705048
2727.524661,1184.329507,-9770.718434,-612.876398
2727.524988,2368.659014,-9548.656652,-689.485948
2727.525316,3478.967927,-9326.594869,-306.438199
2727.525643,4589.276840,-9622.677246,-229.828649
2727.525971,5625.565159,-10436.903782,689.485948
2727.526299,7105.977043,-10066.800811,306.438199
2727.526626,7179.997637,-9770.718434,459.657299
2727.526954,7105.977043,-9770.718434,229.828649
2727.527282,7328.038826,-9844.739029,229.828649
2727.527609,7402.059420,-9844.739029,229.828649
2727.527937,7105.977043,-9622.677246,612.876398
2727.528265,8216.285956,-8734.430116,0.000000
2727.528592,9104.533087,-8438.347739,0.000000
2727.528920,9326.594869,-8290.306550,842.705048
2727.529248,10584.944971,-8290.306550,766.095498
2727.529575,11325.150913,-8734.430116,919.314598
2727.529903,11843.295072,-9252.574275,995.924147
2727.530230,11843.295072,-9104.533087,689.485948
2727.530558,11399.171507,-8660.409521,306.438199
2727.530886,11621.233289,-8956.491898,459.657299
2727.531213,12435.459826,-9696.697840,0.000000
2727.531541,13471.748144,-10362.883188,-689.485948
2727.531869,13841.851115,-10066.800811,0.000000
2727.532196,14878.139434,-9696.697840,229.828649
2727.532524,14656.077652,-9770.718434,306.438199
2727.532852,13989.892304,-9548.656652,1149.143247
2727.533179,12583.501014,-9770.718434,459.657299
2727.533507,12213.398043,-9474.636058,689.485948
2727.533834,10955.047942,-9474.636058,0.000000
2727.534162,10807.006753,-10510.924376,306.438199
2727.534490,8882.471304,-10214.842000,995.924147
2727.534817,7624.121203,-10436.903782,459.657299
2727.535145,6365.771101,-9844.739029,-689.485948
2727.535473,4589.276840,-9030.512492,-1225.752797
2727.535800,4219.173869,-10584.944971,-842.705048
2727.536128,3330.926739,-9770.718434,0.000000
2727.536456,2738.761985,-9474.636058,0.000000
2727.536783,2812.782580,-9178.553681,-383.047749
2727.537111,2960.823768,-8586.388927,-612.876398
2727.537439,4145.153275,-9622.677246,229.828649
2727.537766,4219.173869,-9844.739029,459.657299
2727.538094,4219.173869,-10362.883188,383.047749
2727.538421,3775.050304,-11991.336260,689.485948
2727.538749,1850.514855,-11251.130318,536.266849
2727.539077,-222.061783,-9400.615463,0.000000
2727.539404,-1036.288319,-8068.244768,-306.438199
2727.539732,-1480.411884,-8438.347739,306.438199
2727.540060,-962.267725,-9992.780217,306.438199
2727.540387,-1332.370696,-9326.594869,459.657299
2727.540715,-2146.597232,-9696.697840,1455.581446
2727.541043,-3330.926739,-8660.409521,153.219100
2727.541370,-4737.318029,-7402.059420,-1072.533697
2727.541698,-4367.215058,-7328.038826,-1302.362347
2727.542025,-1480.411884,-7772.162391,-1149.143247
2727.542353,814.226536,-10436.903782,-459.657299
2727.542681,1332.370696,-11991.336260,766.095498
2727.543008,370.102971,-10584.944971,689.485948
2727.543336,-962.267725,-8660.409521,-536.266849
2727.543664,-2368.659014,-9992.780217,-1455.581446
2727.543991,-1850.514855,-11177.109724,-1915.238745
2727.544319,444.123565,-11177.109724,-2068.457845
2727.544647,666.185348,-11547.212695,-995.924147
2727.544974,592.164754,-9178.553681,0.000000
2727.545302,-962.267725,-7179.997637,919.314598
2727.545630,-2960.823768,-6587.832884,1149.143247
2727.545957,-2590.720797,-8586.388927,0.000000
2727.546285,222.061783,-9992.780217,-2451.505594
2727.546612,2294.638420,-10140.821405,-2987.772442
2727.546940,3256.906145,-9696.697840,-459.657299
2727.547268,3775.050304,-8882.471304,229.828649
2727.547595,3034.844362,-9992.780217,766.095498
2727.547923,2442.679609,-12213.398043,306.438199
2727.548251,2590.720797,-12879.583391,-1762.019645
2727.548578,2960.823768,-11399.171507,-2757.943793
2727.548906,3256.906145,-9548.656652,-1225.752797
2727.549234,2072.576638,-8660.409521,689.485948
2727.549561,1258.350101,-8068.244768,2374.896044
2727.549889,1110.308913,-9400.615463,1302.362347
2727.550216,1702.473667,-9770.718434,-383.047749
2727.550544,2146.597232,-7550.100608,-1302.362347
2727.550872,3552.988522,-7254.018232,-1302.362347
2727.551199,3775.050304,-7402.059420,0.000000
2727.551527,3552.988522,-10066.800811,2221.676944
2727.551855,4293.194464,-11547.212695,2374.896044
2727.552182,3775.050304,-12805.562797,919.314598
2727.552510,3701.029710,-12509.480420,-1302.362347
2727.552838,2738.761985,-10436.903782,-1685.410096
2727.553165,666.185348,-10066.800811,-536.266849
2727.553493,-1628.453072,-11029.068536,1149.143247
2727.553821,-1184.329507,-11769.274478,153.219100
2727.554148,-888.247130,-9030.512492,536.266849
2727.554476,-1110.308913,-7105.977043,0.000000
2727.554803,-740.205942,-6809.894666,-153.219100
2727.555131,-1258.350101,-7328.038826,766.095498
2727.555459,-1924.535449,-8216.285956,1685.410096
2727.555786,-1850.514855,-9770.718434,689.485948
2727.556114,-666.185348,-10584.944971,-689.485948
2727.556442,0.000000,-9474.636058,-919.314598
2727.556769,814.226536,-10066.800811,-766.095498
2727.557097,-888.247130,-11547.212695,536.266849
2727.557425,-2072.576638,-14211.954086,612.876398
2727.557752,-2146.597232,-13175.665768,-689.485948
2727.558080,-2368.659014,-9474.636058,-1608.800546
2727.558407,-2146.597232,-7994.224174,-1915.238745
2727.558735,-3034.844362,-7994.224174,-306.438199
2727.559063,-2516.700203,-8586.388927,766.095498
2727.559390,-2220.617826,-8586.388927,612.876398
2727.559718,-2442.679609,-6809.894666,306.438199
2727.560046,-1480.411884,-6143.709319,-612.876398
2727.560373,0.000000,-7031.956449,0.000000
2727.560701,74.020594,-9030.512492,383.047749
2727.561029,-296.082377,-11843.295072,76.609550
2727.561356,74.020594,-13323.706956,-1225.752797
2727.561684,0.000000,-11843.295072,-2451.505594
2727.562012,-148.041188,-10066.800811,-2451.505594
2727.562339,-518.144159,-10066.800811,-1685.410096
2727.562667,-518.144159,-10732.986159,-689.485948
2727.562994,-592.164754,-10584.944971,0.000000
2727.563322,296.082377,-10288.862594,-842.705048
2727.563650,666.185348,-7476.080014,-306.438199
2727.563977,1406.391290,-6069.688724,153.219100
2727.564305,1776.494261,-7179.997637,842.705048
2727.564633,2294.638420,-9844.739029,383.047749
2727.564960,2368.659014,-11103.089130,0.000000
2727.565288,2812.782580,-10881.027347,-383.047749
2727.565616,3775.050304,-9622.677246,-766.095498
2727.565943,3923.091493,-10955.047942,-612.876398
2727.566271,2886.803174,-12731.542202,0.000000
2727.566598,2590.720797,-13915.871710,-229.828649
2727.566926,1480.411884,-13249.686362,-1072.533697
2727.567254,1406.391290,-10658.965565,-1149.143247
2727.567581,1628.453072,-7179.997637,-612.876398
2727.567909,1110.308913,-6217.729913,76.609550
2727.568237,148.041188,-7846.182985,1762.019645
2727.568564,1036.288319,-9252.574275,1762.019645
2727.568892,2072.576638,-8364.327145,919.314598
2727.569220,1998.556043,-7550.100608,306.438199
2727.569547,2368.659014,-8364.327145,536.266849
2727.569875,1628.453072,-10140.821405,766.095498
2727.570203,592.164754,-11547.212695,995.924147
2727.570530,814.226536,-12953.603985,0.000000
2727.570858,518.144159,-12583.501014,-995.924147
2727.571185,444.123565,-9474.636058,-842.705048
2727.571513,-444.123565,-8364.327145,0.000000
2727.571840,-1924.535449,-8882.471304,766.095498
2727.572168,-1998.556043,-9918.759623,536.266849
2727.572496,-2146.597232,-9178.553681,-306.438199
2727.572823,-1628.453072,-7476.080014,-612.876398
2727.573151,518.144159,-5921.647536,-612.876398
2727.573478,592.164754,-6069.688724,842.705048
2727.573806,-740.205942,-8808.450710,2298.286494
2727.574133,-148.041188,-10732.986159,1685.410096
2727.574461,-148.041188,-11325.150913,-1455.581446
2727.574788,-222.061783,-10436.903782,-2221.676944
2727.575116,148.041188,-10214.842000,-2987.772442
2727.575443,-962.267725,-11547.212695,-1378.971896
2727.575771,-2960.823768,-12731.542202,0.000000
2727.576098,-2960.823768,-12213.398043,-1608.800546
2727.576426,-2368.659014,-10140.821405,-3140.991542
2727.576754,-2220.617826,-8142.265362,-2068.457845
2727.577081,-1480.411884,-7105.977043,0.000000
2727.577409,-1332.370696,-7402.059420,459.657299
2727.577736,-888.247130,-9474.636058,1072.533697
2727.578064,-296.082377,-10436.903782,459.657299
2727.578391,0.000000,-8956.491898,229.828649
2727.578719,592.164754,-7031.956449,76.609550
2727.579046,1258.350101,-8216.285956,0.000000
2727.579374,592.164754,-10955.047942,76.609550
2727.579701,740.205942,-13471.748144,-383.047749
2727.580029,518.144159,-12583.501014,-1378.971896
2727.580356,666.185348,-9992.780217,-1608.800546
2727.580684,962.267725,-8660.409521,-995.924147
2727.581012,740.205942,-8586.388927,0.000000
2727.581339,814.226536,-9474.636058,612.876398
2727.581667,2072.576638,-9548.656652,229.828649
2727.581994,2442.679609,-9326.594869,1149.143247
2727.582322,2368.659014,-7402.059420,1838.629195
2727.582649,2072.576638,-7105.977043,2068.457845
2727.582977,1036.288319,-8512.368333,1762.019645
2727.583304,592.164754,-10510.924376,689.485948
2727.583632,518.144159,-11029.068536,-459.657299
2727.583959,1110.308913,-9918.759623,-1378.971896
2727.584287,1406.391290,-9474.636058,-919.314598
2727.584614,1702.473667,-10510.924376,76.609550
2727.584942,370.102971,-11769.274478,689.485948
2727.585270,888.247130,-12065.356855,-306.438199
2727.585597,1110.308913,-10288.862594,-1225.752797
2727.585925,1258.350101,-7624.121203,-459.657299
2727.586252,1628.453072,-6439.791695,689.485948
2727.586580,1036.288319,-7920.203579,1608.800546
2727.586907,888.247130,-10658.965565,1838.629195
2727.587235,962.267725,-11399.171507,76.609550
2727.587562,296.082377,-9992.780217,-1608.800546
2727.587890,888.247130,-9104.533087,-1838.629195
2727.588217,1702.473667,-9844.739029,-2298.286494
2727.588545,148.041188,-10658.965565,-459.657299
2727.588872,-296.082377,-11843.295072,306.438199
2727.589200,888.247130,-12435.459826,-612.876398
2727.589528,814.226536,-10732.986159,-1072.533697
2727.589855,888.247130,-7846.182985,0.000000
2727.590183,-222.061783,-7476.080014,306.438199
2727.590510,-1702.473667,-9326.594869,1991.848295
2727.590838,-1406.391290,-10214.842000,76.609550
2727.591165,-2072.576638,-9178.553681,-536.266849
2727.591493,-1998.556043,-8068.244768,-919.314598
2727.591820,-1554.432478,-7698.141797,-689.485948
2727.592148,-1480.411884,-8956.491898,-306.438199
2727.592475,-1554.432478,-11325.150913,383.047749
2727.592803,-1776.494261,-11695.253884,-229.828649
2727.593131,-962.267725,-10362.883188,-842.705048
2727.593458,-814.226536,-8586.388927,-383.047749
2727.593786,-962.267725,-7550.100608,-459.657299
2727.594113,-1702.473667,-8660.409521,0.000000
2727.594441,-2072.576638,-10732.986159,306.438199
2727.594768,-1258.350101,-10807.006753,-306.438199
2727.595096,-370.102971,-8512.368333,-1149.143247
2727.595423,-370.102971,-7031.956449,-766.095498
2727.595751,0.000000,-7994.224174,0.000000
2727.596078,222.061783,-9844.739029,229.828649
2727.596406,296.082377,-11029.068536,0.000000
2727.596733,444.123565,-10732.986159,-612.876398
2727.597061,1554.432478,-9474.636058,-995.924147
2727.597389,1036.288319,-8586.388927,-383.047749
2727.597716,888.247130,-9474.636058,689.485948
2727.598044,518.144159,-11843.295072,689.485948
2727.598371,518.144159,-11843.295072,-689.485948
2727.598699,1110.308913,-10658.965565,-1915.238745
2727.599026,1036.288319,-9104.533087,-1302.362347
2727.599354,1406.391290,-8734.430116,229.828649
2727.599681,1110.308913,-9252.574275,1455.581446
2727.600009,1184.329507,-10584.944971,766.095498
2727.600336,1184.329507,-10732.986159,0.000000
2727.600664,1776.494261,-9474.636058,0.000000
2727.600991,1554.432478,-7920.203579,0.000000
2727.601319,1036.288319,-8734.430116,229.828649
2727.601647,148.041188,-10881.027347,459.657299
2727.601974,518.144159,-11843.295072,-306.438199
2727.602302,1258.350101,-10955.047942,-2451.505594
2727.602629,2590.720797,-9178.553681,-1455.581446
2727.602957,2960.823768,-7846.182985,0.000000
2727.603284,2368.659014,-9252.574275,1302.362347
2727.603612,2294.638420,-11325.150913,1762.019645
2727.603939,2220.617826,-10510.924376,536.266849
2727.604267,2516.700203,-9992.780217,76.609550
2727.604594,1628.453072,-7402.059420,919.314598
2727.604922,814.226536,-7328.038826,995.924147
2727.605249,0.000000,-8512.368333,1302.362347
2727.605577,-814.226536,-10436.903782,612.876398
2727.605905,-888.247130,-11473.192101,-1149.143247
2727.606232,-592.164754,-9844.739029,-1915.238745
2727.606560,0.000000,-8068.244768,-1532.190996
2727.606887,-1184.329507,-8290.306550,-612.876398
2727.607215,-962.267725,-10732.986159,0.000000
2727.607542,-666.185348,-11843.295072,-306.438199
2727.607870,0.000000,-10584.944971,-995.924147
2727.608197,148.041188,-9030.512492,-919.314598
2727.608525,444.123565,-8512.368333,0.000000
2727.608852,-148.041188,-8808.450710,842.705048
2727.609180,-1184.329507,-10436.903782,76.609550
2727.609507,-1332.370696,-11251.130318,-995.924147
2727.609835,-592.164754,-9770.718434,-1608.800546
2727.610163,74.020594,-7328.038826,-1608.800546
2727.610490,148.041188,-8068.244768,-459.657299
2727.610818,0.000000,-10955.047942,766.095498
2727.611145,-370.102971,-12583.501014,0.000000
2727.611473,0.000000,-11769.274478,-1302.362347
2727.611800,-370.102971,-10214.842000,-2145.067394
2727.612128,-592.164754,-8364.327145,-842.705048
2727.612455,-1110.308913,-8882.471304,536.266849
2727.612783,-1480.411884,-10362.883188,995.924147
2727.613110,-1480.411884,-11029.068536,-536.266849
2727.613438,-1480.411884,-9844.739029,-766.095498
2727.613765,-814.226536,-8216.285956,-2451.505594
2727.614093,-666.185348,-7179.997637,0.000000
2727.614421,-148.041188,-8438.347739,689.485948
2727.614748,592.164754,-11177.109724,689.485948
2727.615076,1850.514855,-12139.377449,153.219100
2727.615403,2368.659014,-10436.903782,-153.219100
2727.615731,2442.679609,-7994.224174,0.000000
2727.616058,1924.535449,-8512.368333,842.705048
2727.616386,1110.308913,-10140.821405,1838.629195
2727.616713,-370.102971,-11325.150913,76.609550
2727.617041,0.000000,-10436.903782,-1149.143247
2727.617368,370.102971,-8364.327145,-1991.848295
2727.617696,518.144159,-7402.059420,-842.705048
2727.618024,518.144159,-8068.244768,536.266849
2727.618351,888.247130,-10288.862594,1225.752797
2727.618679,1776.494261,-11843.295072,612.876398
2727.619006,2812.782580,-11177.109724,-383.047749
2727.619334,3775.050304,-8364.327145,-306.438199
2727.619661,3552.988522,-7328.038826,842.705048
2727.619989,1998.556043,-9326.594869,2681.334243
2727.620316,444.123565,-11177.109724,1762.019645
2727.620644,-148.041188,-11325.150913,-842.705048
2727.620971,-222.061783,-9918.759623,-2604.724693
2727.621299,444.123565,-8068.244768,-3217.601092
2727.621626,74.020594,-8808.450710,-1455.581446
2727.621954,-592.164754,-11103.089130,536.266849
2727.622282,0.000000,-11843.295072,0.000000
2727.622609,1554.432478,-11251.130318,-1378.971896
2727.622937,1184.329507,-9104.533087,-1149.143247
2727.623264,1480.411884,-7994.224174,0.000000
2727.623592,814.226536,-8216.285956,1225.752797
2727.623919,-148.041188,-10362.883188,1455.581446
2727.624247,-666.185348,-11991.336260,383.047749
2727.624574,-444.123565,-11103.089130,-536.266849
2727.624902,666.185348,-8290.306550,-1838.629195
2727.625229,370.102971,-7846.182985,-766.095498
2727.625557,-666.185348,-9622.677246,-383.047749
2727.625884,-1332.370696,-11399.171507,76.609550
2727.626212,-1184.329507,-10881.027347,-229.828649
2727.626540,-444.123565,-8438.347739,-612.876398
2727.626867,148.041188,-6883.915261,306.438199
2727.627195,296.082377,-7846.182985,2145.067394
2727.627522,-444.123565,-9400.615463,1915.238745
2727.627850,-592.164754,-10584.944971,1302.362347
2727.628177,-296.082377,-10732.986159,-766.095498
2727.628505,-222.061783,-9474.636058,-1225.752797
2727.628832,-592.164754,-8068.244768,-1225.752797
2727.629160,-1332.370696,-9104.533087,0.000000
2727.629487,-1924.535449,-11769.274478,-766.095498
2727.629815,-1036.288319,-11695.253884,-919.314598
2727.630142,-296.082377,-10288.862594,-1608.800546
2727.630470,0.000000,-8068.244768,0.000000
2727.630798,296.082377,-7402.059420,689.485948
2727.631125,-444.123565,-9474.636058,1149.143247
2727.631453,-814.226536,-11177.109724,76.609550
2727.631780,0.000000,-10658.965565,-995.924147
2727.632108,962.267725,-8586.388927,-1991.848295
2727.632435,1258.350101,-8142.265362,-919.314598
2727.632763,888.247130,-9622.677246,306.438199
2727.633090,666.185348,-11843.295072,842.705048
2727.633418,740.205942,-12509.480420,-612.876398
2727.633745,1184.329507,-11547.212695,-2221.676944
2727.634073,1332.370696,-9252.574275,-1762.019645
2727.634400,962.267725,-7846.182985,0.000000
2727.634728,666.185348,-8290.306550,1149.143247
2727.635056,814.226536,-10066.800811,1608.800546
2727.635383,1406.391290,-10510.924376,153.219100
2727.635711,2220.617826,-9400.615463,-536.266849
2727.636038,2220.617826,-7994.224174,-689.485948
2727.636366,1406.391290,-7698.141797,919.314598
2727.636693,888.247130,-9548.656652,459.657299
2727.637021,666.185348,-10955.047942,-1072.533697
2727.637348,888.247130,-11621.233289,-1685.410096
2727.637676,1110.308913,-10510.924376,-612.876398
2727.638003,2072.576638,-8734.430116,-306.438199
2727.638331,1258.350101,-8956.491898,383.047749
2727.638658,592.164754,-11251.130318,919.314598
2727.638986,0.000000,-11251.130318,459.657299
2727.639314,0.000000,-9104.533087,-995.924147
2727.639641,296.082377,-7550.100608,-1455.581446
2727.639969,666.185348,-7476.080014,-995.924147
2727.640296,0.000000,-8290.306550,536.266849
2727.640624,-296.082377,-10362.883188,1225.752797
2727.640951,518.144159,-12435.459826,0.000000
2727.641279,1258.350101,-11029.068536,-919.314598
2727.641606,1184.329507,-9474.636058,-1225.752797
2727.641934,666.185348,-8882.471304,0.000000
2727.642261,74.020594,-9844.739029,459.657299
2727.642589,-592.164754,-11251.130318,0.000000
2727.642917,-1184.329507,-11029.068536,-842.705048
2727.643244,-814.226536,-9474.636058,-1378.971896
2727.643572,-1184.329507,-7846.182985,-1455.581446
2727.643899,-1332.370696,-8142.265362,-766.095498
2727.644227,-1628.453072,-10066.800811,0.000000
2727.644554,-962.267725,-11251.130318,-459.657299
2727.644882,0.000000,-10362.883188,-612.876398
2727.645209,518.144159,-9178.553681,-689.485948
2727.645537,444.123565,-8364.327145,0.000000
2727.645864,-666.185348,-8068.244768,1149.143247
2727.646192,-740.205942,-10510.924376,1302.362347
2727.646519,-444.123565,-11251.130318,229.828649
2727.646847,-296.082377,-9770.718434,-383.047749
2727.647175,0.000000,-7698.141797,-919.314598
2727.647502,-518.144159,-8142.265362,-766.095498
2727.647830,-1332.370696,-9474.636058,0.000000
2727.648157,-1258.350101,-10658.965565,-153.219100
2727.648485,0.000000,-10658.965565,-1072.533697
2727.648812,1258.350101,-8586.388927,-919.314598
2727.649140,2294.638420,-7920.203579,459.657299
2727.649467,1628.453072,-8290.306550,1915.238745
2727.649795,1258.350101,-10658.965565,2374.896044
2727.650122,814.226536,-11251.130318,842.705048
2727.650450,0.000000,-10288.862594,-995.924147
2727.650777,0.000000,-9400.615463,-2221.676944
2727.651105,222.061783,-8438.347739,-1991.848295
2727.651433,-296.082377,-9400.615463,-766.095498
2727.651760,0.000000,-10881.027347,229.828649
2727.652088,518.144159,-11769.274478,-306.438199
2727.652415,1110.308913,-9992.780217,-919.314598
2727.652743,1110.308913,-7476.080014,-842.705048
2727.653070,1036.288319,-7994.224174,459.657299
2727.653398,148.041188,-9770.718434,1225.752797
2727.653725,666.185348,-11103.089130,536.266849
2727.654053,1406.391290,-11177.109724,-536.266849
2727.654380,1776.494261,-9548.656652,-995.924147
2727.654708,1924.535449,-8364.327145,-995.924147
2727.655035,1258.350101,-9326.594869,0.000000
2727.655363,222.061783,-11769.274478,536.266849
2727.655691,814.226536,-11843.295072,-459.657299
2727.656018,1258.350101,-10807.006753,-1532.190996
2727.656346,1554.432478,-8882.471304,-536.266849
2727.656673,1554.432478,-7476.080014,612.876398
2727.657001,814.226536,-8364.327145,2298.286494
2727.657328,0.000000,-9104.533087,2451.505594
2727.657656,74.020594,-10362.883188,-383.047749
2727.657983,0.000000,-9548.656652,-1608.800546
2727.658311,-740.205942,-7772.162391,-995.924147
2727.658638,-1184.329507,-8216.285956,-153.219100
2727.658966,-1554.432478,-9918.759623,-153.219100
2727.659293,-1036.288319,-11769.274478,-383.047749
2727.659621,-592.164754,-11473.192101,-1455.581446
2727.659949,0.000000,-9474.636058,-536.266849
2727.660276,296.082377,-7846.182985,-306.438199
2727.660604,-148.041188,-7846.182985,383.047749
2727.660931,-518.144159,-10436.903782,1302.362347
2727.661259,0.000000,-11621.233289,383.047749
2727.661586,962.267725,-10584.944971,-612.876398
2727.661914,1924.535449,-9030.512492,-1072.533697
2727.662241,1110.308913,-8734.430116,-995.924147
2727.662569,-666.185348,-10066.800811,689.485948
2727.662896,-1406.391290,-11621.233289,383.047749
2727.663224,-1480.411884,-11695.253884,-1608.800546
2727.663552,-1036.288319,-10140.821405,-2298.286494
2727.663879,-148.041188,-7994.224174,-1685.410096
2727.664207,-222.061783,-8068.244768,76.609550
2727.664534,-1036.288319,-9400.615463,2221.676944
2727.664862,-296.082377,-11029.068536,842.705048
2727.665189,0.000000,-10955.047942,-842.705048
2727.665517,74.020594,-8808.450710,-1225.752797
2727.665844,814.226536,-7402.059420,-842.705048
2727.666172,0.000000,-8438.347739,1225.752797
2727.666499,-592.164754,-10881.027347,2145.067394
2727.666827,-370.102971,-11547.212695,306.438199
2727.667154,444.123565,-10362.883188,-1685.410096
2727.667482,888.247130,-8808.450710,-1685.410096
2727.667810,592.164754,-8216.285956,-306.438199
2727.668137,0.000000,-9252.574275,919.314598
2727.668465,296.082377,-10584.944971,1072.533697
2727.668792,740.205942,-11177.109724,-306.438199
2727.669120,1554.432478,-9030.512492,-766.095498
2727.669447,1258.350101,-7031.956449,-229.828649
2727.669775,1184.329507,-7476.080014,536.266849
2727.670102,370.102971,-10066.800811,766.095498
2727.670430,740.205942,-12139.377449,0.000000
2727.670757,1332.370696,-11399.171507,-1072.533697
2727.671085,2368.659014,-9474.636058,-1302.362347
2727.671412,2368.659014,-8438.347739,153.219100
2727.671740,1110.308913,-9178.553681,1225.752797
2727.672068,148.041188,-10362.883188,1149.143247
2727.672395,296.082377,-10436.903782,-459.657299
2727.672723,592.164754,-9622.677246,-1378.971896
2727.673050,814.226536,-7772.162391,-842.705048
2727.673378,740.205942,-7994.224174,-919.314598
2727.673705,370.102971,-9252.574275,842.705048
2727.674033,296.082377,-11843.295072,-536.266849
2727.674360,740.205942,-12583.501014,-1302.362347
2727.674688,814.226536,-10288.862594,-1532.190996
2727.675015,1110.308913,-8808.450710,-919.314598
2727.675343,370.102971,-9030.512492,153.219100
2727.675670,-444.123565,-11177.109724,1072.533697
2727.675998,-592.164754,-11473.192101,0.000000
2727.676325,0.000000,-9918.759623,-536.266849
2727.676653,592.164754,-8290.306550,-995.924147
2727.676980,592.164754,-7550.100608,0.000000
2727.677308,-592.164754,-8364.327145,995.924147
2727.677636,-888.247130,-10214.842000,842.705048
2727.677963,148.041188,-11251.130318,-1149.143247
2727.678291,296.082377,-9770.718434,-766.095498
2727.678618,1110.308913,-8734.430116,0.000000
2727.678946,962.267725,-8290.306550,1072.533697
2727.679273,-296.082377,-9992.780217,1915.238745
2727.679601,-962.267725,-11547.212695,1225.752797
2727.679928,-1110.308913,-10955.047942,-842.705048
2727.680256,-1776.494261,-9252.574275,-2374.896044
2727.680583,-1480.411884,-7476.080014,-1072.533697
2727.680911,-1554.432478,-7328.038826,-153.219100
2727.681238,-814.226536,-9474.636058,536.266849
2727.681566,814.226536,-11029.068536,0.000000
2727.681893,1406.391290,-10436.903782,0.000000
2727.682221,1184.329507,-7846.182985,842.705048
2727.682548,1184.329507,-6883.915261,536.266849
2727.682876,74.020594,-8586.388927,1072.533697
2727.683204,-666.185348,-11695.253884,76.609550
2727.683531,-222.061783,-12213.398043,0.000000
2727.683859,1036.288319,-10732.986159,-1378.971896
2727.684186,1850.514855,-9474.636058,-1378.971896
2727.684514,962.267725,-9844.739029,-459.657299
2727.684841,-888.247130,-10658.965565,-153.219100
2727.685169,-888.247130,-11029.068536,0.000000
2727.685496,518.144159,-11177.109724,-2451.505594
2727.685824,444.123565,-9030.512492,-2068.457845
2727.686151,666.185348,-7550.100608,612.876398
2727.686479,666.185348,-7994.224174,2374.896044
2727.686806,740.205942,-9696.697840,1762.019645
2727.687134,962.267725,-11621.233289,0.000000
2727.687461,814.226536,-11325.150913,-1532.190996
2727.687789,0.000000,-8734.430116,-1608.800546
2727.688116,814.226536,-8808.450710,-995.924147
2727.688444,0.000000,-9474.636058,-229.828649
2727.688772,0.000000,-10807.006753,0.000000
2727.689099,666.185348,-11621.233289,-536.266849
2727.689427,1258.350101,-10066.800811,-689.485948
2727.689754,1554.432478,-8586.388927,229.828649
2727.690082,1110.308913,-8142.265362,612.876398
2727.690409,0.000000,-9400.615463,919.314598
2727.690737,444.123565,-10066.800811,229.828649
2727.691064,740.205942,-9548.656652,0.000000
2727.691392,1480.411884,-9104.533087,229.828649
2727.691719,2368.659014,-7698.141797,0.000000
2727.692047,1480.411884,-7994.224174,919.314598
2727.692374,0.000000,-9918.759623,1225.752797
2727.692702,74.020594,-12287.418637,0.000000
2727.693029,222.061783,-11473.192101,-1378.971896
2727.693357,444.123565,-9178.553681,-1685.410096
2727.693685,-296.082377,-8068.244768,-612.876398
2727.694012,-370.102971,-9474.636058,536.266849
2727.694340,-222.061783,-10436.903782,919.314598
2727.694667,370.102971,-10362.883188,-842.705048
2727.694995,592.164754,-9548.656652,-1149.143247
2727.695322,444.123565,-8734.430116,-383.047749
2727.695650,222.061783,-8216.285956,0.000000
2727.695977,0.000000,-9548.656652,0.000000
2727.696305,-370.102971,-11177.109724,-689.485948
2727.696632,148.041188,-11917.315666,-1378.971896
2727.696960,296.082377,-9918.759623,-1072.533697
2727.697287,296.082377,-9252.574275,-612.876398
2727.697615,-444.123565,-9178.553681,0.000000
2727.697942,-1258.350101,-10881.027347,306.438199
2727.698270,-1554.432478,-11325.150913,536.266849
2727.698597,-740.205942,-9474.636058,-1302.362347
2727.698925,-296.082377,-7254.018232,-1225.752797
2727.699253,74.020594,-7624.121203,-689.485948
2727.699580,-444.123565,-8956.491898,536.266849
2727.699908,0.000000,-10584.944971,383.047749
2727.700235,222.061783,-11621.233289,-229.828649
2727.700563,666.185348,-10510.924376,-536.266849
2727.700890,1036.288319,-8364.327145,76.609550
2727.701218,1332.370696,-8586.388927,842.705048
2727.701545,0.000000,-9918.759623,1532.190996
2727.701873,-370.102971,-10658.965565,1149.143247
2727.702200,-296.082377,-10362.883188,-306.438199
2727.702528,-222.061783,-8660.409521,-995.924147
2727.702855,222.061783,-7476.080014,-536.266849
2727.703183,74.020594,-8068.244768,306.438199
2727.703510,-370.102971,-9622.677246,1149.143247
2727.703838,740.205942,-11547.212695,-459.657299
2727.704165,814.226536,-10807.006753,-1225.752797
2727.704493,148.041188,-8808.450710,-689.485948
2727.704821,296.082377,-8586.388927,-306.438199
2727.705148,888.247130,-10066.800811,612.876398
2727.705476,962.267725,-11473.192101,0.000000
2727.705803,1258.350101,-11621.233289,306.438199
2727.706131,888.247130,-9474.636058,-612.876398
2727.706458,1702.473667,-7994.224174,-612.876398
2727.706786,1110.308913,-8512.368333,0.000000
2727.707113,444.123565,-10066.800811,0.000000
2727.707441,740.205942,-11251.130318,0.000000
2727.707768,2146.597232,-11473.192101,-689.485948
2727.708096,2442.679609,-10214.842000,-612.876398
2727.708423,2812.782580,-8882.471304,383.047749
2727.708751,2072.576638,-9252.574275,1302.362347
2727.709078,1258.350101,-11029.068536,1225.752797
2727.709406,370.102971,-12287.418637,0.000000
2727.709733,0.000000,-9992.780217,-1072.533697
2727.710061,-1110.308913,-7550.100608,-1608.800546
2727.710389,-1036.288319,-7031.956449,-766.095498
2727.710716,-1258.350101,-8882.471304,-536.266849
2727.711044,-1480.411884,-9770.718434,153.219100
2727.711371,-592.164754,-11029.068536,0.000000
2727.711699,148.041188,-9770.718434,-689.485948
2727.712026,592.164754,-7476.080014,153.219100
2727.712354,666.185348,-7254.018232,766.095498
2727.712681,0.000000,-10140.821405,919.314598
2727.713009,148.041188,-11843.295072,1225.752797
2727.713336,444.123565,-10140.821405,-459.657299
2727.713664,888.247130,-8660.409521,-1455.581446
2727.713991,592.164754,-8586.388927,-1072.533697
2727.714319,-444.123565,-9326.594869,306.438199
2727.714646,-1850.514855,-10955.047942,612.876398
2727.714974,-592.164754,-12139.377449,-842.705048
2727.715301,0.000000,-10732.986159,-1762.019645
2727.715629,74.020594,-8512.368333,-1302.362347
2727.715957,0.000000,-7476.080014,0.000000
2727.716284,-444.123565,-9178.553681,1225.752797
2727.716612,-592.164754,-11251.130318,1991.848295
2727.716939,-444.123565,-11473.192101,612.876398
2727.717267,0.000000,-9252.574275,-919.314598
2727.717594,148.041188,-8364.327145,-1225.752797
2727.717922,-814.226536,-8660.409521,-536.266849
2727.718249,-1036.288319,-10214.842000,-459.657299
2727.718577,0.000000,-11843.295072,-1072.533697
2727.718904,444.123565,-11325.150913,-1762.019645
2727.719232,518.144159,-9326.594869,-229.828649
2727.719559,1406.391290,-8290.306550,766.095498
2727.719887,1110.308913,-8438.347739,1225.752797
2727.720214,518.144159,-10288.862594,995.924147
2727.720542,666.185348,-10584.944971,76.609550
2727.720869,888.247130,-9844.739029,-459.657299
2727.721197,1258.350101,-7328.038826,-459.657299
2727.721525,1110.308913,-7846.182985,-383.047749
2727.721852,0.000000,-9474.636058,536.266849
2727.722180,74.020594,-11177.109724,229.828649
2727.722507,1184.329507,-11399.171507,-842.705048
2727.722835,1702.473667,-10288.862594,-1149.143247
2727.723162,1776.494261,-8882.471304,-306.438199
2727.723490,1258.350101,-7920.203579,1072.533697
2727.723817,0.000000,-9696.697840,2221.676944
2727.724145,0.000000,-10584.944971,919.314598
2727.724472,444.123565,-9548.656652,-383.047749
2727.724800,296.082377,-8142.265362,-842.705048
2727.725127,666.185348,-7772.162391,0.000000
2727.725455,518.144159,-9030.512492,306.438199
2727.725782,-370.102971,-10362.883188,76.609550
2727.726110,-222.061783,-11769.274478,-919.314598
2727.726437,-370.102971,-10584.944971,-2221.676944
2727.726765,0.000000,-8956.491898,-1455.581446
2727.727093,0.000000,-8512.368333,-306.438199
2727.727420,1184.329507,-9844.739029,383.047749
2727.727748,1924.535449,-11547.212695,842.705048
2727.728075,2072.576638,-11325.150913,842.705048
2727.728403,1628.453072,-8956.491898,0.000000
2727.728730,962.267725,-7402.059420,-689.485948
2727.729058,0.000000,-7698.141797,-995.924147
2727.729385,-666.185348,-9548.656652,-536.266849
2727.729713,-888.247130,-11843.295072,-229.828649
2727.730040,74.020594,-11991.336260,-919.314598
2727.730368,1110.308913,-10214.842000,-995.924147
2727.730695,814.226536,-9326.594869,0.000000
2727.731023,370.102971,-10140.821405,459.657299
2727.731350,-814.226536,-11251.130318,1225.752797
2727.731678,-888.247130,-10732.986159,-306.438199
2727.732005,-1258.350101,-9030.512492,-1302.362347
2727.732333,-1628.453072,-7105.977043,-1072.533697
2727.732661,-1554.432478,-6587.832884,153.219100
2727.732988,-1554.432478,-8438.347739,1225.752797
2727.733316,-518.144159,-11399.171507,306.438199
2727.733643,-296.082377,-11399.171507,-536.266849
2727.733971,0.000000,-9770.718434,-1149.143247
2727.734298,0.000000,-7994.224174,-842.705048
2727.734626,-148.041188,-8364.327145,229.828649
2727.734953,-222.061783,-9918.759623,1532.190996
2727.735281,592.164754,-10881.027347,766.095498
2727.735608,1184.329507,-10066.800811,-229.828649
2727.735936,666.185348,-8586.388927,-306.438199
2727.736263,444.123565,-7624.121203,-229.828649
2727.736591,74.020594,-9030.512492,0.000000
2727.736918,-296.082377,-11251.130318,0.000000
2727.737246,444.123565,-11769.274478,-995.924147
2727.737573,1036.288319,-9548.656652,-1378.971896
2727.737901,2220.617826,-9030.512492,-612.876398
2727.738229,2072.576638,-8660.409521,766.095498
2727.738556,1332.370696,-9992.780217,1991.848295
2727.738884,814.226536,-11251.130318,1838.629195
2727.739211,962.267725,-10807.006753,0.000000
2727.739539,1036.288319,-9548.656652,-1915.238745
2727.739866,0.000000,-8142.265362,-1149.143247
2727.740194,-592.164754,-8068.244768,-842.705048
2727.740521,-518.144159,-9992.780217,0.000000
2727.740849,148.041188,-11769.274478,-995.924147
2727.741176,1110.308913,-11695.253884,-1225.752797
2727.741504,1924.535449,-9252.574275,-1225.752797
2727.741831,2072.576638,-7846.182985,0.000000
2727.742159,1554.432478,-9252.574275,1072.533697
2727.742486,1110.308913,-10955.047942,1608.800546
2727.742814,1332.370696,-10584.944971,842.705048
2727.743141,1850.514855,-9992.780217,-536.266849
2727.743469,1332.370696,-8512.368333,-766.095498
2727.743797,666.185348,-8290.306550,0.000000
2727.744124,-592.164754,-9252.574275,153.219100
2727.744452,-592.164754,-10732.986159,76.609550
2727.744779,-222.061783,-10288.862594,-1072.533697
2727.745107,0.000000,-9548.656652,-1225.752797
2727.745434,444.123565,-8660.409521,-1072.533697
2727.745762,222.061783,-8438.347739,0.000000
2727.746089,-296.082377,-10066.800811,1225.752797
2727.746417,0.000000,-11029.068536,536.266849
2727.746744,296.082377,-9992.780217,76.609550
2727.747072,370.102971,-7698.141797,-229.828649
2727.747399,296.082377,-7550.100608,-612.876398
2727.747727,-296.082377,-9252.574275,76.609550
2727.748054,-370.102971,-10881.027347,0.000000
2727.748382,-518.144159,-11177.109724,-689.485948
2727.748709,-666.185348,-10066.800811,-1149.143247
2727.749037,222.061783,-8512.368333,0.000000
2727.749365,962.267725,-8290.306550,306.438199
2727.749692,296.082377,-9844.739029,1302.362347
2727.750020,148.041188,-11843.295072,766.095498
2727.750347,0.000000,-11177.109724,-229.828649
2727.750675,-222.061783,-9252.574275,-1072.533697
2727.751002,-518.144159,-7994.224174,-995.924147
2727.751330,-962.267725,-9030.512492,0.000000
2727.751657,-888.247130,-10584.944971,153.219100
2727.751985,370.102971,-11547.212695,-689.485948
2727.752312,148.041188,-11399.171507,-1149.143247
2727.752640,518.144159,-9252.574275,-1149.143247
2727.752967,518.144159,-8216.285956,-459.657299
2727.753295,-222.061783,-9474.636058,1762.019645
2727.753622,222.061783,-11029.068536,1225.752797
2727.753950,962.267725,-10584.944971,0.000000
2727.754278,666.185348,-9178.553681,-459.657299
2727.754605,666.185348,-8068.244768,0.000000
2727.754933,518.144159,-8068.244768,306.438199
2727.755260,-370.102971,-9844.739029,383.047749
2727.755588,0.000000,-11917.315666,0.000000
2727.755915,296.082377,-11621.233289,-1991.848295
2727.756243,0.000000,-9474.636058,-1762.019645
2727.756570,0.000000,-7550.100608,-766.095498
2727.756898,-370.102971,-8586.388927,-229.828649
2727.757225,-962.267725,-10140.821405,536.266849
2727.757553,0.000000,-10955.047942,229.828649
2727.757880,592.164754,-9326.594869,-383.047749
2727.758208,1036.288319,-7254.018232,0.000000
2727.758535,814.226536,-6809.894666,229.828649
2727.758863,444.123565,-9474.636058,1455.581446
2727.759190,518.144159,-11177.109724,306.438199
2727.759518,1850.514855,-11251.130318,-1302.362347
2727.759846,2516.700203,-11177.109724,-1991.848295
2727.760173,2368.659014,-9992.780217,-842.705048
2727.760501,1924.535449,-9400.615463,995.924147
2727.760828,444.123565,-10140.821405,1762.019645
2727.761156,1184.329507,-11695.253884,153.219100
2727.761483,518.144159,-10436.903782,-1149.143247
2727.761811,-296.082377,-7994.224174,-1302.362347
2727.762138,-370.102971,-6809.894666,-536.266849
2727.762466,-148.041188,-7772.162391,306.438199
2727.762793,-296.082377,-9992.780217,766.095498
2727.763121,444.123565,-11473.192101,306.438199
2727.763448,1554.432478,-11843.295072,-689.485948
2727.763776,962.267725,-9400.615463,-689.485948
2727.764103,518.144159,-8586.388927,-459.657299
2727.764431,0.000000,-9770.718434,0.000000
2727.764758,518.144159,-11251.130318,153.219100
2727.765086,444.123565,-11103.089130,153.219100
2727.765414,1036.288319,-9770.718434,0.000000
2727.765741,1406.391290,-7254.018232,-536.266849
2727.766069,296.082377,-7772.162391,76.609550
2727.766396,-370.102971,-9474.636058,612.876398
2727.766724,-592.164754,-10510.924376,76.609550
2727.767051,148.041188,-9844.739029,-842.705048
2727.767379,592.164754,-8956.491898,-689.485948
2727.767706,592.164754,-8216.285956,0.000000
2727.768034,74.020594,-8512.368333,919.314598
2727.768361,-592.164754,-10955.047942,1302.362347
2727.768689,-296.082377,-12139.377449,229.828649
2727.769016,-296.082377,-10955.047942,-1378.971896
2727.769344,-370.102971,-8512.368333,-1532.190996
2727.769671,-592.164754,-7994.224174,-689.485948
2727.769999,-1036.288319,-9104.533087,0.000000
2727.770326,-962.267725,-10436.903782,0.000000
2727.770654,-518.144159,-11325.150913,-459.657299
2727.770982,-518.144159,-9548.656652,-689.485948
2727.771309,222.061783,-8068.244768,-689.485948
2727.771637,518.144159,-8438.347739,0.000000
2727.771965,518.144159,-10510.924376,612.876398
2727.772292,-296.082377,-11325.150913,919.314598
2727.772620,-148.041188,-10288.862594,536.266849
2727.772947,148.041188,-8882.471304,-1532.190996
2727.773275,222.061783,-8216.285956,-1378.971896
2727.773603,-222.061783,-9104.533087,0.000000
2727.773930,74.020594,-10658.965565,995.924147
2727.774258,814.226536,-10732.986159,459.657299
2727.774586,1776.494261,-9844.739029,-919.314598
2727.774913,1332.370696,-8586.388927,-995.924147
2727.775241,814.226536,-7920.203579,0.000000
2727.775568,0.000000,-10066.800811,1149.143247
2727.775896,444.123565,-11695.253884,995.924147
2727.776224,1480.411884,-11029.068536,-383.047749
2727.776551,1480.411884,-9326.594869,-306.438199
2727.776879,888.247130,-8068.244768,306.438199
2727.777207,0.000000,-8142.265362,0.000000
2727.777534,-148.041188,-9918.759623,0.000000
2727.777862,-518.144159,-11029.068536,-1302.362347
2727.778190,-888.247130,-10510.924376,-1762.019645
2727.778517,-222.061783,-8660.409521,-1532.190996
2727.778845,592.164754,-8216.285956,-536.266849
2727.779172,740.205942,-9400.615463,612.876398
2727.779500,1184.329507,-11843.295072,1378.971896
2727.779828,1554.432478,-11695.253884,0.000000
2727.780155,1332.370696,-9770.718434,-1225.752797
2727.780483,740.205942,-8586.388927,-1378.971896
2727.780811,74.020594,-8290.306550,0.000000
2727.781138,0.000000,-8364.327145,306.438199
2727.781466,74.020594,-9844.739029,153.219100
2727.781793,518.144159,-11029.068536,-536.266849
2727.782121,1110.308913,-10584.944971,-995.924147
2727.782449,962.267725,-9178.553681,-919.314598
2727.782776,740.205942,-9474.636058,-306.438199
2727.783104,0.000000,-10881.027347,536.266849
2727.783432,148.041188,-11325.150913,842.705048
2727.783759,518.144159,-10288.862594,76.609550
2727.784087,814.226536,-8364.327145,-306.438199
2727.784415,222.061783,-7624.121203,76.609550
2727.784742,0.000000,-8882.471304,689.485948
2727.785070,-148.041188,-10436.903782,842.705048
2727.785397,0.000000,-11917.315666,0.000000
2727.785725,0.000000,-10584.944971,-1378.971896
2727.786053,-592.164754,-8956.491898,-995.924147
2727.786380,-1258.350101,-7772.162391,-842.705048
2727.786708,-666.185348,-9178.553681,0.000000
2727.787036,-740.205942,-10881.027347,612.876398
2727.787363,74.020594,-10955.047942,383.047749
2727.787691,1258.350101,-9400.615463,76.609550
2727.788018,1776.494261,-8068.244768,383.047749
2727.788346,1036.288319,-8216.285956,536.266849
2727.788674,0.000000,-9548.656652,1072.533697
2727.789001,148.041188,-10658.965565,-153.219100
2727.789329,74.020594,-10807.006753,-1302.362347
2727.789657,0.000000,-9474.636058,-1378.971896
2727.789984,222.061783,-8734.430116,-459.657299
2727.790312,296.082377,-9696.697840,689.485948
2727.790640,0.000000,-11029.068536,1072.533697
2727.790967,-222.061783,-10732.986159,76.609550
2727.791295,-296.082377,-9400.615463,-1685.410096
2727.791622,0.000000,-7550.100608,-2145.067394
2727.791950,-296.082377,-7402.059420,-1378.971896
2727.792278,-370.102971,-9400.615463,76.609550
2727.792605,0.000000,-11399.171507,689.485948
2727.792933,1036.288319,-11251.130318,-383.047749
2727.793261,1184.329507,-9770.718434,-1838.629195
2727.793588,1184.329507,-9178.553681,-1302.362347
2727.793916,666.185348,-9548.656652,-229.828649
2727.794243,1036.288319,-11103.089130,536.266849
2727.794571,1554.432478,-11695.253884,383.047749
2727.794899,1628.453072,-10584.944971,229.828649
2727.795226,1036.288319,-8438.347739,-306.438199
2727.795554,2146.597232,-6957.935855,0.000000
2727.795882,592.164754,-8512.368333,919.314598
2727.796209,0.000000,-10732.986159,689.485948
2727.796537,0.000000,-11177.109724,-306.438199
2727.796865,74.020594,-9696.697840,-1225.752797
2727.797192,296.082377,-8956.491898,-1149.143247
2727.797520,0.000000,-8882.471304,0.000000
2727.797847,0.000000,-10140.821405,766.095498
2727.798175,-222.061783,-11399.171507,459.657299
2727.798503,0.000000,-10807.006753,0.000000
2727.798830,74.020594,-8882.471304,-689.485948
2727.799158,0.000000,-7772.162391,0.000000
2727.799486,-518.144159,-7920.203579,383.047749
2727.799813,-666.185348,-9104.533087,459.657299
2727.800141,74.020594,-10807.006753,0.000000
2727.800468,370.102971,-10732.986159,-383.047749
2727.800796,1110.308913,-8882.471304,-766.095498
2727.801124,1406.391290,-8142.265362,76.609550
2727.801451,1406.391290,-10362.883188,919.314598
2727.801779,1184.329507,-12139.377449,919.314598
2727.802107,1406.391290,-11843.295072,0.000000
2727.802434,962.267725,-9844.739029,-766.095498
2727.802762,370.102971,-8586.388927,-1225.752797
2727.803089,-814.226536,-8290.306550,-459.657299
2727.803417,-1480.411884,-8882.471304,0.000000
2727.803745,-1702.473667,-10288.862594,-229.828649
2727.804072,-1554.432478,-10658.965565,-766.095498
2727.804400,-1480.411884,-9326.594869,-1072.533697
2727.804728,-814.226536,-7550.100608,-1455.581446
2727.805055,-666.185348,-8142.265362,-229.828649
2727.805383,-370.102971,-10955.047942,306.438199
2727.805711,148.041188,-12065.356855,383.047749
2727.806038,1036.288319,-10658.965565,-383.047749
2727.806366,1702.473667,-8808.450710,-536.266849
2727.806693,1480.411884,-8512.368333,0.000000
2727.807021,0.000000,-9474.636058,0.000000
2727.807349,-370.102971,-10658.965565,383.047749
2727.807676,-666.185348,-10584.944971,-1149.143247
2727.808004,-740.205942,-9252.574275,-1762.019645
2727.808332,-814.226536,-7624.121203,-995.924147
2727.808659,0.000000,-7476.080014,76.609550
2727.808987,592.164754,-9474.636058,1302.362347
2727.809314,1110.308913,-11399.171507,1838.629195
2727.809642,1702.473667,-10584.944971,536.266849
2727.809970,1406.391290,-8734.430116,0.000000
2727.810297,1332.370696,-7994.224174,-536.266849
2727.810625,444.123565,-8956.491898,-306.438199
2727.810953,-222.061783,-10362.883188,153.219100
2727.811280,222.061783,-11103.089130,0.000000
2727.811608,888.247130,-10881.027347,-842.705048
2727.811936,888.247130,-9770.718434,-842.705048
2727.812263,962.267725,-8956.491898,-306.438199
2727.812591,444.123565,-9918.759623,383.047749
2727.812918,740.205942,-10955.047942,459.657299
2727.813246,888.247130,-9992.780217,0.000000
2727.813574,1110.308913,-8660.409521,229.828649
2727.813901,1110.308913,-7550.100608,153.219100
2727.814229,814.226536,-7846.182985,229.828649
2727.814557,962.267725,-9770.718434,612.876398
2727.814884,296.082377,-12435.459826,229.828649
2727.815212,74.020594,-11843.295072,-1455.581446
2727.815539,-444.123565,-9696.697840,-2221.676944
2727.815867,-518.144159,-8808.450710,-1838.629195
2727.816195,-370.102971,-9548.656652,-306.438199
2727.816522,74.020594,-11399.171507,612.876398
2727.816850,888.247130,-11399.171507,612.876398
2727.817178,1554.432478,-9770.718434,306.438199
2727.817505,1702.473667,-7920.203579,-153.219100
2727.817833,814.226536,-7328.038826,306.438199
2727.818161,-740.205942,-8586.388927,536.266849
2727.818488,-1184.329507,-9844.739029,76.609550
2727.818816,-518.144159,-10955.047942,-1072.533697
2727.819143,0.000000,-9696.697840,-1532.190996
2727.819471,370.102971,-8808.450710,-995.924147
2727.819799,-148.041188,-9030.512492,229.828649
2727.820126,-444.123565,-10584.944971,1072.533697
2727.820454,-148.041188,-11325.150913,-306.438199
2727.820782,-370.102971,-9918.759623,-153.219100
2727.821109,-666.185348,-7994.224174,-919.314598
2727.821437,0.000000,-7476.080014,0.000000
2727.821764,0.000000,-8586.388927,536.266849
2727.822092,222.061783,-10658.965565,766.095498
2727.822420,814.226536,-11399.171507,229.828649
2727.822747,1036.288319,-10584.944971,-766.095498
2727.823075,222.061783,-8808.450710,-995.924147
2727.823403,0.000000,-8142.265362,-459.657299
2727.823730,0.000000,-9770.718434,-766.095498
2727.824058,-148.041188,-11991.336260,76.609550
2727.824386,518.144159,-11917.315666,0.000000
2727.824713,1332.370696,-9622.677246,-612.876398
2727.825041,1702.473667,-8512.368333,76.609550
2727.825368,592.164754,-8438.347739,1072.533697
2727.825696,-296.082377,-9548.656652,842.705048
2727.826024,-518.144159,-10584.944971,-229.828649
2727.826351,-296.082377,-10288.862594,-1685.410096
2727.826679,74.020594,-9030.512492,-1915.238745
2727.827007,370.102971,-8660.409521,-229.828649
2727.827334,814.226536,-9548.656652,1225.752797
2727.827662,814.226536,-11103.089130,1762.019645
2727.827989,740.205942,-11843.295072,766.095498
2727.828317,666.185348,-10510.924376,-459.657299
2727.828645,666.185348,-8142.265362,-1378.971896
2727.828972,888.247130,-7105.977043,-689.485948
2727.829300,296.082377,-8438.347739,536.266849
2727.829628,518.144159,-10510.924376,1225.752797
2727.829955,814.226536,-10807.006753,689.485948
2727.830283,518.144159,-8734.430116,-995.924147
2727.830611,518.144159,-7624.121203,-1302.362347
2727.830938,296.082377,-8808.450710,-842.705048
2727.831266,370.102971,-11103.089130,383.047749
2727.831593,1554.432478,-11917.315666,459.657299
2727.831921,1998.556043,-10807.006753,0.000000
2727.832249,1850.514855,-9400.615463,-766.095498
2727.832576,518.144159,-7994.224174,0.000000
2727.832904,-222.061783,-8808.450710,536.266849
2727.833232,-814.226536,-10362.883188,76.609550
2727.833559,-444.123565,-11325.150913,-1302.362347
2727.833887,-222.061783,-10807.006753,-1991.848295
2727.834214,888.247130,-9030.512492,-1072.533697
2727.834542,592.164754,-8660.409521,-229.828649
2727.834870,444.123565,-9548.656652,1378.971896
2727.835197,518.144159,-11621.233289,689.485948
2727.835525,444.123565,-11251.130318,-536.266849
2727.835853,0.000000,-9548.656652,-1149.143247
2727.836180,0.000000,-8956.491898,-919.314598
2727.836508,-444.123565,-8734.430116,-383.047749
2727.836836,-962.267725,-9474.636058,1685.410096
2727.837163,-814.226536,-11399.171507,153.219100
2727.837491,-370.102971,-11325.150913,-995.924147
2727.837818,-148.041188,-8734.430116,-1685.410096
2727.838146,0.000000,-8068.244768,-536.266849
2727.838474,0.000000,-8808.450710,153.219100
2727.838801,296.082377,-10436.903782,1302.362347
2727.839129,148.041188,-11325.150913,1608.800546
2727.839457,1554.432478,-10140.821405,0.000000
2727.839784,1628.453072,-7698.141797,0.000000
2727.840112,740.205942,-7328.038826,0.000000
2727.840439,0.000000,-9474.636058,1302.362347
2727.840767,0.000000,-11547.212695,766.095498
2727.841095,518.144159,-10658.965565,-919.314598
2727.841422,888.247130,-9178.553681,-1991.848295
2727.841750,888.247130,-8290.306550,-766.095498
2727.842078,518.144159,-9104.533087,612.876398
2727.842405,0.000000,-10214.842000,1302.362347
2727.842733,0.000000,-11177.109724,153.219100
2727.843061,74.020594,-10288.862594,-1149.143247
2727.843388,370.102971,-7698.141797,-1072.533697
2727.843716,370.102971,-7846.182985,229.828649
2727.844043,-296.082377,-8882.471304,612.876398
2727.844371,-444.123565,-10510.924376,766.095498
2727.844699,222.061783,-11843.295072,-1149.143247
2727.845026,370.102971,-10807.006753,-1762.019645
2727.845354,444.123565,-9178.553681,-1991.848295
2727.845682,0.000000,-8808.450710,-842.705048
2727.846009,74.020594,-10140.821405,-306.438199
2727.846337,1332.370696,-12435.459826,0.000000
2727.846664,1628.453072,-11621.233289,76.609550
2727.846992,2072.576638,-9252.574275,-383.047749
2727.847320,1924.535449,-8068.244768,0.000000
2727.847647,666.185348,-8956.491898,383.047749
2727.847975,0.000000,-9992.780217,153.219100
2727.848303,370.102971,-11251.130318,-229.828649
2727.848630,592.164754,-11103.089130,-1378.971896
2727.848958,444.123565,-9770.718434,-1302.362347
2727.849286,74.020594,-8290.306550,-766.095498
2727.849613,-1406.391290,-9030.512492,536.266849
2727.849941,-2146.597232,-10584.944971,1149.143247
2727.850268,-1332.370696,-10140.821405,-536.266849
2727.850596,-666.185348,-9030.512492,-1532.190996
2727.850924,148.041188,-7402.059420,0.000000
2727.851251,74.020594,-7698.141797,536.266849
2727.851579,74.020594,-9474.636058,1302.362347
2727.851907,666.185348,-10881.027347,995.924147
2727.852234,888.247130,-10807.006753,0.000000
2727.852562,666.185348,-8660.409521,-766.095498
2727.852889,592.164754,-8216.285956,-612.876398
2727.853217,222.061783,-8956.491898,0.000000
2727.853545,296.082377,-9992.780217,76.609550
2727.853872,148.041188,-11251.130318,0.000000
2727.854200,444.123565,-10732.986159,0.000000
2727.854528,888.247130,-8808.450710,-612.876398
2727.854855,1036.288319,-7920.203579,-306.438199
2727.855183,222.061783,-9474.636058,612.876398
2727.855511,-666.185348,-10510.924376,459.657299
2727.855838,0.000000,-11399.171507,-766.095498
2727.856166,518.144159,-10584.944971,-1685.410096
2727.856493,592.164754,-9474.636058,-1532.190996
2727.856821,148.041188,-9548.656652,0.000000
2727.857149,0.000000,-10807.006753,689.485948
2727.857476,0.000000,-11325.150913,-306.438199
2727.857804,518.144159,-11325.150913,-1455.581446
2727.858132,592.164754,-9252.574275,-1378.971896
2727.858459,592.164754,-7772.162391,-536.266849
2727.858787,888.247130,-8512.368333,612.876398
2727.859114,962.267725,-9992.780217,1149.143247
2727.859442,666.185348,-10510.924376,536.266849
2727.859770,518.144159,-9400.615463,0.000000
2727.860097,296.082377,-8364.327145,-766.095498
2727.860425,74.020594,-7772.162391,-153.219100
2727.860753,0.000000,-9474.636058,-229.828649
2727.861080,0.000000,-11843.295072,153.219100
2727.861408,740.205942,-11991.336260,-153.219100
2727.861736,1332.370696,-9992.780217,-612.876398
2727.862063,1406.391290,-8290.306550,153.219100
2727.862391,370.102971,-7179.997637,919.314598
2727.862718,-666.185348,-8882.471304,1149.143247
2727.863046,0.000000,-10214.842000,459.657299
2727.863374,592.164754,-10362.883188,-612.876398
2727.863701,962.267725,-8808.450710,-842.705048
2727.864029,666.185348,-7476.080014,-229.828649
2727.864357,222.061783,-8956.491898,995.924147
2727.864684,-296.082377,-10732.986159,1455.581446
2727.865012,444.123565,-11177.109724,-612.876398
2727.865339,0.000000,-10362.883188,-1532.190996
2727.865667,222.061783,-8512.368333,-1685.410096
2727.865995,74.020594,-8068.244768,0.000000
2727.866322,0.000000,-9252.574275,995.924147
2727.866650,222.061783,-10510.924376,459.657299
2727.866978,370.102971,-10436.903782,-766.095498
2727.867305,-666.185348,-8956.491898,-1762.019645
2727.867633,-592.164754,-8660.409521,-1915.238745
2727.867961,0.000000,-9400.615463,-1455.581446
2727.868288,592.164754,-11251.130318,-459.657299
2727.868616,1258.350101,-12287.418637,459.657299
2727.868943,2294.638420,-12139.377449,306.438199
2727.869271,1850.514855,-9474.636058,-536.266849
2727.869599,1258.350101,-8290.306550,-766.095498
2727.869926,-370.102971,-8808.450710,-153.219100
2727.870254,-1554.432478,-9992.780217,153.219100
2727.870582,-1258.350101,-10584.944971,-536.266849
2727.870909,0.000000,-10214.842000,-1225.752797
2727.871237,592.164754,-8734.430116,-919.314598
2727.871564,0.000000,-8586.388927,459.657299
2727.871892,-962.267725,-9770.718434,1378.971896
2727.872220,-592.164754,-10881.027347,229.828649
2727.872548,-962.267725,-10658.965565,-1302.362347
2727.872875,-1036.288319,-8808.450710,-1685.410096
2727.873203,-370.102971,-7550.100608,-383.047749
2727.873530,148.041188,-7550.100608,919.314598
2727.873858,74.020594,-9844.739029,2604.724693
2727.874185,1036.288319,-10881.027347,919.314598
2727.874513,370.102971,-10510.924376,-459.657299
2727.874840,-296.082377,-8586.388927,-1378.971896
2727.875167,0.000000,-8068.244768,-1378.971896
2727.875495,0.000000,-9252.574275,-689.485948
2727.875822,444.123565,-9992.780217,1455.581446
2727.876150,1406.391290,-11325.150913,1149.143247
2727.876477,1702.473667,-9992.780217,766.095498
2727.876805,2220.617826,-8364.327145,229.828649
2727.877132,1332.370696,-8290.306550,229.828649
2727.877460,666.185348,-9844.739029,383.047749
2727.877787,444.123565,-11177.109724,-306.438199
2727.878114,1036.288319,-11251.130318,-995.924147
2727.878442,666.185348,-9474.636058,-536.266849
2727.878769,444.123565,-8142.265362,153.219100
2727.879097,0.000000,-9104.533087,459.657299
2727.879424,-592.164754,-11029.068536,612.876398
2727.879752,-296.082377,-11843.295072,-689.485948
2727.880079,0.000000,-10584.944971,-1762.019645
2727.880407,740.205942,-8364.327145,-1532.190996
2727.880734,888.247130,-7920.203579,0.000000
2727.881061,1332.370696,-8956.491898,1225.752797
2727.881389,1258.350101,-10436.903782,1455.581446
2727.881716,518.144159,-11325.150913,0.000000
2727.882044,74.020594,-10510.924376,-1685.410096
2727.882371,0.000000,-8660.409521,-1838.629195
2727.882699,-666.185348,-8142.265362,-1455.581446
2727.883026,-888.247130,-9474.636058,536.266849
2727.883354,0.000000,-11399.171507,76.609550
2727.883681,666.185348,-10658.965565,-612.876398
2727.884008,888.247130,-9252.574275,-1149.143247
2727.884336,740.205942,-7846.182985,-306.438199
2727.884663,296.082377,-8216.285956,612.876398
2727.884991,-592.164754,-9326.594869,1838.629195
2727.885318,-296.082377,-10140.821405,383.047749
2727.885646,444.123565,-10214.842000,-306.438199
2727.885973,222.061783,-9178.553681,-1149.143247
2727.886300,148.041188,-8734.430116,-536.266849
2727.886628,-222.061783,-9770.718434,306.438199
2727.886955,-296.082377,-11547.212695,689.485948
2727.887283,0.000000,-11325.150913,-383.047749
2727.887610,222.061783,-9770.718434,76.609550
2727.887938,962.267725,-8438.347739,-1302.362347
2727.888265,444.123565,-7624.121203,0.000000
2727.888593,222.061783,-9252.574275,536.266849
2727.888920,-370.102971,-10584.944971,153.219100
2727.889247,-444.123565,-10955.047942,-612.876398
2727.889575,-592.164754,-9548.656652,-1838.629195
2727.889902,-222.061783,-8142.265362,-306.438199
2727.890230,-444.123565,-8956.491898,0.000000
2727.890557,-296.082377,-10732.986159,383.047749
2727.890885,666.185348,-12435.459826,0.000000
2727.891212,1480.411884,-11769.274478,-306.438199
2727.891540,1702.473667,-8956.491898,-536.266849
2727.891867,1406.391290,-7994.224174,-229.828649
2727.892194,148.041188,-8512.368333,766.095498
2727.892522,74.020594,-10288.862594,1378.971896
2727.892849,740.205942,-11103.089130,-229.828649
2727.893177,1332.370696,-9918.759623,-842.705048
2727.893504,1332.370696,-8586.388927,-612.876398
2727.893832,888.247130,-8808.450710,306.438199
2727.894159,222.061783,-10658.965565,1072.533697
2727.894487,0.000000,-11399.171507,-229.828649
2727.894814,74.020594,-10658.965565,-1838.629195
2727.895141,74.020594,-9030.512492,-1532.190996
2727.895469,-814.226536,-7402.059420,76.609550
2727.895796,-1480.411884,-7179.997637,1225.752797
2727.896124,-1776.494261,-9030.512492,536.266849
2727.896451,-222.061783,-10510.924376,-919.314598
2727.896779,74.020594,-10658.965565,-1608.800546
2727.897106,0.000000,-8290.306550,-766.095498
2727.897434,1702.473667,-8660.409521,0.000000
2727.897761,1628.453072,-10288.862594,459.657299
2727.898088,1998.556043,-12287.418637,1072.533697
2727.898416,2368.659014,-11991.336260,459.657299
2727.898743,2294.638420,-9844.739029,-229.828649
2727.899071,2368.659014,-8586.388927,-1149.143247
2727.899398,1406.391290,-8216.285956,-1072.533697
2727.899726,0.000000,-9178.553681,536.266849
2727.900053,-222.061783,-10214.842000,689.485948
2727.900380,0.000000,-10140.821405,-536.266849
2727.900708,222.061783,-9548.656652,-1685.410096
2727.901035,0.000000,-8734.430116,-612.876398
2727.901363,-666.185348,-8808.450710,306.438199
2727.901690,-444.123565,-10510.924376,306.438199
2727.902018,0.000000,-11843.295072,229.828649
2727.902345,666.185348,-10658.965565,-536.266849
2727.902673,592.164754,-9030.512492,-383.047749
2727.903000,0.000000,-8142.265362,0.000000
2727.903327,-296.082377,-9622.677246,459.657299
2727.903655,0.000000,-10732.986159,-766.095498
2727.903982,-444.123565,-10214.842000,-1378.971896
2727.904310,0.000000,-9030.512492,-1608.800546
2727.904637,-222.061783,-7994.224174,-612.876398
2727.904965,-444.123565,-7846.182985,0.000000
2727.905292,0.000000,-9474.636058,459.657299
2727.905620,888.247130,-10881.027347,0.000000
2727.905947,1110.308913,-10807.006753,-919.314598
2727.906274,962.267725,-9030.512492,-229.828649
2727.906602,740.205942,-7846.182985,-306.438199
2727.906929,518.144159,-9030.512492,0.000000
2727.907257,-222.061783,-10732.986159,306.438199
2727.907584,-666.185348,-11621.233289,-459.657299
2727.907912,-444.123565,-10510.924376,-1608.800546
2727.908239,592.164754,-9474.636058,-2374.896044
2727.908567,-222.061783,-8882.471304,-689.485948
2727.908894,-592.164754,-9622.677246,1149.143247
2727.909221,0.000000,-11103.089130,612.876398
2727.909549,444.123565,-10955.047942,-459.657299
2727.909876,518.144159,-9104.533087,-1302.362347
2727.910204,814.226536,-7846.182985,-383.047749
2727.910531,148.041188,-8216.285956,919.314598
2727.910859,74.020594,-9918.759623,2374.896044
2727.911186,740.205942,-11399.171507,536.266849
2727.911514,740.205942,-10955.047942,-919.314598
2727.911841,370.102971,-9474.636058,-1378.971896
2727.912168,148.041188,-8586.388927,-612.876398
2727.912496,148.041188,-9252.574275,0.000000
2727.912823,888.247130,-11029.068536,0.000000
2727.913151,1258.350101,-10807.006753,-76.609550
2727.913478,1184.329507,-9696.697840,0.000000
2727.913806,1110.308913,-8660.409521,306.438199
2727.914133,1332.370696,-7846.182985,995.924147
2727.914460,1480.411884,-9178.553681,1149.143247
2727.914788,888.247130,-11177.109724,1149.143247
2727.915115,888.247130,-10288.862594,766.095498
2727.915443,1258.350101,-9178.553681,-689.485948
2727.915770,740.205942,-8364.327145,-1149.143247
2727.916098,-444.123565,-8956.491898,0.000000
2727.916425,-1406.391290,-10584.944971,612.876398
2727.916753,-592.164754,-11029.068536,0.000000
2727.917080,222.061783,-9992.780217,-1072.533697
2727.917407,1110.308913,-9104.533087,0.000000
2727.917735,0.000000,-7698.141797,153.219100
2727.918062,-814.226536,-7994.224174,766.095498
2727.918390,-814.226536,-9474.636058,0.000000
2727.918717,-740.205942,-10436.903782,-919.314598
2727.919045,-814.226536,-9696.697840,-1225.752797
2727.919372,148.041188,-8364.327145,-1378.971896
2727.919700,74.020594,-8364.327145,-459.657299
2727.920027,592.164754,-11251.130318,229.828649
2727.920354,222.061783,-12509.480420,0.000000
2727.920682,518.144159,-12139.377449,-995.924147
2727.921009,888.247130,-9548.656652,-1762.019645
2727.921337,962.267725,-8364.327145,-1225.752797
2727.921664,666.185348,-8290.306550,306.438199
2727.921992,592.164754,-9918.759623,1225.752797
2727.922319,962.267725,-10955.047942,689.485948
2727.922647,370.102971,-10436.903782,76.609550
2727.922974,0.000000,-9400.615463,-995.924147
2727.923301,-740.205942,-8290.306550,-995.924147
2727.923629,-1406.391290,-9178.553681,-612.876398
2727.923956,-740.205942,-11325.150913,153.219100
2727.924284,888.247130,-11695.253884,-229.828649
2727.924611,1184.329507,-10362.883188,0.000000
2727.924939,1036.288319,-8438.347739,0.000000
2727.925266,148.041188,-7772.162391,689.485948
2727.925594,-666.185348,-8660.409521,1149.143247
2727.925921,-518.144159,-10584.944971,383.047749
2727.926248,-444.123565,-9844.739029,-766.095498
2727.926576,-148.041188,-8216.285956,-842.705048
2727.926903,0.000000,-7624.121203,-306.438199
2727.927231,296.082377,-8364.327145,153.219100
2727.927558,296.082377,-10066.800811,612.876398
2727.927886,518.144159,-11473.192101,306.438199
2727.928213,814.226536,-10658.965565,-459.657299
2727.928541,1776.494261,-9400.615463,-995.924147
2727.928868,1702.473667,-8586.388927,-995.924147
2727.929195,518.144159,-8512.368333,689.485948
2727.929523,592.164754,-9918.759623,1149.143247
2727.929850,1036.288319,-11621.233289,0.000000
2727.930178,1406.391290,-10362.883188,-1455.581446
2727.930505,1110.308913,-8734.430116,-1685.410096
2727.930833,444.123565,-8364.327145,0.000000
2727.931160,148.041188,-10140.821405,689.485948
2727.931487,-222.061783,-11177.109724,459.657299
2727.931815,518.144159,-11177.109724,-1455.581446
2727.932142,444.123565,-9696.697840,-1762.019645
2727.932470,592.164754,-8660.409521,-919.314598
2727.932797,370.102971,-8882.471304,229.828649
2727.933125,444.123565,-10140.821405,459.657299
2727.933452,740.205942,-11177.109724,383.047749
2727.933780,666.185348,-11103.089130,0.000000
2727.934107,444.123565,-9104.533087,-1302.362347
2727.934434,0.000000,-7772.162391,-1149.143247
2727.934762,-444.123565,-8660.409521,-383.047749
2727.935089,-444.123565,-10955.047942,0.000000
2727.935417,148.041188,-11695.253884,76.609550
2727.935744,666.185348,-10288.862594,-689.485948
2727.936072,740.205942,-8364.327145,-459.657299
2727.936399,888.247130,-8142.265362,459.657299
2727.936727,0.000000,-9104.533087,995.924147
2727.937054,0.000000,-10362.883188,766.095498
2727.937381,74.020594,-9918.759623,229.828649
2727.937709,666.185348,-8956.491898,0.000000
2727.938036,444.123565,-8364.327145,-229.828649
2727.938364,-592.164754,-8882.471304,919.314598
2727.938691,-1184.329507,-10658.965565,612.876398
2727.939019,-296.082377,-11843.295072,-536.266849
2727.939346,740.205942,-11177.109724,-1685.410096
2727.939674,888.247130,-9178.553681,-1608.800546
2727.940001,888.247130,-7994.224174,383.047749
2727.940328,0.000000,-8438.347739,1685.410096
2727.940656,-222.061783,-9696.697840,1455.581446
2727.940983,-666.185348,-10732.986159,0.000000
2727.941311,-1110.308913,-9474.636058,-1532.190996
2727.941638,-1110.308913,-7476.080014,-1532.190996
2727.941966,-1406.391290,-7624.121203,-383.047749
2727.942293,-1480.411884,-9696.697840,842.705048
2727.942621,-1702.473667,-11547.212695,-153.219100
2727.942948,-296.082377,-10881.027347,-1225.752797
2727.943275,1258.350101,-9844.739029,-2757.943793
2727.943603,2146.597232,-9622.677246,-1608.800546
2727.943930,2368.659014,-10362.883188,919.314598
2727.944258,1480.411884,-10658.965565,2068.457845
2727.944585,2294.638420,-11843.295072,689.485948
2727.944913,1480.411884,-10732.986159,-459.657299
2727.945240,814.226536,-9104.533087,-2221.676944
2727.945567,-1258.350101,-7105.977043,-1149.143247
2727.945895,-1184.329507,-8142.265362,-306.438199
2727.946222,-1110.308913,-10732.986159,0.000000
2727.946550,-518.144159,-11547.212695,0.000000
2727.946877,148.041188,-9696.697840,-383.047749
2727.947205,148.041188,-8290.306550,-459.657299
2727.947532,370.102971,-8660.409521,0.000000
2727.947860,222.061783,-9178.553681,0.000000
2727.948187,444.123565,-10955.047942,306.438199
2727.948514,1258.350101,-11251.130318,76.609550
2727.948842,1554.432478,-9400.615463,0.000000
2727.949169,666.185348,-7846.182985,153.219100
2727.949497,0.000000,-8216.285956,536.266849
2727.949824,-222.061783,-10288.862594,306.438199
2727.950152,592.164754,-11325.150913,-995.924147
2727.950479,962.267725,-10732.986159,-1455.581446
2727.950807,1776.494261,-8438.347739,-612.876398
2727.951134,2294.638420,-7476.080014,919.314598
2727.951461,1480.411884,-8068.244768,2298.286494
2727.951789,1776.494261,-9696.697840,1608.800546
2727.952116,1702.473667,-10732.986159,229.828649
2727.952444,1628.453072,-9622.677246,-1532.190996
2727.952771,814.226536,-8882.471304,-1378.971896
2727.953099,-296.082377,-9104.533087,0.000000
2727.953426,-1036.288319,-10732.986159,459.657299
2727.953754,-888.247130,-12583.501014,-689.485948
2727.954081,0.000000,-11843.295072,-2145.067394
2727.954408,74.020594,-9474.636058,-1915.238745
2727.954736,0.000000,-8216.285956,-842.705048
2727.955063,-222.061783,-8068.244768,842.705048
2727.955391,-444.123565,-9178.553681,1149.143247
2727.955718,0.000000,-10510.924376,459.657299
2727.956046,148.041188,-9770.718434,-766.095498
2727.956373,296.082377,-7698.141797,-612.876398
2727.956701,-444.123565,-7328.038826,0.000000
2727.957028,-740.205942,-9474.636058,229.828649
2727.957355,0.000000,-11843.295072,0.000000
2727.957683,370.102971,-12287.418637,-612.876398
2727.958010,814.226536,-10362.883188,-1302.362347
2727.958338,814.226536,-8364.327145,-995.924147
2727.958665,222.061783,-8364.327145,689.485948
2727.958993,-296.082377,-8808.450710,1532.190996
2727.959320,-444.123565,-9326.594869,1532.190996
2727.959647,222.061783,-9252.574275,0.000000
2727.959975,-148.041188,-8290.306550,-1302.362347
2727.960302,-370.102971,-8808.450710,-612.876398
2727.960630,-296.082377,-9474.636058,76.609550
2727.960957,-666.185348,-10955.047942,-689.485948
2727.961285,222.061783,-12509.480420,-612.876398
2727.961612,740.205942,-11621.233289,-1302.362347
2727.961940,740.205942,-9474.636058,-1455.581446
2727.962267,148.041188,-8512.368333,0.000000
2727.962594,-444.123565,-9030.512492,612.876398
2727.962922,-666.185348,-10362.883188,229.828649
2727.963249,-518.144159,-10288.862594,-383.047749
2727.963577,0.000000,-9030.512492,-766.095498
2727.963904,148.041188,-7772.162391,-612.876398
2727.964232,0.000000,-8290.306550,0.000000
2727.964559,0.000000,-10288.862594,0.000000
2727.964887,518.144159,-11843.295072,-229.828649
2727.965214,1406.391290,-10955.047942,-842.705048
2727.965541,1776.494261,-9548.656652,-1838.629195
2727.965869,1406.391290,-8882.471304,-612.876398
2727.966196,1258.350101,-9030.512492,842.705048
2727.966524,1258.350101,-10362.883188,1225.752797
2727.966851,1258.350101,-11399.171507,689.485948
2727.967179,1258.350101,-9992.780217,-766.095498
2727.967506,1036.288319,-8364.327145,-919.314598
2727.967834,296.082377,-7328.038826,0.000000
2727.968161,0.000000,-8956.491898,689.485948
2727.968488,148.041188,-10881.027347,612.876398
2727.968816,518.144159,-10732.986159,-536.266849
2727.969143,962.267725,-9474.636058,-1302.362347
2727.969471,666.185348,-8068.244768,-536.266849
2727.969798,0.000000,-8216.285956,766.095498
2727.970126,0.000000,-9474.636058,919.314598
2727.970453,1110.308913,-11843.295072,-383.047749
2727.970781,1184.329507,-11177.109724,-306.438199
2727.971108,1406.391290,-9326.594869,-995.924147
2727.971435,518.144159,-8438.347739,0.000000
2727.971763,-666.185348,-9178.553681,612.876398
2727.972090,-740.205942,-10658.965565,229.828649
2727.972418,-444.123565,-11399.171507,-612.876398
2727.972745,666.185348,-10584.944971,-1608.800546
2727.973073,1184.329507,-8364.327145,-459.657299
2727.973400,1480.411884,-8512.368333,689.485948
2727.973727,1110.308913,-9696.697840,1915.238745
2727.974055,444.123565,-11251.130318,1225.752797
2727.974383,0.000000,-10288.862594,-383.047749
2727.974710,-444.123565,-8660.409521,-1991.848295
2727.975038,0.000000,-8808.450710,-1302.362347
2727.975365,-962.267725,-9326.594869,229.828649
2727.975693,-962.267725,-10807.006753,1149.143247
2727.976020,-296.082377,-11325.150913,229.828649
2727.976348,74.020594,-11177.109724,-1149.143247
2727.976675,-592.164754,-8290.306550,-1762.019645
2727.977003,-370.102971,-7550.100608,-919.314598
2727.977330,-740.205942,-7846.182985,0.000000
2727.977658,0.000000,-10066.800811,612.876398
2727.977985,444.123565,-11325.150913,612.876398
2727.978313,222.061783,-9696.697840,689.485948
2727.978640,148.041188,-8068.244768,0.000000
2727.978968,-370.102971,-7846.182985,-229.828649
2727.979295,-666.185348,-10140.821405,-766.095498
2727.979623,0.000000,-11695.253884,-153.219100
2727.979951,518.144159,-10955.047942,-919.314598
2727.980278,1924.535449,-9474.636058,-842.705048
2727.980606,1702.473667,-8438.347739,0.000000
2727.980933,1036.288319,-8734.430116,1149.143247
2727.981261,444.123565,-9474.636058,1149.143247
2727.981588,1110.308913,-10214.842000,0.000000
2727.981916,814.226536,-10436.903782,-1378.971896
2727.982243,740.205942,-9030.512492,-1532.190996
2727.982571,296.082377,-8142.265362,0.000000
2727.982898,-444.123565,-9696.697840,1149.143247
2727.983226,0.000000,-12213.398043,0.000000
2727.983553,222.061783,-12065.356855,-1302.362347
2727.983881,666.185348,-9474.636058,-1838.629195
2727.984208,666.185348,-7994.224174,-1685.410096
2727.984536,518.144159,-8660.409521,689.485948
2727.984863,444.123565,-9548.656652,1302.362347
2727.985191,444.123565,-10807.006753,612.876398
2727.985519,962.267725,-11251.130318,-306.438199
2727.985846,1110.308913,-9326.594869,-1302.362347
2727.986174,814.226536,-7698.141797,-1225.752797
2727.986501,518.144159,-8660.409521,0.000000
2727.986829,962.267725,-10214.842000,1072.533697
2727.987156,740.205942,-12287.418637,612.876398
2727.987484,814.226536,-11473.192101,-229.828649
2727.987811,518.144159,-8586.388927,-919.314598
2727.988139,0.000000,-7105.977043,-766.095498
2727.988466,-814.226536,-8586.388927,1072.533697
2727.988794,0.000000,-10066.800811,229.828649
2727.989121,592.164754,-10288.862594,229.828649
2727.989449,1184.329507,-9548.656652,0.000000
2727.989776,1184.329507,-8734.430116,0.000000
2727.990104,370.102971,-8290.306550,536.266849
2727.990431,0.000000,-10066.800811,766.095498
2727.990759,-370.102971,-11177.109724,536.266849
2727.991087,370.102971,-10436.903782,-689.485948
2727.991414,222.061783,-8882.471304,-1149.143247
2727.991742,0.000000,-8068.244768,0.000000
2727.992069,0.000000,-8290.306550,995.924147
2727.992397,0.000000,-9770.718434,766.095498
2727.992724,74.020594,-11399.171507,153.219100
2727.993052,296.082377,-10362.883188,-459.657299
2727.993379,-370.102971,-7624.121203,-919.314598
2727.993707,-1110.308913,-7328.038826,-383.047749
2727.994034,-1332.370696,-9326.594869,153.219100
2727.994362,-814.226536,-11843.295072,306.438199
2727.994689,-148.041188,-12139.377449,-689.485948
2727.995017,592.164754,-11103.089130,-1608.800546
2727.995344,1258.350101,-9178.553681,-1532.190996
2727.995672,1036.288319,-9474.636058,0.000000
2727.995999,296.082377,-10214.842000,536.266849
2727.996327,0.000000,-10510.924376,153.219100
2727.996655,444.123565,-10436.903782,-689.485948
2727.996982,814.226536,-8734.430116,-1225.752797
2727.997310,1184.329507,-8438.347739,-306.438199
2727.997637,518.144159,-8882.471304,2068.457845
2727.997965,592.164754,-10584.944971,1915.238745
2727.998292,444.123565,-11473.192101,153.219100
2727.998620,444.123565,-10658.965565,-2221.676944
2727.998947,74.020594,-8438.347739,-1915.238745
2727.999275,296.082377,-8290.306550,-536.266849
2727.999602,296.082377,-9474.636058,995.924147
2727.999930,814.226536,-10807.006753,1072.533697
2728.000257,740.205942,-11547.212695,689.485948
2728.000585,592.164754,-9548.656652,-459.657299
2728.000912,0.000000,-7698.141797,-766.095498
2728.001240,-666.185348,-7328.038826,-612.876398
2728.001567,-518.144159,-9252.574275,153.219100
2728.001895,0.000000,-11103.089130,306.438199
2728.002223,1036.288319,-10658.965565,-229.828649
2728.002550,2220.617826,-8734.430116,-459.657299
2728.002878,1998.556043,-8142.265362,0.000000
2728.003205,1184.329507,-8956.491898,1225.752797
2728.003533,888.247130,-10066.800811,1225.752797
2728.003860,962.267725,-11177.109724,229.828649
2728.004188,1406.391290,-10584.944971,-1149.143247
2728.004515,888.247130,-8660.409521,-689.485948
2728.004843,0.000000,-8142.265362,229.828649
2728.005170,-296.082377,-9770.718434,459.657299
2728.005498,-888.247130,-11399.171507,-383.047749
2728.005825,-370.102971,-11547.212695,-1685.410096
2728.006153,-888.247130,-9918.759623,-2221.676944
2728.006480,-740.205942,-8438.347739,-1455.581446
2728.006808,74.020594,-8216.285956,76.609550
2728.007135,370.102971,-10288.862594,995.924147
2728.007463,814.226536,-12213.398043,766.095498
2728.007791,592.164754,-11621.233289,76.609550
2728.008118,518.144159,-9178.553681,-766.095498
2728.008446,-296.082377,-7624.121203,-689.485948
2728.008773,-1332.370696,-9030.512492,0.000000
2728.009101,-1110.308913,-10436.903782,153.219100
2728.009428,-592.164754,-11621.233289,0.000000
2728.009756,740.205942,-11251.130318,-612.876398
2728.010083,1258.350101,-9252.574275,-1302.362347
2728.010411,888.247130,-7920.203579,0.000000
2728.010738,-370.102971,-8586.388927,1149.143247
2728.011066,-518.144159,-10436.903782,1455.581446
2728.011393,222.061783,-10066.800811,153.219100
2728.011721,666.185348,-8364.327145,-1225.752797
2728.012048,148.041188,-7402.059420,-459.657299
2728.012376,444.123565,-8956.491898,842.705048
2728.012703,74.020594,-10584.944971,1225.752797
2728.013031,-296.082377,-11325.150913,306.438199
2728.013358,-370.102971,-10140.821405,-1072.533697
2728.013686,0.000000,-8216.285956,-2068.457845
2728.014014,222.061783,-6883.915261,-612.876398
2728.014341,962.267725,-9030.512492,689.485948
2728.014669,1036.288319,-10288.862594,1455.581446
2728.014996,888.247130,-11103.089130,1072.533697
2728.015324,740.205942,-10140.821405,76.609550
2728.015651,370.102971,-8290.306550,-1302.362347
2728.015979,-518.144159,-7328.038826,-1072.533697
2728.016306,-962.267725,-8956.491898,-536.266849
2728.016634,-296.082377,-11991.336260,-612.876398
2728.016961,1110.308913,-12731.542202,-919.314598
2728.017289,1998.556043,-10807.006753,-1149.143247
2728.017616,1998.556043,-8956.491898,-842.705048
2728.017944,1628.453072,-9696.697840,153.219100
2728.018271,1184.329507,-10140.821405,612.876398
2728.018599,1702.473667,-11399.171507,1685.410096
2728.018926,1998.556043,-10732.986159,76.609550
2728.019254,1480.411884,-8438.347739,-306.438199
2728.019582,888.247130,-7624.121203,383.047749
2728.019909,74.020594,-8586.388927,995.924147
2728.020237,0.000000,-10881.027347,459.657299
2728.020564,-1258.350101,-11177.109724,-153.219100
2728.020892,-1554.432478,-9770.718434,-1991.848295
2728.021219,-1628.453072,-8142.265362,-2145.067394
2728.021547,-1258.350101,-7624.121203,-1378.971896
2728.021874,-1184.329507,-9178.553681,536.266849
2728.022202,0.000000,-11399.171507,1149.143247
2728.022529,518.144159,-11769.274478,229.828649
2728.022857,1480.411884,-9622.677246,-1225.752797
2728.023184,1480.411884,-7846.182985,-766.095498
2728.023512,370.102971,-7846.182985,536.266849
2728.023839,-518.144159,-9992.780217,1532.190996
2728.024167,296.082377,-11177.109724,229.828649
2728.024494,1036.288319,-10881.027347,-1378.971896
2728.024822,1480.411884,-9474.636058,-1608.800546
2728.025150,1480.411884,-7772.162391,0.000000
2728.025477,1406.391290,-9252.574275,0.000000
2728.025805,592.164754,-10214.842000,1378.971896
2728.026132,148.041188,-11325.150913,76.609550
2728.026460,518.144159,-9992.780217,-1302.362347
2728.026787,666.185348,-8068.244768,-1762.019645
2728.027115,0.000000,-8512.368333,0.000000
2728.027442,-518.144159,-9992.780217,1225.752797
2728.027770,-370.102971,-11251.130318,842.705048
2728.028097,-962.267725,-11177.109724,-766.095498
2728.028425,-666.185348,-9992.780217,-2298.286494
2728.028752,-222.061783,-8068.244768,-1838.629195
2728.029080,-296.082377,-8216.285956,-383.047749
2728.029407,0.000000,-10362.883188,1225.752797
2728.029735,222.061783,-11177.109724,1608.800546
2728.030062,592.164754,-9992.780217,919.314598
2728.030390,0.000000,-7624.121203,76.609550
2728.030718,74.020594,-7476.080014,0.000000
2728.031045,-740.205942,-9178.553681,536.266849
2728.031373,-962.267725,-10955.047942,383.047749
2728.031700,-370.102971,-11473.192101,-536.266849
2728.032028,296.082377,-10214.842000,-1378.971896
2728.032355,1332.370696,-8660.409521,0.000000
2728.032683,1110.308913,-8808.450710,76.609550
2728.033010,888.247130,-9992.780217,1762.019645
2728.033338,444.123565,-11029.068536,919.314598
2728.033665,814.226536,-10807.006753,-536.266849
2728.033993,1110.308913,-9326.594869,-1225.752797
2728.034320,888.247130,-7328.038826,76.609550
2728.034648,222.061783,-7994.224174,766.095498
2728.034975,-1036.288319,-10436.903782,1685.410096
2728.035303,-1480.411884,-11177.109724,0.000000
2728.035630,-1480.411884,-10214.842000,-2528.115143
2728.035958,-814.226536,-8660.409521,-3524.039291
2728.036286,-814.226536,-8586.388927,-1685.410096
2728.036613,0.000000,-9770.718434,153.219100
2728.036941,1036.288319,-10881.027347,612.876398
2728.037268,1998.556043,-12139.377449,-459.657299
2728.037596,1480.411884,-10214.842000,-459.657299
2728.037923,1776.494261,-8364.327145,-995.924147
2728.038251,518.144159,-7402.059420,0.000000
2728.038578,-370.102971,-8808.450710,229.828649
2728.038906,-296.082377,-10658.965565,306.438199
2728.039233,666.185348,-11325.150913,-689.485948
2728.039561,1850.514855,-9400.615463,-1149.143247
2728.039888,1850.514855,-8216.285956,-459.657299
2728.040216,1110.308913,-9252.574275,536.266849
2728.040543,444.123565,-10881.027347,766.095498
2728.040871,888.247130,-11251.130318,-153.219100
2728.041198,1110.308913,-9992.780217,-995.924147
2728.041526,1554.432478,-8512.368333,-612.876398
2728.041854,1258.350101,-7402.059420,689.485948
2728.042181,74.020594,-8808.450710,1225.752797
2728.042509,-370.102971,-11399.171507,459.657299
2728.042836,-296.082377,-11621.233289,-995.924147
2728.043164,0.000000,-9770.718434,-2374.896044
2728.043491,222.061783,-7846.182985,-1838.629195
2728.043819,-148.041188,-8068.244768,229.828649
2728.044146,666.185348,-9104.533087,995.924147
2728.044474,814.226536,-10732.986159,1149.143247
2728.044801,1036.288319,-11029.068536,76.609550
2728.045129,888.247130,-8882.471304,-383.047749
2728.045456,222.061783,-7772.162391,0.000000
2728.045784,-592.164754,-8068.244768,76.609550
2728.046111,-962.267725,-10214.842000,459.657299
2728.046439,-518.144159,-11843.295072,0.000000
2728.046766,370.102971,-11547.212695,-1915.238745
2728.047094,888.247130,-9918.759623,-2145.067394
2728.047422,518.144159,-8956.491898,-612.876398
2728.047749,0.000000,-9400.615463,919.314598
2728.048077,-148.041188,-10658.965565,1225.752797
2728.048404,0.000000,-10362.883188,459.657299
2728.048732,444.123565,-9252.574275,-1072.533697
2728.049059,592.164754,-7846.182985,-919.314598
2728.049387,-222.061783,-8142.265362,612.876398
2728.049714,-222.061783,-10066.800811,1685.410096
2728.050042,-370.102971,-11325.150913,995.924147
2728.050369,-444.123565,-10436.903782,-842.705048
2728.050697,444.123565,-9696.697840,-2298.286494
2728.051024,962.267725,-8808.450710,-2068.457845
2728.051352,0.000000,-8808.450710,383.047749
2728.051679,296.082377,-9696.697840,1225.752797
2728.052007,1110.308913,-11103.089130,919.314598
2728.052334,888.247130,-9770.718434,0.000000
2728.052662,-296.082377,-7920.203579,-383.047749
2728.052989,-1480.411884,-7920.203579,-153.219100
2728.053317,-1110.308913,-8808.450710,-383.047749
2728.053645,444.123565,-11251.130318,-612.876398
2728.053972,814.226536,-11843.295072,-536.266849
2728.054300,1480.411884,-10658.965565,-536.266849
2728.054627,1776.494261,-8956.491898,-383.047749
2728.054955,1332.370696,-8142.265362,-383.047749
2728.055282,444.123565,-9400.615463,229.828649
2728.055610,74.020594,-11325.150913,766.095498
2728.055937,592.164754,-10510.924376,-612.876398
2728.056265,1036.288319,-9178.553681,-995.924147
2728.056592,518.144159,-8438.347739,0.000000
2728.056920,0.000000,-9030.512492,842.705048
2728.057247,-296.082377,-10584.944971,842.705048
2728.057575,0.000000,-11473.192101,-995.924147
2728.057902,-296.082377,-10214.842000,-2834.553343
2728.058230,0.000000,-8882.471304,-3140.991542
2728.058557,-148.041188,-7920.203579,-995.924147
2728.058885,296.082377,-8734.430116,919.314598
2728.059213,814.226536,-11177.109724,1455.581446
2728.059540,1628.453072,-11473.192101,0.000000
2728.059868,2220.617826,-9844.739029,-1225.752797
2728.060195,888.247130,-8142.265362,-1149.143247
2728.060523,296.082377,-8290.306550,0.000000
2728.060850,0.000000,-9844.739029,612.876398
2728.061178,148.041188,-11399.171507,612.876398
2728.061505,666.185348,-10881.027347,-459.657299
2728.061833,888.247130,-8882.471304,-1302.362347
2728.062160,814.226536,-8068.244768,-612.876398
2728.062488,518.144159,-9178.553681,995.924147
2728.062815,222.061783,-10214.842000,1149.143247
2728.063143,444.123565,-11399.171507,76.609550
2728.063470,962.267725,-10658.965565,-1149.143247
2728.063798,740.205942,-8512.368333,-1225.752797
2728.064125,-148.041188,-7254.018232,459.657299
2728.064453,0.000000,-9326.594869,2528.115143
2728.064781,370.102971,-11621.233289,1838.629195
2728.065108,74.020594,-11473.192101,-153.219100
2728.065436,592.164754,-9548.656652,-2068.457845
2728.065763,0.000000,-8438.347739,-766.095498
2728.066091,-296.082377,-8216.285956,919.314598
2728.066418,-148.041188,-8882.471304,1991.848295
2728.066746,222.061783,-10362.883188,1225.752797
2728.067073,-518.144159,-9992.780217,76.609550
2728.067401,-962.267725,-8438.347739,-1225.752797
2728.067728,-1776.494261,-7550.100608,-689.485948
2728.068056,-1554.432478,-8808.450710,0.000000
2728.068383,-888.247130,-10584.944971,-306.438199
2728.068711,-296.082377,-11991.336260,0.000000
2728.069038,888.247130,-11695.253884,-1838.629195
2728.069366,1628.453072,-9326.594869,-1225.752797
2728.069693,1110.308913,-8438.347739,-766.095498
2728.070021,592.164754,-9548.656652,919.314598
2728.070349,888.247130,-11103.089130,1149.143247
2728.070676,1480.411884,-11547.212695,76.609550
2728.071004,2072.576638,-9844.739029,-995.924147
2728.071331,1036.288319,-8142.265362,0.000000
2728.071659,0.000000,-7624.121203,1072.533697
2728.071986,0.000000,-9992.780217,919.314598
2728.072314,74.020594,-11843.295072,-229.828649
2728.072641,-222.061783,-10584.944971,-1762.019645
2728.072969,-370.102971,-9030.512492,-2221.676944
2728.073296,592.164754,-8956.491898,-1302.362347
2728.073624,888.247130,-8956.491898,-383.047749
2728.073951,888.247130,-10658.965565,689.485948
2728.074278,222.061783,-11325.150913,689.485948
2728.074606,666.185348,-10140.821405,-383.047749
2728.074933,666.185348,-7846.182985,-995.924147
2728.075261,-222.061783,-7328.038826,229.828649
2728.075588,-740.205942,-8808.450710,995.924147
2728.075916,296.082377,-10807.006753,919.314598
2728.076243,1184.329507,-11251.130318,0.000000
2728.076571,592.164754,-8956.491898,-766.095498
2728.076898,888.247130,-8068.244768,-919.314598
2728.077226,296.082377,-8438.347739,536.266849
2728.077553,296.082377,-9622.677246,766.095498
2728.077881,962.267725,-11621.233289,76.609550
2728.078208,1184.329507,-11325.150913,-459.657299
2728.078536,666.185348,-9104.533087,-612.876398
2728.078863,814.226536,-8216.285956,0.000000
2728.079191,0.000000,-9104.533087,842.705048
2728.079518,-740.205942,-10881.027347,766.095498
2728.079846,-1036.288319,-11843.295072,-995.924147
2728.080173,-222.061783,-10214.842000,-2221.676944
2728.080501,-148.041188,-8142.265362,-1225.752797
2728.080828,-444.123565,-7624.121203,1072.533697
2728.081155,-1036.288319,-8956.491898,1838.629195
2728.081483,-222.061783,-11473.192101,306.438199
2728.081810,444.123565,-11399.171507,-1302.362347
2728.082138,296.082377,-10066.800811,-2221.676944
2728.082465,0.000000,-9104.533087,-612.876398
2728.082793,148.041188,-8512.368333,229.828649
2728.083120,148.041188,-10658.965565,1225.752797
2728.083448,592.164754,-12805.562797,0.000000
2728.083775,814.226536,-11177.109724,-1838.629195
2728.084103,962.267725,-8364.327145,-2145.067394
2728.084430,740.205942,-7402.059420,-1149.143247
2728.084758,296.082377,-8586.388927,612.876398
2728.085085,444.123565,-9844.739029,2145.067394
2728.085413,1258.350101,-10584.944971,2221.676944
2728.085740,1998.556043,-9474.636058,383.047749
2728.086068,1036.288319,-7994.224174,-306.438199
2728.086395,-592.164754,-7772.162391,842.705048
2728.086723,-962.267725,-9400.615463,1149.143247
2728.087050,-962.267725,-10955.047942,0.000000
2728.087377,-888.247130,-10732.986159,-1072.533697
2728.087705,-666.185348,-9474.636058,-1838.629195
2728.088032,-296.082377,-8364.327145,-1149.143247
2728.088360,-666.185348,-8660.409521,383.047749
2728.088687,0.000000,-9770.718434,0.000000
2728.089015,0.000000,-11399.171507,-306.438199
2728.089342,0.000000,-10807.006753,-766.095498
2728.089670,0.000000,-7994.224174,-1685.410096
2728.089997,0.000000,-6735.874072,-459.657299
2728.090325,444.123565,-8734.430116,306.438199
2728.090652,296.082377,-11473.192101,842.705048
2728.090980,1184.329507,-11547.212695,306.438199
2728.091307,1628.453072,-10140.821405,-1608.800546
2728.091635,1554.432478,-9252.574275,-1762.019645
2728.091962,1184.329507,-9918.759623,-842.705048
2728.092290,222.061783,-10362.883188,76.609550
2728.092617,888.247130,-11325.150913,612.876398
2728.092945,1628.453072,-11843.295072,-536.266849
2728.093272,2072.576638,-10436.903782,-1302.362347
2728.093600,740.205942,-8512.368333,-306.438199
2728.093927,-370.102971,-7994.224174,842.705048
2728.094254,-444.123565,-9474.636058,229.828649
2728.094582,74.020594,-10955.047942,-766.095498
2728.094909,592.164754,-10140.821405,-1532.190996
2728.095237,222.061783,-7846.182985,-1149.143247
2728.095564,444.123565,-7846.182985,612.876398
2728.095892,740.205942,-8956.491898,1302.362347
2728.096219,962.267725,-10881.027347,919.314598
2728.096547,1110.308913,-11325.150913,689.485948
2728.096874,1406.391290,-9622.677246,-459.657299
2728.097202,1110.308913,-7698.141797,-766.095498
2728.097529,444.123565,-7328.038826,689.485948
2728.097857,-222.061783,-9030.512492,1302.362347
2728.098184,0.000000,-10288.862594,995.924147
2728.098512,-222.061783,-9844.739029,-459.657299
2728.098839,0.000000,-8512.368333,-2451.505594
2728.099167,0.000000,-8512.368333,-2681.334243
2728.099494,-370.102971,-8956.491898,76.609550
2728.099822,0.000000,-10732.986159,536.266849
2728.100149,444.123565,-11843.295072,459.657299
2728.100476,1110.308913,-11251.130318,-536.266849
2728.100804,1110.308913,-9252.574275,-919.314598
2728.101131,740.205942,-8438.347739,229.828649
2728.101459,-814.226536,-9252.574275,1225.752797
2728.101786,-1702.473667,-10881.027347,1302.362347
2728.102114,-1924.535449,-11251.130318,-229.828649
2728.102441,-1110.308913,-9622.677246,-2221.676944
2728.102769,-666.185348,-8882.471304,-2145.067394
2728.103096,-962.267725,-8882.471304,0.000000
2728.103424,0.000000,-9844.739029,689.485948
2728.103751,592.164754,-11251.130318,0.000000
2728.104079,148.041188,-11399.171507,-1072.533697
2728.104406,-592.164754,-8882.471304,-1072.533697
2728.104734,-222.061783,-7550.100608,0.000000
2728.105061,-444.123565,-8734.430116,919.314598
2728.105389,370.102971,-11029.068536,919.314598
2728.105716,444.123565,-11769.274478,536.266849
2728.106044,1036.288319,-10807.006753,-1149.143247
2728.106371,1036.288319,-8290.306550,-1455.581446
2728.106699,666.185348,-8216.285956,-995.924147
2728.107026,-222.061783,-8808.450710,919.314598
2728.107353,222.061783,-10214.842000,1072.533697
2728.107681,1702.473667,-11103.089130,383.047749
2728.108008,1702.473667,-9178.553681,-383.047749
2728.108336,1110.308913,-7698.141797,766.095498
2728.108663,-444.123565,-7476.080014,1455.581446
2728.108991,-518.144159,-9548.656652,919.314598
2728.109318,0.000000,-11399.171507,-689.485948
2728.109646,0.000000,-10732.986159,-1915.238745
2728.109973,74.020594,-8956.491898,-1838.629195
2728.110301,666.185348,-8290.306550,-306.438199
2728.110628,1258.350101,-9696.697840,689.485948
2728.110956,1110.308913,-10881.027347,383.047749
2728.111283,1036.288319,-11843.295072,536.266849
2728.111611,1480.411884,-10140.821405,-1149.143247
2728.111938,1110.308913,-7994.224174,-1225.752797
2728.112266,370.102971,-7476.080014,76.609550
2728.112593,1036.288319,-8882.471304,766.095498
2728.112921,814.226536,-10436.903782,1302.362347
2728.113248,74.020594,-11177.109724,0.000000
2728.113575,148.041188,-10140.821405,-1838.629195
2728.113903,370.102971,-8290.306550,-1762.019645
2728.114230,148.041188,-8586.388927,-919.314598
2728.114558,0.000000,-11177.109724,229.828649
2728.114885,1036.288319,-12879.583391,459.657299
2728.115213,2146.597232,-12287.418637,-536.266849
2728.115540,2072.576638,-9030.512492,-919.314598
2728.115868,888.247130,-7846.182985,-306.438199
2728.116195,-518.144159,-8512.368333,1302.362347
2728.116523,-888.247130,-10658.965565,1532.190996
2728.116850,-888.247130,-11177.109724,-306.438199
2728.117178,-1184.329507,-9474.636058,-1685.410096
2728.117505,-666.185348,-7920.203579,-1838.629195
2728.117833,-1554.432478,-7476.080014,153.219100
2728.118160,-518.144159,-8956.491898,842.705048
2728.118488,814.226536,-11399.171507,153.219100
2728.118815,1036.288319,-11991.336260,0.000000
2728.119143,1184.329507,-9992.780217,-306.438199
2728.119470,1184.329507,-8216.285956,229.828649
2728.119798,444.123565,-7846.182985,2068.457845
2728.120125,-518.144159,-9252.574275,1685.410096
2728.120452,-814.226536,-11029.068536,689.485948
2728.120780,-222.061783,-10510.924376,-1455.581446
2728.121107,370.102971,-8882.471304,-2528.115143
2728.121435,222.061783,-8512.368333,-1072.533697
2728.121762,-592.164754,-9400.615463,1455.581446
2728.122090,-148.041188,-10214.842000,1455.581446
2728.122417,222.061783,-10881.027347,0.000000
2728.122745,1258.350101,-10362.883188,-1455.581446
2728.123072,888.247130,-7920.203579,-1072.533697
2728.123400,518.144159,-8068.244768,459.657299
2728.123727,0.000000,-9696.697840,1455.581446
2728.124055,592.164754,-12065.356855,229.828649
2728.124382,-296.082377,-11029.068536,-689.485948
2728.124710,-518.144159,-9030.512492,-1608.800546
2728.125037,0.000000,-8364.327145,-2068.457845
2728.125365,148.041188,-9252.574275,-306.438199
2728.125692,222.061783,-10140.821405,536.266849
2728.126020,1036.288319,-11251.130318,76.609550
2728.126347,666.185348,-10288.862594,-306.438199
2728.126674,222.061783,-8512.368333,-842.705048
2728.127002,-666.185348,-6661.853478,0.000000
2728.127329,-666.185348,-8216.285956,919.314598
2728.127657,-592.164754,-10881.027347,689.485948
2728.127984,-222.061783,-11177.109724,-689.485948
2728.128312,518.144159,-10288.862594,-1915.238745
2728.128639,592.164754,-8438.347739,-1991.848295
2728.128967,518.144159,-9622.677246,-766.095498
2728.129294,1184.329507,-11325.150913,306.438199
2728.129622,2072.576638,-11843.295072,229.828649
2728.129949,2368.659014,-11621.233289,-612.876398
2728.130277,2442.679609,-9104.533087,-612.876398
2728.130604,1702.473667,-7476.080014,536.266849
2728.130932,740.205942,-7550.100608,2221.676944
2728.131259,74.020594,-9326.594869,1838.629195
2728.131587,-222.061783,-10436.903782,-306.438199
2728.131914,296.082377,-10214.842000,-1685.410096
2728.132242,-222.061783,-8512.368333,-1455.581446
2728.132569,-444.123565,-8068.244768,76.609550
2728.132897,0.000000,-9030.512492,536.266849
2728.133224,148.041188,-10807.006753,229.828649
2728.133551,0.000000,-12213.398043,-995.924147
2728.133879,74.020594,-10362.883188,-842.705048
2728.134206,1036.288319,-8142.265362,-536.266849
2728.134534,444.123565,-8068.244768,995.924147
2728.134861,-148.041188,-9696.697840,1762.019645
2728.135189,296.082377,-10955.047942,842.705048
2728.135516,518.144159,-10955.047942,-612.876398
2728.135844,592.164754,-9548.656652,-1991.848295
2728.136171,222.061783,-7698.141797,-1685.410096
2728.136499,-592.164754,-7920.203579,76.609550
2728.136826,0.000000,-10288.862594,1149.143247
2728.137154,1036.288319,-11843.295072,612.876398
2728.137481,1332.370696,-11325.150913,0.000000
2728.137809,1184.329507,-9030.512492,-306.438199
2728.138136,1184.329507,-8364.327145,612.876398
2728.138464,-148.041188,-8882.471304,383.047749
2728.138791,-962.267725,-10881.027347,689.485948
2728.139119,-962.267725,-11547.212695,-689.485948
2728.139446,-592.164754,-10288.862594,-1762.019645
2728.139773,-666.185348,-8438.347739,-1838.629195
2728.140101,-814.226536,-8808.450710,0.000000
2728.140428,-962.267725,-9326.594869,612.876398
2728.140756,0.000000,-10140.821405,612.876398
2728.141083,592.164754,-10881.027347,-1378.971896
2728.141411,74.020594,-9252.574275,-766.095498
2728.141738,74.020594,-7402.059420,229.828649
2728.142066,-148.041188,-7994.224174,1149.143247
2728.142393,444.123565,-10436.903782,919.314598
2728.142721,1036.288319,-12213.398043,306.438199
2728.143048,1184.329507,-10436.903782,-153.219100
2728.143376,1406.391290,-8956.491898,-1838.629195
2728.143703,814.226536,-8882.471304,-919.314598
2728.144031,0.000000,-9548.656652,306.438199
2728.144358,74.020594,-10658.965565,612.876398
2728.144686,444.123565,-10658.965565,0.000000
2728.145013,222.061783,-9178.553681,-229.828649
2728.145341,0.000000,-8364.327145,-1149.143247
2728.145668,0.000000,-8364.327145,-459.657299
2728.145996,296.082377,-10214.842000,383.047749
2728.146323,814.226536,-11843.295072,459.657299
2728.146650,370.102971,-10955.047942,-383.047749
2728.146978,0.000000,-9548.656652,-1532.190996
2728.147305,0.000000,-8290.306550,-689.485948
2728.147633,0.000000,-8734.430116,306.438199
2728.147960,74.020594,-10140.821405,536.266849
2728.148288,444.123565,-12065.356855,-153.219100
2728.148615,592.164754,-10807.006753,-842.705048
2728.148943,518.144159,-8882.471304,-766.095498
2728.149270,-296.082377,-7698.141797,306.438199
2728.149598,-370.102971,-8808.450710,1149.143247
2728.149925,444.123565,-11103.089130,76.609550
2728.150253,740.205942,-10436.903782,-383.047749
2728.150580,518.144159,-9474.636058,-1149.143247
2728.150908,888.247130,-8364.327145,-1302.362347
2728.151235,814.226536,-8586.388927,-229.828649
2728.151563,814.226536,-10584.944971,536.266849
2728.151890,1554.432478,-11991.336260,0.000000
2728.152218,2072.576638,-11917.315666,-536.266849
2728.152545,2368.659014,-9548.656652,-1378.971896
2728.152872,1850.514855,-7698.141797,-689.485948
2728.153200,666.185348,-8438.347739,1455.581446
2728.153527,222.061783,-10214.842000,1838.629195
2728.153855,-222.061783,-10955.047942,383.047749
2728.154182,-148.041188,-10214.842000,-1149.143247
2728.154510,-370.102971,-8068.244768,-1991.848295
2728.154837,-370.102971,-7105.977043,-229.828649
2728.155165,-888.247130,-7920.203579,1072.533697
2728.155492,0.000000,-10807.006753,306.438199
2728.155820,740.205942,-12213.398043,-689.485948
2728.156147,666.185348,-11029.068536,-1149.143247
2728.156475,888.247130,-8660.409521,-383.047749
2728.156802,296.082377,-8512.368333,919.314598
2728.157130,-370.102971,-10955.047942,1302.362347
2728.157457,0.000000,-11621.233289,459.657299
2728.157785,-296.082377,-9622.677246,-1225.752797
2728.158112,1332.370696,-9474.636058,-1838.629195
2728.158440,1110.308913,-8882.471304,-612.876398
2728.158767,740.205942,-9622.677246,1455.581446
2728.159094,0.000000,-8290.306550,2528.115143
2728.159422,0.000000,-10066.800811,459.657299
2728.159749,0.000000,-10807.006753,-1072.533697
2728.160077,0.000000,-8364.327145,-1378.971896
2728.160404,-370.102971,-7550.100608,0.000000
2728.160732,222.061783,-9622.677246,919.314598
2728.161059,518.144159,-12435.459826,1072.533697
2728.161387,148.041188,-11695.253884,-1072.533697
2728.161714,-740.205942,-8956.491898,-1685.410096
2728.162042,-962.267725,-7994.224174,-1915.238745
2728.162369,-1332.370696,-7994.224174,-1685.410096
2728.162697,-814.226536,-9770.718434,-842.705048
2728.163024,0.000000,-11399.171507,-153.219100
2728.163352,1110.308913,-10955.047942,229.828649
2728.163679,592.164754,-9104.533087,0.000000
2728.164007,666.185348,-7920.203579,229.828649
2728.164334,0.000000,-8290.306550,612.876398
2728.164662,444.123565,-10658.965565,229.828649
2728.164989,1036.288319,-11991.336260,-536.266849
2728.165317,1554.432478,-11029.068536,-1225.752797
2728.165644,2294.638420,-8956.491898,-1378.971896
2728.165971,1258.350101,-9030.512492,536.266849
2728.166299,518.144159,-10362.883188,919.314598
2728.166626,222.061783,-11547.212695,-536.266849
2728.166954,444.123565,-11251.130318,-1991.848295
2728.167281,370.102971,-9326.594869,-2221.676944
2728.167609,-222.061783,-7402.059420,-612.876398
2728.167936,-370.102971,-8142.265362,1608.800546
2728.168264,0.000000,-10214.842000,2451.505594
2728.168591,0.000000,-11177.109724,536.266849
2728.168919,-222.061783,-10658.965565,-842.705048
2728.169246,592.164754,-8660.409521,-2221.676944
2728.169574,518.144159,-7476.080014,-995.924147
2728.169901,-222.061783,-8808.450710,919.314598
2728.170229,740.205942,-10955.047942,919.314598
2728.170556,1998.556043,-11991.336260,459.657299
2728.170884,1702.473667,-11473.192101,0.000000
2728.171211,888.247130,-8808.450710,-153.219100
2728.171539,148.041188,-7105.977043,459.657299
2728.171866,0.000000,-8364.327145,1225.752797
2728.172193,0.000000,-10214.842000,536.266849
2728.172521,74.020594,-10362.883188,0.000000
2728.172848,370.102971,-9030.512492,-689.485948
2728.173176,666.185348,-7846.182985,-1225.752797
2728.173503,518.144159,-8512.368333,0.000000
2728.173831,0.000000,-9992.780217,766.095498
2728.174158,296.082377,-11399.171507,306.438199
2728.174486,1258.350101,-11473.192101,-995.924147
2728.174813,1924.535449,-10362.883188,-1915.238745
2728.175141,1480.411884,-9326.594869,-689.485948
2728.175468,148.041188,-9104.533087,1225.752797
2728.175796,296.082377,-11325.150913,919.314598
2728.176123,0.000000,-11325.150913,-536.266849
2728.176451,0.000000,-9548.656652,-2068.457845
2728.176778,74.020594,-8068.244768,-1685.410096
2728.177106,222.061783,-8290.306550,-459.657299
2728.177433,666.185348,-10066.800811,-536.266849
2728.177761,740.205942,-11695.253884,153.219100
2728.178088,296.082377,-11843.295072,-459.657299
2728.178416,0.000000,-9622.677246,-1225.752797
2728.178743,-592.164754,-7698.141797,-919.314598
2728.179071,-1258.350101,-8512.368333,76.609550
2728.179398,-740.205942,-10288.862594,842.705048
2728.179726,-148.041188,-11621.233289,229.828649
2728.180053,0.000000,-11325.150913,-689.485948
2728.180381,-592.164754,-8512.368333,-1532.190996
2728.180708,-1184.329507,-7402.059420,-1149.143247
2728.181036,-1332.370696,-9178.553681,0.000000
2728.181363,-222.061783,-10732.986159,229.828649
2728.181691,592.164754,-10955.047942,0.000000
2728.182018,814.226536,-9992.780217,-383.047749
2728.182346,1924.535449,-9030.512492,536.266849
2728.182673,1406.391290,-7772.162391,1302.362347
2728.183001,518.144159,-8808.450710,1838.629195
2728.183328,296.082377,-10362.883188,919.314598
2728.183656,74.020594,-10658.965565,-1149.143247
2728.183983,0.000000,-8734.430116,-2068.457845
2728.184311,0.000000,-6883.915261,0.000000
2728.184638,0.000000,-8364.327145,612.876398
2728.184966,296.082377,-10584.944971,842.705048
2728.185293,1406.391290,-12361.439231,-689.485948
2728.185621,1036.288319,-11621.233289,-1149.143247
2728.185948,962.267725,-9030.512492,-1302.362347
2728.186276,370.102971,-7476.080014,0.000000
2728.186603,148.041188,-8364.327145,536.266849
2728.186931,0.000000,-9918.759623,919.314598
2728.187258,518.144159,-11399.171507,-536.266849
2728.187586,888.247130,-10214.842000,-919.314598
2728.187913,888.247130,-9400.615463,-1685.410096
2728.188241,444.123565,-9622.677246,-536.266849
2728.188568,-370.102971,-10436.903782,306.438199
2728.188896,148.041188,-11621.233289,229.828649
2728.189223,592.164754,-10955.047942,-766.095498
2728.189551,888.247130,-9696.697840,-1149.143247
2728.189878,666.185348,-8290.306550,153.219100
2728.190206,148.041188,-8290.306550,1838.629195
2728.190533,0.000000,-10214.842000,1378.971896
2728.190861,0.000000,-10584.944971,229.828649
2728.191188,-370.102971,-9474.636058,-1378.971896
2728.191516,-518.144159,-8068.244768,-2221.676944
2728.191843,296.082377,-7920.203579,-1378.971896
2728.192171,1036.288319,-9400.615463,459.657299
2728.192498,1480.411884,-11399.171507,919.314598
2728.192826,1332.370696,-11621.233289,612.876398
2728.193153,2072.576638,-10214.842000,-383.047749
2728.193481,1406.391290,-7994.224174,-306.438199
2728.193808,444.123565,-7402.059420,1532.190996
2728.194136,0.000000,-9178.553681,1455.581446
2728.194463,518.144159,-10584.944971,612.876398
2728.194791,370.102971,-10214.842000,-383.047749
2728.195118,666.185348,-9178.553681,-842.705048
2728.195446,0.000000,-7550.100608,-459.657299
2728.195773,-370.102971,-8216.285956,536.266849
2728.196101,0.000000,-9844.739029,0.000000
2728.196428,814.226536,-11399.171507,-995.924147
2728.196756,1480.411884,-10955.047942,-1225.752797
2728.197083,1702.473667,-9400.615463,-995.924147
2728.197411,740.205942,-8438.347739,842.705048
2728.197738,370.102971,-9696.697840,2298.286494
2728.198066,370.102971,-10807.006753,1225.752797
2728.198393,-518.144159,-10066.800811,-229.828649
2728.198721,-1036.288319,-9252.574275,-2987.772442
2728.199048,-1332.370696,-9104.533087,-2451.505594
2728.199376,-888.247130,-9474.636058,-1378.971896
2728.199703,-222.061783,-11177.109724,-153.219100
2728.200031,592.164754,-11843.295072,-536.266849
2728.200358,74.020594,-11399.171507,-536.266849
2728.200686,444.123565,-9474.636058,-1378.971896
2728.201013,0.000000,-6957.935855,-536.266849
2728.201341,-888.247130,-7550.100608,153.219100
2728.201668,-962.267725,-9844.739029,842.705048
2728.201996,74.020594,-11547.212695,0.000000
2728.202323,740.205942,-11325.150913,-766.095498
2728.202651,888.247130,-9252.574275,-995.924147
2728.202978,370.102971,-8586.388927,0.000000
2728.203306,0.000000,-9622.677246,-229.828649
2728.203633,0.000000,-11325.150913,-536.266849
2728.203961,-296.082377,-11325.150913,-919.314598
2728.204288,222.061783,-9474.636058,-842.705048
2728.204616,1036.288319,-8068.244768,-306.438199
2728.204943,1036.288319,-8734.430116,2068.457845
2728.205271,0.000000,-9400.615463,2451.505594
2728.205598,0.000000,-10510.924376,1532.190996
2728.205926,-296.082377,-9992.780217,-689.485948
2728.206253,-592.164754,-8808.450710,-2221.676944
2728.206581,-1036.288319,-7402.059420,-995.924147
2728.206908,-888.247130,-8216.285956,689.485948
2728.207236,592.164754,-11251.130318,383.047749
2728.207563,962.267725,-11991.336260,0.000000
2728.207891,962.267725,-10881.027347,-229.828649
2728.208218,444.123565,-8734.430116,-612.876398
2728.208546,148.041188,-7476.080014,-306.438199
2728.208873,222.061783,-8734.430116,153.219100
2728.209201,814.226536,-10807.006753,306.438199
2728.209528,740.205942,-11473.192101,536.266849
2728.209856,1850.514855,-10066.800811,-536.266849
2728.210183,1110.308913,-7994.224174,-766.095498
2728.210511,-222.061783,-8438.347739,229.828649
2728.210838,-518.144159,-10807.006753,536.266849
2728.211166,518.144159,-12213.398043,-766.095498
2728.211493,1036.288319,-10807.006753,-689.485948
2728.211821,1628.453072,-9770.718434,-1532.190996
2728.212148,1702.473667,-8290.306550,153.219100
2728.212476,1184.329507,-8808.450710,2145.067394
2728.212803,518.144159,-10362.883188,2298.286494
2728.213131,0.000000,-10658.965565,153.219100
2728.213458,-592.164754,-9400.615463,-1915.238745
2728.213786,-592.164754,-7846.182985,-1991.848295
2728.214113,-814.226536,-7698.141797,-612.876398
2728.214441,-666.185348,-9252.574275,612.876398
2728.214768,1110.308913,-11695.253884,229.828649
2728.215096,1184.329507,-11769.274478,-689.485948
2728.215423,888.247130,-9548.656652,-995.924147
2728.215751,444.123565,-7328.038826,-459.657299
2728.216078,0.000000,-7328.038826,995.924147
2728.216406,444.123565,-10288.862594,1072.533697
2728.216733,1110.308913,-11251.130318,536.266849
2728.217061,1258.350101,-11177.109724,-306.438199
2728.217388,1628.453072,-9548.656652,-536.266849
2728.217716,1258.350101,-8660.409521,-689.485948
2728.218043,222.061783,-9474.636058,-229.828649
2728.218371,-148.041188,-11029.068536,383.047749
2728.218698,0.000000,-10732.986159,-689.485948
2728.219026,222.061783,-9844.739029,-1608.800546
2728.219353,444.123565,-9178.553681,-612.876398
2728.219681,-518.144159,-8438.347739,1072.533697
2728.220008,-962.267725,-9178.553681,1915.238745
2728.220336,-222.061783,-10955.047942,459.657299
2728.220663,-148.041188,-11103.089130,-1225.752797
2728.220991,-296.082377,-9326.594869,-2145.067394
2728.221318,-592.164754,-7698.141797,-1608.800546
2728.221646,-444.123565,-8882.471304,306.438199
2728.221973,0.000000,-10955.047942,306.438199
2728.222301,1036.288319,-11547.212695,-459.657299
2728.222628,1184.329507,-10807.006753,-459.657299
2728.222956,1332.370696,-9326.594869,-383.047749
2728.223283,1554.432478,-7994.224174,76.609550
2728.223611,888.247130,-8734.430116,612.876398
2728.223938,296.082377,-10732.986159,919.314598
2728.224266,444.123565,-11177.109724,0.000000
2728.224593,222.061783,-9844.739029,-995.924147
2728.224921,-296.082377,-8364.327145,-1149.143247
2728.225248,-1480.411884,-7179.997637,-153.219100
2728.225576,-1332.370696,-9030.512492,536.266849
2728.225903,0.000000,-10732.986159,-229.828649
2728.226231,148.041188,-11325.150913,-1302.362347
2728.226558,222.061783,-9622.677246,-1302.362347
2728.226886,-148.041188,-8068.244768,0.000000
2728.227213,-1110.308913,-8290.306550,689.485948
2728.227541,-666.185348,-10140.821405,1455.581446
2728.227868,222.061783,-10881.027347,0.000000
2728.228196,0.000000,-10362.883188,-919.314598
2728.228523,296.082377,-9400.615463,-689.485948
2728.228851,518.144159,-8364.327145,-383.047749
2728.229178,74.020594,-9400.615463,536.266849
2728.229506,740.205942,-11695.253884,76.609550
2728.229833,962.267725,-11177.109724,-766.095498
2728.230161,888.247130,-9770.718434,-306.438199
2728.230488,222.061783,-7624.121203,-766.095498
2728.230816,296.082377,-7624.121203,0.000000
2728.231143,222.061783,-9548.656652,1302.362347
2728.231471,1406.391290,-11547.212695,229.828649
2728.231798,1702.473667,-11695.253884,-995.924147
2728.232126,1850.514855,-10807.006753,-1149.143247
2728.232453,1110.308913,-8216.285956,-1225.752797
2728.232781,370.102971,-8068.244768,76.609550
2728.233108,-296.082377,-9770.718434,919.314598
2728.233436,296.082377,-11103.089130,383.047749
2728.233763,1480.411884,-10732.986159,-536.266849
2728.234091,1628.453072,-9622.677246,-459.657299
2728.234418,1184.329507,-8216.285956,1149.143247
2728.234746,-222.061783,-8586.388927,1455.581446
2728.235073,518.144159,-10288.862594,842.705048
2728.235401,0.000000,-10288.862594,0.000000
2728.235728,0.000000,-8956.491898,-1225.752797
2728.236056,-444.123565,-7698.141797,-1072.533697
2728.236383,0.000000,-8142.265362,-612.876398
2728.236711,0.000000,-9622.677246,0.000000
2728.237038,592.164754,-11177.109724,0.000000
2728.237366,740.205942,-10881.027347,0.000000
2728.237693,222.061783,-9252.574275,-1378.971896
2728.238021,0.000000,-7920.203579,-1225.752797
2728.238348,0.000000,-8438.347739,-153.219100
2728.238676,444.123565,-10362.883188,842.705048
2728.239003,962.267725,-11251.130318,306.438199
2728.239331,592.164754,-10955.047942,-766.095498
2728.239658,740.205942,-9178.553681,-1302.362347
2728.239986,148.041188,-7624.121203,-689.485948
2728.240313,-592.164754,-9252.574275,153.219100
2728.240641,0.000000,-10955.047942,-153.219100
2728.240968,444.123565,-11843.295072,-1072.533697
2728.241296,1036.288319,-11177.109724,-1532.190996
2728.241623,814.226536,-9400.615463,-536.266849
2728.241951,296.082377,-8586.388927,919.314598
2728.242278,-962.267725,-8808.450710,1378.971896
2728.242606,0.000000,-10658.965565,0.000000
2728.242933,-592.164754,-9992.780217,-1838.629195
2728.243261,-1036.288319,-8438.347739,-1685.410096
2728.243588,-370.102971,-7254.018232,-459.657299
2728.243916,0.000000,-8290.306550,842.705048
2728.244243,296.082377,-9918.759623,1225.752797
2728.244571,1184.329507,-11029.068536,383.047749
2728.244898,592.164754,-10955.047942,-842.705048
2728.245226,370.102971,-9622.677246,-995.924147
2728.245553,814.226536,-8660.409521,-689.485948
2728.245881,814.226536,-9770.718434,229.828649
2728.246208,1110.308913,-11399.171507,1072.533697
2728.246536,1628.453072,-11547.212695,306.438199
2728.246863,1332.370696,-9548.656652,-306.438199
2728.247191,666.185348,-7772.162391,-612.876398
2728.247518,-518.144159,-7402.059420,-229.828649
2728.247846,-1850.514855,-8956.491898,689.485948
2728.248173,-666.185348,-10066.800811,0.000000
2728.248501,296.082377,-10362.883188,-995.924147
2728.248828,1036.288319,-9548.656652,-1378.971896
2728.249156,592.164754,-9030.512492,76.609550
2728.249483,444.123565,-9474.636058,1532.190996
2728.249811,518.144159,-10658.965565,995.924147
2728.250138,518.144159,-11103.089130,-919.314598
2728.250466,0.000000,-9696.697840,-1685.410096
2728.250793,-444.123565,-8586.388927,-919.314598
2728.251121,222.061783,-8586.388927,-459.657299
2728.251448,-296.082377,-9770.718434,612.876398
2728.251776,0.000000,-11325.150913,0.000000
2728.252103,74.020594,-11547.212695,-689.485948
2728.252431,0.000000,-10066.800811,-842.705048
2728.252758,-222.061783,-8290.306550,0.000000
2728.253086,-592.164754,-7846.182985,153.219100
2728.253413,0.000000,-9400.615463,383.047749
2728.253741,1332.370696,-11325.150913,1225.752797
2728.254068,518.144159,-10807.006753,0.000000
2728.254396,222.061783,-9104.533087,-459.657299
2728.254723,0.000000,-8290.306550,-536.266849
2728.255051,-518.144159,-9030.512492,-536.266849
2728.255378,-296.082377,-10732.986159,0.000000
2728.255706,740.205942,-11917.315666,-995.924147
2728.256033,888.247130,-10658.965565,-1915.238745
2728.256361,740.205942,-9252.574275,-536.266849
2728.256688,592.164754,-8068.244768,1072.533697
2728.257016,0.000000,-8660.409521,2145.067394
2728.257343,444.123565,-10436.903782,1991.848295
2728.257671,592.164754,-9696.697840,-153.219100
2728.257998,1258.350101,-9252.574275,-1072.533697
2728.258326,370.102971,-7328.038826,-919.314598
2728.258653,-296.082377,-8142.265362,459.657299
2728.258981,0.000000,-9918.759623,842.705048
2728.259308,1332.370696,-11843.295072,-766.095498
2728.259636,814.226536,-11251.130318,-1378.971896
2728.259963,740.205942,-9622.677246,-1455.581446
2728.260291,0.000000,-7920.203579,-1378.971896
2728.260618,0.000000,-9400.615463,612.876398
2728.260946,444.123565,-10362.883188,459.657299
2728.261273,740.205942,-10510.924376,-229.828649
2728.261601,444.123565,-10066.800811,-459.657299
2728.261928,888.247130,-8364.327145,-919.314598
2728.262256,888.247130,-8068.244768,-536.266849
2728.262583,-222.061783,-9918.759623,459.657299
2728.262911,444.123565,-11473.192101,459.657299
2728.263238,1036.288319,-11325.150913,-766.095498
2728.263566,1554.432478,-10658.965565,-1378.971896
2728.263893,1406.391290,-9770.718434,-536.266849
2728.264221,814.226536,-9696.697840,919.314598
2728.264548,296.082377,-10140.821405,1991.848295
2728.264876,444.123565,-10288.862594,1149.143247
2728.265203,-592.164754,-9844.739029,-766.095498
2728.265531,-1036.288319,-8586.388927,-1532.190996
2728.265858,-1480.411884,-7698.141797,-766.095498
2728.266186,-1110.308913,-7994.224174,0.000000
2728.266513,0.000000,-10214.842000,0.000000
2728.266841,296.082377,-11251.130318,0.000000
2728.267168,444.123565,-10362.883188,-306.438199
2728.267496,518.144159,-8586.388927,-612.876398
2728.267823,888.247130,-8808.450710,-229.828649
2728.268151,592.164754,-9844.739029,842.705048
2728.268478,1184.329507,-10658.965565,1225.752797
2728.268806,1554.432478,-10510.924376,153.219100
2728.269133,1184.329507,-9400.615463,0.000000
2728.269461,1332.370696,-8882.471304,-536.266849
2728.269788,518.144159,-9030.512492,612.876398
2728.270116,0.000000,-9992.780217,229.828649
2728.270443,-148.041188,-10658.965565,-536.266849
2728.270771,0.000000,-10584.944971,-1225.752797
2728.271098,-296.082377,-9178.553681,-1072.533697
2728.271426,-592.164754,-7624.121203,0.000000
2728.271753,-222.061783,-8364.327145,689.485948
2728.272081,0.000000,-10362.883188,1225.752797
2728.272408,-296.082377,-10732.986159,229.828649
2728.272736,-888.247130,-9178.553681,-1225.752797
2728.273063,-1776.494261,-7772.162391,-1762.019645
2728.273391,-1554.432478,-8512.368333,-1225.752797
2728.273718,-518.144159,-9770.718434,-995.924147
2728.274046,592.164754,-11251.130318,-689.485948
2728.274373,962.267725,-11547.212695,0.000000
2728.274701,1480.411884,-10214.842000,-919.314598
2728.275028,666.185348,-8290.306550,-459.657299
2728.275356,518.144159,-8364.327145,229.828649
2728.275683,444.123565,-9992.780217,842.705048
2728.276011,814.226536,-11103.089130,459.657299
2728.276338,666.185348,-9400.615463,-459.657299
2728.276666,222.061783,-7624.121203,-306.438199
2728.276994,518.144159,-8068.244768,0.000000
2728.277321,296.082377,-9770.718434,766.095498
2728.277649,444.123565,-11547.212695,229.828649
2728.277976,1184.329507,-11991.336260,-1762.019645
2728.278304,1702.473667,-10807.006753,-2145.067394
2728.278632,1258.350101,-9104.533087,-995.924147
2728.278959,0.000000,-7994.224174,1608.800546
2728.279287,-814.226536,-9252.574275,2528.115143
2728.279614,-74.020594,-10066.800811,1149.143247
2728.279942,0.000000,-9918.759623,-842.705048
2728.280269,-296.082377,-8956.491898,-1378.971896
2728.280597,0.000000,-7772.162391,-536.266849
2728.280925,-370.102971,-8142.265362,459.657299
2728.281252,148.041188,-10140.821405,766.095498
2728.281580,592.164754,-11843.295072,0.000000
2728.281907,666.185348,-10807.006753,-689.485948
2728.282235,222.061783,-8956.491898,-689.485948
2728.282563,444.123565,-8956.491898,0.000000
2728.282890,1184.329507,-9770.718434,766.095498
2728.283218,666.185348,-10436.903782,689.485948
2728.283545,1406.391290,-10658.965565,0.000000
2728.283873,888.247130,-9696.697840,-689.485948
2728.284201,888.247130,-8290.306550,-1225.752797
2728.284528,444.123565,-7920.203579,-536.266849
2728.284856,-222.061783,-9622.677246,459.657299
2728.285183,592.164754,-10732.986159,153.219100
2728.285511,1036.288319,-11695.253884,-995.924147
2728.285838,1184.329507,-10510.924376,-766.095498
2728.286166,888.247130,-8882.471304,0.000000
2728.286494,222.061783,-8586.388927,1072.533697
2728.286821,-370.102971,-10214.842000,1455.581446
2728.287149,296.082377,-11177.109724,76.609550
2728.287476,222.061783,-9474.636058,-536.266849
2728.287804,-444.123565,-8142.265362,-612.876398
2728.288132,-296.082377,-8364.327145,0.000000
2728.288459,-1036.288319,-8734.430116,536.266849
2728.288787,-814.226536,-10140.821405,-153.219100
2728.289114,-370.102971,-10955.047942,-1225.752797
2728.289442,-518.144159,-9770.718434,-1225.752797
2728.289770,-518.144159,-7772.162391,-536.266849
2728.290097,-1184.329507,-8068.244768,1225.752797
2728.290425,592.164754,-10140.821405,1149.143247
2728.290752,1258.350101,-11473.192101,842.705048
2728.291080,1554.432478,-10732.986159,0.000000
2728.291408,518.144159,-9030.512492,-995.924147
2728.291735,296.082377,-8290.306550,-1302.362347
2728.292063,74.020594,-9030.512492,-689.485948
2728.292390,-592.164754,-10658.965565,153.219100
2728.292718,592.164754,-11621.233289,-459.657299
2728.293045,370.102971,-10584.944971,-1302.362347
2728.293373,370.102971,-9622.677246,-766.095498
2728.293701,518.144159,-8290.306550,0.000000
2728.294028,-370.102971,-9178.553681,1225.752797
2728.294356,74.020594,-10658.965565,1455.581446
2728.294683,1258.350101,-10881.027347,-842.705048
2728.295011,518.144159,-9992.780217,-1072.533697
2728.295339,-592.164754,-8512.368333,-919.314598
2728.295666,-222.061783,-7994.224174,-612.876398
2728.295994,0.000000,-10066.800811,-229.828649
2728.296321,740.205942,-11917.315666,-536.266849
2728.296649,1110.308913,-11177.109724,-536.266849
2728.296977,666.185348,-10140.821405,-1838.629195
2728.297304,1110.308913,-8660.409521,-459.657299
2728.297632,962.267725,-8438.347739,153.219100
2728.297959,814.226536,-9326.594869,1149.143247
2728.298287,1110.308913,-10362.883188,1149.143247
2728.298614,666.185348,-9918.759623,306.438199
2728.298942,518.144159,-7994.224174,-536.266849
2728.299270,444.123565,-7476.080014,-612.876398
2728.299597,-296.082377,-9326.594869,76.609550
2728.299925,0.000000,-11769.274478,76.609550
2728.300252,1184.329507,-11991.336260,-766.095498
2728.300580,518.144159,-10362.883188,-1455.581446
2728.300908,444.123565,-8808.450710,-995.924147
2728.301235,296.082377,-7994.224174,229.828649
2728.301563,0.000000,-9696.697840,1838.629195
2728.301890,370.102971,-10362.883188,1225.752797
2728.302218,370.102971,-9474.636058,-383.047749
2728.302546,-148.041188,-8586.388927,-1302.362347
2728.302873,-296.082377,-7698.141797,-1072.533697
2728.303201,-518.144159,-8586.388927,0.000000
2728.303528,74.020594,-10510.924376,459.657299
2728.303856,592.164754,-12065.356855,-612.876398
2728.304184,814.226536,-11473.192101,-995.924147
2728.304511,888.247130,-9844.739029,-1455.581446
2728.304839,1184.329507,-9178.553681,-306.438199
2728.305166,1184.329507,-9696.697840,612.876398
2728.305494,740.205942,-11029.068536,919.314598
2728.305821,592.164754,-10732.986159,-689.485948
2728.306149,0.000000,-9696.697840,-1149.143247
2728.306477,74.020594,-8290.306550,-842.705048
2728.306804,-222.061783,-8216.285956,-689.485948
2728.307132,-444.123565,-9844.739029,306.438199
2728.307459,0.000000,-11325.150913,76.609550
2728.307787,296.082377,-10658.965565,-766.095498
2728.308115,370.102971,-9400.615463,-842.705048
2728.308442,296.082377,-7772.162391,153.219100
2728.308770,0.000000,-8586.388927,766.095498
2728.309097,74.020594,-10732.986159,1838.629195
2728.309425,888.247130,-11695.253884,459.657299
2728.309753,592.164754,-9770.718434,-766.095498
2728.310080,0.000000,-8290.306550,-459.657299
2728.310408,-370.102971,-7624.121203,0.000000
2728.310735,-740.205942,-8734.430116,0.000000
2728.311063,-962.267725,-10214.842000,0.000000
2728.311390,-518.144159,-10658.965565,-689.485948
2728.311718,-222.061783,-9326.594869,-1149.143247
2728.312046,296.082377,-7920.203579,0.000000
2728.312373,296.082377,-8068.244768,1149.143247
2728.312701,222.061783,-9992.780217,1762.019645
2728.313028,1110.308913,-11917.315666,0.000000
2728.313356,1036.288319,-10288.862594,-1302.362347
2728.313684,592.164754,-9104.533087,-1378.971896
2728.314011,444.123565,-8512.368333,-842.705048
2728.314339,592.164754,-9622.677246,76.609550
2728.314666,1036.288319,-11621.233289,536.266849
2728.314994,1776.494261,-12065.356855,-689.485948
2728.315322,1924.535449,-11325.150913,-1915.238745
2728.315649,888.247130,-9622.677246,-1685.410096
2728.315977,740.205942,-7846.182985,-766.095498
2728.316304,148.041188,-8956.491898,995.924147
2728.316632,-148.041188,-11251.130318,995.924147
2728.316960,148.041188,-11103.089130,-383.047749
2728.317287,-296.082377,-8734.430116,-689.485948
2728.317615,-370.102971,-7772.162391,-689.485948
2728.317942,-962.267725,-8216.285956,-229.828649
2728.318270,-1998.556043,-9548.656652,459.657299
2728.318597,-1480.411884,-11103.089130,-459.657299
2728.318925,0.000000,-11399.171507,-2068.457845
2728.319253,296.082377,-9992.780217,-1532.190996
2728.319580,518.144159,-9104.533087,76.609550
2728.319908,814.226536,-9030.512492,1302.362347
2728.320235,1110.308913,-10658.965565,2451.505594
2728.320563,1406.391290,-11177.109724,612.876398
2728.320891,1406.391290,-9400.615463,-995.924147
2728.321218,444.123565,-7179.997637,-536.266849
2728.321546,666.185348,-7179.997637,306.438199
2728.321873,370.102971,-8512.368333,1225.752797
2728.322201,148.041188,-10066.800811,1532.190996
2728.322529,1480.411884,-10436.903782,-306.438199
2728.322856,1554.432478,-9844.739029,-1302.362347
2728.323184,814.226536,-9178.553681,229.828649
