#time,accel_x,accel_y,accel_z
3367.399037,296.082377,-9918.759623,-229.828649
3367.399365,444.123565,-10066.800811,0.000000
3367.399693,296.082377,-9992.780217,-383.047749
3367.400020,74.020594,-9474.636058,-383.047749
3367.400348,74.020594,-9474.636058,-306.438199
3367.400676,0.000000,-9474.636058,-689.485948
3367.401004,0.000000,-9104.533087,0.000000
3367.401331,0.000000,-9474.636058,0.000000
3367.401659,222.061783,-9770.718434,-153.219100
3367.401987,444.123565,-9770.718434,0.000000
3367.402315,444.123565,-9696.697840,0.000000
3367.402642,962.267725,-9474.636058,0.000000
3367.402970,592.164754,-9326.594869,306.438199
3367.403298,296.082377,-9326.594869,306.438199
3367.403626,444.123565,-9030.512492,153.219100
3367.403953,0.000000,-8808.450710,0.000000
3367.404281,148.041188,-8956.491898,0.000000
3367.404609,0.000000,-9400.615463,0.000000
3367.404937,0.000000,-9474.636058,76.609550
3367.405264,370.102971,-9696.697840,-229.828649
3367.405592,444.123565,-9474.636058,0.000000
3367.405920,518.144159,-9770.718434,229.828649
3367.406248,370.102971,-10066.800811,0.000000
3367.406575,592.164754,-9992.780217,0.000000
3367.406903,518.144159,-9844.739029,-383.047749
3367.407231,296.082377,-9474.636058,0.000000
3367.407559,222.061783,-9030.512492,-306.438199
3367.407886,0.000000,-9326.594869,536.266849
3367.408214,0.000000,-9622.677246,-1072.533697
3367.408542,-148.041188,-9992.780217,-842.705048
3367.408870,0.000000,-10288.862594,-919.314598
3367.409197,222.061783,-10362.883188,-689.485948
3367.409525,444.123565,-10436.903782,-459.657299
3367.409853,814.226536,-10436.903782,0.000000
3367.410181,444.123565,-9918.759623,-306.438199
3367.410508,740.205942,-9548.656652,0.000000
3367.410836,444.123565,-9696.697840,0.000000
3367.411164,0.000000,-9474.636058,-306.438199
3367.411492,0.000000,-9400.615463,-306.438199
3367.411819,0.000000,-9252.574275,-383.047749
3367.412147,444.123565,-8660.409521,-612.876398
3367.412475,1036.288319,-9474.636058,-459.657299
3367.412803,2146.597232,-9474.636058,0.000000
3367.413130,3478.967927,-9400.615463,0.000000
3367.413458,4663.297435,-8956.491898,229.828649
3367.413786,5625.565159,-9474.636058,229.828649
3367.414114,6217.729913,-9770.718434,536.266849
3367.414441,7105.977043,-9252.574275,766.095498
3367.414769,7254.018232,-9400.615463,612.876398
3367.415097,7328.038826,-9104.533087,229.828649
3367.415425,7476.080014,-9770.718434,-229.828649
3367.415752,7254.018232,-10584.944971,0.000000
3367.416080,7772.162391,-10066.800811,76.609550
3367.416408,8882.471304,-9178.553681,153.219100
3367.416736,9104.533087,-9178.553681,0.000000
3367.417063,9622.677246,-9252.574275,383.047749
3367.417391,10732.986159,-9622.677246,0.000000
3367.417719,11547.212695,-9474.636058,153.219100
3367.418047,11695.253884,-9252.574275,0.000000
3367.418374,11621.233289,-9844.739029,0.000000
3367.418702,10881.027347,-9030.512492,306.438199
3367.419030,11251.130318,-9474.636058,-229.828649
3367.419358,11991.336260,-10066.800811,-612.876398
3367.419685,12361.439231,-10658.965565,-1455.581446
3367.420013,13693.809927,-11103.089130,-536.266849
3367.420341,14211.954086,-9770.718434,0.000000
3367.420669,14582.057057,-9326.594869,383.047749
3367.420996,14063.912898,-9474.636058,1149.143247
3367.421324,14434.015869,-9696.697840,995.924147
3367.421652,13767.830521,-9178.553681,842.705048
3367.421980,13249.686362,-9474.636058,919.314598
3367.422307,13027.624579,-8660.409521,536.266849
3367.422635,12287.418637,-9178.553681,612.876398
3367.422963,11547.212695,-9548.656652,612.876398
3367.423291,11251.130318,-9474.636058,229.828649
3367.423618,11177.109724,-9474.636058,-229.828649
3367.423946,9696.697840,-10362.883188,229.828649
3367.424274,9844.739029,-10658.965565,229.828649
3367.424602,8882.471304,-9178.553681,-383.047749
3367.424929,8290.306550,-8068.244768,0.000000
3367.425257,8956.491898,-8068.244768,0.000000
3367.425585,10066.800811,-9030.512492,459.657299
3367.425913,10584.944971,-10881.027347,1915.238745
3367.426240,10066.800811,-10807.006753,1149.143247
3367.426568,9474.636058,-9622.677246,153.219100
3367.426896,7846.182985,-8734.430116,-536.266849
3367.427224,7698.141797,-8216.285956,-459.657299
3367.427551,8512.368333,-9400.615463,0.000000
3367.427879,9104.533087,-11473.192101,229.828649
3367.428207,8882.471304,-11251.130318,689.485948
3367.428535,8808.450710,-8808.450710,-306.438199
3367.428862,7920.203579,-9104.533087,-383.047749
3367.429190,6513.812290,-10140.821405,229.828649
3367.429518,7105.977043,-10214.842000,-459.657299
3367.429846,8290.306550,-8660.409521,-1149.143247
3367.430173,10288.862594,-8438.347739,-1455.581446
3367.430501,10140.821405,-9474.636058,612.876398
3367.430829,7698.141797,-9474.636058,1685.410096
3367.431157,7105.977043,-7920.203579,2068.457845
3367.431484,9622.677246,-9474.636058,-1072.533697
3367.431812,12213.398043,-11473.192101,-2681.334243
3367.432140,12287.418637,-11991.336260,-842.705048
3367.432468,11029.068536,-9252.574275,1838.629195
3367.432795,10510.924376,-9252.574275,1225.752797
3367.433123,8734.430116,-9326.594869,536.266849
3367.433451,6661.853478,-7920.203579,0.000000
3367.433779,5699.585753,-6661.853478,-766.095498
3367.434106,8068.244768,-7550.100608,-1455.581446
3367.434434,10140.821405,-9178.553681,-766.095498
3367.434762,10214.842000,-10362.883188,842.705048
3367.435090,9844.739029,-10584.944971,1991.848295
3367.435417,11399.171507,-7105.977043,383.047749
3367.435745,9844.739029,-5847.626942,-1378.971896
3367.436073,12509.480420,-11251.130318,-536.266849
3367.436401,15544.324782,-10510.924376,0.000000
3367.436728,16284.530724,-10658.965565,1225.752797
3367.437056,13323.706956,-10140.821405,2757.943793
3367.437384,12731.542202,-10881.027347,1532.190996
3367.437712,11325.150913,-10288.862594,459.657299
3367.438039,9474.636058,-9622.677246,-2068.457845
3367.438367,9400.615463,-11029.068536,-2451.505594
3367.438695,9992.780217,-11843.295072,-1455.581446
3367.439023,8882.471304,-10436.903782,1302.362347
3367.439350,7846.182985,-7846.182985,1838.629195
3367.439678,5255.462188,-8290.306550,2528.115143
3367.440006,2072.576638,-8808.450710,1762.019645
3367.440334,2886.803174,-7846.182985,-766.095498
3367.440661,4515.256246,-8882.471304,-3370.820191
3367.440989,4367.215058,-9548.656652,-766.095498
3367.441317,5625.565159,-9252.574275,919.314598
3367.441645,4959.379811,-10214.842000,1378.971896
3367.441972,5477.523971,-11843.295072,919.314598
3367.442300,7105.977043,-13545.768739,-1608.800546
3367.442628,6291.750507,-12213.398043,-1532.190996
3367.442956,5477.523971,-9474.636058,-306.438199
3367.443283,5255.462188,-9918.759623,306.438199
3367.443611,3775.050304,-8882.471304,1838.629195
3367.443939,1554.432478,-9400.615463,3677.258390
3367.444267,74.020594,-8364.327145,2987.772442
3367.444594,0.000000,-6957.935855,459.657299
3367.444922,-1480.411884,-6661.853478,-459.657299
3367.445250,-1850.514855,-7254.018232,-1455.581446
3367.445578,-3330.926739,-10066.800811,689.485948
3367.445905,-814.226536,-10066.800811,536.266849
3367.446233,-888.247130,-8660.409521,689.485948
3367.446561,-4441.235652,-11177.109724,1685.410096
3367.446889,-5477.523971,-11399.171507,-612.876398
3367.447216,-5033.400406,-10436.903782,-3677.258390
3367.447544,-4219.173869,-8438.347739,-4673.182538
3367.447872,-3182.885551,-9030.512492,-3600.648841
3367.448200,-3627.009116,-11251.130318,1455.581446
3367.448527,-2812.782580,-9770.718434,2681.334243
3367.448855,0.000000,-7179.997637,-153.219100
3367.449183,-740.205942,-8586.388927,-1302.362347
3367.449511,-2368.659014,-10510.924376,-2374.896044
3367.449838,-1332.370696,-9030.512492,-1762.019645
3367.450166,-296.082377,-9474.636058,-842.705048
3367.450494,1110.308913,-8956.491898,-383.047749
3367.450822,2738.761985,-11251.130318,1532.190996
3367.451149,2886.803174,-11177.109724,2068.457845
3367.451477,3923.091493,-10214.842000,-459.657299
3367.451805,3552.988522,-9992.780217,-2221.676944
3367.452133,1998.556043,-11991.336260,-1455.581446
3367.452460,1332.370696,-11547.212695,-842.705048
3367.452788,1998.556043,-7772.162391,-612.876398
3367.453116,296.082377,-8734.430116,383.047749
3367.453444,0.000000,-9918.759623,766.095498
3367.453771,1406.391290,-10955.047942,-229.828649
3367.454099,1850.514855,-9252.574275,-1302.362347
3367.454427,296.082377,-9474.636058,-459.657299
3367.454755,666.185348,-10362.883188,0.000000
3367.455082,222.061783,-10214.842000,842.705048
3367.455410,888.247130,-9030.512492,536.266849
3367.455738,3108.864956,-8364.327145,-1762.019645
3367.456066,3330.926739,-9474.636058,-842.705048
3367.456393,3849.070898,-9104.533087,229.828649
3367.456721,4441.235652,-10807.006753,919.314598
3367.457049,2220.617826,-10436.903782,2221.676944
3367.457377,518.144159,-9992.780217,2834.553343
3367.457704,1480.411884,-9104.533087,-459.657299
3367.458032,1110.308913,-9992.780217,-2145.067394
3367.458360,1258.350101,-11103.089130,-766.095498
3367.458688,1110.308913,-8512.368333,76.609550
3367.459015,-740.205942,-8882.471304,1838.629195
3367.459343,-296.082377,-7920.203579,2145.067394
3367.459671,-666.185348,-8660.409521,766.095498
3367.459999,-2072.576638,-8808.450710,0.000000
3367.460326,-1110.308913,-8216.285956,-1685.410096
3367.460654,814.226536,-8586.388927,-3677.258390
3367.460982,666.185348,-10362.883188,-1685.410096
3367.461310,74.020594,-12361.439231,1838.629195
3367.461637,1628.453072,-11029.068536,1302.362347
3367.461965,1110.308913,-10436.903782,-229.828649
3367.462293,1406.391290,-11473.192101,-1532.190996
3367.462620,666.185348,-11769.274478,-1378.971896
3367.462948,-2220.617826,-9992.780217,229.828649
3367.463276,-1776.494261,-7846.182985,-383.047749
3367.463603,-1702.473667,-8290.306550,-842.705048
3367.463931,-2294.638420,-9548.656652,229.828649
3367.464259,-1554.432478,-8512.368333,919.314598
3367.464586,-1480.411884,-6883.915261,-1072.533697
3367.464914,-2886.803174,-10881.027347,76.609550
3367.465242,-3775.050304,-10140.821405,-383.047749
3367.465570,-2738.761985,-10288.862594,-2528.115143
3367.465897,-3478.967927,-8586.388927,-2528.115143
3367.466225,-1998.556043,-9474.636058,-2298.286494
3367.466553,-1406.391290,-11843.295072,-1149.143247
3367.466880,-148.041188,-12065.356855,689.485948
3367.467208,1554.432478,-10288.862594,536.266849
3367.467536,1924.535449,-9178.553681,-383.047749
3367.467863,74.020594,-10214.842000,842.705048
3367.468191,-296.082377,-8586.388927,612.876398
3367.468519,222.061783,-7476.080014,0.000000
3367.468846,-666.185348,-7105.977043,76.609550
3367.469174,592.164754,-8068.244768,689.485948
3367.469502,1998.556043,-8290.306550,536.266849
3367.469830,3182.885551,-9178.553681,995.924147
3367.470157,3997.112087,-10881.027347,1149.143247
3367.470485,4145.153275,-11399.171507,-459.657299
3367.470813,2812.782580,-12731.542202,-766.095498
3367.471140,2812.782580,-10436.903782,-2221.676944
3367.471468,592.164754,-10140.821405,-1991.848295
3367.471796,-2294.638420,-10881.027347,-306.438199
3367.472123,-740.205942,-9400.615463,-229.828649
3367.472451,1332.370696,-8808.450710,-1838.629195
3367.472779,1184.329507,-10807.006753,76.609550
3367.473107,1036.288319,-10510.924376,766.095498
3367.473434,1406.391290,-8956.491898,-306.438199
3367.473762,2072.576638,-8068.244768,-689.485948
3367.474090,3627.009116,-7402.059420,-153.219100
3367.474417,3034.844362,-8142.265362,842.705048
3367.474745,1184.329507,-9030.512492,1455.581446
3367.475073,2590.720797,-10510.924376,995.924147
3367.475400,2368.659014,-12213.398043,-229.828649
3367.475728,740.205942,-13545.768739,459.657299
3367.476056,-518.144159,-12213.398043,-689.485948
3367.476383,-222.061783,-10362.883188,-4366.744339
3367.476711,-1480.411884,-10881.027347,-2528.115143
3367.477039,-666.185348,-9178.553681,0.000000
3367.477367,-666.185348,-7402.059420,842.705048
3367.477694,-1184.329507,-7105.977043,2068.457845
3367.478022,-962.267725,-7254.018232,1915.238745
3367.478350,-1628.453072,-7624.121203,229.828649
3367.478677,-888.247130,-9104.533087,-612.876398
3367.479005,518.144159,-8882.471304,-1072.533697
3367.479333,0.000000,-8290.306550,-766.095498
3367.479660,0.000000,-11917.315666,306.438199
3367.479988,1110.308913,-12065.356855,306.438199
3367.480316,1036.288319,-11103.089130,0.000000
3367.480643,-888.247130,-9992.780217,-229.828649
3367.480971,-1850.514855,-10658.965565,612.876398
3367.481299,-3108.864956,-9178.553681,0.000000
3367.481627,-2294.638420,-6217.729913,-612.876398
3367.481954,-2072.576638,-8586.388927,-383.047749
3367.482282,-1850.514855,-8512.368333,76.609550
3367.482610,148.041188,-7698.141797,0.000000
3367.482937,296.082377,-8364.327145,229.828649
3367.483265,-1036.288319,-10288.862594,919.314598
3367.483593,-2590.720797,-10584.944971,-306.438199
3367.483920,-2368.659014,-10881.027347,-1915.238745
3367.484248,-1850.514855,-10066.800811,-4060.306139
3367.484576,-222.061783,-11251.130318,-3217.601092
3367.484903,-444.123565,-13545.768739,0.000000
3367.485231,370.102971,-11621.233289,995.924147
3367.485559,2664.741391,-9770.718434,0.000000
3367.485887,1998.556043,-9548.656652,-383.047749
3367.486214,74.020594,-9918.759623,0.000000
3367.486542,-888.247130,-8586.388927,689.485948
3367.486870,-814.226536,-7031.956449,-306.438199
3367.487197,-740.205942,-7105.977043,0.000000
3367.487525,1258.350101,-8808.450710,459.657299
3367.487853,1406.391290,-8956.491898,1455.581446
3367.488180,2590.720797,-10066.800811,383.047749
3367.488508,4367.215058,-10881.027347,536.266849
3367.488836,4589.276840,-12213.398043,-766.095498
3367.489164,3478.967927,-12435.459826,0.000000
3367.489491,2294.638420,-8364.327145,-612.876398
3367.489819,-592.164754,-8734.430116,-919.314598
3367.490147,-3034.844362,-9548.656652,153.219100
3367.490474,-1184.329507,-9252.574275,-383.047749
3367.490802,666.185348,-9252.574275,-1302.362347
3367.491130,1554.432478,-9104.533087,-383.047749
3367.491457,1850.514855,-9178.553681,0.000000
3367.491785,2294.638420,-9548.656652,612.876398
3367.492113,3404.947333,-9400.615463,536.266849
3367.492440,3330.926739,-7328.038826,383.047749
3367.492768,1924.535449,-8364.327145,1225.752797
3367.493096,740.205942,-8364.327145,919.314598
3367.493424,2442.679609,-11103.089130,995.924147
3367.493751,1406.391290,-12361.439231,842.705048
3367.494079,-296.082377,-12805.562797,459.657299
3367.494407,-666.185348,-11695.253884,-1532.190996
3367.494734,-1184.329507,-10214.842000,-4443.353888
3367.495062,-1850.514855,-10510.924376,-2757.943793
3367.495390,-2368.659014,-7550.100608,-153.219100
3367.495717,-1480.411884,-6735.874072,383.047749
3367.496045,-962.267725,-8364.327145,1532.190996
3367.496373,-222.061783,-9844.739029,2068.457845
3367.496700,-888.247130,-8438.347739,1149.143247
3367.497028,-1184.329507,-8586.388927,76.609550
3367.497356,-592.164754,-10140.821405,-1838.629195
3367.497684,666.185348,-11843.295072,-2681.334243
3367.498011,740.205942,-11843.295072,-1072.533697
3367.498339,0.000000,-10732.986159,536.266849
3367.498667,222.061783,-10436.903782,612.876398
3367.498994,0.000000,-9770.718434,-229.828649
3367.499322,-1110.308913,-11103.089130,383.047749
3367.499650,-2516.700203,-8882.471304,0.000000
3367.499977,-1480.411884,-7402.059420,-1302.362347
3367.500305,-1332.370696,-7402.059420,-842.705048
3367.500633,296.082377,-7328.038826,0.000000
3367.500960,1776.494261,-10066.800811,1608.800546
3367.501288,1332.370696,-9252.574275,1838.629195
3367.501616,296.082377,-8882.471304,842.705048
3367.501944,-1406.391290,-10732.986159,-995.924147
3367.502271,-2516.700203,-11843.295072,-612.876398
3367.502599,-1406.391290,-9474.636058,-2374.896044
3367.502927,0.000000,-10140.821405,-2528.115143
3367.503254,0.000000,-12361.439231,-1378.971896
3367.503582,962.267725,-12139.377449,229.828649
3367.503910,1036.288319,-9770.718434,995.924147
3367.504237,444.123565,-7920.203579,842.705048
3367.504565,74.020594,-6735.874072,0.000000
3367.504893,592.164754,-7698.141797,-306.438199
3367.505221,1036.288319,-9400.615463,689.485948
3367.505548,1628.453072,-8956.491898,612.876398
3367.505876,2368.659014,-9918.759623,995.924147
3367.506204,2960.823768,-10362.883188,459.657299
3367.506531,4145.153275,-10510.924376,-459.657299
3367.506859,2960.823768,-11843.295072,-1072.533697
3367.507187,2368.659014,-10436.903782,76.609550
3367.507514,2442.679609,-9548.656652,76.609550
3367.507842,4441.235652,-8882.471304,-689.485948
3367.508170,1702.473667,-10584.944971,766.095498
3367.508497,-2294.638420,-9770.718434,1532.190996
3367.508825,-3330.926739,-7994.224174,-229.828649
3367.509153,-1406.391290,-9400.615463,-3907.087040
3367.509481,518.144159,-11029.068536,-3140.991542
3367.509808,888.247130,-10436.903782,229.828649
3367.510136,1332.370696,-8068.244768,2068.457845
3367.510464,2220.617826,-7994.224174,612.876398
3367.510791,1924.535449,-8956.491898,-919.314598
3367.511119,444.123565,-9770.718434,-459.657299
3367.511447,592.164754,-8808.450710,383.047749
3367.511774,1924.535449,-9474.636058,306.438199
3367.512102,2146.597232,-11251.130318,-689.485948
3367.512430,296.082377,-13619.789333,919.314598
3367.512757,0.000000,-10584.944971,536.266849
3367.513085,-296.082377,-9030.512492,-919.314598
3367.513413,-1258.350101,-10066.800811,-1915.238745
3367.513741,-2368.659014,-9104.533087,-1608.800546
3367.514068,-1850.514855,-6661.853478,0.000000
3367.514396,-666.185348,-7105.977043,-306.438199
3367.514724,0.000000,-10658.965565,1302.362347
3367.515051,0.000000,-9474.636058,2451.505594
3367.515379,1110.308913,-9622.677246,0.000000
3367.515707,444.123565,-11769.274478,-919.314598
3367.516034,-518.144159,-10658.965565,-2834.553343
3367.516362,-1036.288319,-9844.739029,-2145.067394
3367.516690,0.000000,-10288.862594,-153.219100
3367.517017,0.000000,-10881.027347,995.924147
3367.517345,-592.164754,-9548.656652,842.705048
3367.517673,-888.247130,-9548.656652,766.095498
3367.518001,-666.185348,-9474.636058,-536.266849
3367.518328,-296.082377,-9104.533087,-1915.238745
3367.518656,-1036.288319,-8586.388927,-229.828649
3367.518984,-2072.576638,-8068.244768,1149.143247
3367.519311,0.000000,-8216.285956,-459.657299
3367.519639,814.226536,-7476.080014,-536.266849
3367.519967,962.267725,-11251.130318,689.485948
3367.520294,1702.473667,-12361.439231,-229.828649
3367.520622,2072.576638,-10436.903782,-1378.971896
3367.520950,1036.288319,-9696.697840,-1302.362347
3367.521278,1406.391290,-11843.295072,-689.485948
3367.521605,-148.041188,-11547.212695,1455.581446
3367.521933,0.000000,-9474.636058,995.924147
3367.522261,296.082377,-7698.141797,-1915.238745
3367.522588,-962.267725,-8512.368333,-2528.115143
3367.522916,-2368.659014,-8882.471304,229.828649
3367.523244,-666.185348,-7476.080014,995.924147
3367.523571,1776.494261,-8882.471304,0.000000
3367.523899,1776.494261,-9696.697840,-229.828649
3367.524227,2664.741391,-9992.780217,0.000000
3367.524554,3849.070898,-11251.130318,612.876398
3367.524882,3923.091493,-11843.295072,0.000000
3367.525210,2220.617826,-11103.089130,536.266849
3367.525538,1924.535449,-10140.821405,229.828649
3367.525865,1924.535449,-9474.636058,0.000000
3367.526193,1258.350101,-7994.224174,0.000000
3367.526521,148.041188,-9326.594869,459.657299
3367.526848,-222.061783,-10584.944971,383.047749
3367.527176,1036.288319,-12139.377449,-459.657299
3367.527504,1184.329507,-10658.965565,-1532.190996
3367.527831,-1110.308913,-8438.347739,-842.705048
3367.528159,-2738.761985,-8734.430116,0.000000
3367.528487,-1110.308913,-9178.553681,-1149.143247
3367.528814,740.205942,-8956.491898,-1608.800546
3367.529142,1258.350101,-8956.491898,-306.438199
3367.529470,74.020594,-8586.388927,1991.848295
3367.529798,814.226536,-9326.594869,1149.143247
3367.530125,1110.308913,-9992.780217,153.219100
3367.530453,592.164754,-11473.192101,76.609550
3367.530781,-296.082377,-10732.986159,306.438199
3367.531108,0.000000,-9474.636058,-995.924147
3367.531436,-962.267725,-9104.533087,-2145.067394
3367.531764,-370.102971,-11029.068536,536.266849
3367.532091,-592.164754,-9030.512492,383.047749
3367.532419,-1480.411884,-8068.244768,766.095498
3367.532747,-962.267725,-7698.141797,-689.485948
3367.533074,-666.185348,-8660.409521,-1149.143247
3367.533402,-1554.432478,-9696.697840,306.438199
3367.533730,0.000000,-9030.512492,-536.266849
3367.534058,-592.164754,-8586.388927,-612.876398
3367.534385,-444.123565,-10362.883188,-383.047749
3367.534713,222.061783,-11769.274478,-306.438199
3367.535041,370.102971,-11325.150913,-459.657299
3367.535368,1110.308913,-10584.944971,-1302.362347
3367.535696,518.144159,-10436.903782,-1532.190996
3367.536024,222.061783,-10955.047942,0.000000
3367.536351,-148.041188,-10066.800811,842.705048
3367.536679,-666.185348,-8216.285956,766.095498
3367.537007,-740.205942,-8290.306550,153.219100
3367.537335,0.000000,-8882.471304,-689.485948
3367.537662,592.164754,-10066.800811,0.000000
3367.537990,0.000000,-8068.244768,689.485948
3367.538318,-1184.329507,-7846.182985,0.000000
3367.538645,296.082377,-10955.047942,-1685.410096
3367.538973,1110.308913,-11917.315666,-2374.896044
3367.539301,3182.885551,-11177.109724,-1532.190996
3367.539628,2516.700203,-9622.677246,0.000000
3367.539956,1480.411884,-11473.192101,2604.724693
3367.540284,888.247130,-10140.821405,2451.505594
3367.540611,1258.350101,-9548.656652,229.828649
3367.540939,-1036.288319,-8586.388927,-306.438199
3367.541267,-1480.411884,-7031.956449,-1685.410096
3367.541595,-888.247130,-6365.771101,-2451.505594
3367.541922,-370.102971,-7698.141797,-536.266849
3367.542250,814.226536,-8882.471304,919.314598
3367.542578,2146.597232,-9400.615463,1838.629195
3367.542905,3034.844362,-10732.986159,1762.019645
3367.543233,4145.153275,-12287.418637,-919.314598
3367.543561,2812.782580,-12657.521608,-612.876398
3367.543888,1776.494261,-10658.965565,0.000000
3367.544216,2368.659014,-8364.327145,-1608.800546
3367.544544,1554.432478,-9400.615463,-995.924147
3367.544871,-222.061783,-11325.150913,1532.190996
3367.545199,1258.350101,-9326.594869,689.485948
3367.545527,1702.473667,-8216.285956,-766.095498
3367.545855,222.061783,-12583.501014,-306.438199
3367.546182,-740.205942,-10584.944971,-766.095498
3367.546510,-1998.556043,-8882.471304,-536.266849
3367.546838,-3182.885551,-8290.306550,-1608.800546
3367.547165,-1258.350101,-9252.574275,-2757.943793
3367.547493,74.020594,-9326.594869,-2374.896044
3367.547821,814.226536,-9696.697840,842.705048
3367.548148,592.164754,-10140.821405,1455.581446
3367.548476,222.061783,-10807.006753,1149.143247
3367.548804,-148.041188,-11473.192101,-536.266849
3367.549131,-666.185348,-10658.965565,-1685.410096
3367.549459,-962.267725,-10288.862594,-1455.581446
3367.549787,-1258.350101,-8438.347739,-1532.190996
3367.550115,-962.267725,-9548.656652,-842.705048
3367.550442,666.185348,-9918.759623,-306.438199
3367.550770,74.020594,-8808.450710,1838.629195
3367.551098,0.000000,-8512.368333,2451.505594
3367.551425,-814.226536,-7476.080014,689.485948
3367.551753,-2220.617826,-8586.388927,-383.047749
3367.552081,-1850.514855,-8290.306550,-995.924147
3367.552408,-1258.350101,-9030.512492,0.000000
3367.552736,-1332.370696,-9400.615463,689.485948
3367.553064,740.205942,-10436.903782,-229.828649
3367.553392,1480.411884,-11991.336260,-229.828649
3367.553719,1184.329507,-11991.336260,383.047749
3367.554047,518.144159,-10362.883188,-612.876398
3367.554375,-962.267725,-8660.409521,-1302.362347
3367.554702,-1406.391290,-8438.347739,-842.705048
3367.555030,-1184.329507,-8364.327145,459.657299
3367.555358,-370.102971,-8438.347739,995.924147
3367.555685,1036.288319,-8808.450710,306.438199
3367.556013,1776.494261,-9918.759623,0.000000
3367.556341,518.144159,-9696.697840,0.000000
3367.556668,0.000000,-10658.965565,-306.438199
3367.556996,-296.082377,-10881.027347,-1915.238745
3367.557324,888.247130,-10066.800811,-2374.896044
3367.557652,1850.514855,-10362.883188,-1608.800546
3367.557979,2886.803174,-11399.171507,76.609550
3367.558307,2368.659014,-12731.542202,2757.943793
3367.558635,2072.576638,-10510.924376,1149.143247
3367.558962,1110.308913,-10362.883188,-306.438199
3367.559290,-296.082377,-9474.636058,-1455.581446
3367.559618,-666.185348,-7476.080014,-1685.410096
3367.559945,-1036.288319,-6735.874072,-306.438199
3367.560273,-370.102971,-7624.121203,995.924147
3367.560601,1110.308913,-7698.141797,1302.362347
3367.560928,3182.885551,-8512.368333,1072.533697
3367.561256,2738.761985,-11325.150913,1532.190996
3367.561584,2072.576638,-12065.356855,306.438199
3367.561911,1406.391290,-10955.047942,-1378.971896
3367.562239,2146.597232,-9400.615463,-2068.457845
3367.562567,3108.864956,-9474.636058,-536.266849
3367.562894,2220.617826,-9474.636058,1225.752797
3367.563222,592.164754,-9918.759623,2374.896044
3367.563549,-518.144159,-9474.636058,1225.752797
3367.563877,1110.308913,-9474.636058,-1991.848295
3367.564205,-296.082377,-10658.965565,-1455.581446
3367.564532,-1110.308913,-9400.615463,-612.876398
3367.564860,-1406.391290,-8586.388927,-842.705048
3367.565187,-962.267725,-9474.636058,-1378.971896
3367.565515,-296.082377,-10510.924376,-766.095498
3367.565842,0.000000,-9178.553681,0.000000
3367.566170,-962.267725,-7550.100608,459.657299
3367.566498,-666.185348,-8364.327145,383.047749
3367.566825,-370.102971,-10658.965565,0.000000
3367.567153,-370.102971,-13915.871710,0.000000
3367.567480,-962.267725,-10658.965565,-306.438199
3367.567808,592.164754,-9622.677246,-1762.019645
3367.568136,222.061783,-9844.739029,-2068.457845
3367.568463,-962.267725,-12509.480420,459.657299
3367.568791,-222.061783,-8216.285956,229.828649
3367.569118,-1110.308913,-6217.729913,229.828649
3367.569446,-2294.638420,-8512.368333,919.314598
3367.569773,-1776.494261,-8364.327145,153.219100
3367.570101,-2220.617826,-9104.533087,689.485948
3367.570429,-1110.308913,-8956.491898,0.000000
3367.570756,296.082377,-9918.759623,-842.705048
3367.571084,370.102971,-10510.924376,-1685.410096
3367.571411,592.164754,-11103.089130,-153.219100
3367.571739,814.226536,-10140.821405,306.438199
3367.572067,592.164754,-10140.821405,306.438199
3367.572394,-592.164754,-9770.718434,-689.485948
3367.572722,0.000000,-10066.800811,-919.314598
3367.573049,-370.102971,-9474.636058,-383.047749
3367.573377,370.102971,-8808.450710,153.219100
3367.573704,1554.432478,-9474.636058,0.000000
3367.574032,1924.535449,-8956.491898,-459.657299
3367.574360,2294.638420,-9696.697840,306.438199
3367.574687,592.164754,-8734.430116,1455.581446
3367.575015,-740.205942,-8586.388927,306.438199
3367.575342,-1406.391290,-9178.553681,-1685.410096
3367.575670,814.226536,-10584.944971,-2298.286494
3367.575998,1998.556043,-10881.027347,-2604.724693
3367.576325,2886.803174,-13027.624579,0.000000
3367.576653,3034.844362,-12583.501014,1455.581446
3367.576980,3552.988522,-11029.068536,-919.314598
3367.577308,1628.453072,-11251.130318,-689.485948
3367.577635,-1184.329507,-9992.780217,306.438199
3367.577963,-1480.411884,-6513.812290,-919.314598
3367.578291,222.061783,-6217.729913,-2145.067394
3367.578618,0.000000,-7994.224174,536.266849
3367.578946,814.226536,-9252.574275,2298.286494
3367.579273,2516.700203,-8364.327145,2221.676944
3367.579601,3108.864956,-10066.800811,689.485948
3367.579929,2590.720797,-11621.233289,-1378.971896
3367.580256,2294.638420,-12953.603985,-383.047749
3367.580584,1406.391290,-9844.739029,153.219100
3367.580911,2590.720797,-7254.018232,-459.657299
3367.581239,2220.617826,-7994.224174,383.047749
3367.581566,-296.082377,-10658.965565,2451.505594
3367.581894,-1332.370696,-10510.924376,2451.505594
3367.582222,592.164754,-8364.327145,-536.266849
3367.582549,222.061783,-11177.109724,-2451.505594
3367.582877,-592.164754,-10881.027347,-1608.800546
3367.583204,-148.041188,-8734.430116,-612.876398
3367.583532,-1036.288319,-7476.080014,153.219100
3367.583860,-1036.288319,-8808.450710,0.000000
3367.584187,-1554.432478,-9104.533087,0.000000
3367.584515,-592.164754,-9252.574275,0.000000
3367.584842,-296.082377,-8068.244768,0.000000
3367.585170,74.020594,-9770.718434,-536.266849
3367.585497,-222.061783,-12879.583391,-153.219100
3367.585825,-148.041188,-13101.645173,-766.095498
3367.586153,444.123565,-11251.130318,-1685.410096
3367.586480,-740.205942,-9548.656652,-2604.724693
3367.586808,-2072.576638,-10288.862594,-612.876398
3367.587135,-2220.617826,-8364.327145,-383.047749
3367.587463,-1628.453072,-6513.812290,-306.438199
3367.587791,-962.267725,-9992.780217,919.314598
3367.588118,-1628.453072,-10214.842000,1455.581446
3367.588446,-518.144159,-8808.450710,-383.047749
3367.588773,-666.185348,-8216.285956,-919.314598
3367.589101,-370.102971,-10658.965565,-612.876398
3367.589428,296.082377,-10066.800811,-306.438199
3367.589756,666.185348,-9104.533087,842.705048
3367.590084,370.102971,-10807.006753,689.485948
3367.590411,1776.494261,-11399.171507,-383.047749
3367.590739,666.185348,-10881.027347,0.000000
3367.591066,74.020594,-9326.594869,153.219100
3367.591394,-370.102971,-9474.636058,-995.924147
3367.591722,-518.144159,-10362.883188,-995.924147
3367.592049,444.123565,-8512.368333,459.657299
3367.592377,1702.473667,-8068.244768,229.828649
3367.592704,1776.494261,-7254.018232,919.314598
3367.593032,370.102971,-7846.182985,2451.505594
3367.593360,74.020594,-8882.471304,1762.019645
3367.593687,-518.144159,-9844.739029,-1378.971896
3367.594015,-888.247130,-10140.821405,-1685.410096
3367.594342,2516.700203,-10214.842000,-2911.162892
3367.594670,3108.864956,-11251.130318,-1302.362347
3367.594997,2886.803174,-14063.912898,1915.238745
3367.595325,4145.153275,-11399.171507,689.485948
3367.595653,2220.617826,-9696.697840,0.000000
3367.595980,-370.102971,-9770.718434,0.000000
3367.596308,-666.185348,-6957.935855,-1072.533697
3367.596635,-1332.370696,-7179.997637,0.000000
3367.596963,-1480.411884,-7254.018232,153.219100
3367.597291,-518.144159,-7698.141797,0.000000
3367.597618,592.164754,-9030.512492,689.485948
3367.597946,2812.782580,-10658.965565,919.314598
3367.598273,3330.926739,-11843.295072,-383.047749
3367.598601,1406.391290,-10658.965565,536.266849
3367.598928,1258.350101,-10140.821405,-766.095498
3367.599256,2812.782580,-10658.965565,-1608.800546
3367.599584,1554.432478,-10955.047942,536.266849
3367.599911,-296.082377,-8956.491898,1915.238745
3367.600239,222.061783,-9992.780217,919.314598
3367.600566,592.164754,-10362.883188,-383.047749
3367.600894,444.123565,-10807.006753,-1532.190996
3367.601222,-444.123565,-8438.347739,-383.047749
3367.601549,-1850.514855,-8956.491898,919.314598
3367.601877,-1406.391290,-8438.347739,0.000000
3367.602204,148.041188,-7772.162391,-1532.190996
3367.602532,-888.247130,-9326.594869,76.609550
3367.602859,-740.205942,-9178.553681,459.657299
3367.603187,-222.061783,-9474.636058,0.000000
3367.603515,518.144159,-10584.944971,0.000000
3367.603842,296.082377,-11547.212695,-306.438199
3367.604170,-444.123565,-10510.924376,-306.438199
3367.604497,-1110.308913,-10658.965565,-612.876398
3367.604825,-370.102971,-9178.553681,-1302.362347
3367.605153,74.020594,-9178.553681,-842.705048
3367.605480,-962.267725,-9992.780217,995.924147
3367.605808,-444.123565,-7624.121203,919.314598
3367.606135,-296.082377,-7476.080014,0.000000
3367.606463,-1110.308913,-9474.636058,0.000000
3367.606790,-444.123565,-10955.047942,0.000000
3367.607118,-814.226536,-9030.512492,-995.924147
3367.607446,-1184.329507,-8216.285956,-459.657299
3367.607773,148.041188,-9548.656652,-383.047749
3367.608101,2146.597232,-11695.253884,-459.657299
3367.608428,296.082377,-11251.130318,1149.143247
3367.608756,0.000000,-10140.821405,229.828649
3367.609084,1332.370696,-10881.027347,-2221.676944
3367.609411,222.061783,-10881.027347,-1532.190996
3367.609739,222.061783,-10732.986159,-612.876398
3367.610066,296.082377,-9474.636058,76.609550
3367.610394,0.000000,-9030.512492,1225.752797
3367.610721,962.267725,-8068.244768,306.438199
3367.611049,2146.597232,-9474.636058,-612.876398
3367.611377,0.000000,-9030.512492,1149.143247
3367.611704,-962.267725,-7179.997637,1915.238745
3367.612032,-962.267725,-8734.430116,-459.657299
3367.612359,-1036.288319,-11251.130318,-2451.505594
3367.612687,1184.329507,-11029.068536,-3217.601092
3367.613015,2368.659014,-9548.656652,-1378.971896
3367.613342,2368.659014,-12213.398043,1915.238745
3367.613670,3108.864956,-12657.521608,1915.238745
3367.613997,3478.967927,-10436.903782,-153.219100
3367.614325,296.082377,-8512.368333,536.266849
3367.614652,-1332.370696,-7994.224174,459.657299
3367.614980,-666.185348,-8512.368333,-766.095498
3367.615308,-592.164754,-7402.059420,-306.438199
3367.615635,-222.061783,-8068.244768,-383.047749
3367.615963,-592.164754,-8586.388927,842.705048
3367.616290,518.144159,-9326.594869,1302.362347
3367.616618,1332.370696,-9326.594869,306.438199
3367.616946,1924.535449,-10584.944971,-1149.143247
3367.617273,1776.494261,-11843.295072,-1149.143247
3367.617601,2146.597232,-10732.986159,-766.095498
3367.617928,2664.741391,-10066.800811,-459.657299
3367.618256,2072.576638,-9474.636058,153.219100
3367.618583,0.000000,-10658.965565,2298.286494
3367.618911,-1332.370696,-9770.718434,1838.629195
3367.619239,444.123565,-9992.780217,-1532.190996
3367.619566,74.020594,-10066.800811,-1838.629195
3367.619894,-1036.288319,-10288.862594,-1072.533697
3367.620221,-1184.329507,-9696.697840,-306.438199
3367.620549,-814.226536,-8438.347739,-842.705048
3367.620877,-592.164754,-9696.697840,-1302.362347
3367.621204,-740.205942,-9770.718434,-1149.143247
3367.621532,-1184.329507,-9696.697840,-689.485948
3367.621859,0.000000,-9918.759623,0.000000
3367.622187,1110.308913,-11769.274478,229.828649
3367.622514,296.082377,-11621.233289,689.485948
3367.622842,-296.082377,-11103.089130,1149.143247
3367.623170,370.102971,-9252.574275,-919.314598
3367.623497,296.082377,-10140.821405,-2068.457845
3367.623825,-222.061783,-10066.800811,0.000000
3367.624152,-296.082377,-7846.182985,383.047749
3367.624480,518.144159,-7105.977043,1225.752797
3367.624808,0.000000,-8512.368333,1762.019645
3367.625135,-1554.432478,-9622.677246,1685.410096
3367.625463,-1480.411884,-7328.038826,76.609550
3367.625790,0.000000,-8586.388927,-1072.533697
3367.626118,444.123565,-9178.553681,-1532.190996
3367.626445,814.226536,-10066.800811,-153.219100
3367.626773,888.247130,-9548.656652,689.485948
3367.627101,2220.617826,-10584.944971,842.705048
3367.627428,2368.659014,-11917.315666,383.047749
3367.627756,444.123565,-10288.862594,536.266849
3367.628083,-296.082377,-9474.636058,-383.047749
3367.628411,-444.123565,-8586.388927,-1455.581446
3367.628739,444.123565,-10658.965565,0.000000
3367.629066,0.000000,-9178.553681,383.047749
3367.629394,1628.453072,-8734.430116,76.609550
3367.629721,2368.659014,-10066.800811,76.609550
3367.630049,1480.411884,-9326.594869,1072.533697
3367.630377,0.000000,-9918.759623,459.657299
3367.630704,-1554.432478,-10140.821405,-1225.752797
3367.631032,-1776.494261,-9918.759623,-2451.505594
3367.631359,962.267725,-9548.656652,-3447.429741
3367.631687,2368.659014,-12657.521608,-1072.533697
3367.632014,2146.597232,-14359.995275,2298.286494
3367.632342,3404.947333,-11695.253884,1302.362347
3367.632670,3108.864956,-9400.615463,-1302.362347
3367.632997,370.102971,-9400.615463,-995.924147
3367.633325,-1110.308913,-8808.450710,-383.047749
3367.633652,-2368.659014,-6587.832884,842.705048
3367.633980,-2368.659014,-5773.606348,-153.219100
3367.634308,-1776.494261,-6661.853478,-306.438199
3367.634635,-666.185348,-9030.512492,842.705048
3367.634963,814.226536,-9178.553681,1991.848295
3367.635290,2368.659014,-10214.842000,-536.266849
3367.635618,1776.494261,-11547.212695,-1225.752797
3367.635945,1998.556043,-10881.027347,-1302.362347
3367.636273,2368.659014,-10436.903782,-306.438199
3367.636601,1924.535449,-7772.162391,1072.533697
3367.636928,0.000000,-8438.347739,2374.896044
3367.637256,-296.082377,-10214.842000,2221.676944
3367.637583,74.020594,-10807.006753,-766.095498
3367.637911,370.102971,-10436.903782,-1532.190996
3367.638239,444.123565,-9104.533087,-1608.800546
3367.638566,-222.061783,-9474.636058,-766.095498
3367.638894,74.020594,-9844.739029,-306.438199
3367.639221,888.247130,-9252.574275,-612.876398
3367.639549,-1036.288319,-7402.059420,-612.876398
3367.639876,-2146.597232,-9326.594869,-995.924147
3367.640204,-518.144159,-10214.842000,-1225.752797
3367.640532,0.000000,-11473.192101,-766.095498
3367.640859,-592.164754,-12213.398043,536.266849
3367.641187,0.000000,-11843.295072,153.219100
3367.641514,592.164754,-11029.068536,-2298.286494
3367.641842,1628.453072,-10140.821405,-3447.429741
3367.642170,1110.308913,-11177.109724,-995.924147
3367.642497,-296.082377,-8364.327145,1225.752797
3367.642825,-592.164754,-6735.874072,1072.533697
3367.643152,-296.082377,-7772.162391,0.000000
3367.643480,-740.205942,-10436.903782,689.485948
3367.643807,-1184.329507,-9918.759623,766.095498
3367.644135,-296.082377,-7846.182985,-1225.752797
3367.644463,740.205942,-8438.347739,-2221.676944
3367.644790,1924.535449,-9918.759623,-1915.238745
3367.645118,1406.391290,-11103.089130,766.095498
3367.645445,814.226536,-9104.533087,2834.553343
3367.645773,1628.453072,-9474.636058,1225.752797
3367.646101,1258.350101,-10140.821405,-306.438199
3367.646428,370.102971,-11251.130318,0.000000
3367.646756,-1480.411884,-8882.471304,0.000000
3367.647083,0.000000,-8142.265362,-766.095498
3367.647411,740.205942,-9474.636058,-1072.533697
3367.647738,1776.494261,-9474.636058,-306.438199
3367.648066,1036.288319,-9474.636058,1072.533697
3367.648394,-444.123565,-7846.182985,2374.896044
3367.648721,-1850.514855,-7624.121203,919.314598
3367.649049,-1184.329507,-9400.615463,-2221.676944
3367.649376,-1258.350101,-11547.212695,-2681.334243
3367.649704,222.061783,-10362.883188,-2374.896044
3367.650032,2146.597232,-10436.903782,-1149.143247
3367.650359,2886.803174,-14137.933492,536.266849
3367.650687,3552.988522,-14285.974681,919.314598
3367.651014,3330.926739,-10807.006753,-766.095498
3367.651342,-1110.308913,-7624.121203,-229.828649
3367.651669,-2072.576638,-7994.224174,-383.047749
3367.651997,-962.267725,-7698.141797,-842.705048
3367.652325,-1184.329507,-8660.409521,459.657299
3367.652652,-2368.659014,-6661.853478,842.705048
3367.652980,-592.164754,-8438.347739,0.000000
3367.653307,666.185348,-9992.780217,-766.095498
3367.653635,2590.720797,-10436.903782,-1302.362347
3367.653963,962.267725,-11251.130318,-612.876398
3367.654290,740.205942,-9844.739029,229.828649
3367.654618,1850.514855,-10066.800811,153.219100
3367.654945,3256.906145,-9326.594869,153.219100
3367.655273,888.247130,-9252.574275,2145.067394
3367.655600,-1258.350101,-10066.800811,2451.505594
3367.655928,-444.123565,-10658.965565,0.000000
3367.656256,296.082377,-9844.739029,-3064.381992
3367.656583,814.226536,-9696.697840,-2298.286494
3367.656911,0.000000,-9474.636058,536.266849
3367.657238,-296.082377,-8290.306550,1455.581446
3367.657566,518.144159,-8068.244768,0.000000
3367.657894,0.000000,-7846.182985,-1685.410096
3367.658221,-1258.350101,-10066.800811,0.000000
3367.658549,-1480.411884,-10436.903782,229.828649
3367.658876,888.247130,-10584.944971,-306.438199
3367.659204,2072.576638,-11029.068536,-1225.752797
3367.659531,2368.659014,-12435.459826,-536.266849
3367.659859,444.123565,-12213.398043,919.314598
3367.660187,296.082377,-9104.533087,-536.266849
3367.660514,222.061783,-9104.533087,-1762.019645
3367.660842,-296.082377,-9696.697840,-1072.533697
3367.661169,-296.082377,-9030.512492,0.000000
3367.661497,-740.205942,-8364.327145,689.485948
3367.661825,-814.226536,-9474.636058,842.705048
3367.662152,0.000000,-9622.677246,-459.657299
3367.662480,222.061783,-9030.512492,-1838.629195
3367.662807,-592.164754,-9548.656652,-766.095498
3367.663135,-222.061783,-10066.800811,0.000000
3367.663462,1258.350101,-9696.697840,-536.266849
3367.663790,1184.329507,-9400.615463,153.219100
3367.664117,962.267725,-10881.027347,1378.971896
3367.664445,296.082377,-10436.903782,1072.533697
3367.664773,-222.061783,-9326.594869,612.876398
3367.665100,0.000000,-9844.739029,-1915.238745
3367.665428,148.041188,-10066.800811,-2451.505594
3367.665755,-444.123565,-9844.739029,0.000000
3367.666083,-444.123565,-7846.182985,1455.581446
3367.666410,1702.473667,-8364.327145,612.876398
3367.666738,1628.453072,-8438.347739,229.828649
3367.667065,0.000000,-9326.594869,1225.752797
3367.667393,-1332.370696,-8956.491898,536.266849
3367.667720,-1258.350101,-10214.842000,-1915.238745
3367.668048,0.000000,-9326.594869,-2987.772442
3367.668375,3108.864956,-10881.027347,-2604.724693
3367.668703,2368.659014,-13249.686362,995.924147
3367.669030,2368.659014,-12435.459826,2681.334243
3367.669358,2368.659014,-9474.636058,229.828649
3367.669685,592.164754,-9252.574275,-1455.581446
3367.670013,-1406.391290,-10066.800811,-612.876398
3367.670340,-1924.535449,-7920.203579,0.000000
3367.670668,-1776.494261,-7402.059420,0.000000
3367.670995,-888.247130,-7402.059420,-1072.533697
3367.671323,-222.061783,-9622.677246,-689.485948
3367.671650,592.164754,-10658.965565,383.047749
3367.671978,1998.556043,-9918.759623,1302.362347
3367.672305,1110.308913,-10362.883188,0.000000
3367.672633,518.144159,-10658.965565,-1225.752797
3367.672961,1036.288319,-10881.027347,-1072.533697
3367.673288,1702.473667,-9844.739029,459.657299
3367.673616,2294.638420,-7402.059420,919.314598
3367.673943,222.061783,-8438.347739,1378.971896
3367.674271,-370.102971,-12213.398043,766.095498
3367.674598,-1332.370696,-10955.047942,-1455.581446
3367.674926,-296.082377,-9178.553681,-2374.896044
3367.675253,0.000000,-9474.636058,-1225.752797
3367.675581,0.000000,-9474.636058,229.828649
3367.675908,592.164754,-9474.636058,459.657299
3367.676236,-222.061783,-7846.182985,0.000000
3367.676563,-740.205942,-8956.491898,0.000000
3367.676891,-740.205942,-9104.533087,-1532.190996
3367.677218,-222.061783,-9326.594869,-842.705048
3367.677546,148.041188,-10584.944971,306.438199
3367.677873,1110.308913,-11103.089130,766.095498
3367.678201,222.061783,-10807.006753,919.314598
3367.678528,888.247130,-10288.862594,0.000000
3367.678856,1702.473667,-10658.965565,-842.705048
3367.679183,296.082377,-10362.883188,-1149.143247
3367.679511,-740.205942,-7624.121203,-383.047749
3367.679838,0.000000,-7846.182985,-1532.190996
3367.680166,-444.123565,-9992.780217,-306.438199
3367.680494,0.000000,-10288.862594,919.314598
3367.680821,0.000000,-8438.347739,995.924147
3367.681149,-148.041188,-9400.615463,-1455.581446
3367.681476,222.061783,-11695.253884,-2068.457845
3367.681804,148.041188,-11399.171507,-2221.676944
3367.682131,74.020594,-8290.306550,-306.438199
3367.682459,2220.617826,-8808.450710,229.828649
3367.682786,2960.823768,-11177.109724,459.657299
3367.683114,1998.556043,-11769.274478,1838.629195
3367.683441,888.247130,-10288.862594,689.485948
3367.683769,-740.205942,-9178.553681,-842.705048
3367.684096,-148.041188,-8142.265362,-1225.752797
3367.684424,-518.144159,-7550.100608,-919.314598
3367.684751,-1110.308913,-9548.656652,612.876398
3367.685079,370.102971,-9992.780217,995.924147
3367.685406,1628.453072,-9252.574275,-766.095498
3367.685734,2294.638420,-9252.574275,-689.485948
3367.686061,1776.494261,-10140.821405,-459.657299
3367.686389,74.020594,-9992.780217,612.876398
3367.686716,-370.102971,-9400.615463,1072.533697
3367.687044,1184.329507,-10066.800811,-689.485948
3367.687371,1924.535449,-10362.883188,-919.314598
3367.687699,0.000000,-9918.759623,1685.410096
3367.688027,-2220.617826,-9474.636058,1072.533697
3367.688354,-888.247130,-10362.883188,-1532.190996
3367.688682,222.061783,-9474.636058,-3983.696590
3367.689009,222.061783,-9622.677246,-2451.505594
3367.689337,-666.185348,-9104.533087,1149.143247
3367.689664,0.000000,-9178.553681,2451.505594
3367.689992,962.267725,-8734.430116,229.828649
3367.690319,962.267725,-9548.656652,-995.924147
3367.690647,-1036.288319,-10881.027347,306.438199
3367.690974,-814.226536,-9474.636058,76.609550
3367.691302,1036.288319,-9326.594869,-1838.629195
3367.691629,814.226536,-10436.903782,-1991.848295
3367.691957,74.020594,-10658.965565,229.828649
3367.692284,666.185348,-10584.944971,1838.629195
3367.692612,1628.453072,-10288.862594,1685.410096
3367.692939,148.041188,-9326.594869,-766.095498
3367.693267,-518.144159,-9844.739029,-842.705048
3367.693594,-814.226536,-9178.553681,153.219100
3367.693922,1036.288319,-7550.100608,0.000000
3367.694249,370.102971,-7179.997637,0.000000
3367.694577,-1332.370696,-9326.594869,1072.533697
3367.694904,-2590.720797,-11769.274478,536.266849
3367.695232,-740.205942,-10510.924376,-1762.019645
3367.695560,1480.411884,-9696.697840,-3370.820191
3367.695887,888.247130,-11399.171507,-1378.971896
3367.696215,74.020594,-11695.253884,612.876398
3367.696542,1036.288319,-10362.883188,919.314598
3367.696870,1776.494261,-9178.553681,229.828649
3367.697197,962.267725,-9326.594869,536.266849
3367.697525,-370.102971,-8216.285956,919.314598
3367.697852,0.000000,-7920.203579,536.266849
3367.698180,-1332.370696,-8512.368333,842.705048
3367.698507,-666.185348,-8882.471304,459.657299
3367.698835,-518.144159,-9474.636058,0.000000
3367.699162,-888.247130,-9030.512492,0.000000
3367.699490,0.000000,-10140.821405,-766.095498
3367.699817,0.000000,-10510.924376,-612.876398
3367.700145,740.205942,-10436.903782,-995.924147
3367.700472,1406.391290,-9474.636058,-1149.143247
3367.700800,666.185348,-10066.800811,995.924147
3367.701127,666.185348,-9326.594869,1915.238745
3367.701455,888.247130,-9548.656652,1302.362347
3367.701782,888.247130,-10732.986159,-612.876398
3367.702110,0.000000,-10584.944971,-1149.143247
3367.702437,0.000000,-10362.883188,-842.705048
3367.702765,370.102971,-8142.265362,-689.485948
3367.703092,962.267725,-8956.491898,-842.705048
3367.703420,740.205942,-9252.574275,0.000000
3367.703748,370.102971,-9918.759623,153.219100
3367.704075,740.205942,-9622.677246,766.095498
3367.704403,1406.391290,-9918.759623,76.609550
3367.704730,1110.308913,-9474.636058,-383.047749
3367.705058,1628.453072,-10732.986159,229.828649
3367.705385,1776.494261,-11621.233289,229.828649
3367.705713,592.164754,-10436.903782,-536.266849
3367.706040,-962.267725,-9474.636058,-459.657299
3367.706368,-1184.329507,-9178.553681,-1685.410096
3367.706695,-814.226536,-10510.924376,-2221.676944
3367.707023,-1184.329507,-9178.553681,-1072.533697
3367.707350,-296.082377,-9030.512492,76.609550
3367.707678,-148.041188,-9104.533087,612.876398
3367.708005,888.247130,-9104.533087,1302.362347
3367.708333,1406.391290,-9178.553681,1149.143247
3367.708660,-222.061783,-9622.677246,229.828649
3367.708988,-222.061783,-8956.491898,0.000000
3367.709315,1628.453072,-8808.450710,-2221.676944
3367.709643,1554.432478,-10732.986159,-995.924147
3367.709970,1036.288319,-10584.944971,689.485948
3367.710298,740.205942,-9400.615463,1302.362347
3367.710625,814.226536,-9696.697840,612.876398
3367.710953,2368.659014,-10362.883188,0.000000
3367.711281,222.061783,-10807.006753,-842.705048
3367.711608,-740.205942,-9474.636058,689.485948
3367.711936,888.247130,-8216.285956,0.000000
3367.712263,2664.741391,-7772.162391,-766.095498
3367.712591,1258.350101,-8660.409521,153.219100
3367.712918,-1406.391290,-9104.533087,919.314598
3367.713246,-2590.720797,-9696.697840,842.705048
3367.713573,-370.102971,-10140.821405,-2757.943793
3367.713901,1258.350101,-11177.109724,-4596.572988
3367.714228,0.000000,-12583.501014,-1072.533697
3367.714556,0.000000,-11473.192101,919.314598
3367.714883,1110.308913,-10658.965565,0.000000
3367.715211,1702.473667,-9400.615463,-536.266849
3367.715538,592.164754,-10140.821405,0.000000
3367.715866,-2220.617826,-8216.285956,1608.800546
3367.716193,-1776.494261,-7846.182985,766.095498
3367.716521,-1702.473667,-9030.512492,-153.219100
3367.716848,-222.061783,-10066.800811,-612.876398
3367.717176,-1258.350101,-10955.047942,229.828649
3367.717503,-1406.391290,-8882.471304,766.095498
3367.717831,814.226536,-8586.388927,-1149.143247
3367.718158,1184.329507,-10881.027347,-1762.019645
3367.718486,296.082377,-10807.006753,-842.705048
3367.718814,0.000000,-9030.512492,766.095498
3367.719141,0.000000,-8660.409521,1915.238745
3367.719469,518.144159,-9030.512492,1302.362347
3367.719796,666.185348,-10140.821405,536.266849
3367.720124,-518.144159,-11177.109724,383.047749
3367.720451,-592.164754,-9030.512492,-459.657299
3367.720779,296.082377,-7476.080014,-1608.800546
3367.721106,148.041188,-8512.368333,-919.314598
3367.721434,74.020594,-10066.800811,1302.362347
3367.721761,0.000000,-8586.388927,1302.362347
3367.722089,518.144159,-7698.141797,383.047749
3367.722416,1110.308913,-8808.450710,-459.657299
3367.722744,2812.782580,-10955.047942,-1532.190996
3367.723071,1184.329507,-11917.315666,919.314598
3367.723399,1110.308913,-10362.883188,1302.362347
3367.723726,1850.514855,-9548.656652,-766.095498
3367.724054,1554.432478,-10140.821405,-1378.971896
3367.724381,370.102971,-10658.965565,-536.266849
3367.724709,-1554.432478,-9474.636058,76.609550
3367.725036,-1998.556043,-8734.430116,-842.705048
3367.725364,-148.041188,-9104.533087,-1838.629195
3367.725691,962.267725,-10436.903782,-1915.238745
3367.726019,-666.185348,-11029.068536,1302.362347
3367.726347,-518.144159,-9400.615463,2298.286494
3367.726674,2220.617826,-8438.347739,-612.876398
3367.727002,2294.638420,-9178.553681,-2374.896044
3367.727329,1406.391290,-11399.171507,-995.924147
3367.727657,296.082377,-9474.636058,1072.533697
3367.727984,888.247130,-8660.409521,1072.533697
3367.728312,1036.288319,-9326.594869,-459.657299
3367.728639,740.205942,-10584.944971,-766.095498
3367.728967,-370.102971,-11695.253884,1532.190996
3367.729294,740.205942,-9622.677246,383.047749
3367.729622,740.205942,-8956.491898,-612.876398
3367.729949,888.247130,-8586.388927,-689.485948
3367.730277,1406.391290,-8216.285956,-459.657299
3367.730604,0.000000,-8364.327145,1608.800546
3367.730932,-1406.391290,-8216.285956,1455.581446
3367.731259,0.000000,-9400.615463,-459.657299
3367.731587,592.164754,-10584.944971,-1072.533697
3367.731914,0.000000,-11621.233289,306.438199
3367.732242,370.102971,-10510.924376,-153.219100
3367.732569,1110.308913,-10362.883188,-459.657299
3367.732897,1184.329507,-10584.944971,-1225.752797
3367.733224,1332.370696,-10955.047942,-1685.410096
3367.733552,-296.082377,-9326.594869,0.000000
3367.733879,-962.267725,-8882.471304,1225.752797
3367.734207,222.061783,-8660.409521,-153.219100
3367.734535,296.082377,-10066.800811,76.609550
3367.734862,-1184.329507,-10732.986159,1378.971896
3367.735190,-666.185348,-9030.512492,383.047749
3367.735517,74.020594,-8882.471304,-1608.800546
3367.735845,0.000000,-9844.739029,-2374.896044
3367.736172,-814.226536,-10066.800811,-1225.752797
3367.736500,-148.041188,-9474.636058,0.000000
3367.736827,888.247130,-10510.924376,0.000000
3367.737155,1406.391290,-10584.944971,-153.219100
3367.737482,814.226536,-11103.089130,229.828649
3367.737810,-518.144159,-10807.006753,1072.533697
3367.738137,222.061783,-9548.656652,-153.219100
3367.738465,74.020594,-9252.574275,-1149.143247
3367.738792,518.144159,-8586.388927,-1072.533697
3367.739120,0.000000,-9030.512492,-229.828649
3367.739447,370.102971,-9326.594869,1302.362347
3367.739775,740.205942,-8364.327145,766.095498
3367.740102,666.185348,-8438.347739,0.000000
3367.740430,-370.102971,-10066.800811,-536.266849
3367.740757,74.020594,-10288.862594,-1302.362347
3367.741085,888.247130,-9918.759623,-919.314598
3367.741412,814.226536,-9844.739029,0.000000
3367.741740,2368.659014,-9992.780217,-306.438199
3367.742068,2220.617826,-9622.677246,76.609550
3367.742395,-370.102971,-9770.718434,1608.800546
3367.742723,-1850.514855,-9030.512492,459.657299
3367.743050,-1184.329507,-8438.347739,-2068.457845
3367.743378,-1184.329507,-9992.780217,-2757.943793
3367.743705,-592.164754,-9844.739029,-1532.190996
3367.744033,296.082377,-10807.006753,-766.095498
3367.744360,962.267725,-10510.924376,689.485948
3367.744688,2220.617826,-9770.718434,-383.047749
3367.745015,1924.535449,-10955.047942,-1149.143247
3367.745343,814.226536,-9770.718434,536.266849
3367.745670,666.185348,-8956.491898,0.000000
3367.745998,1554.432478,-8586.388927,-383.047749
3367.746325,592.164754,-10140.821405,229.828649
3367.746653,-222.061783,-10510.924376,1225.752797
3367.746980,222.061783,-10362.883188,459.657299
3367.747308,1036.288319,-11029.068536,-995.924147
3367.747635,1480.411884,-9992.780217,-2068.457845
3367.747963,814.226536,-9844.739029,-306.438199
3367.748290,666.185348,-8068.244768,1378.971896
3367.748618,1036.288319,-6957.935855,1455.581446
3367.748945,-370.102971,-8364.327145,1225.752797
3367.749273,-1258.350101,-9770.718434,229.828649
3367.749601,-444.123565,-10140.821405,-766.095498
3367.749928,444.123565,-10214.842000,-1378.971896
3367.750256,1406.391290,-10658.965565,-919.314598
3367.750583,1036.288319,-10658.965565,0.000000
3367.750911,814.226536,-10214.842000,1149.143247
3367.751238,740.205942,-9030.512492,76.609550
3367.751566,-296.082377,-8438.347739,0.000000
3367.751893,-1184.329507,-8142.265362,-689.485948
3367.752221,-592.164754,-9326.594869,-306.438199
3367.752548,-1184.329507,-9844.739029,1225.752797
3367.752876,-1332.370696,-9770.718434,1685.410096
3367.753203,222.061783,-9104.533087,-153.219100
3367.753531,1480.411884,-8808.450710,-1532.190996
3367.753858,888.247130,-11695.253884,-1378.971896
3367.754186,-888.247130,-10732.986159,-229.828649
3367.754513,-1110.308913,-8512.368333,-766.095498
3367.754841,74.020594,-7402.059420,-1608.800546
3367.755168,1998.556043,-10658.965565,-1762.019645
3367.755496,-148.041188,-12731.542202,1762.019645
3367.755823,0.000000,-10807.006753,1991.848295
3367.756151,1998.556043,-9770.718434,-2221.676944
3367.756478,2590.720797,-11399.171507,-3064.381992
3367.756806,740.205942,-10510.924376,0.000000
3367.757134,-1480.411884,-7254.018232,1838.629195
3367.757461,-814.226536,-7105.977043,2068.457845
3367.757789,962.267725,-8586.388927,-306.438199
3367.758116,444.123565,-11103.089130,-842.705048
3367.758444,-592.164754,-10436.903782,306.438199
3367.758771,0.000000,-8882.471304,-229.828649
3367.759099,1332.370696,-11103.089130,-1455.581446
3367.759426,1628.453072,-11325.150913,-1991.848295
3367.759754,740.205942,-10658.965565,0.000000
3367.760081,814.226536,-7772.162391,2145.067394
3367.760409,1924.535449,-8586.388927,1302.362347
3367.760736,1258.350101,-8734.430116,1838.629195
3367.761064,-888.247130,-10584.944971,2145.067394
3367.761391,-2368.659014,-10510.924376,536.266849
3367.761719,-888.247130,-8512.368333,-1915.238745
3367.762046,0.000000,-8734.430116,-3677.258390
3367.762374,740.205942,-9474.636058,-2221.676944
3367.762701,74.020594,-11103.089130,2374.896044
3367.763029,1036.288319,-9992.780217,2374.896044
3367.763356,1776.494261,-8734.430116,153.219100
3367.763684,0.000000,-9030.512492,-306.438199
3367.764011,296.082377,-9622.677246,76.609550
3367.764339,222.061783,-8882.471304,0.000000
3367.764666,962.267725,-8068.244768,-919.314598
3367.764994,592.164754,-10214.842000,-1072.533697
3367.765322,1258.350101,-11917.315666,0.000000
3367.765649,2146.597232,-11695.253884,306.438199
3367.765977,1258.350101,-9992.780217,0.000000
3367.766304,518.144159,-10214.842000,459.657299
3367.766632,962.267725,-8364.327145,-536.266849
3367.766959,1332.370696,-7994.224174,0.000000
3367.767287,0.000000,-6809.894666,766.095498
3367.767614,-296.082377,-9474.636058,766.095498
3367.767942,-592.164754,-10732.986159,0.000000
3367.768269,2368.659014,-11029.068536,-2604.724693
3367.768597,1628.453072,-12435.459826,-2221.676944
3367.768924,444.123565,-11695.253884,-306.438199
3367.769252,222.061783,-9918.759623,842.705048
3367.769579,1184.329507,-9622.677246,153.219100
3367.769907,-370.102971,-9622.677246,689.485948
3367.770234,-1850.514855,-8290.306550,612.876398
3367.770562,-1998.556043,-7254.018232,-229.828649
3367.770889,-962.267725,-9104.533087,-1455.581446
3367.771217,222.061783,-10584.944971,-1915.238745
3367.771544,-296.082377,-9252.574275,1302.362347
3367.771872,222.061783,-9474.636058,2451.505594
3367.772199,296.082377,-9474.636058,1149.143247
3367.772527,518.144159,-9844.739029,-383.047749
3367.772854,-740.205942,-9770.718434,-842.705048
3367.773182,-1480.411884,-8068.244768,-842.705048
3367.773509,-518.144159,-7920.203579,-536.266849
3367.773837,74.020594,-9992.780217,-995.924147
3367.774164,666.185348,-11769.274478,0.000000
3367.774492,296.082377,-11769.274478,459.657299
3367.774820,0.000000,-10066.800811,0.000000
3367.775147,-962.267725,-9400.615463,383.047749
3367.775475,-666.185348,-9030.512492,-536.266849
3367.775802,-1110.308913,-9252.574275,306.438199
3367.776130,0.000000,-7846.182985,383.047749
3367.776457,888.247130,-8068.244768,0.000000
3367.776785,1850.514855,-9992.780217,-766.095498
3367.777112,1406.391290,-9770.718434,-1302.362347
3367.777440,-518.144159,-11103.089130,-153.219100
3367.777767,-444.123565,-10510.924376,-536.266849
3367.778095,888.247130,-10881.027347,-842.705048
3367.778422,1924.535449,-10214.842000,-612.876398
3367.778750,1036.288319,-9622.677246,1532.190996
3367.779077,-296.082377,-9474.636058,2757.943793
3367.779405,0.000000,-10955.047942,0.000000
3367.779732,-666.185348,-10584.944971,-3600.648841
3367.780060,-1184.329507,-9326.594869,-3983.696590
3367.780387,0.000000,-9548.656652,-1378.971896
3367.780715,-222.061783,-9844.739029,1225.752797
3367.781042,296.082377,-10732.986159,3217.601092
3367.781370,1776.494261,-9030.512492,1455.581446
3367.781697,1036.288319,-10140.821405,229.828649
3367.782025,740.205942,-9030.512492,-536.266849
3367.782352,518.144159,-7476.080014,-2374.896044
3367.782680,-1036.288319,-7550.100608,-1532.190996
3367.783007,740.205942,-8142.265362,-229.828649
3367.783335,814.226536,-11103.089130,842.705048
3367.783662,1406.391290,-11399.171507,2681.334243
3367.783990,2220.617826,-11251.130318,306.438199
3367.784317,1332.370696,-10955.047942,-383.047749
3367.784645,814.226536,-9474.636058,-306.438199
3367.784973,888.247130,-6587.832884,0.000000
3367.785300,0.000000,-5255.462188,-153.219100
3367.785628,-1184.329507,-7105.977043,306.438199
3367.785955,-666.185348,-9474.636058,153.219100
3367.786283,1628.453072,-11843.295072,-459.657299
3367.786610,1924.535449,-11843.295072,-1378.971896
3367.786938,1258.350101,-11103.089130,-1608.800546
3367.787265,1110.308913,-10881.027347,383.047749
3367.787593,666.185348,-11843.295072,153.219100
3367.787920,518.144159,-10140.821405,-306.438199
3367.788248,-518.144159,-9326.594869,-229.828649
3367.788575,-592.164754,-8290.306550,-1532.190996
3367.788903,148.041188,-9918.759623,-1838.629195
3367.789230,-888.247130,-10362.883188,-612.876398
3367.789558,-1406.391290,-10510.924376,1225.752797
3367.789885,-1110.308913,-9918.759623,1608.800546
3367.790213,1036.288319,-8586.388927,-229.828649
3367.790540,444.123565,-9252.574275,-1532.190996
3367.790868,-1184.329507,-9770.718434,229.828649
3367.791195,-518.144159,-9622.677246,229.828649
3367.791523,666.185348,-8586.388927,-2528.115143
3367.791850,1406.391290,-9326.594869,-1532.190996
3367.792178,-666.185348,-10807.006753,689.485948
3367.792505,-1480.411884,-10066.800811,1532.190996
3367.792833,444.123565,-9918.759623,-459.657299
3367.793160,518.144159,-10732.986159,-1302.362347
3367.793488,-740.205942,-10436.903782,-306.438199
3367.793815,-666.185348,-8364.327145,1455.581446
3367.794143,-444.123565,-7698.141797,1225.752797
3367.794470,1332.370696,-6809.894666,-536.266849
3367.794798,1628.453072,-9400.615463,-1072.533697
3367.795126,-518.144159,-11177.109724,306.438199
3367.795453,-1554.432478,-9696.697840,0.000000
3367.795781,-370.102971,-8142.265362,-1149.143247
3367.796108,666.185348,-10362.883188,-995.924147
3367.796436,1702.473667,-12213.398043,-229.828649
3367.796763,962.267725,-10066.800811,2221.676944
3367.797091,370.102971,-9030.512492,1455.581446
3367.797418,592.164754,-10510.924376,-1149.143247
3367.797746,592.164754,-11621.233289,-2834.553343
3367.798073,-148.041188,-9770.718434,-2451.505594
3367.798401,0.000000,-8438.347739,-1149.143247
3367.798728,1184.329507,-10066.800811,229.828649
3367.799056,1924.535449,-11473.192101,2145.067394
3367.799383,2220.617826,-10288.862594,842.705048
3367.799711,74.020594,-9030.512492,612.876398
3367.800038,-1480.411884,-9252.574275,-766.095498
3367.800366,-370.102971,-7994.224174,-3294.210641
3367.800693,74.020594,-7920.203579,-3140.991542
3367.801021,-222.061783,-8512.368333,-1378.971896
3367.801348,0.000000,-9030.512492,1991.848295
3367.801676,2368.659014,-10658.965565,2298.286494
3367.802003,3478.967927,-12213.398043,229.828649
3367.802331,2294.638420,-13175.665768,0.000000
3367.802658,296.082377,-10658.965565,229.828649
3367.802986,740.205942,-6365.771101,-1225.752797
3367.803313,2590.720797,-5033.400406,-1149.143247
3367.803641,814.226536,-7698.141797,766.095498
3367.803968,-1554.432478,-10288.862594,2757.943793
3367.804296,-814.226536,-9918.759623,1149.143247
3367.804623,1850.514855,-10658.965565,-2604.724693
3367.804951,3627.009116,-12805.562797,-3294.210641
3367.805279,2072.576638,-12287.418637,0.000000
3367.805606,592.164754,-9400.615463,1762.019645
3367.805934,148.041188,-8660.409521,0.000000
3367.806261,1110.308913,-9622.677246,-1608.800546
3367.806589,74.020594,-10362.883188,-1532.190996
3367.806916,-2072.576638,-8956.491898,306.438199
3367.807244,-1702.473667,-7846.182985,-153.219100
3367.807571,-592.164754,-9770.718434,-612.876398
3367.807899,518.144159,-11177.109724,-229.828649
3367.808226,148.041188,-10955.047942,-229.828649
3367.808554,-296.082377,-9400.615463,459.657299
3367.808881,0.000000,-9474.636058,-995.924147
3367.809209,666.185348,-9474.636058,-1915.238745
3367.809536,0.000000,-9474.636058,-1455.581446
3367.809864,-1110.308913,-9400.615463,612.876398
3367.810191,-370.102971,-9622.677246,2145.067394
3367.810519,814.226536,-9918.759623,306.438199
3367.810846,74.020594,-11473.192101,-689.485948
3367.811174,-740.205942,-10807.006753,-919.314598
3367.811501,-1628.453072,-9104.533087,-766.095498
3367.811829,-962.267725,-9474.636058,-536.266849
3367.812156,666.185348,-9622.677246,-153.219100
3367.812484,740.205942,-8734.430116,459.657299
3367.812811,444.123565,-8142.265362,2528.115143
3367.813139,740.205942,-9252.574275,919.314598
3367.813466,370.102971,-9474.636058,-612.876398
3367.813794,-296.082377,-8364.327145,-995.924147
3367.814121,-1480.411884,-9178.553681,-536.266849
3367.814449,148.041188,-9918.759623,0.000000
3367.814777,1480.411884,-8882.471304,383.047749
3367.815104,444.123565,-10140.821405,536.266849
3367.815432,-1110.308913,-12213.398043,229.828649
3367.815759,-518.144159,-12065.356855,-2451.505594
3367.816087,-592.164754,-9474.636058,-2681.334243
3367.816414,444.123565,-8660.409521,-1685.410096
3367.816742,1036.288319,-9992.780217,229.828649
3367.817069,1480.411884,-11843.295072,2451.505594
3367.817397,1258.350101,-9474.636058,1838.629195
3367.817724,1258.350101,-9474.636058,-919.314598
3367.818052,-444.123565,-7550.100608,-1915.238745
3367.818379,-962.267725,-8882.471304,-1685.410096
3367.818707,-666.185348,-8734.430116,-1149.143247
3367.819034,222.061783,-7994.224174,-459.657299
3367.819362,518.144159,-9104.533087,1072.533697
3367.819689,3034.844362,-11103.089130,1455.581446
3367.820017,3701.029710,-11991.336260,995.924147
3367.820344,2368.659014,-10955.047942,306.438199
3367.820672,74.020594,-10436.903782,-229.828649
3367.820999,962.267725,-8512.368333,-1378.971896
3367.821327,3330.926739,-6883.915261,-995.924147
3367.821654,1036.288319,-7254.018232,1685.410096
3367.821982,-2072.576638,-8882.471304,4213.525239
3367.822309,-2146.597232,-9770.718434,1302.362347
3367.822637,962.267725,-9844.739029,-2757.943793
3367.822964,2294.638420,-11843.295072,-4213.525239
3367.823292,962.267725,-11843.295072,-766.095498
3367.823619,1554.432478,-9622.677246,1378.971896
3367.823947,3034.844362,-7476.080014,-689.485948
3367.824274,1850.514855,-10066.800811,0.000000
3367.824602,-1406.391290,-10436.903782,383.047749
3367.824930,-2960.823768,-8734.430116,383.047749
3367.825257,-2516.700203,-7846.182985,-459.657299
3367.825585,296.082377,-9326.594869,-1915.238745
3367.825912,296.082377,-11547.212695,306.438199
3367.826240,74.020594,-11251.130318,-229.828649
3367.826567,-222.061783,-8956.491898,-306.438199
3367.826895,888.247130,-9178.553681,-2451.505594
3367.827222,148.041188,-10732.986159,-1915.238745
3367.827550,-1702.473667,-9474.636058,0.000000
3367.827877,-1776.494261,-7698.141797,1302.362347
3367.828205,-296.082377,-7698.141797,689.485948
3367.828532,1628.453072,-10436.903782,766.095498
3367.828860,814.226536,-12509.480420,689.485948
3367.829187,-1850.514855,-10584.944971,0.000000
3367.829515,-1702.473667,-8660.409521,-2298.286494
3367.829842,0.000000,-8586.388927,-3753.867940
3367.830170,148.041188,-12065.356855,-1302.362347
3367.830497,-592.164754,-10436.903782,2145.067394
3367.830825,-592.164754,-8068.244768,3140.991542
3367.831152,962.267725,-9844.739029,2068.457845
3367.831480,2368.659014,-10584.944971,-1225.752797
3367.831807,-296.082377,-9474.636058,-919.314598
3367.832135,-1850.514855,-7402.059420,76.609550
3367.832462,-740.205942,-8216.285956,-459.657299
3367.832790,2220.617826,-8364.327145,-2987.772442
3367.833117,1702.473667,-9326.594869,612.876398
3367.833445,-962.267725,-11399.171507,3217.601092
3367.833772,-740.205942,-12139.377449,919.314598
3367.834100,-222.061783,-10955.047942,-2604.724693
3367.834427,814.226536,-8586.388927,-3600.648841
3367.834755,0.000000,-9622.677246,-1225.752797
3367.835083,888.247130,-9178.553681,2451.505594
3367.835410,2368.659014,-9104.533087,2451.505594
3367.835738,3330.926739,-10066.800811,383.047749
3367.836065,2812.782580,-11621.233289,-919.314598
3367.836393,-666.185348,-8882.471304,-612.876398
3367.836720,-2294.638420,-6809.894666,76.609550
3367.837048,-1480.411884,-7105.977043,-919.314598
3367.837375,148.041188,-9474.636058,-383.047749
3367.837703,888.247130,-12731.542202,383.047749
3367.838030,2146.597232,-10214.842000,383.047749
3367.838358,3404.947333,-9918.759623,-919.314598
3367.838685,2294.638420,-10658.965565,-1532.190996
3367.839013,666.185348,-10584.944971,-459.657299
3367.839340,0.000000,-7846.182985,919.314598
3367.839668,222.061783,-5921.647536,919.314598
3367.839995,-1036.288319,-8808.450710,1302.362347
3367.840323,-814.226536,-11473.192101,1455.581446
3367.840650,-888.247130,-11177.109724,-536.266849
3367.840978,814.226536,-10362.883188,-2681.334243
3367.841305,1406.391290,-9770.718434,-3140.991542
3367.841633,814.226536,-10881.027347,-1455.581446
3367.841960,1332.370696,-9918.759623,612.876398
3367.842288,1924.535449,-8586.388927,2068.457845
3367.842615,814.226536,-10288.862594,2987.772442
3367.842943,-962.267725,-9178.553681,1762.019645
3367.843270,-962.267725,-8660.409521,-995.924147
3367.843598,-1850.514855,-10955.047942,-1072.533697
3367.843925,-1924.535449,-10807.006753,-1149.143247
3367.844253,-666.185348,-9770.718434,-1072.533697
3367.844580,370.102971,-9104.533087,-919.314598
3367.844908,962.267725,-9918.759623,-1149.143247
3367.845236,0.000000,-9992.780217,689.485948
3367.845563,-1480.411884,-9030.512492,919.314598
3367.845891,-1554.432478,-7179.997637,-383.047749
3367.846218,296.082377,-8734.430116,0.000000
3367.846546,222.061783,-10436.903782,1225.752797
3367.846873,0.000000,-9252.574275,2298.286494
3367.847201,1332.370696,-10066.800811,0.000000
3367.847528,962.267725,-9326.594869,-2451.505594
3367.847856,370.102971,-11399.171507,-1838.629195
3367.848183,-814.226536,-9030.512492,0.000000
3367.848511,-1702.473667,-8438.347739,612.876398
3367.848838,-1332.370696,-9400.615463,383.047749
3367.849166,888.247130,-11103.089130,0.000000
3367.849493,148.041188,-10658.965565,1225.752797
3367.849821,814.226536,-8438.347739,1149.143247
3367.850148,814.226536,-9252.574275,-1149.143247
3367.850476,666.185348,-8882.471304,-2451.505594
3367.850803,962.267725,-9844.739029,-2374.896044
3367.851131,370.102971,-9622.677246,-306.438199
3367.851458,2368.659014,-9696.697840,1302.362347
3367.851786,1110.308913,-8882.471304,2451.505594
3367.852113,370.102971,-11473.192101,1991.848295
3367.852441,-962.267725,-12879.583391,-689.485948
3367.852768,0.000000,-11251.130318,-3217.601092
3367.853096,814.226536,-8734.430116,-4519.963438
3367.853423,814.226536,-9474.636058,-612.876398
3367.853751,1406.391290,-10510.924376,1608.800546
3367.854078,2960.823768,-9918.759623,2681.334243
3367.854406,1332.370696,-10584.944971,2757.943793
3367.854734,-444.123565,-8438.347739,536.266849
3367.855061,0.000000,-7846.182985,-1838.629195
3367.855389,-1332.370696,-8142.265362,-995.924147
3367.855716,-1628.453072,-7920.203579,76.609550
3367.856044,-1110.308913,-9326.594869,-153.219100
3367.856371,740.205942,-10214.842000,153.219100
3367.856699,3108.864956,-11325.150913,-766.095498
3367.857026,2368.659014,-10732.986159,153.219100
3367.857354,0.000000,-8438.347739,2068.457845
3367.857681,0.000000,-7476.080014,766.095498
3367.858009,1258.350101,-8142.265362,153.219100
3367.858336,740.205942,-8068.244768,919.314598
3367.858664,74.020594,-7105.977043,1149.143247
3367.858991,-1110.308913,-9252.574275,1838.629195
3367.859319,444.123565,-11103.089130,-2221.676944
3367.859646,1258.350101,-12213.398043,-4366.744339
3367.859974,1480.411884,-11251.130318,-1915.238745
3367.860301,1332.370696,-9548.656652,0.000000
3367.860629,1776.494261,-9992.780217,1302.362347
3367.860956,2442.679609,-9696.697840,1455.581446
3367.861284,888.247130,-11843.295072,1149.143247
3367.861611,-592.164754,-10066.800811,0.000000
3367.861939,-2368.659014,-7624.121203,-2145.067394
3367.862266,-1110.308913,-9326.594869,-3447.429741
3367.862594,-740.205942,-11621.233289,-2374.896044
3367.862921,-1184.329507,-11547.212695,919.314598
3367.863249,-962.267725,-9548.656652,1455.581446
3367.863577,0.000000,-8882.471304,306.438199
3367.863904,222.061783,-10436.903782,-1072.533697
3367.864232,-814.226536,-8956.491898,-995.924147
3367.864559,-1332.370696,-8290.306550,0.000000
3367.864887,740.205942,-8956.491898,-229.828649
3367.865214,2368.659014,-10436.903782,-383.047749
3367.865542,814.226536,-11621.233289,1225.752797
3367.865870,-222.061783,-9474.636058,1608.800546
3367.866197,-1480.411884,-9474.636058,536.266849
3367.866525,-1036.288319,-8882.471304,-842.705048
3367.866852,-518.144159,-8364.327145,-1915.238745
3367.867180,-1332.370696,-8956.491898,229.828649
3367.867507,-1110.308913,-8660.409521,1455.581446
3367.867835,148.041188,-8956.491898,536.266849
3367.868163,888.247130,-9252.574275,995.924147
3367.868490,888.247130,-9992.780217,-306.438199
3367.868818,-370.102971,-9696.697840,459.657299
3367.869145,148.041188,-9030.512492,383.047749
3367.869473,1628.453072,-8364.327145,-1532.190996
3367.869800,2738.761985,-9770.718434,-383.047749
3367.870128,1776.494261,-9474.636058,536.266849
3367.870456,0.000000,-9474.636058,2221.676944
3367.870783,0.000000,-10881.027347,306.438199
3367.871111,1036.288319,-11325.150913,-3370.820191
3367.871438,74.020594,-11547.212695,-3907.087040
3367.871766,-370.102971,-9400.615463,-1608.800546
3367.872093,666.185348,-9992.780217,-229.828649
3367.872421,2220.617826,-10584.944971,536.266849
3367.872749,3182.885551,-9844.739029,1149.143247
3367.873076,1110.308913,-10436.903782,306.438199
3367.873404,666.185348,-9696.697840,-689.485948
3367.873731,1258.350101,-8660.409521,-1608.800546
3367.874059,814.226536,-8882.471304,-919.314598
3367.874386,0.000000,-9918.759623,-229.828649
3367.874714,-888.247130,-10732.986159,612.876398
3367.875041,0.000000,-10732.986159,1302.362347
3367.875369,1924.535449,-9770.718434,-612.876398
3367.875697,2442.679609,-10881.027347,-995.924147
3367.876024,-592.164754,-9548.656652,1532.190996
3367.876352,296.082377,-7031.956449,1762.019645
3367.876679,1554.432478,-6069.688724,1072.533697
3367.877007,2516.700203,-7105.977043,229.828649
3367.877334,74.020594,-10288.862594,1532.190996
3367.877662,-1554.432478,-9696.697840,1225.752797
3367.877990,222.061783,-9104.533087,-1608.800546
3367.878317,2368.659014,-10732.986159,-2681.334243
3367.878645,2664.741391,-11621.233289,-612.876398
3367.878972,1480.411884,-10436.903782,1762.019645
3367.879300,1628.453072,-8290.306550,2298.286494
3367.879627,3034.844362,-10362.883188,766.095498
3367.879955,1850.514855,-11547.212695,-995.924147
3367.880283,-1184.329507,-9770.718434,-153.219100
3367.880610,-3330.926739,-6957.935855,0.000000
3367.880938,-3849.070898,-9474.636058,-1532.190996
3367.881265,-2738.761985,-10362.883188,-1532.190996
3367.881593,-1332.370696,-12213.398043,-383.047749
3367.881920,-1480.411884,-9992.780217,-306.438199
3367.882248,-1184.329507,-9326.594869,-383.047749
3367.882576,-222.061783,-9696.697840,-1378.971896
3367.882903,592.164754,-9252.574275,-2221.676944
3367.883231,-592.164754,-9770.718434,-306.438199
3367.883558,-370.102971,-9474.636058,1455.581446
3367.883886,0.000000,-11547.212695,1455.581446
3367.884213,148.041188,-10066.800811,842.705048
3367.884541,444.123565,-10066.800811,-459.657299
3367.884869,-1850.514855,-10732.986159,-306.438199
3367.885196,-1850.514855,-7994.224174,-306.438199
3367.885524,-1628.453072,-7846.182985,-1302.362347
3367.885851,-592.164754,-9326.594869,-1838.629195
3367.886179,74.020594,-10214.842000,-306.438199
3367.886506,-370.102971,-9770.718434,1455.581446
3367.886834,-888.247130,-8808.450710,1685.410096
3367.887162,222.061783,-8660.409521,383.047749
3367.887489,814.226536,-9844.739029,-229.828649
3367.887817,222.061783,-9474.636058,-766.095498
3367.888144,1554.432478,-9474.636058,-612.876398
3367.888472,2812.782580,-8734.430116,-1072.533697
3367.888799,2294.638420,-9622.677246,1149.143247
3367.889127,-444.123565,-10436.903782,1915.238745
3367.889455,-1628.453072,-11177.109724,0.000000
3367.889782,-1184.329507,-10288.862594,-2834.553343
3367.890110,0.000000,-8216.285956,-4290.134789
3367.890437,962.267725,-10584.944971,-1915.238745
3367.890765,592.164754,-10140.821405,766.095498
3367.891092,2812.782580,-8734.430116,2451.505594
3367.891420,3182.885551,-10584.944971,612.876398
3367.891748,3478.967927,-11177.109724,-536.266849
3367.892075,1628.453072,-8808.450710,-1225.752797
3367.892403,370.102971,-7476.080014,383.047749
3367.892730,-370.102971,-7476.080014,-689.485948
3367.893058,-740.205942,-9622.677246,-1149.143247
3367.893385,296.082377,-12731.542202,842.705048
3367.893713,740.205942,-11843.295072,0.000000
3367.894041,1332.370696,-10066.800811,-919.314598
3367.894368,1554.432478,-9326.594869,-1685.410096
3367.894696,1480.411884,-9252.574275,-536.266849
3367.895023,1258.350101,-7698.141797,1225.752797
3367.895351,666.185348,-6143.709319,2298.286494
3367.895678,-1998.556043,-7476.080014,3140.991542
3367.896006,0.000000,-10140.821405,1072.533697
3367.896334,1184.329507,-11695.253884,-2145.067394
3367.896661,1184.329507,-11547.212695,-1455.581446
3367.896989,2072.576638,-10658.965565,-612.876398
3367.897316,592.164754,-9770.718434,0.000000
3367.897644,2294.638420,-8290.306550,-919.314598
3367.897971,2590.720797,-9770.718434,153.219100
3367.898299,-148.041188,-11177.109724,2374.896044
3367.898627,-1480.411884,-9918.759623,1608.800546
3367.898954,-592.164754,-8142.265362,-306.438199
3367.899282,-1036.288319,-8956.491898,-2221.676944
3367.899609,-2368.659014,-10955.047942,-1762.019645
3367.899937,-2960.823768,-10510.924376,689.485948
3367.900264,-1480.411884,-8956.491898,-459.657299
3367.900592,0.000000,-8882.471304,-2681.334243
3367.900920,-666.185348,-10658.965565,-1915.238745
3367.901247,-1480.411884,-8882.471304,306.438199
3367.901575,-888.247130,-8364.327145,1149.143247
3367.901902,1480.411884,-9622.677246,1149.143247
3367.902230,1776.494261,-12139.377449,306.438199
3367.902557,-148.041188,-11177.109724,-383.047749
3367.902885,-1110.308913,-9178.553681,0.000000
3367.903213,-1110.308913,-9992.780217,-1762.019645
3367.903540,74.020594,-9622.677246,-2068.457845
3367.903868,-1480.411884,-9030.512492,-153.219100
3367.904195,-2590.720797,-8808.450710,766.095498
3367.904523,-1480.411884,-9030.512492,612.876398
3367.904850,740.205942,-8808.450710,-1225.752797
3367.905178,0.000000,-10436.903782,0.000000
3367.905505,-666.185348,-9622.677246,306.438199
3367.905833,-592.164754,-9030.512492,76.609550
3367.906161,962.267725,-9474.636058,-1149.143247
3367.906488,2590.720797,-10066.800811,-1532.190996
3367.906816,3552.988522,-10140.821405,153.219100
3367.907143,2220.617826,-9474.636058,2604.724693
3367.907471,222.061783,-9770.718434,3064.381992
3367.907798,-296.082377,-9992.780217,1455.581446
3367.908126,-1480.411884,-10732.986159,-2145.067394
3367.908454,-962.267725,-9474.636058,-3140.991542
3367.908781,592.164754,-9474.636058,-2911.162892
3367.909109,1480.411884,-9696.697840,-536.266849
3367.909436,3997.112087,-10436.903782,1608.800546
3367.909764,3478.967927,-10955.047942,1302.362347
3367.910091,2368.659014,-10288.862594,995.924147
3367.910419,1332.370696,-7402.059420,153.219100
3367.910747,1406.391290,-7179.997637,459.657299
3367.911074,0.000000,-8734.430116,76.609550
3367.911402,0.000000,-9474.636058,76.609550
3367.911729,-1924.535449,-11177.109724,459.657299
3367.912057,-222.061783,-10807.006753,-1838.629195
3367.912384,2146.597232,-11843.295072,-3217.601092
3367.912712,1110.308913,-11399.171507,-1838.629195
3367.913040,-444.123565,-9326.594869,229.828649
3367.913367,370.102971,-7402.059420,1225.752797
3367.913695,2442.679609,-6439.791695,1302.362347
3367.914022,1406.391290,-9770.718434,1838.629195
3367.914350,0.000000,-10881.027347,1838.629195
3367.914677,0.000000,-9622.677246,76.609550
3367.915005,1406.391290,-10214.842000,-2834.553343
3367.915333,2294.638420,-11917.315666,-3677.258390
3367.915660,1184.329507,-12139.377449,-1378.971896
3367.915988,1036.288319,-9178.553681,536.266849
3367.916315,1480.411884,-8364.327145,766.095498
3367.916643,2072.576638,-12509.480420,1608.800546
3367.916970,-222.061783,-11103.089130,919.314598
3367.917298,-2368.659014,-7476.080014,1072.533697
3367.917626,-3404.947333,-7772.162391,-919.314598
3367.917953,-1110.308913,-8512.368333,-2145.067394
3367.918281,-2146.597232,-9622.677246,-1762.019645
3367.918608,-1998.556043,-9104.533087,153.219100
3367.918936,-888.247130,-9252.574275,0.000000
3367.919263,74.020594,-9474.636058,-766.095498
3367.919591,-592.164754,-9104.533087,383.047749
3367.919919,-444.123565,-9622.677246,1149.143247
3367.920246,1332.370696,-8660.409521,1532.190996
3367.920574,1924.535449,-10807.006753,995.924147
3367.920901,740.205942,-11177.109724,0.000000
3367.921229,1480.411884,-10807.006753,-1608.800546
3367.921556,0.000000,-9474.636058,-1302.362347
3367.921884,-1184.329507,-8438.347739,-229.828649
3367.922212,-2738.761985,-8882.471304,229.828649
3367.922539,-2738.761985,-9844.739029,766.095498
3367.922867,-1332.370696,-8882.471304,-1302.362347
3367.923194,-296.082377,-7994.224174,-306.438199
3367.923522,666.185348,-10140.821405,153.219100
3367.923849,1702.473667,-11177.109724,0.000000
3367.924177,1258.350101,-11029.068536,-612.876398
3367.924505,222.061783,-9030.512492,-2145.067394
3367.924832,740.205942,-10066.800811,-1685.410096
3367.925160,1628.453072,-10288.862594,-459.657299
3367.925487,1184.329507,-10288.862594,1455.581446
3367.925815,1110.308913,-10436.903782,2145.067394
3367.926142,2368.659014,-10955.047942,383.047749
3367.926470,1554.432478,-11177.109724,-1072.533697
3367.926798,-148.041188,-8808.450710,-1455.581446
3367.927125,-740.205942,-8882.471304,-1149.143247
3367.927453,0.000000,-9104.533087,-1608.800546
3367.927780,2220.617826,-9474.636058,-459.657299
3367.928108,1406.391290,-9844.739029,2068.457845
3367.928435,2368.659014,-9326.594869,3447.429741
3367.928763,1480.411884,-10066.800811,2221.676944
3367.929091,1258.350101,-10436.903782,689.485948
3367.929418,666.185348,-8364.327145,-1838.629195
3367.929746,-888.247130,-6957.935855,-2528.115143
3367.930073,-962.267725,-10288.862594,-1685.410096
3367.930401,-444.123565,-11917.315666,-1225.752797
3367.930728,592.164754,-11325.150913,-995.924147
3367.931056,0.000000,-10362.883188,-766.095498
3367.931384,222.061783,-9770.718434,0.000000
3367.931711,1258.350101,-9622.677246,1838.629195
3367.932039,1406.391290,-7402.059420,1532.190996
3367.932366,296.082377,-7846.182985,2681.334243
3367.932694,592.164754,-7624.121203,306.438199
3367.933021,2220.617826,-9548.656652,-919.314598
3367.933349,1850.514855,-10510.924376,-1378.971896
3367.933677,1258.350101,-9622.677246,-1072.533697
3367.934004,-296.082377,-10066.800811,-995.924147
3367.934332,444.123565,-8512.368333,-153.219100
3367.934659,1776.494261,-9474.636058,-919.314598
3367.934987,74.020594,-12361.439231,1225.752797
3367.935314,-740.205942,-12953.603985,2145.067394
3367.935642,0.000000,-9474.636058,-1685.410096
3367.935969,666.185348,-9252.574275,-4596.572988
3367.936297,-740.205942,-11103.089130,-2604.724693
3367.936625,-2146.597232,-10288.862594,153.219100
3367.936952,-3108.864956,-8586.388927,1532.190996
3367.937280,-1184.329507,-8512.368333,-229.828649
3367.937607,-814.226536,-9474.636058,-1532.190996
3367.937935,-1480.411884,-9252.574275,229.828649
3367.938262,-1332.370696,-9548.656652,1685.410096
3367.938590,2368.659014,-8512.368333,0.000000
3367.938918,3404.947333,-10955.047942,-1149.143247
3367.939245,1776.494261,-11769.274478,-306.438199
3367.939573,-222.061783,-10140.821405,1532.190996
3367.939900,-1332.370696,-9844.739029,1532.190996
3367.940228,74.020594,-8882.471304,-229.828649
3367.940555,-1850.514855,-9992.780217,76.609550
3367.940883,-2294.638420,-8216.285956,766.095498
3367.941211,-1702.473667,-7624.121203,-229.828649
3367.941538,-814.226536,-7698.141797,306.438199
3367.941866,296.082377,-9992.780217,-1455.581446
3367.942193,74.020594,-11843.295072,-1838.629195
3367.942521,-370.102971,-8808.450710,-995.924147
3367.942848,666.185348,-8364.327145,-153.219100
3367.943176,2516.700203,-10214.842000,1072.533697
3367.943504,4219.173869,-11547.212695,919.314598
3367.943831,2664.741391,-9474.636058,1838.629195
3367.944159,592.164754,-8364.327145,1378.971896
3367.944486,1554.432478,-9030.512492,-459.657299
3367.944814,2146.597232,-10881.027347,-1838.629195
3367.945141,-370.102971,-10066.800811,-1608.800546
3367.945469,-1184.329507,-9622.677246,-459.657299
3367.945797,0.000000,-9696.697840,-1608.800546
3367.946124,2072.576638,-10955.047942,-1532.190996
3367.946452,1924.535449,-11917.315666,76.609550
3367.946779,2072.576638,-9918.759623,842.705048
3367.947107,1850.514855,-7994.224174,229.828649
3367.947434,1776.494261,-7920.203579,842.705048
3367.947762,74.020594,-10066.800811,153.219100
3367.948090,-1406.391290,-10584.944971,0.000000
3367.948417,-2294.638420,-9918.759623,-766.095498
3367.948745,-1258.350101,-9326.594869,-3294.210641
3367.949072,-296.082377,-10658.965565,-2451.505594
3367.949400,444.123565,-13101.645173,-459.657299
3367.949727,518.144159,-11103.089130,1149.143247
3367.950055,814.226536,-9104.533087,919.314598
3367.950383,2146.597232,-7328.038826,-612.876398
3367.950710,1924.535449,-8438.347739,459.657299
3367.951038,-814.226536,-6883.915261,1302.362347
3367.951365,-1480.411884,-6069.688724,1302.362347
3367.951693,-518.144159,-8660.409521,459.657299
3367.952020,2294.638420,-10732.986159,-842.705048
3367.952348,2220.617826,-11621.233289,76.609550
3367.952676,1480.411884,-10362.883188,995.924147
3367.953003,2220.617826,-10140.821405,0.000000
3367.953331,3849.070898,-10658.965565,-1608.800546
3367.953658,1110.308913,-11991.336260,-919.314598
3367.953986,-1702.473667,-9326.594869,-536.266849
3367.954313,-2146.597232,-7994.224174,76.609550
3367.954641,-1480.411884,-9696.697840,-995.924147
3367.954969,-296.082377,-11251.130318,-1532.190996
3367.955296,-1258.350101,-10955.047942,-612.876398
3367.955624,-1110.308913,-8142.265362,-306.438199
3367.955951,-814.226536,-8512.368333,-1378.971896
3367.956279,-296.082377,-8660.409521,-1532.190996
3367.956606,222.061783,-9844.739029,-919.314598
3367.956934,296.082377,-9696.697840,383.047749
3367.957262,2368.659014,-10510.924376,229.828649
3367.957589,1480.411884,-11621.233289,689.485948
3367.957917,2294.638420,-11843.295072,1532.190996
3367.958244,1998.556043,-10362.883188,1302.362347
3367.958572,518.144159,-8956.491898,536.266849
3367.958899,-518.144159,-8068.244768,0.000000
3367.959227,-444.123565,-7476.080014,-1532.190996
3367.959555,-888.247130,-8956.491898,-306.438199
3367.959882,-962.267725,-8438.347739,-153.219100
3367.960210,-740.205942,-10510.924376,766.095498
3367.960537,-222.061783,-10140.821405,229.828649
3367.960865,814.226536,-9178.553681,-1072.533697
3367.961192,1406.391290,-10807.006753,-995.924147
3367.961520,1480.411884,-9992.780217,-536.266849
3367.961848,1776.494261,-9030.512492,229.828649
3367.962175,1480.411884,-7920.203579,612.876398
3367.962503,1406.391290,-9474.636058,1302.362347
3367.962830,0.000000,-10288.862594,919.314598
3367.963158,-148.041188,-10140.821405,1149.143247
3367.963485,-1332.370696,-9474.636058,-459.657299
3367.963813,-1036.288319,-9622.677246,-1915.238745
3367.964141,296.082377,-10214.842000,-2221.676944
3367.964468,0.000000,-9474.636058,229.828649
3367.964796,148.041188,-9548.656652,-383.047749
3367.965123,814.226536,-9474.636058,0.000000
3367.965451,2072.576638,-9474.636058,-689.485948
3367.965779,1110.308913,-10436.903782,1072.533697
3367.966107,-518.144159,-10658.965565,1915.238745
3367.966434,-1924.535449,-9992.780217,-153.219100
3367.966762,-1406.391290,-10732.986159,-1532.190996
3367.967090,-888.247130,-9918.759623,-3677.258390
3367.967417,-1480.411884,-10066.800811,-2451.505594
3367.967745,-444.123565,-10066.800811,-229.828649
3367.968073,592.164754,-9992.780217,536.266849
3367.968401,1628.453072,-11399.171507,612.876398
3367.968728,1406.391290,-10066.800811,1225.752797
3367.969056,0.000000,-9474.636058,1378.971896
3367.969384,-1110.308913,-6735.874072,919.314598
3367.969711,-370.102971,-6661.853478,-612.876398
3367.970039,0.000000,-9104.533087,-612.876398
3367.970367,1184.329507,-9326.594869,459.657299
3367.970695,1480.411884,-9474.636058,612.876398
3367.971022,2516.700203,-9992.780217,1072.533697
3367.971350,2590.720797,-10732.986159,0.000000
3367.971678,2072.576638,-11177.109724,153.219100
3367.972005,-222.061783,-11473.192101,383.047749
3367.972333,-1850.514855,-9252.574275,-306.438199
3367.972661,-888.247130,-8068.244768,-1685.410096
3367.972988,148.041188,-8882.471304,-689.485948
3367.973316,888.247130,-9918.759623,0.000000
3367.973644,74.020594,-9474.636058,919.314598
3367.973972,-592.164754,-8216.285956,919.314598
3367.974299,888.247130,-8882.471304,-1149.143247
3367.974627,296.082377,-8512.368333,-1302.362347
3367.974955,-1110.308913,-8956.491898,153.219100
3367.975282,-814.226536,-9104.533087,766.095498
3367.975610,2886.803174,-10732.986159,-842.705048
3367.975938,3256.906145,-12287.418637,-612.876398
3367.976266,2368.659014,-11843.295072,536.266849
3367.976593,592.164754,-9548.656652,1149.143247
3367.976921,444.123565,-8438.347739,689.485948
3367.977249,-666.185348,-9474.636058,-612.876398
3367.977576,-1924.535449,-10066.800811,-536.266849
3367.977904,-2516.700203,-8808.450710,-229.828649
3367.978232,-888.247130,-9770.718434,0.000000
3367.978559,-222.061783,-9918.759623,-1149.143247
3367.978887,592.164754,-11029.068536,-842.705048
3367.979215,-518.144159,-10214.842000,-306.438199
3367.979543,370.102971,-8734.430116,-919.314598
3367.979870,1850.514855,-9400.615463,-842.705048
3367.980198,2516.700203,-10288.862594,0.000000
3367.980526,222.061783,-10140.821405,2451.505594
3367.980853,-592.164754,-9474.636058,2451.505594
3367.981181,222.061783,-7254.018232,612.876398
3367.981509,666.185348,-9696.697840,-1072.533697
3367.981837,-1036.288319,-10807.006753,-612.876398
3367.982164,-1702.473667,-10436.903782,-766.095498
3367.982492,-444.123565,-9104.533087,-3064.381992
3367.982820,74.020594,-8512.368333,-2757.943793
3367.983147,-1110.308913,-10881.027347,-995.924147
3367.983475,-1184.329507,-10807.006753,1455.581446
3367.983803,-666.185348,-8956.491898,1072.533697
3367.984131,-222.061783,-8216.285956,1149.143247
3367.984458,222.061783,-9104.533087,76.609550
3367.984786,-2294.638420,-10288.862594,919.314598
3367.985114,-3108.864956,-8586.388927,-306.438199
3367.985441,-2960.823768,-7179.997637,-2374.896044
3367.985769,-1480.411884,-9844.739029,-3600.648841
3367.986097,-1110.308913,-11177.109724,-1991.848295
3367.986424,-296.082377,-11695.253884,459.657299
3367.986752,370.102971,-11547.212695,1302.362347
3367.987080,2294.638420,-10288.862594,-306.438199
3367.987408,2442.679609,-9400.615463,306.438199
3367.987735,1332.370696,-7550.100608,0.000000
3367.988063,518.144159,-6883.915261,229.828649
3367.988391,666.185348,-8068.244768,153.219100
3367.988718,2368.659014,-9474.636058,-229.828649
3367.989046,3478.967927,-11251.130318,-383.047749
3367.989374,2960.823768,-10436.903782,536.266849
3367.989702,2368.659014,-9992.780217,1072.533697
3367.990029,2886.803174,-11251.130318,229.828649
3367.990357,2368.659014,-13027.624579,-689.485948
3367.990685,1480.411884,-10066.800811,-1915.238745
3367.991012,74.020594,-7105.977043,-689.485948
3367.991340,740.205942,-8734.430116,612.876398
3367.991668,2442.679609,-10140.821405,-459.657299
3367.991995,1998.556043,-10140.821405,-306.438199
3367.992323,1480.411884,-8586.388927,383.047749
3367.992651,518.144159,-8586.388927,0.000000
3367.992979,1776.494261,-8882.471304,-306.438199
3367.993306,1702.473667,-9104.533087,229.828649
3367.993634,1110.308913,-10214.842000,995.924147
3367.993962,2220.617826,-11177.109724,0.000000
3367.994289,3182.885551,-11177.109724,-1072.533697
3367.994617,3923.091493,-10436.903782,-689.485948
3367.994945,2220.617826,-10955.047942,1072.533697
3367.995273,666.185348,-9104.533087,2298.286494
3367.995600,-1850.514855,-7476.080014,1838.629195
3367.995928,-2146.597232,-7920.203579,536.266849
3367.996256,-2146.597232,-8438.347739,76.609550
3367.996583,-2516.700203,-8808.450710,0.000000
3367.996911,-2664.741391,-9400.615463,-229.828649
3367.997239,-1480.411884,-10436.903782,-1991.848295
3367.997567,444.123565,-9178.553681,-3370.820191
3367.997894,370.102971,-9622.677246,-2068.457845
3367.998222,-1628.453072,-9770.718434,1149.143247
3367.998550,-740.205942,-10955.047942,1532.190996
3367.998877,-888.247130,-9770.718434,2298.286494
3367.999205,74.020594,-10214.842000,1302.362347
3367.999533,-1628.453072,-9474.636058,1072.533697
3367.999860,-2146.597232,-9548.656652,0.000000
3368.000188,-3330.926739,-9770.718434,-1149.143247
3368.000516,-2368.659014,-9992.780217,-2604.724693
3368.000844,-3256.906145,-9104.533087,-3447.429741
3368.001171,-3997.112087,-9696.697840,-1762.019645
3368.001499,-3478.967927,-11769.274478,612.876398
3368.001827,-1036.288319,-10584.944971,842.705048
3368.002154,0.000000,-9326.594869,536.266849
3368.002482,-444.123565,-9326.594869,842.705048
3368.002810,-2072.576638,-9104.533087,1455.581446
3368.003138,-3627.009116,-9178.553681,-459.657299
3368.003465,-1554.432478,-8438.347739,-3447.429741
3368.003793,-814.226536,-9104.533087,-3447.429741
3368.004121,-1850.514855,-10214.842000,-1149.143247
3368.004448,-962.267725,-11843.295072,919.314598
3368.004776,1110.308913,-10510.924376,689.485948
3368.005104,3552.988522,-9992.780217,76.609550
3368.005431,2146.597232,-10066.800811,536.266849
3368.005759,1036.288319,-9474.636058,1455.581446
3368.006087,2220.617826,-6809.894666,-306.438199
3368.006415,3552.988522,-7254.018232,-1455.581446
3368.006742,2738.761985,-10362.883188,-229.828649
3368.007070,2738.761985,-10288.862594,1225.752797
3368.007398,3478.967927,-9252.574275,1302.362347
3368.007725,4589.276840,-8734.430116,383.047749
3368.008053,4959.379811,-12361.439231,-459.657299
3368.008381,2960.823768,-13397.727550,689.485948
3368.008709,1850.514855,-10732.986159,-612.876398
3368.009036,2294.638420,-8364.327145,-2757.943793
3368.009364,3404.947333,-8808.450710,-2987.772442
3368.009692,3478.967927,-9992.780217,-1302.362347
3368.010019,1776.494261,-8882.471304,1991.848295
3368.010347,2368.659014,-8364.327145,1532.190996
3368.010675,3552.988522,-8734.430116,612.876398
3368.011003,3849.070898,-9696.697840,536.266849
3368.011330,2738.761985,-8882.471304,612.876398
3368.011658,740.205942,-8956.491898,1455.581446
3368.011986,2516.700203,-9918.759623,-306.438199
3368.012313,3849.070898,-11103.089130,-1991.848295
3368.012641,3701.029710,-12139.377449,-1838.629195
3368.012969,2812.782580,-11103.089130,306.438199
3368.013296,-592.164754,-9104.533087,2145.067394
3368.013624,-814.226536,-7698.141797,1915.238745
3368.013952,-1184.329507,-9548.656652,766.095498
3368.014280,-2442.679609,-9548.656652,766.095498
3368.014607,-3923.091493,-9548.656652,2374.896044
3368.014935,-1998.556043,-8734.430116,0.000000
3368.015263,296.082377,-8808.450710,-2987.772442
3368.015590,-1702.473667,-10584.944971,-2528.115143
3368.015918,-3404.947333,-8956.491898,-306.438199
3368.016246,-3997.112087,-8290.306550,153.219100
3368.016574,-1628.453072,-9252.574275,229.828649
3368.016901,-222.061783,-11843.295072,229.828649
3368.017229,-2146.597232,-10807.006753,2451.505594
3368.017557,-2886.803174,-8956.491898,2911.162892
3368.017884,-1850.514855,-10807.006753,76.609550
3368.018212,-1406.391290,-10288.862594,-2757.943793
3368.018540,-3108.864956,-9622.677246,-2987.772442
3368.018867,-4219.173869,-9030.512492,-2068.457845
3368.019195,-3849.070898,-10214.842000,-995.924147
3368.019523,-2590.720797,-10955.047942,-306.438199
3368.019851,-2442.679609,-11177.109724,1378.971896
3368.020178,-2146.597232,-10288.862594,1302.362347
3368.020506,-740.205942,-8586.388927,-229.828649
3368.020834,-962.267725,-9326.594869,-995.924147
3368.021161,-1554.432478,-10214.842000,-1685.410096
3368.021489,-1924.535449,-8734.430116,-2528.115143
3368.021817,-2146.597232,-8956.491898,-612.876398
3368.022145,-2516.700203,-9844.739029,-612.876398
3368.022472,-1776.494261,-10362.883188,-536.266849
3368.022800,-1036.288319,-10510.924376,-383.047749
3368.023128,-666.185348,-10140.821405,-766.095498
3368.023455,-518.144159,-11177.109724,-536.266849
3368.023783,1406.391290,-9400.615463,-842.705048
3368.024111,3627.009116,-8438.347739,-1608.800546
3368.024439,2812.782580,-8068.244768,76.609550
3368.024766,3034.844362,-9030.512492,919.314598
3368.025094,2368.659014,-9178.553681,1762.019645
3368.025422,5033.400406,-8882.471304,1532.190996
3368.025749,5329.482782,-9474.636058,842.705048
3368.026077,4367.215058,-9178.553681,1225.752797
3368.026405,3775.050304,-9844.739029,1302.362347
3368.026732,4293.194464,-9770.718434,-766.095498
3368.027060,5329.482782,-11547.212695,-2604.724693
3368.027388,4367.215058,-11325.150913,-1532.190996
3368.027716,4367.215058,-9622.677246,0.000000
3368.028043,3330.926739,-8808.450710,766.095498
3368.028371,3923.091493,-11325.150913,1532.190996
3368.028699,3701.029710,-10732.986159,536.266849
3368.029026,2442.679609,-8068.244768,766.095498
3368.029354,2146.597232,-8142.265362,459.657299
3368.029682,2294.638420,-8068.244768,-536.266849
3368.030010,2072.576638,-8808.450710,-1455.581446
3368.030337,1332.370696,-10288.862594,0.000000
3368.030665,2220.617826,-10584.944971,-153.219100
3368.030993,1554.432478,-10214.842000,0.000000
3368.031320,-444.123565,-11769.274478,612.876398
3368.031648,-296.082377,-10955.047942,536.266849
3368.031976,-518.144159,-8142.265362,76.609550
3368.032303,-222.061783,-10362.883188,0.000000
3368.032631,-1554.432478,-10066.800811,842.705048
3368.032959,-2516.700203,-8660.409521,459.657299
3368.033287,-2738.761985,-6513.812290,0.000000
3368.033614,-3108.864956,-9474.636058,-306.438199
3368.033942,-2368.659014,-10732.986159,-612.876398
3368.034270,-2516.700203,-9474.636058,-229.828649
3368.034597,-2960.823768,-9400.615463,612.876398
3368.034925,-1258.350101,-10214.842000,0.000000
3368.035253,-2368.659014,-10066.800811,689.485948
3368.035581,-1332.370696,-9030.512492,766.095498
3368.035908,-1480.411884,-9252.574275,-612.876398
3368.036236,-2368.659014,-10436.903782,0.000000
3368.036564,-2368.659014,-9622.677246,-766.095498
3368.036891,-3404.947333,-8956.491898,-995.924147
3368.037219,-3923.091493,-9104.533087,-229.828649
3368.037547,-3701.029710,-10066.800811,-153.219100
3368.037875,-4663.297435,-11177.109724,306.438199
3368.038202,-2368.659014,-10658.965565,-1915.238745
3368.038530,-1332.370696,-8216.285956,-3294.210641
3368.038858,-1406.391290,-9474.636058,-1532.190996
3368.039185,-2590.720797,-10807.006753,536.266849
3368.039513,-1776.494261,-10584.944971,-306.438199
3368.039841,-222.061783,-8438.347739,-2145.067394
3368.040168,0.000000,-7994.224174,-1149.143247
3368.040496,518.144159,-10881.027347,76.609550
3368.040824,0.000000,-11843.295072,2451.505594
3368.041152,0.000000,-12657.521608,689.485948
3368.041479,222.061783,-9622.677246,-3064.381992
3368.041807,0.000000,-8364.327145,-4903.011187
3368.042135,-1258.350101,-7328.038826,-2145.067394
3368.042462,222.061783,-8290.306550,76.609550
3368.042790,1110.308913,-9474.636058,1838.629195
3368.043118,4515.256246,-11177.109724,2145.067394
3368.043446,6365.771101,-11473.192101,383.047749
3368.043773,5403.503377,-10140.821405,919.314598
3368.044101,4737.318029,-9030.512492,1838.629195
3368.044429,4811.338623,-6883.915261,-229.828649
3368.044756,4145.153275,-8512.368333,-842.705048
3368.045084,2738.761985,-8660.409521,-1762.019645
3368.045412,2664.741391,-8364.327145,0.000000
3368.045739,2886.803174,-9918.759623,1685.410096
3368.046067,5033.400406,-11769.274478,995.924147
3368.046395,4811.338623,-13619.789333,-229.828649
3368.046723,3701.029710,-9844.739029,-1149.143247
3368.047050,2368.659014,-8438.347739,-612.876398
3368.047378,3108.864956,-7846.182985,-1532.190996
3368.047706,3256.906145,-8216.285956,-459.657299
3368.048033,1480.411884,-9252.574275,1991.848295
3368.048361,1184.329507,-9326.594869,919.314598
3368.048689,222.061783,-9696.697840,229.828649
3368.049017,1554.432478,-9918.759623,0.000000
3368.049344,2220.617826,-9992.780217,-1532.190996
3368.049672,0.000000,-11769.274478,-383.047749
3368.050000,296.082377,-12361.439231,76.609550
3368.050327,370.102971,-8290.306550,-1455.581446
3368.050655,1258.350101,-9696.697840,-1608.800546
3368.050983,-814.226536,-11103.089130,995.924147
3368.051311,-2368.659014,-9622.677246,1532.190996
3368.051638,-2812.782580,-7031.956449,766.095498
3368.051966,-2072.576638,-9178.553681,536.266849
3368.052294,-1924.535449,-10140.821405,-1532.190996
3368.052621,-2664.741391,-9178.553681,-1072.533697
3368.052949,-4219.173869,-10214.842000,0.000000
3368.053277,-1184.329507,-10362.883188,-2681.334243
3368.053604,-888.247130,-11473.192101,-2834.553343
3368.053932,-1924.535449,-10066.800811,-459.657299
3368.054260,-3108.864956,-8142.265362,689.485948
3368.054588,-3108.864956,-8586.388927,1455.581446
3368.054915,-888.247130,-9474.636058,2145.067394
3368.055243,-1628.453072,-9326.594869,612.876398
3368.055571,-3627.009116,-8290.306550,842.705048
3368.055898,-4737.318029,-10140.821405,612.876398
3368.056226,-2368.659014,-9474.636058,-2298.286494
3368.056554,-296.082377,-10066.800811,-3524.039291
3368.056882,-2368.659014,-9548.656652,-1608.800546
3368.057209,-2886.803174,-10584.944971,-306.438199
3368.057537,-2664.741391,-11251.130318,-229.828649
3368.057865,666.185348,-9622.677246,-536.266849
3368.058192,1850.514855,-8882.471304,-536.266849
3368.058520,962.267725,-10362.883188,1838.629195
3368.058848,518.144159,-10362.883188,2068.457845
3368.059175,1110.308913,-9622.677246,-536.266849
3368.059503,1036.288319,-10436.903782,-2451.505594
3368.059831,-148.041188,-10510.924376,-1608.800546
3368.060159,-1554.432478,-9326.594869,-536.266849
3368.060486,-740.205942,-7994.224174,0.000000
3368.060814,814.226536,-9178.553681,-229.828649
3368.061142,740.205942,-9844.739029,229.828649
3368.061469,1258.350101,-9178.553681,689.485948
3368.061797,3775.050304,-10066.800811,-766.095498
3368.062125,6143.709319,-10584.944971,-1378.971896
3368.062453,6513.812290,-10955.047942,0.000000
3368.062780,5403.503377,-9104.533087,1225.752797
3368.063108,4071.132681,-8364.327145,1378.971896
3368.063436,3108.864956,-8808.450710,2145.067394
3368.063763,3849.070898,-9992.780217,1225.752797
3368.064091,2368.659014,-10436.903782,0.000000
3368.064419,1850.514855,-9622.677246,-842.705048
3368.064747,2368.659014,-10658.965565,-1915.238745
3368.065074,4145.153275,-11695.253884,-1838.629195
3368.065402,3997.112087,-11325.150913,0.000000
3368.065730,3627.009116,-8290.306550,919.314598
3368.066057,666.185348,-7772.162391,919.314598
3368.066385,-740.205942,-9252.574275,1532.190996
3368.066712,1406.391290,-7994.224174,0.000000
3368.067040,962.267725,-8808.450710,-383.047749
3368.067368,888.247130,-9400.615463,1455.581446
3368.067695,888.247130,-9770.718434,306.438199
3368.068023,518.144159,-9474.636058,-1532.190996
3368.068350,-814.226536,-11399.171507,-1532.190996
3368.068678,0.000000,-10214.842000,-1302.362347
3368.069006,-1258.350101,-8586.388927,-153.219100
3368.069333,-2368.659014,-9622.677246,2145.067394
3368.069661,-1036.288319,-8956.491898,2298.286494
3368.069988,-1702.473667,-6883.915261,1532.190996
3368.070316,-1554.432478,-9030.512492,1072.533697
3368.070643,-1110.308913,-9992.780217,-459.657299
3368.070971,-1776.494261,-8734.430116,-2145.067394
3368.071299,-2442.679609,-8808.450710,-1685.410096
3368.071626,-1702.473667,-10066.800811,-2068.457845
3368.071954,-2146.597232,-11029.068536,-1378.971896
3368.072281,-1702.473667,-9918.759623,689.485948
3368.072609,-1110.308913,-9474.636058,1149.143247
3368.072937,-296.082377,-11029.068536,153.219100
3368.073264,-962.267725,-10140.821405,153.219100
3368.073592,-1480.411884,-9844.739029,-229.828649
3368.073919,-2368.659014,-8734.430116,-1225.752797
3368.074247,-1332.370696,-9474.636058,-1072.533697
3368.074574,-592.164754,-8956.491898,-1762.019645
3368.074902,-1480.411884,-10436.903782,-536.266849
3368.075230,-2960.823768,-12805.562797,1072.533697
3368.075557,-1036.288319,-10584.944971,-689.485948
3368.075885,-814.226536,-8290.306550,-2528.115143
3368.076212,-296.082377,-9548.656652,-1149.143247
3368.076540,-592.164754,-10584.944971,0.000000
3368.076868,296.082377,-9474.636058,459.657299
3368.077195,1998.556043,-10955.047942,0.000000
3368.077523,4071.132681,-11547.212695,-383.047749
3368.077850,2886.803174,-10584.944971,229.828649
3368.078178,370.102971,-7846.182985,2528.115143
3368.078505,148.041188,-7550.100608,1991.848295
3368.078833,-1480.411884,-7105.977043,536.266849
3368.079161,-2294.638420,-9030.512492,612.876398
3368.079488,-666.185348,-9030.512492,-612.876398
3368.079816,1406.391290,-7328.038826,-3294.210641
3368.080143,2368.659014,-9770.718434,-1991.848295
3368.080471,3256.906145,-11029.068536,-766.095498
3368.080799,3182.885551,-9474.636058,0.000000
3368.081126,4071.132681,-8882.471304,1149.143247
3368.081454,4219.173869,-9474.636058,1455.581446
3368.081781,4071.132681,-11399.171507,2757.943793
3368.082109,3775.050304,-10066.800811,3064.381992
3368.082436,3404.947333,-8882.471304,842.705048
3368.082764,2886.803174,-9400.615463,-1149.143247
3368.083092,1776.494261,-10955.047942,-1149.143247
3368.083419,666.185348,-9992.780217,-1302.362347
3368.083747,0.000000,-8364.327145,-1455.581446
3368.084074,888.247130,-10066.800811,-536.266849
3368.084402,2072.576638,-12435.459826,0.000000
3368.084729,2072.576638,-11621.233289,995.924147
3368.085057,444.123565,-9252.574275,1302.362347
3368.085385,222.061783,-8956.491898,306.438199
3368.085712,1406.391290,-9770.718434,-2068.457845
3368.086040,888.247130,-9548.656652,-2298.286494
3368.086367,-666.185348,-10140.821405,-1378.971896
3368.086695,-2516.700203,-9696.697840,-306.438199
3368.087023,-1258.350101,-9548.656652,-229.828649
3368.087350,-740.205942,-10066.800811,-612.876398
3368.087678,-370.102971,-11325.150913,766.095498
3368.088005,-814.226536,-10362.883188,1991.848295
3368.088333,-1110.308913,-7179.997637,766.095498
3368.088660,74.020594,-8068.244768,-1149.143247
3368.088988,-666.185348,-9844.739029,-995.924147
3368.089316,-1776.494261,-9252.574275,0.000000
3368.089643,-3108.864956,-7624.121203,1455.581446
3368.089971,-1998.556043,-7994.224174,76.609550
3368.090298,-1776.494261,-10288.862594,-306.438199
3368.090626,-1110.308913,-10362.883188,153.219100
3368.090954,-1776.494261,-9326.594869,612.876398
3368.091281,-1480.411884,-10362.883188,-229.828649
3368.091609,-222.061783,-9474.636058,-1225.752797
3368.091936,-518.144159,-9400.615463,-766.095498
3368.092264,-1480.411884,-9030.512492,76.609550
3368.092591,-1406.391290,-8882.471304,1302.362347
3368.092919,1036.288319,-7994.224174,612.876398
3368.093247,962.267725,-8512.368333,689.485948
3368.093574,-1850.514855,-11325.150913,1149.143247
3368.093902,-2220.617826,-10881.027347,-459.657299
3368.094229,-518.144159,-9474.636058,-3983.696590
3368.094557,1036.288319,-10288.862594,-4596.572988
3368.094885,1258.350101,-11843.295072,-2681.334243
3368.095212,1776.494261,-11029.068536,689.485948
3368.095540,2812.782580,-10362.883188,919.314598
3368.095867,4589.276840,-12213.398043,76.609550
3368.096195,3552.988522,-11399.171507,-153.219100
3368.096522,1258.350101,-8068.244768,1532.190996
3368.096850,-1332.370696,-6439.791695,2374.896044
3368.097178,-1184.329507,-7402.059420,1149.143247
3368.097505,-518.144159,-8808.450710,0.000000
3368.097833,148.041188,-9622.677246,-2068.457845
3368.098160,518.144159,-9474.636058,-2374.896044
3368.098488,0.000000,-10066.800811,-1378.971896
3368.098816,2442.679609,-11103.089130,-995.924147
3368.099143,3775.050304,-10214.842000,-229.828649
3368.099471,4293.194464,-9474.636058,1302.362347
3368.099798,3849.070898,-8956.491898,1455.581446
3368.100126,3404.947333,-9696.697840,1378.971896
3368.100453,3775.050304,-10436.903782,1072.533697
3368.100781,2886.803174,-8956.491898,-383.047749
3368.101109,2146.597232,-9178.553681,-459.657299
3368.101436,0.000000,-9622.677246,153.219100
3368.101764,-148.041188,-9178.553681,-306.438199
3368.102091,740.205942,-8808.450710,-1149.143247
3368.102419,1258.350101,-11103.089130,-536.266849
3368.102746,370.102971,-13249.686362,1838.629195
3368.103074,148.041188,-10362.883188,306.438199
3368.103402,888.247130,-7105.977043,-1608.800546
3368.103729,74.020594,-8808.450710,-1991.848295
3368.104057,-962.267725,-10066.800811,-1225.752797
3368.104384,-1702.473667,-9548.656652,689.485948
3368.104712,-370.102971,-9992.780217,-153.219100
3368.105040,-666.185348,-10140.821405,-842.705048
3368.105367,-2294.638420,-10214.842000,-536.266849
3368.105695,-2072.576638,-9030.512492,-383.047749
3368.106022,-1924.535449,-9622.677246,-536.266849
3368.106350,296.082377,-11325.150913,-229.828649
3368.106677,-592.164754,-11103.089130,-1378.971896
3368.107005,148.041188,-8364.327145,-689.485948
3368.107333,-592.164754,-8364.327145,0.000000
3368.107660,-888.247130,-8438.347739,536.266849
3368.107988,-1554.432478,-9030.512492,1378.971896
3368.108315,-1924.535449,-8364.327145,153.219100
3368.108643,-1998.556043,-9844.739029,-383.047749
3368.108971,-1850.514855,-11103.089130,-536.266849
3368.109298,-518.144159,-9548.656652,-689.485948
3368.109626,-296.082377,-10807.006753,-612.876398
3368.109953,-1110.308913,-9992.780217,-612.876398
3368.110281,-1258.350101,-8734.430116,-383.047749
3368.110608,-1332.370696,-8734.430116,0.000000
3368.110936,296.082377,-9326.594869,766.095498
3368.111264,666.185348,-9104.533087,1608.800546
3368.111591,148.041188,-9474.636058,2068.457845
3368.111919,0.000000,-9844.739029,1072.533697
3368.112246,148.041188,-8512.368333,-689.485948
3368.112574,0.000000,-9622.677246,-1838.629195
3368.112902,-666.185348,-10658.965565,-2145.067394
3368.113229,74.020594,-10510.924376,-2528.115143
3368.113557,1406.391290,-8956.491898,-2221.676944
3368.113884,2368.659014,-10362.883188,153.219100
3368.114212,3849.070898,-13175.665768,1838.629195
3368.114539,3775.050304,-11547.212695,2451.505594
3368.114867,2886.803174,-8734.430116,1302.362347
3368.115195,1924.535449,-8364.327145,0.000000
3368.115522,-148.041188,-8290.306550,-459.657299
3368.115850,-1332.370696,-8956.491898,383.047749
3368.116177,-1998.556043,-7550.100608,-306.438199
3368.116505,-1998.556043,-7179.997637,-1225.752797
3368.116833,296.082377,-10436.903782,-1838.629195
3368.117160,3627.009116,-12213.398043,-1685.410096
3368.117488,3404.947333,-11251.130318,-306.438199
3368.117815,3552.988522,-11621.233289,919.314598
3368.118143,5255.462188,-10066.800811,1455.581446
3368.118470,4145.153275,-7254.018232,995.924147
3368.118798,2960.823768,-6513.812290,919.314598
3368.119126,-740.205942,-9326.594869,2604.724693
3368.119453,0.000000,-10140.821405,1455.581446
3368.119781,1480.411884,-11029.068536,-1225.752797
3368.120108,1406.391290,-10807.006753,-2451.505594
3368.120436,-666.185348,-9104.533087,-2068.457845
3368.120763,-296.082377,-10362.883188,76.609550
3368.121091,1628.453072,-12657.521608,-612.876398
3368.121419,1332.370696,-11399.171507,-1762.019645
3368.121746,-962.267725,-7698.141797,-919.314598
3368.122074,-3034.844362,-7476.080014,995.924147
3368.122401,-518.144159,-8734.430116,-306.438199
3368.122729,222.061783,-9622.677246,153.219100
3368.123057,-740.205942,-10510.924376,536.266849
3368.123384,-2516.700203,-9474.636058,229.828649
3368.123712,-518.144159,-9474.636058,-1838.629195
3368.124039,74.020594,-10510.924376,-2451.505594
3368.124367,-666.185348,-11473.192101,-766.095498
3368.124694,-1036.288319,-9474.636058,229.828649
3368.125022,-1258.350101,-8734.430116,689.485948
3368.125350,518.144159,-8364.327145,383.047749
3368.125677,740.205942,-10362.883188,1685.410096
3368.126005,-1480.411884,-9252.574275,1838.629195
3368.126332,-2368.659014,-7920.203579,0.000000
3368.126660,-1776.494261,-8068.244768,-2604.724693
3368.126988,-1036.288319,-9252.574275,-2604.724693
3368.127315,-2146.597232,-9844.739029,-536.266849
3368.127643,-1332.370696,-10510.924376,612.876398
3368.127970,-888.247130,-11251.130318,0.000000
3368.128298,-222.061783,-9992.780217,0.000000
3368.128625,0.000000,-9030.512492,229.828649
3368.128953,-1258.350101,-9104.533087,766.095498
3368.129281,-1110.308913,-9326.594869,459.657299
3368.129608,666.185348,-8586.388927,-383.047749
3368.129936,1406.391290,-7920.203579,-1608.800546
3368.130263,222.061783,-9770.718434,536.266849
3368.130591,814.226536,-10140.821405,766.095498
3368.130919,0.000000,-9918.759623,229.828649
3368.131246,0.000000,-11325.150913,-459.657299
3368.131574,370.102971,-11029.068536,-1991.848295
3368.131901,592.164754,-9622.677246,-1915.238745
3368.132229,1258.350101,-9844.739029,-1225.752797
3368.132556,2220.617826,-11399.171507,-995.924147
3368.132884,3775.050304,-11695.253884,0.000000
3368.133212,4515.256246,-10140.821405,229.828649
3368.133539,2368.659014,-8808.450710,1225.752797
3368.133867,0.000000,-9474.636058,2451.505594
3368.134194,0.000000,-8438.347739,1378.971896
3368.134522,-740.205942,-7476.080014,0.000000
3368.134849,-1924.535449,-6587.832884,-1532.190996
3368.135177,-2516.700203,-8512.368333,-2221.676944
3368.135505,-222.061783,-10807.006753,-1685.410096
3368.135832,3330.926739,-10436.903782,-2451.505594
3368.136160,4145.153275,-11473.192101,-1302.362347
3368.136487,2590.720797,-10510.924376,1838.629195
3368.136815,3404.947333,-9622.677246,3600.648841
3368.137143,3701.029710,-8068.244768,3370.820191
3368.137470,3034.844362,-7698.141797,2221.676944
3368.137798,518.144159,-8660.409521,1455.581446
3368.138125,-592.164754,-9474.636058,229.828649
3368.138453,296.082377,-9918.759623,-1608.800546
3368.138780,740.205942,-9770.718434,-3064.381992
3368.139108,592.164754,-10658.965565,-2221.676944
3368.139436,-222.061783,-11621.233289,0.000000
3368.139763,-222.061783,-12583.501014,842.705048
3368.140091,1036.288319,-9474.636058,306.438199
3368.140418,0.000000,-8364.327145,842.705048
3368.140746,-1554.432478,-8216.285956,612.876398
3368.141074,-1924.535449,-8438.347739,-919.314598
3368.141401,-888.247130,-8808.450710,-2145.067394
3368.141729,-444.123565,-8882.471304,-1072.533697
3368.142056,-1628.453072,-10066.800811,-1608.800546
3368.142384,-2590.720797,-9548.656652,-1149.143247
3368.142711,-2590.720797,-10732.986159,-689.485948
3368.143039,-962.267725,-11621.233289,459.657299
3368.143367,1480.411884,-10288.862594,689.485948
3368.143694,592.164754,-9178.553681,766.095498
3368.144022,-74.020594,-9770.718434,1608.800546
3368.144349,-444.123565,-9844.739029,-306.438199
3368.144677,-296.082377,-7772.162391,-1302.362347
3368.145005,-444.123565,-7994.224174,-1608.800546
3368.145332,-1776.494261,-9474.636058,-1302.362347
3368.145660,-3627.009116,-10732.986159,1149.143247
3368.145987,-962.267725,-10510.924376,1532.190996
3368.146315,1480.411884,-10140.821405,383.047749
3368.146642,444.123565,-9844.739029,0.000000
3368.146970,-1258.350101,-8882.471304,689.485948
3368.147298,-962.267725,-8512.368333,0.000000
3368.147625,444.123565,-9770.718434,-1608.800546
3368.147953,2294.638420,-9770.718434,-1378.971896
3368.148280,888.247130,-8290.306550,76.609550
3368.148608,-1628.453072,-8956.491898,1991.848295
3368.148936,666.185348,-11325.150913,2298.286494
3368.149263,2886.803174,-11103.089130,689.485948
3368.149591,1036.288319,-9326.594869,-536.266849
3368.149918,-814.226536,-9770.718434,-1072.533697
3368.150246,0.000000,-8364.327145,-2604.724693
3368.150573,1036.288319,-8660.409521,-3064.381992
3368.150901,2368.659014,-11103.089130,-1378.971896
3368.151229,2072.576638,-11843.295072,0.000000
3368.151556,1184.329507,-11325.150913,1455.581446
3368.151884,3034.844362,-9844.739029,1225.752797
3368.152211,2886.803174,-10214.842000,1915.238745
3368.152539,814.226536,-9474.636058,2068.457845
3368.152866,-1406.391290,-7105.977043,383.047749
3368.153194,-666.185348,-7179.997637,-1532.190996
3368.153522,-1036.288319,-9104.533087,-3830.477490
3368.153849,-1184.329507,-9844.739029,-2911.162892
3368.154177,0.000000,-9844.739029,-1915.238745
3368.154504,1036.288319,-10658.965565,-1302.362347
3368.154832,3849.070898,-12509.480420,0.000000
3368.155160,4737.318029,-11399.171507,3370.820191
3368.155487,4219.173869,-9178.553681,3447.429741
3368.155815,3256.906145,-7402.059420,2145.067394
3368.156142,1998.556043,-7402.059420,76.609550
3368.156470,0.000000,-9400.615463,-612.876398
3368.156797,-1184.329507,-9178.553681,-1225.752797
3368.157125,-1332.370696,-9474.636058,-1685.410096
3368.157453,-1554.432478,-11103.089130,-1685.410096
3368.157780,1036.288319,-11917.315666,-612.876398
3368.158108,1702.473667,-14508.036463,689.485948
3368.158435,1702.473667,-11399.171507,1378.971896
3368.158763,222.061783,-8142.265362,459.657299
3368.159091,-1702.473667,-7105.977043,-1149.143247
3368.159418,-2146.597232,-8068.244768,-2374.896044
3368.159746,-1554.432478,-8364.327145,-1225.752797
3368.160073,-1998.556043,-8956.491898,459.657299
3368.160401,-2072.576638,-9696.697840,919.314598
3368.160728,0.000000,-10362.883188,612.876398
3368.161056,592.164754,-11325.150913,536.266849
3368.161384,74.020594,-11399.171507,1072.533697
3368.161711,148.041188,-10436.903782,1149.143247
3368.162039,148.041188,-6883.915261,-842.705048
3368.162366,0.000000,-7328.038826,-2604.724693
3368.162694,-740.205942,-9474.636058,-536.266849
3368.163022,-962.267725,-10436.903782,1378.971896
3368.163349,-1554.432478,-9622.677246,995.924147
3368.163677,-666.185348,-9400.615463,0.000000
3368.164004,-1258.350101,-11473.192101,383.047749
3368.164332,-666.185348,-9474.636058,842.705048
3368.164659,-296.082377,-7179.997637,76.609550
3368.164987,444.123565,-9178.553681,-383.047749
3368.165315,148.041188,-9252.574275,-919.314598
3368.165642,-222.061783,-10436.903782,-383.047749
3368.165970,-1554.432478,-8364.327145,0.000000
3368.166297,0.000000,-8586.388927,-1149.143247
3368.166625,592.164754,-10436.903782,0.000000
3368.166953,888.247130,-11769.274478,2068.457845
3368.167280,1258.350101,-9474.636058,612.876398
3368.167608,2664.741391,-9770.718434,76.609550
3368.167935,2368.659014,-9252.574275,-1455.581446
3368.168263,1998.556043,-9622.677246,-1991.848295
3368.168591,0.000000,-9474.636058,-1225.752797
3368.168918,-518.144159,-9400.615463,459.657299
3368.169246,592.164754,-9844.739029,-536.266849
3368.169574,2072.576638,-12435.459826,0.000000
3368.169902,4367.215058,-13397.727550,842.705048
3368.170229,3108.864956,-9252.574275,1838.629195
3368.170557,222.061783,-9918.759623,2911.162892
3368.170885,-222.061783,-9326.594869,229.828649
3368.171212,-222.061783,-6291.750507,-4060.306139
3368.171540,-2516.700203,-7105.977043,-2757.943793
3368.171868,-3997.112087,-9696.697840,-229.828649
3368.172195,-1850.514855,-10732.986159,229.828649
3368.172523,1850.514855,-10510.924376,-919.314598
3368.172851,2960.823768,-11843.295072,-1378.971896
3368.173179,2368.659014,-11621.233289,0.000000
3368.173506,2442.679609,-9622.677246,1302.362347
3368.173834,3034.844362,-7031.956449,689.485948
3368.174162,1184.329507,-6439.791695,-1455.581446
3368.174489,-1258.350101,-9474.636058,1225.752797
3368.174817,0.000000,-9474.636058,2681.334243
3368.175145,1998.556043,-8660.409521,229.828649
3368.175472,1110.308913,-10732.986159,612.876398
3368.175800,518.144159,-11843.295072,153.219100
3368.176128,1258.350101,-11917.315666,-766.095498
3368.176455,1258.350101,-9474.636058,-1762.019645
3368.176783,518.144159,-6735.874072,-2834.553343
3368.177111,-2368.659014,-8956.491898,-1838.629195
3368.177439,-3701.029710,-10881.027347,0.000000
3368.177766,-2072.576638,-9178.553681,-383.047749
3368.178094,-592.164754,-8882.471304,-1302.362347
3368.178422,74.020594,-10510.924376,919.314598
3368.178749,888.247130,-11325.150913,919.314598
3368.179077,888.247130,-9474.636058,0.000000
3368.179405,0.000000,-10362.883188,-459.657299
3368.179732,222.061783,-9770.718434,-995.924147
3368.180060,-518.144159,-9622.677246,-842.705048
3368.180388,-1184.329507,-7846.182985,-306.438199
3368.180716,-296.082377,-8660.409521,612.876398
3368.181043,0.000000,-11547.212695,1302.362347
3368.181371,370.102971,-12361.439231,689.485948
3368.181699,666.185348,-9252.574275,-1072.533697
3368.182026,-814.226536,-8290.306550,-1378.971896
3368.182354,-1036.288319,-9992.780217,0.000000
3368.182682,666.185348,-7920.203579,-995.924147
3368.183009,962.267725,-8808.450710,-1378.971896
3368.183337,0.000000,-10436.903782,1225.752797
3368.183665,-296.082377,-11029.068536,1608.800546
3368.183993,-148.041188,-9548.656652,459.657299
3368.184320,222.061783,-8882.471304,-306.438199
3368.184648,1036.288319,-9548.656652,-689.485948
3368.184976,1628.453072,-9622.677246,-766.095498
3368.185303,740.205942,-10362.883188,842.705048
3368.185631,1776.494261,-9178.553681,-383.047749
3368.185959,2368.659014,-8734.430116,-306.438199
3368.186286,518.144159,-9474.636058,1072.533697
3368.186614,-518.144159,-8808.450710,383.047749
3368.186942,-296.082377,-9030.512492,-1225.752797
3368.187270,888.247130,-11103.089130,0.000000
3368.187597,1480.411884,-11251.130318,-689.485948
3368.187925,1332.370696,-9844.739029,-1149.143247
3368.188253,1406.391290,-11769.274478,842.705048
3368.188580,2886.803174,-9548.656652,-842.705048
3368.188908,1998.556043,-9622.677246,-306.438199
3368.189236,-592.164754,-10658.965565,1072.533697
3368.189563,-222.061783,-8956.491898,-383.047749
3368.189891,-444.123565,-7624.121203,-995.924147
3368.190219,-1110.308913,-9178.553681,0.000000
3368.190546,-888.247130,-10066.800811,-1532.190996
3368.190874,74.020594,-9770.718434,-2068.457845
3368.191202,296.082377,-10066.800811,-1608.800546
3368.191530,1924.535449,-10362.883188,-1762.019645
3368.191857,2146.597232,-11473.192101,229.828649
3368.192185,1702.473667,-10807.006753,1762.019645
3368.192513,296.082377,-8956.491898,1991.848295
3368.192840,0.000000,-7846.182985,842.705048
3368.193168,666.185348,-8808.450710,1072.533697
3368.193496,1332.370696,-10066.800811,459.657299
3368.193823,444.123565,-10066.800811,0.000000
3368.194151,-740.205942,-10362.883188,229.828649
3368.194479,444.123565,-7846.182985,-1532.190996
3368.194807,592.164754,-9474.636058,-1532.190996
3368.195134,0.000000,-10140.821405,0.000000
3368.195462,-1776.494261,-9030.512492,0.000000
3368.195790,-2664.741391,-8808.450710,0.000000
3368.196117,0.000000,-10288.862594,-536.266849
3368.196445,814.226536,-9770.718434,-1225.752797
3368.196773,222.061783,-9770.718434,0.000000
3368.197100,-962.267725,-9326.594869,1455.581446
3368.197428,-222.061783,-9474.636058,76.609550
3368.197756,740.205942,-9770.718434,-995.924147
3368.198084,148.041188,-10214.842000,459.657299
3368.198411,-1184.329507,-9622.677246,689.485948
3368.198739,-444.123565,-9474.636058,995.924147
3368.199067,962.267725,-9326.594869,-306.438199
3368.199394,1554.432478,-10214.842000,-1685.410096
3368.199722,296.082377,-10510.924376,0.000000
3368.200050,-814.226536,-9770.718434,229.828649
3368.200377,0.000000,-8660.409521,-1532.190996
3368.200705,518.144159,-10362.883188,-1685.410096
3368.201033,1184.329507,-10732.986159,-842.705048
3368.201360,-296.082377,-8216.285956,306.438199
3368.201688,-814.226536,-9030.512492,1149.143247
3368.202016,740.205942,-10510.924376,842.705048
3368.202344,1332.370696,-10732.986159,-459.657299
3368.202671,740.205942,-10140.821405,-612.876398
3368.202999,-148.041188,-9400.615463,-689.485948
3368.203327,1258.350101,-9030.512492,-1072.533697
3368.203654,2368.659014,-10436.903782,0.000000
