#time,accel_x,accel_y,accel_z
2515.501897,740.205942,-9844.739029,306.438199
2515.502224,518.144159,-9400.615463,306.438199
2515.502551,296.082377,-9474.636058,383.047749
2515.502879,-222.061783,-9326.594869,0.000000
2515.503206,-296.082377,-9178.553681,0.000000
2515.503533,-222.061783,-9178.553681,-383.047749
2515.503861,-296.082377,-9104.533087,153.219100
2515.504188,-222.061783,-9770.718434,-459.657299
2515.504516,0.000000,-9844.739029,-153.219100
2515.504843,222.061783,-9622.677246,0.000000
2515.505170,518.144159,-9696.697840,76.609550
2515.505498,814.226536,-9548.656652,919.314598
2515.505825,666.185348,-10066.800811,306.438199
2515.506152,814.226536,-8808.450710,0.000000
2515.506480,0.000000,-8734.430116,229.828649
2515.506807,0.000000,-9030.512492,0.000000
2515.507134,0.000000,-9400.615463,0.000000
2515.507462,-296.082377,-9548.656652,-536.266849
2515.507789,222.061783,-10140.821405,-919.314598
2515.508117,74.020594,-9770.718434,-383.047749
2515.508444,444.123565,-9992.780217,0.000000
2515.508771,814.226536,-10288.862594,0.000000
2515.509099,888.247130,-10140.821405,0.000000
2515.509426,814.226536,-9844.739029,-306.438199
2515.509753,666.185348,-9696.697840,0.000000
2515.510081,592.164754,-9474.636058,0.000000
2515.510408,370.102971,-9178.553681,-536.266849
2515.510736,0.000000,-9400.615463,-919.314598
2515.511063,0.000000,-9696.697840,-1072.533697
2515.511390,148.041188,-10140.821405,-1225.752797
2515.511718,444.123565,-10584.944971,-689.485948
2515.512045,444.123565,-10362.883188,-689.485948
2515.512372,518.144159,-10288.862594,-229.828649
2515.512700,814.226536,-10288.862594,-536.266849
2515.513027,296.082377,-9548.656652,153.219100
2515.513355,740.205942,-9622.677246,76.609550
2515.513682,296.082377,-9474.636058,229.828649
2515.514009,148.041188,-9474.636058,153.219100
2515.514337,-222.061783,-9252.574275,0.000000
2515.514664,-592.164754,-9400.615463,153.219100
2515.514991,0.000000,-9326.594869,-995.924147
2515.515319,-370.102971,-9252.574275,0.000000
2515.515646,-148.041188,-9992.780217,0.000000
2515.515973,222.061783,-9696.697840,153.219100
2515.516301,518.144159,-9474.636058,306.438199
2515.516628,444.123565,-9400.615463,76.609550
2515.516956,518.144159,-9030.512492,459.657299
2515.517283,814.226536,-9770.718434,0.000000
2515.517610,296.082377,-8142.265362,0.000000
2515.517938,666.185348,-8586.388927,0.000000
2515.518265,888.247130,-9104.533087,0.000000
2515.518592,1776.494261,-8808.450710,0.000000
2515.518920,2738.761985,-8660.409521,-612.876398
2515.519247,3775.050304,-9844.739029,-229.828649
2515.519575,4219.173869,-10510.924376,-153.219100
2515.519902,5551.544565,-10140.821405,0.000000
2515.520229,6365.771101,-10066.800811,-459.657299
2515.520557,7031.956449,-10288.862594,-306.438199
2515.520884,7698.141797,-10436.903782,-383.047749
2515.521211,7476.080014,-10510.924376,0.000000
2515.521539,6883.915261,-9992.780217,-306.438199
2515.521866,7994.224174,-9326.594869,-536.266849
2515.522194,8734.430116,-8956.491898,-919.314598
2515.522521,9400.615463,-9252.574275,-766.095498
2515.522848,10510.924376,-9326.594869,-459.657299
2515.523176,11695.253884,-9918.759623,0.000000
2515.523503,11917.315666,-10732.986159,153.219100
2515.523830,11769.274478,-10807.006753,612.876398
2515.524158,10881.027347,-9474.636058,-383.047749
2515.524485,10140.821405,-9696.697840,0.000000
2515.524812,10362.883188,-10436.903782,229.828649
2515.525140,10140.821405,-10436.903782,229.828649
2515.525467,9844.739029,-9844.739029,306.438199
2515.525795,9474.636058,-9474.636058,766.095498
2515.526122,9030.512492,-8586.388927,306.438199
2515.526449,8216.285956,-7402.059420,153.219100
2515.526777,8512.368333,-7476.080014,306.438199
2515.527104,9252.574275,-8512.368333,459.657299
2515.527431,9696.697840,-9622.677246,995.924147
2515.527759,9474.636058,-10066.800811,1532.190996
2515.528086,7920.203579,-9992.780217,1455.581446
2515.528414,5921.647536,-9770.718434,2298.286494
2515.528741,3849.070898,-9474.636058,995.924147
2515.529068,2442.679609,-9548.656652,-229.828649
2515.529396,2368.659014,-9770.718434,-766.095498
2515.529723,2442.679609,-9400.615463,-766.095498
2515.530050,2146.597232,-9548.656652,0.000000
2515.530378,1628.453072,-9474.636058,612.876398
2515.530705,814.226536,-9474.636058,766.095498
2515.531033,-222.061783,-9696.697840,0.000000
2515.531360,-666.185348,-10214.842000,-995.924147
2515.531687,-592.164754,-9918.759623,-1072.533697
2515.532015,-444.123565,-9178.553681,-612.876398
2515.532342,-666.185348,-9918.759623,536.266849
2515.532669,-1406.391290,-11103.089130,1072.533697
2515.532997,-2886.803174,-11325.150913,0.000000
2515.533324,-4145.153275,-10214.842000,-1225.752797
2515.533651,-5551.544565,-8956.491898,-1915.238745
2515.533979,-7402.059420,-8956.491898,-2374.896044
2515.534306,-7031.956449,-8660.409521,-1838.629195
2515.534634,-4737.318029,-8956.491898,-1225.752797
2515.534961,-2590.720797,-9844.739029,-612.876398
2515.535288,0.000000,-9918.759623,-153.219100
2515.535616,1332.370696,-10362.883188,76.609550
2515.535943,-74.020594,-10140.821405,842.705048
2515.536270,-1332.370696,-10140.821405,153.219100
2515.536598,-1850.514855,-10140.821405,-306.438199
2515.536925,-2812.782580,-9992.780217,-766.095498
2515.537253,-1406.391290,-9622.677246,-1302.362347
2515.537580,74.020594,-9548.656652,-1072.533697
2515.537907,74.020594,-10140.821405,459.657299
2515.538235,-148.041188,-10658.965565,383.047749
2515.538562,-592.164754,-8956.491898,-536.266849
2515.538889,-2368.659014,-7772.162391,-1608.800546
2515.539217,-2368.659014,-6883.915261,-919.314598
2515.539544,-1110.308913,-5477.523971,-153.219100
2515.539872,1998.556043,-6735.874072,229.828649
2515.540199,4737.318029,-8660.409521,536.266849
2515.540526,6217.729913,-10584.944971,383.047749
2515.540854,5625.565159,-11991.336260,1225.752797
2515.541181,4145.153275,-12731.542202,766.095498
2515.541508,2664.741391,-12361.439231,-1762.019645
2515.541836,888.247130,-12435.459826,-3140.991542
2515.542163,222.061783,-10955.047942,-3064.381992
2515.542490,1998.556043,-9548.656652,-1532.190996
2515.542818,3997.112087,-7994.224174,995.924147
2515.543145,4663.297435,-8660.409521,2987.772442
2515.543473,3478.967927,-8438.347739,3064.381992
2515.543800,2368.659014,-7920.203579,612.876398
2515.544127,1258.350101,-7772.162391,-1455.581446
2515.544455,814.226536,-8512.368333,-2451.505594
2515.544782,2664.741391,-9252.574275,-1915.238745
2515.545109,4811.338623,-10288.862594,1149.143247
2515.545437,6883.915261,-11991.336260,2145.067394
2515.545764,6439.791695,-14434.015869,1072.533697
2515.546092,3404.947333,-15692.365970,0.000000
2515.546419,370.102971,-14211.954086,-1532.190996
2515.546746,-2664.741391,-11325.150913,-2604.724693
2515.547074,-4663.297435,-9030.512492,-1149.143247
2515.547401,-3330.926739,-6587.832884,-383.047749
2515.547728,-740.205942,-5403.503377,1608.800546
2515.548056,666.185348,-5847.626942,3447.429741
2515.548383,1184.329507,-7105.977043,3064.381992
2515.548711,1406.391290,-8956.491898,2068.457845
2515.549038,-444.123565,-9400.615463,766.095498
2515.549365,-2072.576638,-9400.615463,-919.314598
2515.549693,-1850.514855,-9696.697840,-1225.752797
2515.550020,-740.205942,-10510.924376,-919.314598
2515.550347,1184.329507,-11843.295072,76.609550
2515.550675,1702.473667,-12879.583391,919.314598
2515.551002,-518.144159,-13249.686362,1149.143247
2515.551329,-2960.823768,-11769.274478,919.314598
2515.551657,-5625.565159,-9844.739029,-1838.629195
2515.551984,-7846.182985,-7179.997637,-1915.238745
2515.552312,-7105.977043,-4959.379811,-2068.457845
2515.552639,-5255.462188,-3923.091493,-536.266849
2515.552966,-1850.514855,-5181.441594,1532.190996
2515.553294,1110.308913,-7254.018232,2681.334243
2515.553621,1998.556043,-9474.636058,2374.896044
2515.553948,1110.308913,-10955.047942,1149.143247
2515.554276,-296.082377,-11547.212695,-1302.362347
2515.554603,-1480.411884,-12361.439231,-4060.306139
2515.554931,-2146.597232,-12879.583391,-4366.744339
2515.555258,-592.164754,-11843.295072,-3294.210641
2515.555585,1258.350101,-11695.253884,-1608.800546
2515.555913,1850.514855,-11695.253884,-766.095498
2515.556240,1406.391290,-11621.233289,995.924147
2515.556567,-518.144159,-10955.047942,-459.657299
2515.556895,-1924.535449,-8586.388927,-1378.971896
2515.557222,-2220.617826,-6957.935855,-2068.457845
2515.557550,222.061783,-6291.750507,-995.924147
2515.557877,2812.782580,-5847.626942,766.095498
2515.558204,5255.462188,-7550.100608,1608.800546
2515.558532,6661.853478,-10288.862594,2221.676944
2515.558859,5107.421000,-11695.253884,1608.800546
2515.559186,2368.659014,-12805.562797,-459.657299
2515.559514,370.102971,-14137.933492,-3217.601092
2515.559841,-666.185348,-13101.645173,-4213.525239
2515.560169,370.102971,-10288.862594,-3830.477490
2515.560496,2738.761985,-9474.636058,-1149.143247
2515.560823,4515.256246,-9770.718434,1455.581446
2515.561151,5181.441594,-8734.430116,3677.258390
2515.561478,3552.988522,-8290.306550,4213.525239
2515.561805,1258.350101,-7994.224174,2604.724693
2515.562133,296.082377,-7105.977043,306.438199
2515.562460,-666.185348,-6143.709319,-536.266849
2515.562787,-518.144159,-5847.626942,1838.629195
2515.563115,1924.535449,-7402.059420,1532.190996
2515.563442,3478.967927,-9474.636058,1838.629195
2515.563770,3256.906145,-12361.439231,1762.019645
2515.564097,1332.370696,-13619.789333,306.438199
2515.564424,-222.061783,-14063.912898,-2221.676944
2515.564752,-2368.659014,-12657.521608,-2834.553343
2515.565079,-3182.885551,-9326.594869,-2298.286494
2515.565406,-2072.576638,-7402.059420,-766.095498
2515.565734,370.102971,-6291.750507,1991.848295
2515.566061,2072.576638,-7031.956449,3140.991542
2515.566389,2146.597232,-8364.327145,2757.943793
2515.566716,0.000000,-9548.656652,1685.410096
2515.567044,-1628.453072,-9918.759623,-612.876398
2515.567372,-2886.803174,-9622.677246,-2298.286494
2515.567699,-3775.050304,-9548.656652,-2451.505594
2515.568027,-1184.329507,-9178.553681,-1378.971896
2515.568355,1110.308913,-9474.636058,-995.924147
2515.568682,1554.432478,-11769.274478,229.828649
2515.569010,740.205942,-12435.459826,306.438199
2515.569338,-1184.329507,-12139.377449,-766.095498
2515.569665,-3775.050304,-11547.212695,-2451.505594
2515.569993,-4811.338623,-10066.800811,-2451.505594
2515.570320,-4145.153275,-7994.224174,-3140.991542
2515.570648,-2590.720797,-5847.626942,-1225.752797
2515.570976,518.144159,-7254.018232,306.438199
2515.571303,2220.617826,-9178.553681,1149.143247
2515.571631,1702.473667,-10362.883188,1762.019645
2515.571959,0.000000,-10881.027347,1915.238745
2515.572286,-740.205942,-10955.047942,-919.314598
2515.572614,-1850.514855,-10732.986159,-2681.334243
2515.572942,-1702.473667,-9844.739029,-1762.019645
2515.573269,74.020594,-8956.491898,-689.485948
2515.573597,962.267725,-8586.388927,536.266849
2515.573924,1258.350101,-9918.759623,1302.362347
2515.574252,518.144159,-11103.089130,459.657299
2515.574580,-1924.535449,-9770.718434,-689.485948
2515.574907,-2886.803174,-9474.636058,-1685.410096
2515.575235,-2442.679609,-8734.430116,-2145.067394
2515.575563,-962.267725,-7624.121203,-1608.800546
2515.575890,1702.473667,-7328.038826,612.876398
2515.576218,4515.256246,-7994.224174,2451.505594
2515.576546,4885.359217,-9252.574275,2757.943793
2515.576873,3478.967927,-10955.047942,2987.772442
2515.577201,1998.556043,-11917.315666,612.876398
2515.577528,0.000000,-11473.192101,-2451.505594
2515.577856,-1184.329507,-11695.253884,-3370.820191
2515.578184,0.000000,-9844.739029,-2451.505594
2515.578511,2960.823768,-9030.512492,-766.095498
2515.578839,4441.235652,-8660.409521,2145.067394
2515.579167,4367.215058,-10288.862594,2987.772442
2515.579494,3997.112087,-10732.986159,1762.019645
2515.579822,1480.411884,-10288.862594,-306.438199
2515.580150,-962.267725,-9474.636058,-1762.019645
2515.580477,-740.205942,-8586.388927,-2145.067394
2515.580805,888.247130,-8364.327145,-766.095498
2515.581132,2590.720797,-8586.388927,689.485948
2515.581460,5107.421000,-9844.739029,1225.752797
2515.581788,4071.132681,-11177.109724,1685.410096
2515.582115,1554.432478,-12139.377449,0.000000
2515.582443,0.000000,-12287.418637,-1608.800546
2515.582771,-1554.432478,-11251.130318,-2757.943793
2515.583098,-2368.659014,-10066.800811,-2068.457845
2515.583426,-592.164754,-8068.244768,-459.657299
2515.583754,1924.535449,-7476.080014,229.828649
2515.584081,1998.556043,-7624.121203,3140.991542
2515.584409,518.144159,-9030.512492,2681.334243
2515.584736,-1554.432478,-9622.677246,1225.752797
2515.585064,-3108.864956,-9474.636058,-1608.800546
2515.585392,-4737.318029,-8956.491898,-3064.381992
2515.585719,-5255.462188,-8660.409521,-3064.381992
2515.586047,-2368.659014,-8882.471304,-689.485948
2515.586375,814.226536,-9252.574275,919.314598
2515.586702,1628.453072,-9474.636058,919.314598
2515.587030,518.144159,-11917.315666,1149.143247
2515.587358,-518.144159,-12583.501014,0.000000
2515.587685,-3034.844362,-10436.903782,-1225.752797
2515.588013,-4589.276840,-9326.594869,-1608.800546
2515.588340,-3478.967927,-8068.244768,-1608.800546
2515.588668,-888.247130,-7179.997637,-536.266849
2515.588996,1332.370696,-7624.121203,919.314598
2515.589323,1776.494261,-9104.533087,2374.896044
2515.589651,1184.329507,-10732.986159,1455.581446
2515.589979,0.000000,-11251.130318,-153.219100
2515.590306,-2368.659014,-10807.006753,-1608.800546
2515.590634,-2664.741391,-9918.759623,-3753.867940
2515.590962,-888.247130,-9400.615463,-2911.162892
2515.591289,1850.514855,-9326.594869,-1149.143247
2515.591617,3923.091493,-9474.636058,1072.533697
2515.591945,3849.070898,-9844.739029,2145.067394
2515.592272,1924.535449,-11325.150913,1762.019645
2515.592600,296.082377,-11399.171507,383.047749
2515.592927,-666.185348,-10214.842000,-2145.067394
2515.593255,-1850.514855,-9474.636058,-2681.334243
2515.593583,296.082377,-9178.553681,-2221.676944
2515.593910,3478.967927,-8586.388927,-229.828649
2515.594238,4811.338623,-9178.553681,2451.505594
2515.594566,4145.153275,-9992.780217,3677.258390
2515.594893,2516.700203,-10658.965565,2374.896044
2515.595221,444.123565,-11103.089130,-995.924147
2515.595549,-1480.411884,-10066.800811,-2604.724693
2515.595876,-1924.535449,-8512.368333,-3524.039291
2515.596204,-888.247130,-8068.244768,-1762.019645
2515.596531,2220.617826,-8290.306550,919.314598
2515.596859,3627.009116,-8512.368333,2068.457845
2515.597187,3256.906145,-9992.780217,2298.286494
2515.597514,1776.494261,-11399.171507,1072.533697
2515.597842,0.000000,-11325.150913,-919.314598
2515.598170,-1628.453072,-10584.944971,-2221.676944
2515.598497,-888.247130,-9474.636058,-1532.190996
2515.598825,1406.391290,-8068.244768,306.438199
2515.599153,3256.906145,-7846.182985,1991.848295
2515.599480,3701.029710,-8660.409521,3064.381992
2515.599808,2886.803174,-10066.800811,2068.457845
2515.600135,296.082377,-10288.862594,229.828649
2515.600463,-2146.597232,-10066.800811,-1378.971896
2515.600791,-3627.009116,-9918.759623,-2987.772442
2515.601118,-2442.679609,-9400.615463,-2834.553343
2515.601446,222.061783,-8290.306550,-689.485948
2515.601774,2294.638420,-8290.306550,1378.971896
2515.602101,2960.823768,-9400.615463,1991.848295
2515.602429,1702.473667,-11177.109724,1991.848295
2515.602757,-370.102971,-11695.253884,-229.828649
2515.603084,-1998.556043,-11695.253884,-2451.505594
2515.603412,-3923.091493,-9992.780217,-3064.381992
2515.603739,-3627.009116,-8734.430116,-2298.286494
2515.604067,-1184.329507,-8290.306550,-766.095498
2515.604395,888.247130,-9326.594869,-383.047749
2515.604722,1258.350101,-10066.800811,842.705048
2515.605050,74.020594,-10436.903782,842.705048
2515.605378,-814.226536,-11029.068536,-306.438199
2515.605705,-2738.761985,-10066.800811,-1685.410096
2515.606033,-3849.070898,-8586.388927,-2145.067394
2515.606361,-2368.659014,-7994.224174,-995.924147
2515.606688,740.205942,-7994.224174,229.828649
2515.607016,3034.844362,-8364.327145,2145.067394
2515.607343,3034.844362,-9400.615463,1915.238745
2515.607671,592.164754,-11547.212695,1608.800546
2515.607999,-1184.329507,-12509.480420,-995.924147
2515.608326,-3404.947333,-11769.274478,-3140.991542
2515.608654,-4071.132681,-9474.636058,-2911.162892
2515.608982,-1776.494261,-7994.224174,-2068.457845
2515.609309,1628.453072,-8216.285956,842.705048
2515.609637,3552.988522,-8438.347739,2528.115143
2515.609965,3256.906145,-8808.450710,3753.867940
2515.610292,2072.576638,-9918.759623,2068.457845
2515.610620,0.000000,-10288.862594,-229.828649
2515.610947,-1850.514855,-9030.512492,-1991.848295
2515.611275,-2294.638420,-8438.347739,-2528.115143
2515.611603,962.267725,-8438.347739,-995.924147
2515.611930,4441.235652,-9770.718434,0.000000
2515.612258,5847.626942,-10732.986159,2145.067394
2515.612586,4811.338623,-11769.274478,2604.724693
2515.612913,3034.844362,-12805.562797,1149.143247
2515.613241,666.185348,-11621.233289,-1302.362347
2515.613569,-888.247130,-10288.862594,-3524.039291
2515.613896,-1924.535449,-8290.306550,-2298.286494
2515.614224,0.000000,-6809.894666,0.000000
2515.614551,2516.700203,-7402.059420,1455.581446
2515.614879,2812.782580,-8660.409521,2451.505594
2515.615207,1998.556043,-9844.739029,1685.410096
2515.615534,0.000000,-9992.780217,76.609550
2515.615862,-1480.411884,-10510.924376,-2374.896044
2515.616190,-2516.700203,-10140.821405,-3217.601092
2515.616517,-1258.350101,-9104.533087,-2374.896044
2515.616845,1258.350101,-9622.677246,-383.047749
2515.617173,3849.070898,-9844.739029,1762.019645
2515.617500,4515.256246,-10584.944971,2374.896044
2515.617828,2368.659014,-11769.274478,1915.238745
2515.618155,-444.123565,-11251.130318,0.000000
2515.618483,-2368.659014,-11251.130318,-2298.286494
2515.618811,-4515.256246,-9252.574275,-3217.601092
2515.619138,-3552.988522,-7402.059420,-2374.896044
2515.619466,-740.205942,-7105.977043,0.000000
2515.619794,1406.391290,-7994.224174,2068.457845
2515.620121,2590.720797,-9622.677246,2604.724693
2515.620449,1480.411884,-9770.718434,1685.410096
2515.620777,-222.061783,-10436.903782,-306.438199
2515.621104,-2072.576638,-10140.821405,-2068.457845
2515.621432,-2368.659014,-9474.636058,-2451.505594
2515.621759,-1554.432478,-8586.388927,-1225.752797
2515.622087,1554.432478,-8882.471304,459.657299
2515.622415,3849.070898,-9918.759623,1532.190996
2515.622742,2516.700203,-10066.800811,1455.581446
2515.623070,962.267725,-11769.274478,995.924147
2515.623398,-1332.370696,-11695.253884,-229.828649
2515.623725,-3330.926739,-10066.800811,-2145.067394
2515.624053,-3701.029710,-8808.450710,-1991.848295
2515.624381,-1924.535449,-7846.182985,-919.314598
2515.624708,814.226536,-7402.059420,919.314598
2515.625036,1702.473667,-8068.244768,1838.629195
2515.625363,888.247130,-9400.615463,2298.286494
2515.625691,148.041188,-10658.965565,766.095498
2515.626019,-1924.535449,-10584.944971,-1532.190996
2515.626346,-3034.844362,-10584.944971,-2987.772442
2515.626674,-2146.597232,-9622.677246,-3753.867940
2515.627002,296.082377,-9252.574275,-1915.238745
2515.627329,2812.782580,-9696.697840,536.266849
2515.627657,4367.215058,-10510.924376,1225.752797
2515.627985,3775.050304,-11917.315666,1762.019645
2515.628312,1184.329507,-12361.439231,1072.533697
2515.628640,-518.144159,-11473.192101,-842.705048
2515.628967,-2368.659014,-9178.553681,-2221.676944
2515.629295,-2590.720797,-7920.203579,-1455.581446
2515.629623,-148.041188,-7031.956449,-536.266849
2515.629950,1702.473667,-6957.935855,1762.019645
2515.630278,2590.720797,-8068.244768,2068.457845
2515.630606,2590.720797,-10214.842000,995.924147
2515.630933,1998.556043,-11843.295072,-536.266849
2515.631261,370.102971,-12065.356855,-1608.800546
2515.631589,-666.185348,-11325.150913,-2451.505594
2515.631916,370.102971,-9178.553681,-1915.238745
2515.632244,2664.741391,-8586.388927,0.000000
2515.632572,4515.256246,-9030.512492,995.924147
2515.632899,4663.297435,-10066.800811,1915.238745
2515.633227,3108.864956,-11399.171507,1762.019645
2515.633554,888.247130,-11695.253884,536.266849
2515.633882,-1554.432478,-10510.924376,-1532.190996
2515.634210,-2738.761985,-8660.409521,-1455.581446
2515.634537,-2368.659014,-7846.182985,-1149.143247
2515.634865,-296.082377,-6513.812290,306.438199
2515.635193,1776.494261,-7846.182985,1072.533697
2515.635520,2590.720797,-9992.780217,1838.629195
2515.635848,1924.535449,-11177.109724,1532.190996
2515.636176,-592.164754,-10510.924376,383.047749
2515.636503,-2220.617826,-10140.821405,-1685.410096
2515.636831,-3108.864956,-9326.594869,-2681.334243
2515.637158,-1924.535449,-8586.388927,-2451.505594
2515.637486,370.102971,-8290.306550,-459.657299
2515.637814,2664.741391,-9844.739029,689.485948
2515.638141,2590.720797,-11325.150913,995.924147
2515.638469,0.000000,-12657.521608,919.314598
2515.638797,-2738.761985,-10658.965565,-229.828649
2515.639124,-3775.050304,-9622.677246,-1838.629195
2515.639452,-4071.132681,-8586.388927,-1378.971896
2515.639780,-1628.453072,-7179.997637,-536.266849
2515.640107,1406.391290,-6587.832884,1072.533697
2515.640435,3034.844362,-8734.430116,2145.067394
2515.640762,2368.659014,-10658.965565,2528.115143
2515.641090,1184.329507,-10881.027347,0.000000
2515.641418,-1406.391290,-10362.883188,-1149.143247
2515.641745,-2738.761985,-10732.986159,-3217.601092
2515.642073,-1480.411884,-9918.759623,-3983.696590
2515.642401,962.267725,-9252.574275,-1991.848295
2515.642728,3182.885551,-9770.718434,612.876398
2515.643056,4589.276840,-10066.800811,2374.896044
2515.643384,3330.926739,-11251.130318,2757.943793
2515.643711,740.205942,-10881.027347,1915.238745
2515.644039,-888.247130,-10140.821405,-766.095498
2515.644366,-2738.761985,-8660.409521,-1915.238745
2515.644694,-3108.864956,-7772.162391,-1072.533697
2515.645022,-1184.329507,-6883.915261,229.828649
2515.645349,1110.308913,-7402.059420,1072.533697
2515.645677,2072.576638,-9252.574275,1072.533697
2515.646005,2220.617826,-10732.986159,995.924147
2515.646332,666.185348,-11399.171507,306.438199
2515.646660,-814.226536,-11251.130318,-1685.410096
2515.646988,-1258.350101,-10658.965565,-2528.115143
2515.647315,-296.082377,-9474.636058,-2145.067394
2515.647643,1628.453072,-8438.347739,536.266849
2515.647970,3775.050304,-9030.512492,2451.505594
2515.648298,3923.091493,-9992.780217,2604.724693
2515.648626,2072.576638,-11473.192101,1455.581446
2515.648953,-814.226536,-11251.130318,-229.828649
2515.649281,-2812.782580,-10214.842000,-2145.067394
2515.649609,-3478.967927,-9178.553681,-2911.162892
2515.649936,-2368.659014,-8142.265362,-1838.629195
2515.650264,370.102971,-7550.100608,153.219100
2515.650592,3034.844362,-8512.368333,1762.019645
2515.650919,3552.988522,-9326.594869,1915.238745
2515.651247,1776.494261,-10658.965565,1378.971896
2515.651574,-592.164754,-11251.130318,-153.219100
2515.651902,-1702.473667,-11251.130318,-2604.724693
2515.652230,-1924.535449,-10658.965565,-3600.648841
2515.652557,-222.061783,-9992.780217,-2757.943793
2515.652885,2368.659014,-9548.656652,-306.438199
2515.653213,4219.173869,-10140.821405,1838.629195
2515.653540,3256.906145,-11547.212695,2145.067394
2515.653868,1110.308913,-11473.192101,1149.143247
2515.654196,-518.144159,-10214.842000,-383.047749
2515.654523,-2294.638420,-8956.491898,-1302.362347
2515.654851,-2442.679609,-7402.059420,-536.266849
2515.655178,-370.102971,-6883.915261,306.438199
2515.655506,370.102971,-6661.853478,1149.143247
2515.655834,1850.514855,-7550.100608,1685.410096
2515.656161,1850.514855,-9622.677246,766.095498
2515.656489,0.000000,-10658.965565,153.219100
2515.656817,-1406.391290,-11621.233289,-1455.581446
2515.657144,-1554.432478,-11251.130318,-3217.601092
2515.657472,-2368.659014,-10140.821405,-2834.553343
2515.657800,0.000000,-9548.656652,-1149.143247
2515.658127,2886.803174,-9770.718434,995.924147
2515.658455,3775.050304,-10066.800811,2145.067394
2515.658782,2368.659014,-10807.006753,2221.676944
2515.659110,0.000000,-11177.109724,536.266849
2515.659438,-2738.761985,-9918.759623,-995.924147
2515.659765,-4885.359217,-8290.306550,-1608.800546
2515.660093,-4293.194464,-6661.853478,-1455.581446
2515.660421,-1998.556043,-7031.956449,-689.485948
2515.660748,962.267725,-7476.080014,536.266849
2515.661076,2664.741391,-9030.512492,1608.800546
2515.661404,2368.659014,-10881.027347,1455.581446
2515.661731,518.144159,-11843.295072,306.438199
2515.662059,-444.123565,-12287.418637,-1762.019645
2515.662386,-1036.288319,-11917.315666,-2987.772442
2515.662714,-1110.308913,-9622.677246,-2604.724693
2515.663042,1480.411884,-9474.636058,-1225.752797
2515.663369,3108.864956,-9622.677246,995.924147
2515.663697,3701.029710,-10510.924376,1915.238745
2515.664025,2368.659014,-10436.903782,1915.238745
2515.664352,0.000000,-10214.842000,1225.752797
2515.664680,-1332.370696,-9178.553681,-536.266849
2515.665008,-1554.432478,-8216.285956,-1532.190996
2515.665335,-1628.453072,-6957.935855,-306.438199
2515.665663,1406.391290,-6661.853478,1149.143247
2515.665990,3108.864956,-7105.977043,2374.896044
2515.666318,3108.864956,-9622.677246,1838.629195
2515.666646,740.205942,-11251.130318,1225.752797
2515.666973,-1258.350101,-11917.315666,-1838.629195
2515.667301,-2590.720797,-11177.109724,-3524.039291
2515.667629,-3182.885551,-10732.986159,-4290.134789
2515.667956,-518.144159,-9992.780217,-3370.820191
2515.668283,2368.659014,-10140.821405,0.000000
2515.668611,4293.194464,-10066.800811,2451.505594
2515.668938,4589.276840,-10732.986159,2221.676944
2515.669266,2368.659014,-10955.047942,2298.286494
2515.669593,-592.164754,-9770.718434,0.000000
2515.669921,-2516.700203,-8586.388927,-1302.362347
2515.670248,-2442.679609,-7772.162391,-1838.629195
2515.670576,-962.267725,-7105.977043,-459.657299
2515.670903,1998.556043,-7328.038826,1072.533697
2515.671231,2516.700203,-9326.594869,1762.019645
2515.671558,1702.473667,-10214.842000,1991.848295
2515.671886,222.061783,-11917.315666,-306.438199
2515.672213,-1924.535449,-12435.459826,-2604.724693
2515.672541,-2368.659014,-12139.377449,-3983.696590
2515.672868,-1554.432478,-10436.903782,-3830.477490
2515.673196,296.082377,-9400.615463,-766.095498
2515.673523,2738.761985,-8512.368333,1762.019645
2515.673851,4219.173869,-9400.615463,2834.553343
2515.674178,2072.576638,-10066.800811,2681.334243
2515.674505,74.020594,-10732.986159,1149.143247
2515.674833,-1184.329507,-10214.842000,-766.095498
2515.675160,-3256.906145,-9104.533087,-1608.800546
2515.675488,-2072.576638,-8882.471304,-766.095498
2515.675815,0.000000,-8364.327145,459.657299
2515.676143,2072.576638,-7698.141797,1991.848295
2515.676470,2368.659014,-9474.636058,2681.334243
2515.676798,1628.453072,-11325.150913,1532.190996
2515.677125,-444.123565,-10807.006753,-536.266849
2515.677453,-2220.617826,-10955.047942,-2221.676944
2515.677780,-2664.741391,-9474.636058,-3677.258390
2515.678108,-2146.597232,-8290.306550,-2221.676944
2515.678435,74.020594,-8882.471304,76.609550
2515.678763,2072.576638,-8660.409521,1302.362347
2515.679090,2738.761985,-9844.739029,1608.800546
2515.679418,1554.432478,-11843.295072,1149.143247
2515.679745,-1110.308913,-10732.986159,306.438199
2515.680073,-2516.700203,-9770.718434,-766.095498
2515.680400,-2960.823768,-9030.512492,-919.314598
2515.680728,-1480.411884,-7846.182985,-1532.190996
2515.681055,1480.411884,-7698.141797,229.828649
2515.681382,3034.844362,-7698.141797,1991.848295
2515.681710,3108.864956,-9400.615463,2068.457845
2515.682037,1554.432478,-10955.047942,919.314598
2515.682365,-1110.308913,-11695.253884,-1455.581446
2515.682692,-2664.741391,-11547.212695,-3753.867940
2515.683020,-2146.597232,-11177.109724,-4290.134789
2515.683347,-592.164754,-9844.739029,-2911.162892
2515.683675,2738.761985,-9696.697840,-306.438199
2515.684002,4219.173869,-9548.656652,1532.190996
2515.684330,4367.215058,-10584.944971,2374.896044
2515.684657,2294.638420,-11473.192101,1378.971896
2515.684985,518.144159,-9992.780217,306.438199
2515.685312,-1184.329507,-9178.553681,-995.924147
2515.685640,-2146.597232,-8364.327145,-1149.143247
2515.685967,-666.185348,-7179.997637,-229.828649
2515.686295,1850.514855,-7328.038826,383.047749
2515.686622,3256.906145,-9326.594869,1455.581446
2515.686950,2664.741391,-10140.821405,2451.505594
2515.687277,962.267725,-10881.027347,0.000000
2515.687605,-814.226536,-11547.212695,-842.705048
2515.687932,-2368.659014,-10732.986159,-2834.553343
2515.688259,-2516.700203,-9178.553681,-2911.162892
2515.688587,-296.082377,-8142.265362,-1072.533697
2515.688914,1998.556043,-7772.162391,995.924147
2515.689242,2590.720797,-8956.491898,2374.896044
2515.689569,2146.597232,-10436.903782,1915.238745
2515.689897,0.000000,-10436.903782,1302.362347
2515.690224,-1776.494261,-9696.697840,-1302.362347
2515.690552,-2516.700203,-9844.739029,-2068.457845
2515.690879,-1776.494261,-9252.574275,-1915.238745
2515.691207,814.226536,-8660.409521,-229.828649
2515.691534,3256.906145,-8068.244768,2068.457845
2515.691862,3997.112087,-9474.636058,2987.772442
2515.692189,2738.761985,-11103.089130,2451.505594
2515.692517,0.000000,-11843.295072,76.609550
2515.692844,-2368.659014,-11325.150913,-2451.505594
2515.693172,-3108.864956,-10436.903782,-4213.525239
2515.693499,-2368.659014,-9400.615463,-3524.039291
2515.693827,222.061783,-8512.368333,-1991.848295
2515.694154,2442.679609,-9030.512492,1302.362347
2515.694482,3256.906145,-10807.006753,2145.067394
2515.694809,2368.659014,-11473.192101,1302.362347
2515.695136,222.061783,-11399.171507,0.000000
2515.695464,-888.247130,-10362.883188,-919.314598
2515.695791,-1850.514855,-8734.430116,-1302.362347
2515.696119,-1628.453072,-8438.347739,0.000000
2515.696446,1036.288319,-7994.224174,153.219100
2515.696774,2146.597232,-8364.327145,766.095498
2515.697101,2072.576638,-9030.512492,1455.581446
2515.697429,666.185348,-11843.295072,612.876398
2515.697756,-814.226536,-12435.459826,-766.095498
2515.698084,-2368.659014,-10436.903782,-2528.115143
2515.698411,-2516.700203,-9326.594869,-2451.505594
2515.698739,-1184.329507,-8660.409521,-919.314598
2515.699066,1332.370696,-8438.347739,919.314598
2515.699394,2738.761985,-8364.327145,2221.676944
2515.699721,2368.659014,-9326.594869,2681.334243
2515.700049,370.102971,-9844.739029,1302.362347
2515.700376,-1110.308913,-10510.924376,-383.047749
2515.700704,-2516.700203,-9918.759623,-1991.848295
2515.701031,-3404.947333,-8142.265362,-1608.800546
2515.701359,0.000000,-8438.347739,-1302.362347
2515.701686,2368.659014,-8586.388927,689.485948
2515.702014,3627.009116,-9400.615463,1991.848295
2515.702341,2738.761985,-10658.965565,2145.067394
2515.702668,222.061783,-11399.171507,842.705048
2515.702996,-1554.432478,-11251.130318,-1532.190996
2515.703323,-2590.720797,-10436.903782,-3294.210641
2515.703651,-2812.782580,-8364.327145,-2757.943793
2515.703978,74.020594,-7994.224174,-1608.800546
2515.704306,2590.720797,-8660.409521,766.095498
2515.704633,3478.967927,-9548.656652,1915.238745
2515.704961,2664.741391,-10584.944971,1149.143247
2515.705288,1702.473667,-11843.295072,459.657299
2515.705616,222.061783,-11695.253884,-1608.800546
2515.705943,-592.164754,-10066.800811,-1378.971896
2515.706271,-740.205942,-9104.533087,-995.924147
2515.706598,1036.288319,-8882.471304,0.000000
2515.706926,2516.700203,-8068.244768,1378.971896
2515.707253,2368.659014,-8660.409521,1762.019645
2515.707581,1184.329507,-10510.924376,995.924147
2515.707908,0.000000,-10807.006753,-459.657299
2515.708236,-2220.617826,-10362.883188,-1455.581446
2515.708563,-3552.988522,-9178.553681,-2451.505594
2515.708891,-2368.659014,-8438.347739,-1608.800546
2515.709218,370.102971,-8068.244768,0.000000
2515.709545,2442.679609,-8808.450710,1455.581446
2515.709873,3034.844362,-9548.656652,2145.067394
2515.710200,1998.556043,-10955.047942,1532.190996
2515.710528,444.123565,-11621.233289,383.047749
2515.710855,-1998.556043,-10288.862594,-612.876398
2515.711183,-2516.700203,-8586.388927,-1838.629195
2515.711510,-1332.370696,-7550.100608,-1072.533697
2515.711838,1406.391290,-7920.203579,459.657299
2515.712165,3108.864956,-8660.409521,1838.629195
2515.712493,2886.803174,-10584.944971,1302.362347
2515.712820,1036.288319,-11547.212695,306.438199
2515.713148,-1628.453072,-11399.171507,-1149.143247
2515.713475,-2960.823768,-10436.903782,-2451.505594
2515.713803,-3256.906145,-9104.533087,-2834.553343
2515.714130,-1110.308913,-8512.368333,-1915.238745
2515.714458,2368.659014,-8882.471304,0.000000
2515.714785,3182.885551,-9400.615463,1762.019645
2515.715113,2516.700203,-10214.842000,1762.019645
2515.715440,666.185348,-11621.233289,689.485948
2515.715768,-1036.288319,-11769.274478,-1302.362347
2515.716095,-2368.659014,-10732.986159,-2604.724693
2515.716422,-2220.617826,-9770.718434,-2757.943793
2515.716750,0.000000,-9474.636058,-1762.019645
2515.717077,2294.638420,-8882.471304,536.266849
2515.717405,2664.741391,-9030.512492,2374.896044
2515.717732,1480.411884,-9770.718434,2451.505594
2515.718060,0.000000,-10214.842000,612.876398
2515.718387,-1480.411884,-9696.697840,-1608.800546
2515.718715,-2442.679609,-9252.574275,-2528.115143
2515.719042,-2368.659014,-8660.409521,-1532.190996
2515.719370,370.102971,-8290.306550,0.000000
2515.719697,2072.576638,-8438.347739,842.705048
2515.720025,2590.720797,-9696.697840,1762.019645
2515.720352,2368.659014,-11029.068536,1072.533697
2515.720680,814.226536,-12213.398043,-383.047749
2515.721007,-592.164754,-11473.192101,-842.705048
2515.721335,-1110.308913,-9252.574275,-1302.362347
2515.721662,-1036.288319,-7550.100608,-306.438199
2515.721990,1110.308913,-7402.059420,919.314598
2515.722317,2812.782580,-7846.182985,1915.238745
2515.722645,3182.885551,-8808.450710,2221.676944
2515.722972,1702.473667,-10066.800811,1378.971896
2515.723300,-296.082377,-11177.109724,-689.485948
2515.723627,-1924.535449,-10881.027347,-2145.067394
2515.723954,-2812.782580,-10214.842000,-2911.162892
2515.724282,-1850.514855,-8956.491898,-1762.019645
2515.724609,888.247130,-8364.327145,-536.266849
2515.724937,3108.864956,-9548.656652,612.876398
2515.725264,3256.906145,-10436.903782,1455.581446
2515.725592,1850.514855,-11177.109724,1378.971896
2515.725919,-148.041188,-11251.130318,536.266849
2515.726247,-2072.576638,-11029.068536,-1685.410096
2515.726574,-2812.782580,-9696.697840,-1532.190996
2515.726902,-1184.329507,-8734.430116,-1455.581446
2515.727229,814.226536,-8438.347739,-306.438199
2515.727557,2590.720797,-9474.636058,1072.533697
2515.727884,2368.659014,-10214.842000,1608.800546
2515.728212,1258.350101,-10140.821405,1608.800546
2515.728539,-888.247130,-9992.780217,0.000000
2515.728867,-2368.659014,-9548.656652,-1685.410096
2515.729194,-2442.679609,-8956.491898,-1455.581446
2515.729522,-1036.288319,-7550.100608,-1149.143247
2515.729849,592.164754,-7698.141797,766.095498
2515.730177,1702.473667,-8586.388927,2145.067394
2515.730504,1258.350101,-10955.047942,1915.238745
2515.730831,0.000000,-11917.315666,229.828649
2515.731159,-1480.411884,-11621.233289,-1838.629195
2515.731486,-2442.679609,-10584.944971,-2451.505594
2515.731814,-2442.679609,-9030.512492,-2298.286494
2515.732141,0.000000,-8364.327145,-383.047749
2515.732469,2886.803174,-7994.224174,1455.581446
2515.732796,3404.947333,-8438.347739,2604.724693
2515.733124,2812.782580,-9844.739029,2298.286494
2515.733451,1702.473667,-10436.903782,0.000000
2515.733779,-518.144159,-10140.821405,-1838.629195
2515.734106,-2664.741391,-9992.780217,-2757.943793
2515.734434,-1628.453072,-9178.553681,-2757.943793
2515.734761,888.247130,-8512.368333,-1532.190996
2515.735089,3330.926739,-9030.512492,0.000000
2515.735416,4589.276840,-10510.924376,1762.019645
2515.735744,3108.864956,-11621.233289,1685.410096
2515.736071,1406.391290,-12139.377449,766.095498
2515.736399,-222.061783,-11843.295072,-1455.581446
2515.736726,-1924.535449,-9770.718434,-2298.286494
2515.737054,-2368.659014,-8512.368333,-1685.410096
2515.737381,-222.061783,-8068.244768,0.000000
2515.737708,2368.659014,-7624.121203,1149.143247
2515.738036,1850.514855,-8660.409521,1378.971896
2515.738363,962.267725,-10066.800811,1302.362347
2515.738691,148.041188,-11251.130318,0.000000
2515.739018,-1554.432478,-9992.780217,-1532.190996
2515.739346,-1924.535449,-9252.574275,-2145.067394
2515.739673,-592.164754,-8882.471304,-1378.971896
2515.740001,1776.494261,-8142.265362,76.609550
2515.740328,3849.070898,-8660.409521,2451.505594
2515.740656,3552.988522,-10362.883188,2834.553343
2515.740983,1480.411884,-11695.253884,1608.800546
2515.741311,-592.164754,-11843.295072,-383.047749
2515.741638,-3108.864956,-10288.862594,-2451.505594
2515.741966,-4145.153275,-8660.409521,-2681.334243
2515.742293,-1998.556043,-8142.265362,-2145.067394
2515.742621,814.226536,-7179.997637,306.438199
2515.742948,2738.761985,-8216.285956,1455.581446
2515.743276,2590.720797,-10140.821405,2681.334243
2515.743603,1184.329507,-10881.027347,1532.190996
2515.743931,-1184.329507,-9992.780217,-459.657299
2515.744258,-2738.761985,-9400.615463,-2221.676944
2515.744585,-2146.597232,-9178.553681,-2757.943793
2515.744913,0.000000,-9030.512492,-2068.457845
2515.745240,2590.720797,-9474.636058,76.609550
2515.745568,3849.070898,-10362.883188,1225.752797
2515.745895,2812.782580,-11399.171507,1225.752797
2515.746223,1110.308913,-13027.624579,306.438199
2515.746550,-1406.391290,-12065.356855,-842.705048
2515.746878,-3034.844362,-10436.903782,-2068.457845
2515.747205,-2960.823768,-8808.450710,-1991.848295
2515.747533,0.000000,-8660.409521,-1532.190996
2515.747860,1332.370696,-7402.059420,1378.971896
2515.748188,1998.556043,-7698.141797,2834.553343
2515.748515,666.185348,-9326.594869,1991.848295
2515.748843,-222.061783,-10214.842000,0.000000
2515.749170,-1628.453072,-9548.656652,-1915.238745
2515.749498,-2220.617826,-9770.718434,-2681.334243
2515.749825,-1332.370696,-9548.656652,-2374.896044
2515.750153,888.247130,-9252.574275,-229.828649
2515.750480,3701.029710,-9474.636058,1685.410096
2515.750808,4367.215058,-9992.780217,2451.505594
2515.751135,3330.926739,-11251.130318,2298.286494
2515.751463,518.144159,-11325.150913,1072.533697
2515.751790,-888.247130,-9770.718434,-689.485948
2515.752117,-2886.803174,-8068.244768,-1532.190996
2515.752445,-2146.597232,-7402.059420,-842.705048
2515.752772,518.144159,-7105.977043,459.657299
2515.753100,2368.659014,-7476.080014,1608.800546
2515.753427,2442.679609,-9474.636058,1991.848295
2515.753755,1480.411884,-10584.944971,995.924147
2515.754082,518.144159,-11177.109724,-842.705048
2515.754410,-1850.514855,-10807.006753,-2374.896044
2515.754737,-1776.494261,-10436.903782,-3064.381992
2515.755065,222.061783,-9918.759623,-2298.286494
2515.755392,3182.885551,-10066.800811,-536.266849
2515.755720,4737.318029,-10214.842000,1072.533697
2515.756047,3849.070898,-10658.965565,2374.896044
2515.756375,1998.556043,-11991.336260,766.095498
2515.756702,-296.082377,-11843.295072,-383.047749
2515.757030,-2442.679609,-10584.944971,-2374.896044
2515.757357,-3034.844362,-9622.677246,-2681.334243
2515.757685,-1406.391290,-8512.368333,-995.924147
2515.758012,0.000000,-7624.121203,383.047749
2515.758340,1480.411884,-8438.347739,1685.410096
2515.758667,1924.535449,-9992.780217,1915.238745
2515.758994,592.164754,-10214.842000,1455.581446
2515.759322,-888.247130,-10658.965565,-536.266849
2515.759649,-2294.638420,-10288.862594,-1915.238745
2515.759977,-2220.617826,-9400.615463,-2528.115143
2515.760304,-518.144159,-9474.636058,-1072.533697
2515.760632,1776.494261,-9400.615463,842.705048
2515.760959,3478.967927,-9844.739029,1685.410096
2515.761287,2886.803174,-10436.903782,2068.457845
2515.761614,666.185348,-11547.212695,1149.143247
2515.761942,-1332.370696,-11103.089130,153.219100
2515.762269,-2442.679609,-9030.512492,-995.924147
2515.762597,-3034.844362,-7105.977043,-1302.362347
2515.762924,-1554.432478,-6439.791695,153.219100
2515.763252,962.267725,-6513.812290,1685.410096
2515.763579,1998.556043,-7772.162391,2528.115143
2515.763907,1110.308913,-9770.718434,1838.629195
2515.764234,0.000000,-10658.965565,0.000000
2515.764562,-1554.432478,-11251.130318,-1838.629195
2515.764889,-2220.617826,-10807.006753,-2911.162892
2515.765217,-1184.329507,-9918.759623,-3064.381992
2515.765544,1480.411884,-10066.800811,-1302.362347
2515.765871,3775.050304,-9770.718434,842.705048
2515.766199,3775.050304,-10140.821405,1455.581446
2515.766527,2220.617826,-11325.150913,1685.410096
2515.766854,0.000000,-11695.253884,306.438199
2515.767182,-1924.535449,-10658.965565,-1302.362347
2515.767510,-2738.761985,-9548.656652,-2834.553343
2515.767837,-1998.556043,-8216.285956,-2604.724693
2515.768165,296.082377,-7846.182985,-1225.752797
2515.768493,2442.679609,-8734.430116,689.485948
2515.768820,3182.885551,-10066.800811,1915.238745
2515.769148,2442.679609,-11029.068536,1149.143247
2515.769476,1110.308913,-11991.336260,-459.657299
2515.769803,-444.123565,-10807.006753,-1532.190996
2515.770131,-888.247130,-9918.759623,-1915.238745
2515.770458,-370.102971,-8882.471304,-1762.019645
2515.770786,1850.514855,-9326.594869,0.000000
2515.771114,3256.906145,-9400.615463,1532.190996
2515.771441,3108.864956,-9992.780217,1991.848295
2515.771769,1702.473667,-11177.109724,1455.581446
2515.772097,0.000000,-11547.212695,-153.219100
2515.772424,-2220.617826,-9474.636058,-536.266849
2515.772752,-2516.700203,-7698.141797,-995.924147
2515.773080,-1406.391290,-7105.977043,-229.828649
2515.773407,666.185348,-6143.709319,1455.581446
2515.773735,2220.617826,-7476.080014,2221.676944
2515.774062,2368.659014,-9400.615463,2221.676944
2515.774390,962.267725,-9696.697840,689.485948
2515.774718,-444.123565,-10807.006753,-1762.019645
2515.775045,-2072.576638,-10510.924376,-2374.896044
2515.775373,-1850.514855,-9622.677246,-2911.162892
2515.775701,962.267725,-9770.718434,-1762.019645
2515.776028,3478.967927,-10288.862594,0.000000
2515.776356,4293.194464,-10436.903782,1685.410096
2515.776684,3552.988522,-11769.274478,2221.676944
2515.777011,814.226536,-12953.603985,919.314598
2515.777339,-1554.432478,-11547.212695,-459.657299
2515.777666,-3478.967927,-9326.594869,-2298.286494
2515.777994,-3997.112087,-8364.327145,-2221.676944
2515.778322,-2146.597232,-7772.162391,-1455.581446
2515.778649,370.102971,-7994.224174,-229.828649
2515.778977,666.185348,-9178.553681,612.876398
2515.779305,296.082377,-10955.047942,995.924147
2515.779632,-148.041188,-11399.171507,-1072.533697
2515.779960,-1924.535449,-11547.212695,-1915.238745
2515.780288,-2294.638420,-11325.150913,-2911.162892
2515.780615,-1036.288319,-10362.883188,-2221.676944
2515.780943,962.267725,-9696.697840,-306.438199
2515.781270,2812.782580,-9474.636058,1685.410096
2515.781598,3034.844362,-9918.759623,2221.676944
2515.781926,592.164754,-10362.883188,2374.896044
2515.782253,-1110.308913,-10288.862594,153.219100
2515.782581,-2738.761985,-8882.471304,-1608.800546
2515.782909,-4145.153275,-7920.203579,-2298.286494
2515.783236,-2442.679609,-7402.059420,-1225.752797
2515.783564,444.123565,-7179.997637,229.828649
2515.783892,2294.638420,-7179.997637,2068.457845
2515.784219,3478.967927,-9030.512492,2757.943793
2515.784547,2442.679609,-10066.800811,1685.410096
2515.784874,444.123565,-10584.944971,0.000000
2515.785202,-370.102971,-11251.130318,-1532.190996
2515.785530,0.000000,-10362.883188,-2681.334243
2515.785857,1036.288319,-8660.409521,-1608.800546
2515.786185,3034.844362,-9474.636058,0.000000
2515.786513,5033.400406,-9918.759623,1302.362347
2515.786840,4367.215058,-11177.109724,1608.800546
2515.787168,2960.823768,-12065.356855,612.876398
2515.787496,518.144159,-11621.233289,-766.095498
2515.787823,-1258.350101,-10066.800811,-1762.019645
2515.788151,-2442.679609,-8808.450710,-1838.629195
2515.788478,-1702.473667,-7698.141797,-995.924147
2515.788806,592.164754,-6661.853478,919.314598
2515.789134,1924.535449,-8142.265362,995.924147
2515.789461,1406.391290,-9622.677246,766.095498
2515.789789,74.020594,-11103.089130,0.000000
2515.790117,-1332.370696,-11769.274478,-1838.629195
2515.790444,-1924.535449,-11769.274478,-2604.724693
2515.790772,-1184.329507,-10732.986159,-2528.115143
2515.791100,592.164754,-10140.821405,-1685.410096
2515.791427,2516.700203,-10066.800811,612.876398
2515.791755,3997.112087,-10066.800811,1915.238745
2515.792083,2812.782580,-10288.862594,2374.896044
2515.792410,0.000000,-10362.883188,2221.676944
2515.792738,-1998.556043,-9178.553681,689.485948
2515.793065,-4219.173869,-7179.997637,-766.095498
2515.793393,-4145.153275,-6735.874072,-1532.190996
2515.793721,-2220.617826,-6513.812290,-229.828649
2515.794048,0.000000,-6957.935855,1149.143247
2515.794376,1184.329507,-8364.327145,1838.629195
2515.794704,962.267725,-10732.986159,1072.533697
2515.795031,148.041188,-11843.295072,0.000000
2515.795359,-962.267725,-11621.233289,-1532.190996
2515.795687,-2146.597232,-11251.130318,-2528.115143
2515.796014,-1036.288319,-9622.677246,-2221.676944
2515.796342,1332.370696,-9104.533087,-536.266849
2515.796669,3404.947333,-9474.636058,1149.143247
2515.796997,3256.906145,-9844.739029,1838.629195
2515.797325,1924.535449,-10807.006753,1532.190996
2515.797652,-592.164754,-9918.759623,-306.438199
2515.797980,-2294.638420,-9918.759623,-2451.505594
2515.798308,-3478.967927,-9178.553681,-2451.505594
2515.798635,-1850.514855,-8586.388927,-1532.190996
2515.798963,814.226536,-7476.080014,-306.438199
2515.799291,2442.679609,-8364.327145,1378.971896
2515.799618,2886.803174,-9770.718434,2298.286494
2515.799946,1924.535449,-10955.047942,1762.019645
2515.800273,518.144159,-11843.295072,-995.924147
2515.800601,-814.226536,-11843.295072,-3524.039291
2515.800929,-1850.514855,-10732.986159,-3370.820191
2515.801256,-592.164754,-9696.697840,-1838.629195
2515.801584,1480.411884,-8956.491898,0.000000
2515.801912,3701.029710,-9548.656652,1302.362347
2515.802239,3775.050304,-11029.068536,995.924147
2515.802567,1776.494261,-10881.027347,612.876398
2515.802895,-222.061783,-9622.677246,383.047749
2515.803222,-1554.432478,-8586.388927,0.000000
2515.803550,-2368.659014,-7550.100608,0.000000
2515.803877,-1036.288319,-7254.018232,229.828649
2515.804205,888.247130,-6291.750507,1072.533697
2515.804533,2738.761985,-8068.244768,919.314598
2515.804860,2220.617826,-10214.842000,459.657299
2515.805188,444.123565,-11325.150913,0.000000
2515.805516,-962.267725,-11695.253884,-1762.019645
2515.805843,-2368.659014,-11029.068536,-2911.162892
2515.806171,-2220.617826,-10066.800811,-2834.553343
2515.806499,666.185348,-9030.512492,-1991.848295
2515.806826,2812.782580,-7994.224174,1302.362347
2515.807154,3627.009116,-9104.533087,2374.896044
2515.807481,2886.803174,-10140.821405,2145.067394
2515.807809,148.041188,-10807.006753,1072.533697
2515.808137,-2146.597232,-10140.821405,-306.438199
2515.808464,-3034.844362,-9104.533087,-1991.848295
2515.808792,-2664.741391,-8808.450710,-2068.457845
2515.809120,-1036.288319,-8438.347739,-1378.971896
2515.809447,2146.597232,-9474.636058,459.657299
2515.809775,3182.885551,-10288.862594,919.314598
2515.810103,1924.535449,-11251.130318,1455.581446
2515.810430,518.144159,-12139.377449,0.000000
2515.810758,-962.267725,-12065.356855,-1685.410096
2515.811085,-2220.617826,-9696.697840,-2681.334243
2515.811413,-1554.432478,-7920.203579,-1838.629195
2515.811741,518.144159,-8290.306550,-612.876398
2515.812068,2812.782580,-9252.574275,1378.971896
2515.812396,3034.844362,-9622.677246,1838.629195
2515.812724,1332.370696,-10362.883188,1685.410096
2515.813051,-444.123565,-10807.006753,0.000000
2515.813379,-1776.494261,-9622.677246,-1455.581446
2515.813707,-2590.720797,-8290.306550,-2145.067394
2515.814034,-1406.391290,-8216.285956,-1302.362347
2515.814362,1702.473667,-7920.203579,842.705048
2515.814690,3182.885551,-7698.141797,2068.457845
2515.815017,2886.803174,-9400.615463,2374.896044
2515.815345,1554.432478,-10584.944971,1149.143247
2515.815672,-888.247130,-10510.924376,-612.876398
2515.816000,-2368.659014,-10436.903782,-2451.505594
2515.816328,-2960.823768,-8734.430116,-2757.943793
2515.816655,-370.102971,-8142.265362,-1838.629195
2515.816983,2516.700203,-8660.409521,689.485948
2515.817311,4367.215058,-9400.615463,2374.896044
2515.817638,4441.235652,-10066.800811,2374.896044
2515.817966,2886.803174,-10955.047942,1378.971896
2515.818294,0.000000,-10510.924376,0.000000
2515.818621,-1776.494261,-10288.862594,-1915.238745
2515.818949,-2664.741391,-8808.450710,-2451.505594
2515.819276,0.000000,-8956.491898,-1225.752797
2515.819604,2664.741391,-8956.491898,0.000000
2515.819932,3552.988522,-9696.697840,1225.752797
2515.820259,2590.720797,-11621.233289,919.314598
2515.820587,888.247130,-12657.521608,-459.657299
2515.820915,-1036.288319,-11029.068536,-2604.724693
2515.821242,-2886.803174,-10732.986159,-2451.505594
2515.821570,-2516.700203,-9696.697840,-2221.676944
2515.821898,0.000000,-9178.553681,-995.924147
2515.822225,1998.556043,-9548.656652,1072.533697
2515.822553,3108.864956,-9400.615463,2604.724693
2515.822880,2146.597232,-9622.677246,1532.190996
2515.823208,0.000000,-10732.986159,919.314598
2515.823536,-2220.617826,-10214.842000,-1225.752797
2515.823863,-3108.864956,-8882.471304,-2374.896044
2515.824191,-3034.844362,-8068.244768,-1915.238745
2515.824519,-592.164754,-8364.327145,-459.657299
2515.824846,2368.659014,-8364.327145,1608.800546
2515.825174,2516.700203,-9178.553681,3064.381992
2515.825502,1480.411884,-10436.903782,2757.943793
2515.825829,0.000000,-10436.903782,459.657299
2515.826157,-2368.659014,-10214.842000,-1915.238745
2515.826484,-3849.070898,-8734.430116,-2451.505594
2515.826812,-2664.741391,-7624.121203,-2068.457845
2515.827140,444.123565,-7624.121203,-153.219100
2515.827467,2294.638420,-7994.224174,2757.943793
2515.827795,2812.782580,-9400.615463,2221.676944
2515.828123,1480.411884,-11029.068536,1608.800546
2515.828450,-148.041188,-10881.027347,0.000000
2515.828778,-1184.329507,-10584.944971,-1838.629195
2515.829106,-1924.535449,-10288.862594,-2298.286494
2515.829433,-1332.370696,-9178.553681,-995.924147
2515.829761,2146.597232,-8290.306550,0.000000
2515.830088,3182.885551,-9104.533087,383.047749
2515.830416,2220.617826,-10436.903782,1302.362347
2515.830744,370.102971,-11621.233289,76.609550
2515.831071,-1998.556043,-11399.171507,-2374.896044
2515.831399,-3552.988522,-10955.047942,-3677.258390
2515.831727,-2516.700203,-10510.924376,-3217.601092
2515.832054,0.000000,-9474.636058,-2451.505594
2515.832382,1998.556043,-8882.471304,229.828649
2515.832710,4441.235652,-9844.739029,1455.581446
2515.833037,3997.112087,-11177.109724,2221.676944
2515.833365,2294.638420,-11621.233289,1685.410096
2515.833692,592.164754,-10881.027347,-536.266849
2515.834020,-1776.494261,-9326.594869,-1838.629195
2515.834348,-2220.617826,-8956.491898,-1838.629195
2515.834675,-592.164754,-8364.327145,-842.705048
2515.835003,1776.494261,-8290.306550,612.876398
2515.835331,3182.885551,-9474.636058,1762.019645
2515.835658,3108.864956,-10955.047942,1915.238745
2515.835986,1258.350101,-11103.089130,612.876398
2515.836314,-666.185348,-10140.821405,-306.438199
2515.836641,-2072.576638,-8882.471304,-1149.143247
2515.836969,-2220.617826,-7402.059420,-1302.362347
2515.837297,222.061783,-7698.141797,-383.047749
2515.837624,2812.782580,-7624.121203,1225.752797
2515.837952,4071.132681,-8364.327145,2145.067394
2515.838279,2886.803174,-10362.883188,2068.457845
2515.838607,1258.350101,-11177.109724,766.095498
2515.838935,-814.226536,-10955.047942,-1685.410096
2515.839262,-1702.473667,-10362.883188,-2757.943793
2515.839590,-1184.329507,-9400.615463,-1838.629195
2515.839918,1554.432478,-9104.533087,-383.047749
2515.840245,3108.864956,-8438.347739,1608.800546
2515.840573,2886.803174,-9326.594869,2681.334243
2515.840901,1924.535449,-11399.171507,1991.848295
2515.841228,-592.164754,-11251.130318,-153.219100
2515.841556,-2220.617826,-10732.986159,-3447.429741
2515.841883,-3478.967927,-9548.656652,-3524.039291
2515.842211,-2738.761985,-9104.533087,-2681.334243
2515.842539,0.000000,-8956.491898,-995.924147
2515.842866,2072.576638,-9770.718434,153.219100
2515.843194,2590.720797,-10807.006753,1225.752797
2515.843522,1480.411884,-11621.233289,459.657299
2515.843849,0.000000,-11769.274478,-842.705048
2515.844177,-1850.514855,-11029.068536,-1608.800546
2515.844505,-3034.844362,-9400.615463,-2221.676944
2515.844832,-1776.494261,-8364.327145,-1685.410096
2515.845160,370.102971,-8364.327145,0.000000
2515.845487,1924.535449,-8290.306550,1685.410096
2515.845815,2072.576638,-9622.677246,2145.067394
2515.846143,74.020594,-9548.656652,1378.971896
2515.846470,-1554.432478,-9474.636058,0.000000
2515.846798,-2146.597232,-9918.759623,-1991.848295
2515.847126,-2368.659014,-9400.615463,-2221.676944
2515.847453,-444.123565,-8364.327145,-1225.752797
2515.847781,2590.720797,-8512.368333,995.924147
2515.848109,3997.112087,-8808.450710,1915.238745
2515.848436,3627.009116,-9474.636058,2528.115143
2515.848764,1850.514855,-10436.903782,1838.629195
2515.849091,-370.102971,-10732.986159,0.000000
2515.849419,-1776.494261,-10066.800811,-2221.676944
2515.849747,-1702.473667,-9326.594869,-2451.505594
2515.850074,0.000000,-8808.450710,-1225.752797
2515.850402,2368.659014,-8364.327145,766.095498
2515.850730,3478.967927,-9104.533087,1991.848295
2515.851057,2812.782580,-10807.006753,1455.581446
2515.851385,1258.350101,-11547.212695,383.047749
2515.851713,-666.185348,-10881.027347,-1302.362347
2515.852040,-2368.659014,-10140.821405,-2451.505594
2515.852368,-3034.844362,-8734.430116,-2298.286494
2515.852695,-962.267725,-8068.244768,-1378.971896
2515.853023,1036.288319,-8290.306550,536.266849
2515.853351,2886.803174,-10436.903782,153.219100
2515.853678,2146.597232,-11473.192101,689.485948
2515.854006,0.000000,-12213.398043,153.219100
2515.854334,-1702.473667,-11843.295072,-1378.971896
2515.854661,-2442.679609,-10510.924376,-2451.505594
2515.854989,-2368.659014,-8882.471304,-1455.581446
2515.855317,592.164754,-8364.327145,-1149.143247
2515.855644,3182.885551,-8290.306550,842.705048
2515.855972,3330.926739,-8882.471304,2528.115143
2515.856300,1924.535449,-9622.677246,2757.943793
2515.856627,-962.267725,-9622.677246,919.314598
2515.856955,-2738.761985,-9696.697840,-766.095498
2515.857282,-3923.091493,-8586.388927,-3217.601092
2515.857610,-2146.597232,-8364.327145,-3140.991542
2515.857938,666.185348,-8586.388927,-1378.971896
2515.858265,3182.885551,-9474.636058,995.924147
2515.858593,3997.112087,-10362.883188,2298.286494
2515.858921,2516.700203,-12139.377449,2451.505594
2515.859248,222.061783,-11917.315666,383.047749
2515.859576,-1184.329507,-10807.006753,-1302.362347
2515.859904,-2664.741391,-8956.491898,-2451.505594
2515.860231,-2368.659014,-7920.203579,-2145.067394
2515.860559,1036.288319,-8142.265362,-153.219100
2515.860886,2442.679609,-8364.327145,1608.800546
2515.861214,2072.576638,-9400.615463,1915.238745
2515.861542,1258.350101,-10955.047942,612.876398
2515.861869,0.000000,-10732.986159,-1838.629195
2515.862197,-2368.659014,-9400.615463,-2528.115143
2515.862525,-2368.659014,-9030.512492,-2221.676944
2515.862852,74.020594,-9030.512492,-995.924147
2515.863180,2812.782580,-8660.409521,766.095498
2515.863508,4441.235652,-9548.656652,2145.067394
2515.863835,3330.926739,-10658.965565,1762.019645
2515.864163,1332.370696,-11621.233289,612.876398
2515.864490,-592.164754,-12065.356855,-2221.676944
2515.864818,-3478.967927,-10584.944971,-3600.648841
2515.865146,-3552.988522,-9474.636058,-2987.772442
2515.865473,-814.226536,-8734.430116,-1225.752797
2515.865801,2146.597232,-8438.347739,1072.533697
2515.866129,3256.906145,-8438.347739,1991.848295
2515.866456,2886.803174,-8882.471304,2298.286494
2515.866784,1036.288319,-9548.656652,1532.190996
2515.867112,-370.102971,-9252.574275,-689.485948
2515.867439,-1850.514855,-9104.533087,-2068.457845
2515.867767,-1776.494261,-8438.347739,-1991.848295
2515.868094,740.205942,-9104.533087,-1302.362347
2515.868422,3330.926739,-9622.677246,689.485948
2515.868750,4663.297435,-10436.903782,1455.581446
2515.869077,3034.844362,-11399.171507,1149.143247
2515.869405,518.144159,-11695.253884,76.609550
2515.869732,-962.267725,-11473.192101,-689.485948
2515.870060,-2590.720797,-9696.697840,-1838.629195
2515.870388,-2294.638420,-8364.327145,-1455.581446
2515.870715,148.041188,-7698.141797,0.000000
2515.871043,1776.494261,-7402.059420,1455.581446
2515.871370,2220.617826,-7772.162391,2451.505594
2515.871698,1036.288319,-9548.656652,1685.410096
2515.872025,-814.226536,-10584.944971,-383.047749
2515.872353,-2442.679609,-10436.903782,-2528.115143
2515.872681,-2960.823768,-10362.883188,-3217.601092
2515.873008,-1406.391290,-9918.759623,-2145.067394
2515.873336,1924.535449,-9992.780217,-459.657299
2515.873663,3701.029710,-10436.903782,306.438199
2515.873991,3034.844362,-10436.903782,2451.505594
2515.874319,1332.370696,-11473.192101,1149.143247
2515.874646,-740.205942,-11843.295072,-536.266849
2515.874974,-2812.782580,-10066.800811,-1991.848295
2515.875301,-3849.070898,-8438.347739,-2451.505594
2515.875629,-2294.638420,-7328.038826,-689.485948
2515.875957,0.000000,-7254.018232,383.047749
2515.876284,2590.720797,-8512.368333,1915.238745
2515.876612,2368.659014,-9474.636058,1762.019645
2515.876939,962.267725,-10658.965565,995.924147
2515.877267,-518.144159,-10658.965565,-995.924147
2515.877595,-1850.514855,-10066.800811,-2374.896044
2515.877922,-1998.556043,-9400.615463,-1915.238745
2515.878250,0.000000,-8956.491898,-1149.143247
2515.878577,2368.659014,-9030.512492,766.095498
2515.878905,4219.173869,-9252.574275,2068.457845
2515.879232,3404.947333,-10510.924376,1762.019645
2515.879560,1406.391290,-11325.150913,842.705048
2515.879888,-666.185348,-10955.047942,-383.047749
2515.880215,-2442.679609,-8956.491898,-1915.238745
2515.880543,-1850.514855,-8364.327145,-995.924147
2515.880870,-222.061783,-8068.244768,0.000000
2515.881198,2072.576638,-7402.059420,1378.971896
2515.881526,2590.720797,-8734.430116,1685.410096
2515.881853,1628.453072,-10436.903782,1072.533697
2515.882181,-666.185348,-10584.944971,0.000000
2515.882508,-1702.473667,-10658.965565,-2451.505594
2515.882836,-2368.659014,-9992.780217,-3524.039291
2515.883164,-1480.411884,-9252.574275,-2834.553343
2515.883491,1628.453072,-9918.759623,-1302.362347
2515.883819,3552.988522,-10140.821405,995.924147
2515.884146,4071.132681,-10436.903782,2068.457845
2515.884474,2960.823768,-11621.233289,1532.190996
2515.884802,0.000000,-11473.192101,229.828649
2515.885129,-1850.514855,-10955.047942,-1685.410096
2515.885457,-2886.803174,-9178.553681,-2374.896044
2515.885784,-2442.679609,-8068.244768,-1532.190996
2515.886112,-296.082377,-8438.347739,76.609550
2515.886439,1776.494261,-8216.285956,1455.581446
2515.886767,2072.576638,-8882.471304,1915.238745
2515.887095,814.226536,-10214.842000,1762.019645
2515.887422,-518.144159,-10288.862594,-766.095498
2515.887750,-1776.494261,-10066.800811,-3524.039291
2515.888077,-2368.659014,-8956.491898,-2757.943793
2515.888405,-370.102971,-9474.636058,-1685.410096
2515.888733,2294.638420,-9918.759623,229.828649
2515.889060,3997.112087,-9770.718434,2145.067394
2515.889388,3849.070898,-9622.677246,2681.334243
2515.889715,1258.350101,-10362.883188,1302.362347
2515.890043,0.000000,-10288.862594,-229.828649
2515.890371,-2738.761985,-9326.594869,-1302.362347
2515.890698,-3701.029710,-8438.347739,-1532.190996
2515.891026,-2072.576638,-8438.347739,-995.924147
2515.891353,296.082377,-7994.224174,306.438199
2515.891681,888.247130,-7698.141797,1072.533697
2515.892009,1998.556043,-10066.800811,1225.752797
2515.892336,1036.288319,-11473.192101,689.485948
2515.892664,-1184.329507,-10288.862594,-919.314598
2515.892991,-1628.453072,-10362.883188,-2451.505594
2515.893319,-1554.432478,-9474.636058,-2451.505594
2515.893646,74.020594,-9104.533087,-1072.533697
2515.893974,2368.659014,-9992.780217,1302.362347
2515.894302,3182.885551,-10362.883188,1455.581446
2515.894629,2220.617826,-11029.068536,995.924147
2515.894957,296.082377,-11843.295072,0.000000
2515.895284,-1776.494261,-11843.295072,-1685.410096
2515.895612,-2664.741391,-10510.924376,-2145.067394
2515.895940,-1998.556043,-8808.450710,-1608.800546
2515.896267,0.000000,-7846.182985,-536.266849
2515.896595,2368.659014,-7994.224174,1838.629195
2515.896922,3330.926739,-8142.265362,2451.505594
2515.897250,2664.741391,-9178.553681,1991.848295
2515.897578,592.164754,-10066.800811,612.876398
2515.897905,-962.267725,-10807.006753,-1608.800546
2515.898233,-1554.432478,-10732.986159,-2757.943793
2515.898560,-962.267725,-9770.718434,-2834.553343
2515.898888,2146.597232,-10214.842000,-1608.800546
2515.899216,4589.276840,-10362.883188,689.485948
2515.899543,4737.318029,-10066.800811,2145.067394
2515.899871,2664.741391,-10362.883188,2681.334243
2515.900198,666.185348,-10214.842000,1378.971896
2515.900526,-1776.494261,-9474.636058,-383.047749
2515.900854,-2664.741391,-7698.141797,-1225.752797
2515.901181,-2590.720797,-6883.915261,-1455.581446
2515.901509,-666.185348,-7031.956449,-153.219100
2515.901836,1406.391290,-7031.956449,919.314598
2515.902164,1332.370696,-9178.553681,919.314598
2515.902491,1036.288319,-11029.068536,306.438199
2515.902819,296.082377,-11177.109724,-1532.190996
2515.903147,-888.247130,-11103.089130,-2528.115143
2515.903474,-1702.473667,-10658.965565,-2145.067394
2515.903802,0.000000,-9696.697840,-1225.752797
2515.904129,2146.597232,-9400.615463,612.876398
2515.904457,3552.988522,-9918.759623,1915.238745
2515.904785,3256.906145,-10288.862594,1685.410096
2515.905112,1036.288319,-11399.171507,919.314598
2515.905440,-1258.350101,-11251.130318,-383.047749
2515.905767,-3701.029710,-10362.883188,-1685.410096
2515.906095,-4663.297435,-8290.306550,-1991.848295
2515.906423,-2368.659014,-8068.244768,-1225.752797
2515.906750,0.000000,-8216.285956,0.000000
2515.907078,2368.659014,-9030.512492,1072.533697
2515.907405,2072.576638,-9474.636058,1762.019645
2515.907733,962.267725,-11177.109724,1532.190996
2515.908061,-666.185348,-11547.212695,-766.095498
2515.908388,-2146.597232,-10658.965565,-2451.505594
2515.908716,-1924.535449,-10066.800811,-3524.039291
2515.909043,-370.102971,-9696.697840,-1991.848295
2515.909371,2294.638420,-9992.780217,-306.438199
2515.909698,3627.009116,-10140.821405,1302.362347
2515.910026,3256.906145,-10436.903782,2145.067394
2515.910354,1110.308913,-10288.862594,2451.505594
2515.910681,-1110.308913,-9548.656652,612.876398
2515.911009,-1850.514855,-8512.368333,-919.314598
2515.911336,-2368.659014,-7476.080014,-1302.362347
2515.911664,-1258.350101,-6661.853478,0.000000
2515.911992,1480.411884,-7402.059420,919.314598
2515.912319,2886.803174,-8512.368333,919.314598
2515.912647,1702.473667,-9770.718434,1378.971896
2515.912974,370.102971,-10807.006753,383.047749
2515.913302,-888.247130,-11769.274478,-2834.553343
2515.913630,-1110.308913,-11325.150913,-3370.820191
2515.913957,-518.144159,-9844.739029,-2451.505594
2515.914285,2220.617826,-9770.718434,-229.828649
2515.914612,4959.379811,-9770.718434,1685.410096
2515.914940,4885.359217,-10066.800811,2451.505594
2515.915268,3404.947333,-10584.944971,1838.629195
2515.915595,592.164754,-11769.274478,383.047749
2515.915923,-1998.556043,-10658.965565,-1608.800546
2515.916250,-4145.153275,-8364.327145,-2221.676944
2515.916578,-3849.070898,-6957.935855,-2221.676944
2515.916905,-962.267725,-7624.121203,-766.095498
2515.917233,962.267725,-8882.471304,842.705048
2515.917561,2294.638420,-10140.821405,1762.019645
2515.917888,1036.288319,-10362.883188,842.705048
2515.918216,-444.123565,-11769.274478,-766.095498
2515.918543,-1702.473667,-11399.171507,-2221.676944
2515.918871,-1702.473667,-10955.047942,-2834.553343
2515.919199,-370.102971,-9548.656652,-766.095498
2515.919526,2368.659014,-9030.512492,689.485948
2515.919854,4367.215058,-9844.739029,1991.848295
2515.920181,2738.761985,-10066.800811,2298.286494
2515.920509,814.226536,-9622.677246,2145.067394
2515.920837,-1628.453072,-9622.677246,766.095498
2515.921164,-3330.926739,-9474.636058,-766.095498
2515.921492,-4515.256246,-7698.141797,-1762.019645
2515.921819,-2368.659014,-7105.977043,-1149.143247
2515.922147,444.123565,-7179.997637,689.485948
2515.922475,2146.597232,-8734.430116,1762.019645
2515.922802,2294.638420,-10214.842000,2221.676944
2515.923130,814.226536,-10732.986159,1225.752797
2515.923457,-962.267725,-10584.944971,-1149.143247
2515.923785,-1702.473667,-11399.171507,-2987.772442
2515.924112,-1554.432478,-10362.883188,-4136.915689
2515.924440,222.061783,-8808.450710,-1302.362347
2515.924768,3108.864956,-9252.574275,689.485948
2515.925095,3627.009116,-10510.924376,2145.067394
2515.925423,3404.947333,-10584.944971,1915.238745
2515.925750,1480.411884,-10881.027347,0.000000
2515.926078,-888.247130,-10066.800811,-536.266849
2515.926406,-1924.535449,-8956.491898,-1991.848295
2515.926733,-2368.659014,-7402.059420,-842.705048
2515.927061,-666.185348,-6883.915261,229.828649
2515.927388,1924.535449,-7476.080014,1302.362347
2515.927716,3849.070898,-9548.656652,1225.752797
2515.928044,2368.659014,-11325.150913,766.095498
2515.928371,888.247130,-12287.418637,-1302.362347
2515.928699,0.000000,-12731.542202,-3064.381992
2515.929026,-1702.473667,-11991.336260,-4213.525239
2515.929354,-1258.350101,-10214.842000,-2681.334243
2515.929682,1036.288319,-9178.553681,-536.266849
2515.930009,3478.967927,-8882.471304,1455.581446
2515.930337,3849.070898,-9400.615463,2604.724693
2515.930664,2442.679609,-9992.780217,2451.505594
2515.930992,222.061783,-9252.574275,1225.752797
2515.931320,-1480.411884,-8808.450710,383.047749
2515.931647,-3034.844362,-8216.285956,-995.924147
2515.931975,-2368.659014,-7994.224174,-1302.362347
2515.932302,0.000000,-8438.347739,-536.266849
2515.932630,2294.638420,-9030.512492,919.314598
2515.932957,2664.741391,-10436.903782,1685.410096
2515.933285,1554.432478,-10955.047942,1762.019645
2515.933613,-666.185348,-11103.089130,0.000000
2515.933940,-1998.556043,-10881.027347,-1838.629195
2515.934268,-3108.864956,-9326.594869,-2834.553343
2515.934595,-2294.638420,-7994.224174,-1838.629195
2515.934923,1258.350101,-8808.450710,-76.609550
2515.935251,2664.741391,-9326.594869,1532.190996
2515.935578,2294.638420,-9474.636058,1915.238745
2515.935906,1406.391290,-10214.842000,1302.362347
2515.936233,-962.267725,-10732.986159,0.000000
2515.936561,-2590.720797,-10140.821405,-1532.190996
2515.936889,-2960.823768,-9178.553681,-2374.896044
2515.937216,-1332.370696,-8586.388927,-1532.190996
2515.937544,1554.432478,-8438.347739,0.000000
2515.937871,2812.782580,-9400.615463,1915.238745
2515.938199,1850.514855,-9918.759623,1149.143247
2515.938527,518.144159,-11251.130318,306.438199
2515.938854,-1036.288319,-11621.233289,-2298.286494
2515.939182,-2294.638420,-10881.027347,-3983.696590
2515.939509,-2368.659014,-9622.677246,-3447.429741
2515.939837,0.000000,-9178.553681,-1532.190996
2515.940164,2738.761985,-8956.491898,229.828649
2515.940492,4367.215058,-9474.636058,3217.601092
2515.940820,3775.050304,-9622.677246,2757.943793
2515.941147,1554.432478,-10066.800811,1378.971896
2515.941475,-592.164754,-10807.006753,-612.876398
2515.941802,-1998.556043,-9474.636058,-1685.410096
2515.942130,-2368.659014,-8290.306550,-1838.629195
2515.942458,-740.205942,-8068.244768,-306.438199
2515.942785,666.185348,-8142.265362,1455.581446
2515.943113,2664.741391,-8956.491898,919.314598
2515.943440,2072.576638,-10732.986159,766.095498
2515.943768,1036.288319,-11103.089130,0.000000
2515.944096,-814.226536,-10362.883188,-1149.143247
2515.944423,-1998.556043,-9696.697840,-1532.190996
2515.944751,-1628.453072,-7994.224174,-766.095498
2515.945078,1110.308913,-8068.244768,919.314598
2515.945406,3256.906145,-8734.430116,1532.190996
2515.945734,3330.926739,-9844.739029,1455.581446
2515.946061,2294.638420,-11399.171507,842.705048
2515.946389,74.020594,-11251.130318,-383.047749
2515.946716,-1850.514855,-10658.965565,-1838.629195
2515.947044,-2294.638420,-9548.656652,-2068.457845
2515.947371,-1480.411884,-8586.388927,-919.314598
2515.947699,1258.350101,-8068.244768,-306.438199
2515.948027,3552.988522,-8956.491898,1072.533697
2515.948354,2812.782580,-9622.677246,2374.896044
2515.948682,1628.453072,-10732.986159,1302.362347
2515.949009,-296.082377,-11621.233289,-383.047749
2515.949337,-2368.659014,-10955.047942,-2145.067394
2515.949665,-2442.679609,-10436.903782,-3753.867940
2515.949992,-1702.473667,-9030.512492,-2451.505594
2515.950320,962.267725,-8956.491898,-383.047749
2515.950647,3330.926739,-9992.780217,1149.143247
2515.950975,2886.803174,-10658.965565,1838.629195
2515.951303,1110.308913,-10658.965565,1225.752797
2515.951630,-222.061783,-10436.903782,76.609550
2515.951958,-1924.535449,-10436.903782,-842.705048
2515.952285,-2812.782580,-8364.327145,-919.314598
2515.952613,-1554.432478,-7994.224174,-612.876398
2515.952941,592.164754,-8290.306550,842.705048
2515.953268,1554.432478,-7624.121203,1455.581446
2515.953596,1332.370696,-9474.636058,1302.362347
2515.953923,148.041188,-11103.089130,229.828649
2515.954251,-1850.514855,-10732.986159,-1532.190996
2515.954578,-2664.741391,-10140.821405,-1762.019645
2515.954906,-2960.823768,-9104.533087,-2221.676944
2515.955234,-962.267725,-8512.368333,-612.876398
2515.955561,2146.597232,-9178.553681,1149.143247
2515.955889,3404.947333,-9474.636058,2451.505594
2515.956216,2886.803174,-10288.862594,2145.067394
2515.956544,0.000000,-10362.883188,995.924147
2515.956872,-1036.288319,-10584.944971,-766.095498
2515.957199,-2960.823768,-9178.553681,-2374.896044
2515.957527,-2220.617826,-8290.306550,-2068.457845
2515.957854,148.041188,-8586.388927,-766.095498
2515.958182,2886.803174,-8882.471304,1072.533697
2515.958510,4145.153275,-9326.594869,1455.581446
2515.958837,2590.720797,-11177.109724,919.314598
2515.959165,222.061783,-11621.233289,229.828649
2515.959492,-1332.370696,-11325.150913,-2298.286494
2515.959820,-2590.720797,-10066.800811,-3447.429741
2515.960148,-2072.576638,-9030.512492,-2757.943793
2515.960475,518.144159,-8512.368333,-995.924147
2515.960803,2442.679609,-8586.388927,612.876398
2515.961130,3997.112087,-10362.883188,995.924147
2515.961458,2442.679609,-10732.986159,1072.533697
2515.961786,666.185348,-10955.047942,306.438199
2515.962113,-444.123565,-11473.192101,-1225.752797
2515.962441,-1036.288319,-10140.821405,-1991.848295
2515.962768,-592.164754,-9178.553681,-1608.800546
2515.963096,1628.453072,-8808.450710,229.828649
2515.963423,2664.741391,-7624.121203,1762.019645
2515.963751,3108.864956,-9474.636058,1762.019645
2515.964079,444.123565,-10510.924376,1225.752797
2515.964406,-1036.288319,-9992.780217,-459.657299
2515.964734,-2664.741391,-9770.718434,-2068.457845
2515.965061,-3997.112087,-8586.388927,-2298.286494
2515.965389,-2072.576638,-7920.203579,-1608.800546
2515.965717,666.185348,-8438.347739,229.828649
2515.966044,3034.844362,-9252.574275,2451.505594
2515.966372,3775.050304,-10362.883188,2298.286494
2515.966699,2294.638420,-11177.109724,1532.190996
2515.967027,74.020594,-11103.089130,-153.219100
2515.967355,-1924.535449,-9918.759623,-1378.971896
2515.967682,-2516.700203,-8882.471304,-1915.238745
2515.968010,-962.267725,-7846.182985,-612.876398
2515.968337,1850.514855,-8216.285956,1225.752797
2515.968665,3404.947333,-9104.533087,1915.238745
2515.968993,2072.576638,-10510.924376,1915.238745
2515.969320,296.082377,-11621.233289,766.095498
2515.969647,-1480.411884,-11177.109724,-1762.019645
2515.969975,-3330.926739,-9622.677246,-3294.210641
2515.970302,-2812.782580,-8586.388927,-3217.601092
2515.970630,-444.123565,-8364.327145,-1072.533697
2515.970957,2294.638420,-8956.491898,766.095498
2515.971285,3627.009116,-10288.862594,2068.457845
2515.971612,2590.720797,-10881.027347,1608.800546
2515.971940,148.041188,-10881.027347,536.266849
2515.972267,-1332.370696,-11621.233289,-842.705048
2515.972595,-2368.659014,-10658.965565,-2451.505594
2515.972922,-2664.741391,-9474.636058,-2528.115143
2515.973249,-296.082377,-9696.697840,-689.485948
2515.973577,2368.659014,-9252.574275,919.314598
2515.973904,2886.803174,-9326.594869,2681.334243
2515.974232,1480.411884,-10066.800811,2298.286494
2515.974559,0.000000,-10214.842000,459.657299
2515.974887,-1184.329507,-9548.656652,-1378.971896
2515.975214,-2960.823768,-8290.306550,-2681.334243
2515.975542,-2960.823768,-7328.038826,-1762.019645
2515.975869,148.041188,-8364.327145,153.219100
2515.976197,2738.761985,-8882.471304,1225.752797
2515.976524,3108.864956,-9474.636058,1225.752797
2515.976851,2146.597232,-11325.150913,229.828649
2515.977179,1406.391290,-12213.398043,-842.705048
2515.977506,-444.123565,-11029.068536,-2068.457845
2515.977834,-1554.432478,-9400.615463,-1455.581446
2515.978161,-518.144159,-8216.285956,-229.828649
2515.978489,1998.556043,-7476.080014,995.924147
2515.978816,4293.194464,-8882.471304,1838.629195
2515.979144,3775.050304,-9770.718434,2528.115143
2515.979471,2072.576638,-10658.965565,1225.752797
2515.979799,148.041188,-10658.965565,-306.438199
2515.980126,-1480.411884,-11103.089130,-2681.334243
2515.980453,-2960.823768,-9474.636058,-3524.039291
2515.980781,-962.267725,-8734.430116,-2451.505594
2515.981108,1406.391290,-8956.491898,-229.828649
2515.981436,3330.926739,-10510.924376,1532.190996
2515.981763,3775.050304,-10214.842000,1915.238745
2515.982091,1258.350101,-9844.739029,1532.190996
2515.982418,0.000000,-11621.233289,-383.047749
2515.982746,-1776.494261,-10881.027347,-1608.800546
2515.983073,-2960.823768,-9030.512492,-2374.896044
2515.983400,-1554.432478,-8882.471304,-1225.752797
2515.983728,1184.329507,-8364.327145,0.000000
2515.984055,2220.617826,-8882.471304,1762.019645
2515.984383,1258.350101,-10288.862594,1685.410096
2515.984710,-148.041188,-11325.150913,689.485948
2515.985038,-2072.576638,-9696.697840,-1455.581446
2515.985365,-3256.906145,-9178.553681,-2298.286494
2515.985693,-3330.926739,-8364.327145,-2145.067394
2515.986020,-962.267725,-7920.203579,0.000000
2515.986348,1702.473667,-8586.388927,1532.190996
2515.986675,2738.761985,-9400.615463,1991.848295
2515.987002,2146.597232,-10288.862594,1455.581446
2515.987330,592.164754,-11547.212695,0.000000
2515.987657,-1628.453072,-11325.150913,-1685.410096
2515.987985,-2960.823768,-10066.800811,-2681.334243
2515.988312,-2516.700203,-8290.306550,-2221.676944
2515.988640,0.000000,-7105.977043,-383.047749
2515.988967,2664.741391,-8438.347739,1685.410096
2515.989295,3552.988522,-9770.718434,2681.334243
2515.989622,1924.535449,-9770.718434,2145.067394
2515.989950,222.061783,-10066.800811,-229.828649
2515.990277,-1332.370696,-10288.862594,-2451.505594
2515.990604,-2664.741391,-9770.718434,-3064.381992
2515.990932,-1184.329507,-8956.491898,-2451.505594
2515.991259,1850.514855,-8438.347739,-689.485948
2515.991587,3775.050304,-9844.739029,0.000000
2515.991914,4367.215058,-11547.212695,1149.143247
2515.992242,2516.700203,-11621.233289,1455.581446
2515.992569,518.144159,-11991.336260,229.828649
2515.992897,-444.123565,-11621.233289,-1685.410096
2515.993224,-1554.432478,-8956.491898,-2221.676944
2515.993552,-1480.411884,-7920.203579,-1991.848295
2515.993879,296.082377,-7328.038826,612.876398
2515.994206,2146.597232,-7846.182985,1608.800546
2515.994534,1924.535449,-9252.574275,1915.238745
2515.994861,666.185348,-10436.903782,995.924147
2515.995189,-518.144159,-10436.903782,-306.438199
2515.995516,-1776.494261,-10066.800811,-1991.848295
2515.995844,-2072.576638,-9844.739029,-2145.067394
2515.996171,-444.123565,-8882.471304,-1302.362347
2515.996499,2442.679609,-8956.491898,766.095498
2515.996826,4071.132681,-9548.656652,2221.676944
2515.997154,3775.050304,-10807.006753,2068.457845
2515.997481,2072.576638,-11621.233289,1149.143247
2515.997808,-1110.308913,-10807.006753,-383.047749
2515.998136,-2960.823768,-9178.553681,-2068.457845
2515.998463,-2960.823768,-7772.162391,-2911.162892
2515.998791,-1258.350101,-7772.162391,-995.924147
2515.999118,1406.391290,-8142.265362,612.876398
2515.999446,3182.885551,-9178.553681,1762.019645
2515.999773,2368.659014,-10436.903782,1991.848295
2516.000101,814.226536,-10584.944971,306.438199
2516.000428,-1332.370696,-10288.862594,-995.924147
2516.000756,-2590.720797,-9474.636058,-2451.505594
2516.001083,-2220.617826,-9178.553681,-2528.115143
2516.001410,74.020594,-9030.512492,-1532.190996
2516.001738,2590.720797,-9992.780217,76.609550
2516.002065,3478.967927,-11473.192101,2068.457845
2516.002393,2664.741391,-11917.315666,1302.362347
2516.002720,444.123565,-11843.295072,-459.657299
2516.003048,-1036.288319,-11325.150913,-1685.410096
2516.003375,-2442.679609,-9770.718434,-2451.505594
2516.003703,-1924.535449,-9104.533087,-1685.410096
2516.004030,-296.082377,-7994.224174,536.266849
2516.004358,1406.391290,-7105.977043,2145.067394
2516.004685,2294.638420,-8512.368333,1991.848295
2516.005012,518.144159,-9844.739029,1302.362347
2516.005340,-962.267725,-9548.656652,-536.266849
2516.005667,-2294.638420,-9400.615463,-2528.115143
2516.005995,-2886.803174,-9252.574275,-3140.991542
2516.006322,-1480.411884,-9178.553681,-1991.848295
2516.006650,1406.391290,-9474.636058,-306.438199
2516.006977,3775.050304,-9992.780217,2068.457845
2516.007305,4737.318029,-10955.047942,2528.115143
2516.007632,3330.926739,-11621.233289,1072.533697
2516.007960,222.061783,-10807.006753,0.000000
2516.008287,-1628.453072,-9178.553681,-1149.143247
2516.008614,-3108.864956,-7994.224174,-1532.190996
2516.008942,-1850.514855,-7550.100608,-766.095498
2516.009269,814.226536,-7402.059420,1608.800546
2516.009597,1776.494261,-7994.224174,1302.362347
2516.009924,1258.350101,-9844.739029,919.314598
2516.010252,814.226536,-11399.171507,-536.266849
2516.010579,-666.185348,-10881.027347,-1991.848295
2516.010907,-2220.617826,-10658.965565,-2681.334243
2516.011234,-1776.494261,-10214.842000,-2451.505594
2516.011562,962.267725,-9030.512492,-1685.410096
2516.011889,3627.009116,-10288.862594,0.000000
2516.012216,5033.400406,-11251.130318,1532.190996
2516.012544,3330.926739,-11103.089130,1455.581446
2516.012871,888.247130,-11547.212695,766.095498
2516.013199,-888.247130,-11473.192101,-1149.143247
2516.013526,-1776.494261,-9992.780217,-2221.676944
2516.013854,-2072.576638,-9178.553681,-2451.505594
2516.014181,-296.082377,-8660.409521,-766.095498
2516.014509,1702.473667,-7846.182985,1225.752797
2516.014836,2220.617826,-8142.265362,1915.238745
2516.015164,1702.473667,-10140.821405,1685.410096
2516.015491,0.000000,-10214.842000,306.438199
2516.015818,-1702.473667,-9474.636058,-1225.752797
2516.016146,-2146.597232,-9326.594869,-2451.505594
2516.016473,-1702.473667,-9178.553681,-1838.629195
2516.016801,370.102971,-9252.574275,-153.219100
2516.017128,2294.638420,-9622.677246,1225.752797
2516.017456,3552.988522,-10214.842000,1378.971896
2516.017783,2368.659014,-11473.192101,842.705048
2516.018111,296.082377,-11103.089130,459.657299
2516.018438,-1480.411884,-10066.800811,-459.657299
2516.018766,-2960.823768,-8586.388927,-689.485948
2516.019093,-2368.659014,-7550.100608,0.000000
2516.019420,-148.041188,-7328.038826,689.485948
2516.019748,1184.329507,-6809.894666,1915.238745
2516.020075,1480.411884,-8956.491898,1532.190996
2516.020403,814.226536,-10732.986159,383.047749
2516.020730,-740.205942,-10214.842000,-995.924147
2516.021058,-2368.659014,-9992.780217,-2145.067394
2516.021385,-1776.494261,-10807.006753,-2834.553343
2516.021713,-222.061783,-9474.636058,-2604.724693
2516.022040,2516.700203,-10214.842000,-766.095498
2516.022368,4367.215058,-10584.944971,1455.581446
2516.022695,4589.276840,-10955.047942,1838.629195
2516.023022,2442.679609,-11843.295072,919.314598
2516.023350,-666.185348,-11325.150913,536.266849
2516.023677,-2294.638420,-10066.800811,-1991.848295
2516.024005,-2812.782580,-8586.388927,-2451.505594
2516.024332,-3034.844362,-8438.347739,-1685.410096
2516.024660,-148.041188,-8586.388927,-536.266849
2516.024987,1924.535449,-8734.430116,919.314598
2516.025315,1702.473667,-9474.636058,1455.581446
2516.025642,1776.494261,-11473.192101,919.314598
2516.025970,0.000000,-11251.130318,-1149.143247
2516.026297,-1110.308913,-9844.739029,-1762.019645
2516.026624,-666.185348,-9844.739029,-2068.457845
2516.026952,222.061783,-9030.512492,-995.924147
2516.027279,2294.638420,-8882.471304,612.876398
2516.027607,3849.070898,-9844.739029,1225.752797
2516.027934,3108.864956,-10436.903782,1838.629195
2516.028262,1036.288319,-10584.944971,1302.362347
2516.028589,-814.226536,-10214.842000,-459.657299
2516.028917,-2738.761985,-8882.471304,-1225.752797
2516.029244,-3182.885551,-7772.162391,-995.924147
2516.029572,-518.144159,-7476.080014,-306.438199
2516.029899,1480.411884,-7105.977043,1991.848295
2516.030226,2590.720797,-8808.450710,2374.896044
2516.030554,2886.803174,-9622.677246,1991.848295
2516.030881,1406.391290,-10140.821405,76.609550
2516.031209,-592.164754,-10807.006753,-1302.362347
2516.031536,-1850.514855,-11177.109724,-2834.553343
2516.031864,-1702.473667,-10066.800811,-2911.162892
2516.032191,444.123565,-9400.615463,-2221.676944
2516.032519,3997.112087,-10881.027347,-153.219100
2516.032846,4589.276840,-11103.089130,1685.410096
2516.033174,3108.864956,-11399.171507,2374.896044
2516.033501,888.247130,-11399.171507,536.266849
2516.033828,-1628.453072,-10362.883188,-689.485948
2516.034156,-3182.885551,-8882.471304,-1915.238745
2516.034483,-3627.009116,-7254.018232,-1072.533697
2516.034811,-1850.514855,-7254.018232,229.828649
2516.035138,370.102971,-8142.265362,766.095498
2516.035466,1628.453072,-10140.821405,536.266849
2516.035793,518.144159,-11399.171507,153.219100
2516.036121,-962.267725,-11547.212695,-919.314598
2516.036448,-2146.597232,-11029.068536,-2298.286494
2516.036776,-2368.659014,-10807.006753,-2911.162892
2516.037103,-1184.329507,-9622.677246,-2145.067394
2516.037430,1480.411884,-8734.430116,76.609550
2516.037758,3034.844362,-9474.636058,2451.505594
2516.038085,3552.988522,-10066.800811,2911.162892
2516.038413,1332.370696,-10288.862594,1915.238745
2516.038740,-1850.514855,-9252.574275,153.219100
2516.039068,-3330.926739,-8290.306550,-1532.190996
2516.039395,-3701.029710,-7772.162391,-2834.553343
2516.039723,-2368.659014,-7698.141797,-1608.800546
2516.040050,518.144159,-7846.182985,612.876398
2516.040378,2738.761985,-8734.430116,1915.238745
2516.040705,3108.864956,-9992.780217,1915.238745
2516.041032,2294.638420,-11399.171507,383.047749
2516.041360,518.144159,-10807.006753,-766.095498
2516.041687,-518.144159,-11399.171507,-2911.162892
2516.042015,-592.164754,-9844.739029,-2757.943793
2516.042342,814.226536,-9326.594869,-1302.362347
2516.042670,3182.885551,-9474.636058,689.485948
2516.042997,4959.379811,-11325.150913,1762.019645
2516.043325,3997.112087,-11473.192101,1378.971896
2516.043652,1924.535449,-11325.150913,76.609550
2516.043980,-148.041188,-11103.089130,-1072.533697
2516.044307,-1554.432478,-9992.780217,-2451.505594
2516.044634,-2516.700203,-8216.285956,-1608.800546
2516.044962,-1628.453072,-7105.977043,0.000000
2516.045289,740.205942,-7254.018232,1225.752797
2516.045617,2368.659014,-8586.388927,1149.143247
2516.045944,1850.514855,-10066.800811,536.266849
2516.046272,-444.123565,-11029.068536,0.000000
2516.046599,-1776.494261,-11991.336260,-1685.410096
2516.046927,-1776.494261,-11325.150913,-2987.772442
2516.047254,-1776.494261,-9992.780217,-2451.505594
2516.047582,0.000000,-9252.574275,-383.047749
2516.047909,2294.638420,-9696.697840,1915.238745
2516.048236,3775.050304,-10436.903782,2451.505594
2516.048564,2368.659014,-10807.006753,1915.238745
2516.048891,-592.164754,-9104.533087,1149.143247
2516.049219,-2960.823768,-8364.327145,-383.047749
2516.049546,-3627.009116,-8438.347739,-995.924147
2516.049874,-3627.009116,-7402.059420,-459.657299
2516.050201,-1480.411884,-6291.750507,229.828649
2516.050529,1776.494261,-7994.224174,689.485948
2516.050856,3182.885551,-10436.903782,842.705048
2516.051184,1998.556043,-11177.109724,536.266849
2516.051511,-296.082377,-11325.150913,-383.047749
2516.051838,-1776.494261,-11325.150913,-1915.238745
2516.052166,-1554.432478,-10436.903782,-3064.381992
2516.052493,0.000000,-9326.594869,-2451.505594
2516.052821,2146.597232,-9696.697840,76.609550
2516.053148,4737.318029,-10140.821405,1532.190996
2516.053476,4293.194464,-10140.821405,1991.848295
2516.053803,1258.350101,-9918.759623,1302.362347
2516.054131,-1406.391290,-10066.800811,-383.047749
2516.054458,-2812.782580,-9918.759623,-2221.676944
2516.054786,-3108.864956,-9252.574275,-2374.896044
2516.055113,-1480.411884,-8808.450710,-1378.971896
2516.055440,1702.473667,-8364.327145,383.047749
2516.055768,3256.906145,-8364.327145,1532.190996
2516.056095,2590.720797,-10510.924376,1455.581446
2516.056423,814.226536,-11695.253884,536.266849
2516.056750,-1332.370696,-11103.089130,-1225.752797
2516.057078,-1924.535449,-9622.677246,-3447.429741
2516.057405,-1924.535449,-9030.512492,-2834.553343
2516.057733,-814.226536,-8882.471304,-383.047749
2516.058060,2294.638420,-9104.533087,919.314598
2516.058387,3256.906145,-9474.636058,2298.286494
2516.058715,2590.720797,-10436.903782,1762.019645
2516.059042,1036.288319,-10140.821405,153.219100
2516.059370,-814.226536,-9326.594869,-536.266849
2516.059697,-2516.700203,-9252.574275,-1072.533697
2516.060025,-1702.473667,-7698.141797,0.000000
2516.060352,222.061783,-7254.018232,689.485948
2516.060680,1998.556043,-7920.203579,2068.457845
2516.061007,3627.009116,-9622.677246,1608.800546
2516.061335,2442.679609,-10584.944971,306.438199
2516.061662,0.000000,-10732.986159,-995.924147
2516.061989,-1702.473667,-10658.965565,-2604.724693
2516.062317,-2442.679609,-9918.759623,-3294.210641
2516.062644,-1036.288319,-9326.594869,-2374.896044
2516.062972,1628.453072,-9622.677246,-459.657299
2516.063299,4293.194464,-10658.965565,1455.581446
2516.063627,4737.318029,-10658.965565,2145.067394
2516.063954,2516.700203,-9844.739029,1608.800546
2516.064282,-518.144159,-10288.862594,536.266849
2516.064609,-1998.556043,-9992.780217,-1378.971896
2516.064937,-2812.782580,-9252.574275,-2298.286494
2516.065264,-2072.576638,-8882.471304,-842.705048
2516.065591,0.000000,-9030.512492,-229.828649
2516.065919,2146.597232,-9474.636058,459.657299
2516.066246,2368.659014,-10584.944971,766.095498
2516.066574,962.267725,-11473.192101,153.219100
2516.066901,-444.123565,-11621.233289,-612.876398
2516.067229,-1258.350101,-10584.944971,-2068.457845
2516.067556,-2220.617826,-8882.471304,-2451.505594
2516.067884,-1628.453072,-7698.141797,-766.095498
2516.068211,370.102971,-8216.285956,1149.143247
2516.068539,2442.679609,-9030.512492,2374.896044
2516.068866,1850.514855,-9622.677246,2221.676944
2516.069193,666.185348,-9844.739029,689.485948
2516.069521,-1332.370696,-9400.615463,0.000000
2516.069848,-2368.659014,-9030.512492,-919.314598
2516.070176,-2590.720797,-8956.491898,-1302.362347
2516.070503,-888.247130,-8512.368333,-306.438199
2516.070831,1258.350101,-7698.141797,1149.143247
2516.071158,2886.803174,-8438.347739,2374.896044
2516.071486,2960.823768,-8734.430116,2451.505594
2516.071813,1036.288319,-10140.821405,1149.143247
2516.072141,-1110.308913,-10362.883188,-1072.533697
2516.072468,-2442.679609,-9992.780217,-2604.724693
2516.072796,-2368.659014,-9474.636058,-2834.553343
2516.073123,0.000000,-8808.450710,-2068.457845
2516.073451,1924.535449,-9252.574275,0.000000
2516.073778,2960.823768,-10066.800811,536.266849
2516.074106,2960.823768,-11399.171507,1378.971896
2516.074433,1924.535449,-11917.315666,0.000000
2516.074761,-296.082377,-11251.130318,-612.876398
2516.075088,-1332.370696,-10362.883188,-2068.457845
2516.075416,-2072.576638,-9326.594869,-1762.019645
2516.075744,-444.123565,-8068.244768,-459.657299
2516.076071,1776.494261,-8586.388927,1072.533697
2516.076399,2294.638420,-9918.759623,1149.143247
2516.076726,1850.514855,-11621.233289,229.828649
2516.077054,444.123565,-11769.274478,-842.705048
2516.077381,-740.205942,-11621.233289,-1991.848295
2516.077709,-1998.556043,-10881.027347,-2221.676944
2516.078036,-1480.411884,-8808.450710,-1762.019645
2516.078364,444.123565,-8290.306550,0.000000
2516.078691,2516.700203,-8808.450710,2068.457845
2516.079019,3775.050304,-8956.491898,2528.115143
2516.079346,2664.741391,-9622.677246,2451.505594
2516.079674,-148.041188,-9548.656652,1302.362347
2516.080001,-2220.617826,-9474.636058,-612.876398
2516.080329,-2960.823768,-8586.388927,-1991.848295
2516.080656,-2516.700203,-7476.080014,-1532.190996
2516.080984,0.000000,-7624.121203,0.000000
2516.081311,2738.761985,-8660.409521,1608.800546
2516.081639,3701.029710,-9918.759623,2298.286494
2516.081966,2442.679609,-10658.965565,1608.800546
2516.082294,370.102971,-10881.027347,76.609550
2516.082621,-1480.411884,-10732.986159,-1302.362347
2516.082949,-2368.659014,-9030.512492,-2374.896044
2516.083276,-1628.453072,-7328.038826,-1455.581446
2516.083604,1036.288319,-8512.368333,536.266849
2516.083931,2886.803174,-9474.636058,1532.190996
2516.084259,2590.720797,-10066.800811,1608.800546
2516.084586,1480.411884,-11251.130318,536.266849
2516.084914,0.000000,-11399.171507,-1302.362347
2516.085241,-1628.453072,-10584.944971,-2374.896044
2516.085569,-2072.576638,-10140.821405,-2451.505594
2516.085896,-444.123565,-8660.409521,-1532.190996
2516.086224,2220.617826,-9030.512492,229.828649
2516.086551,3182.885551,-9622.677246,1915.238745
2516.086879,2294.638420,-10584.944971,1762.019645
2516.087207,370.102971,-11399.171507,0.000000
2516.087534,-1850.514855,-11621.233289,-1762.019645
2516.087862,-3182.885551,-10510.924376,-3524.039291
2516.088189,-3701.029710,-8956.491898,-3524.039291
2516.088517,-1554.432478,-8290.306550,-1225.752797
2516.088844,1406.391290,-8882.471304,919.314598
2516.089172,2886.803174,-9548.656652,1915.238745
2516.089499,2590.720797,-10140.821405,1991.848295
2516.089827,888.247130,-10214.842000,1762.019645
2516.090154,-370.102971,-9918.759623,-383.047749
2516.090482,-2294.638420,-9252.574275,-1225.752797
2516.090809,-2368.659014,-8364.327145,-1532.190996
2516.091137,0.000000,-7698.141797,-153.219100
2516.091464,2368.659014,-8586.388927,919.314598
2516.091792,3627.009116,-9474.636058,1225.752797
2516.092119,2368.659014,-10584.944971,612.876398
2516.092447,666.185348,-11029.068536,0.000000
2516.092774,-1480.411884,-9918.759623,-459.657299
2516.093102,-2738.761985,-9474.636058,-1991.848295
2516.093429,-1702.473667,-8364.327145,-1532.190996
2516.093757,814.226536,-7550.100608,0.000000
2516.094084,3182.885551,-8512.368333,1455.581446
2516.094412,4071.132681,-9548.656652,2451.505594
2516.094739,2886.803174,-10140.821405,1532.190996
2516.095067,740.205942,-10881.027347,-306.438199
2516.095394,-1332.370696,-11177.109724,-1991.848295
2516.095722,-2294.638420,-10066.800811,-2987.772442
2516.096049,-1332.370696,-9770.718434,-2451.505594
2516.096377,1258.350101,-9252.574275,-536.266849
2516.096704,3627.009116,-9844.739029,995.924147
2516.097032,3404.947333,-10436.903782,1991.848295
2516.097359,1554.432478,-10881.027347,1915.238745
2516.097687,-888.247130,-10362.883188,-306.438199
2516.098014,-2146.597232,-9918.759623,-2068.457845
2516.098342,-3108.864956,-8364.327145,-2681.334243
2516.098669,-2072.576638,-8290.306550,-995.924147
2516.098997,814.226536,-8068.244768,229.828649
2516.099325,2812.782580,-9400.615463,1532.190996
2516.099652,3182.885551,-11621.233289,1685.410096
2516.099980,1628.453072,-11769.274478,612.876398
2516.100307,-740.205942,-11177.109724,-612.876398
2516.100635,-2368.659014,-10584.944971,-1838.629195
2516.100962,-2442.679609,-9474.636058,-2451.505594
2516.101290,-962.267725,-7328.038826,-1302.362347
2516.101617,1406.391290,-7476.080014,1302.362347
2516.101945,2442.679609,-8512.368333,2604.724693
2516.102272,2294.638420,-9696.697840,2298.286494
2516.102600,148.041188,-9474.636058,459.657299
2516.102927,-1850.514855,-9770.718434,-1532.190996
2516.103255,-3108.864956,-9992.780217,-2681.334243
2516.103582,-2442.679609,-9178.553681,-1991.848295
2516.103910,222.061783,-9030.512492,-1149.143247
2516.104237,2812.782580,-9474.636058,995.924147
2516.104565,4441.235652,-10436.903782,1608.800546
2516.104892,3775.050304,-10732.986159,1608.800546
2516.105220,1628.453072,-11251.130318,383.047749
2516.105547,-740.205942,-11473.192101,0.000000
2516.105875,-2442.679609,-9844.739029,-2374.896044
2516.106202,-2812.782580,-8216.285956,-2451.505594
2516.106530,-296.082377,-8512.368333,-1072.533697
2516.106857,2368.659014,-9178.553681,306.438199
2516.107185,2886.803174,-10288.862594,1838.629195
2516.107512,1850.514855,-11103.089130,1378.971896
2516.107840,444.123565,-11177.109724,0.000000
2516.108167,-1554.432478,-10362.883188,-1762.019645
2516.108495,-2590.720797,-9474.636058,-2374.896044
2516.108822,-2220.617826,-7476.080014,-1455.581446
2516.109150,74.020594,-7994.224174,306.438199
2516.109477,2516.700203,-8882.471304,1302.362347
2516.109805,2812.782580,-10066.800811,1378.971896
2516.110132,1406.391290,-11177.109724,995.924147
2516.110460,-444.123565,-11029.068536,-229.828649
2516.110788,-2516.700203,-10436.903782,-1608.800546
2516.111115,-3034.844362,-9622.677246,-1685.410096
2516.111443,-2664.741391,-7698.141797,-1225.752797
2516.111770,0.000000,-8068.244768,689.485948
2516.112098,2368.659014,-8512.368333,2374.896044
2516.112425,2886.803174,-9474.636058,2757.943793
2516.112753,1258.350101,-9474.636058,1149.143247
2516.113080,-1850.514855,-9178.553681,-383.047749
2516.113408,-2220.617826,-9622.677246,-2374.896044
2516.113735,-2516.700203,-9178.553681,-3370.820191
2516.114063,-962.267725,-9178.553681,-2221.676944
2516.114390,2590.720797,-9770.718434,76.609550
2516.114718,4737.318029,-10436.903782,1455.581446
2516.115045,3849.070898,-11325.150913,1838.629195
2516.115373,2146.597232,-11473.192101,919.314598
2516.115700,222.061783,-11325.150913,0.000000
2516.116028,-1258.350101,-10510.924376,-1685.410096
2516.116355,-1998.556043,-9178.553681,-2145.067394
2516.116683,-888.247130,-8512.368333,-766.095498
2516.117010,1924.535449,-8882.471304,612.876398
2516.117338,3034.844362,-9474.636058,1149.143247
2516.117665,2220.617826,-10362.883188,1378.971896
2516.117993,592.164754,-11177.109724,-383.047749
2516.118320,-1406.391290,-10436.903782,-2068.457845
2516.118648,-2516.700203,-10066.800811,-2451.505594
2516.118975,-1924.535449,-9400.615463,-2068.457845
2516.119303,666.185348,-8808.450710,0.000000
2516.119630,2960.823768,-8216.285956,1455.581446
2516.119958,4145.153275,-9474.636058,2374.896044
2516.120285,2886.803174,-10214.842000,2221.676944
2516.120613,518.144159,-10658.965565,0.000000
2516.120940,-1332.370696,-10807.006753,-1455.581446
2516.121268,-3552.988522,-9770.718434,-1915.238745
2516.121595,-2960.823768,-8364.327145,-1378.971896
2516.121923,-592.164754,-7846.182985,76.609550
2516.122250,1776.494261,-7772.162391,1915.238745
2516.122578,2442.679609,-9474.636058,2681.334243
2516.122906,2072.576638,-10362.883188,2068.457845
2516.123233,0.000000,-9474.636058,459.657299
2516.123561,-1480.411884,-9104.533087,-1455.581446
2516.123888,-2368.659014,-9474.636058,-2298.286494
2516.124216,-1702.473667,-8586.388927,-1149.143247
2516.124543,1258.350101,-8586.388927,0.000000
2516.124871,3775.050304,-9770.718434,229.828649
2516.125198,4145.153275,-11473.192101,842.705048
2516.125526,3330.926739,-11843.295072,536.266849
2516.125853,444.123565,-11547.212695,-383.047749
2516.126181,-2072.576638,-11103.089130,-1302.362347
2516.126508,-2368.659014,-10288.862594,-2374.896044
2516.126836,-1406.391290,-9844.739029,-1838.629195
2516.127163,296.082377,-8364.327145,383.047749
2516.127491,2664.741391,-9104.533087,1072.533697
2516.127818,2220.617826,-10288.862594,1378.971896
2516.128146,148.041188,-10658.965565,689.485948
2516.128473,-1776.494261,-9992.780217,-1225.752797
2516.128801,-3034.844362,-8956.491898,-2451.505594
2516.129128,-2738.761985,-9252.574275,-2451.505594
2516.129456,-592.164754,-9252.574275,-1378.971896
2516.129783,2294.638420,-9548.656652,459.657299
2516.130111,3775.050304,-10584.944971,1991.848295
2516.130438,3775.050304,-11177.109724,2298.286494
2516.130766,1406.391290,-11399.171507,1149.143247
2516.131093,-592.164754,-10807.006753,-842.705048
2516.131421,-2368.659014,-8882.471304,-1838.629195
2516.131748,-3034.844362,-7920.203579,-1455.581446
2516.132076,-1480.411884,-6735.874072,153.219100
2516.132403,1036.288319,-6883.915261,1532.190996
2516.132731,2146.597232,-8216.285956,2604.724693
2516.133058,1924.535449,-9622.677246,2374.896044
2516.133386,518.144159,-9992.780217,0.000000
2516.133713,-1258.350101,-9400.615463,-306.438199
2516.134041,-1628.453072,-10140.821405,-2145.067394
2516.134368,-740.205942,-9400.615463,-2068.457845
2516.134696,888.247130,-9178.553681,-306.438199
2516.135024,3627.009116,-9770.718434,1378.971896
2516.135351,4663.297435,-10066.800811,1685.410096
2516.135679,3404.947333,-10732.986159,995.924147
2516.136006,444.123565,-11251.130318,0.000000
2516.136334,-1406.391290,-10288.862594,-1072.533697
2516.136661,-2294.638420,-9918.759623,-2451.505594
2516.136989,-2368.659014,-9030.512492,-1302.362347
2516.137316,-592.164754,-8364.327145,0.000000
2516.137644,1258.350101,-8586.388927,536.266849
2516.137971,2368.659014,-10436.903782,919.314598
2516.138299,1406.391290,-10807.006753,306.438199
2516.138626,-666.185348,-10584.944971,-1072.533697
2516.138954,-2368.659014,-9918.759623,-1532.190996
2516.139281,-3108.864956,-9474.636058,-1991.848295
2516.139609,-1998.556043,-9622.677246,-1991.848295
2516.139936,370.102971,-9474.636058,-383.047749
2516.140264,2664.741391,-10214.842000,383.047749
2516.140591,3404.947333,-11473.192101,1302.362347
2516.140919,2220.617826,-11991.336260,0.000000
2516.141246,-370.102971,-11325.150913,0.000000
2516.141574,-1776.494261,-10584.944971,-995.924147
2516.141901,-2886.803174,-8734.430116,-919.314598
2516.142229,-1480.411884,-7402.059420,-612.876398
2516.142556,1110.308913,-6587.832884,1608.800546
2516.142884,1998.556043,-6883.915261,2604.724693
2516.143211,2146.597232,-8216.285956,2451.505594
2516.143539,1110.308913,-9474.636058,1149.143247
2516.143866,-1258.350101,-9326.594869,-1072.533697
2516.144194,-2294.638420,-10066.800811,-2528.115143
2516.144521,-1924.535449,-10066.800811,-3217.601092
2516.144849,444.123565,-9770.718434,-1685.410096
2516.145176,4071.132681,-9844.739029,-229.828649
2516.145504,5403.503377,-9770.718434,2451.505594
2516.145831,4515.256246,-10214.842000,2681.334243
2516.146159,2664.741391,-10658.965565,1532.190996
2516.146487,-296.082377,-9770.718434,0.000000
2516.146814,-2442.679609,-9252.574275,-1378.971896
2516.147142,-2664.741391,-8364.327145,-1762.019645
2516.147469,-2146.597232,-7994.224174,-766.095498
2516.147797,0.000000,-7624.121203,459.657299
2516.148124,1776.494261,-9474.636058,612.876398
2516.148452,1998.556043,-11103.089130,0.000000
2516.148779,666.185348,-11547.212695,-1072.533697
2516.149107,-1036.288319,-10732.986159,-2221.676944
2516.149434,-1924.535449,-10066.800811,-2528.115143
2516.149762,-1332.370696,-9400.615463,-1302.362347
2516.150089,814.226536,-8808.450710,-229.828649
2516.150417,2294.638420,-9474.636058,1532.190996
2516.150744,3478.967927,-10881.027347,1225.752797
2516.151072,2886.803174,-11991.336260,229.828649
2516.151399,518.144159,-11917.315666,-536.266849
2516.151727,-1850.514855,-10955.047942,-766.095498
2516.152054,-2738.761985,-9474.636058,-1225.752797
2516.152382,-2146.597232,-7624.121203,-919.314598
2516.152709,-888.247130,-7698.141797,459.657299
2516.153037,1924.535449,-7772.162391,2221.676944
2516.153364,2368.659014,-7846.182985,2604.724693
2516.153692,1036.288319,-8808.450710,1838.629195
2516.154019,-370.102971,-10214.842000,-153.219100
2516.154347,-2368.659014,-9918.759623,-1838.629195
2516.154674,-2664.741391,-9474.636058,-2604.724693
2516.155002,-1628.453072,-9326.594869,-2911.162892
2516.155329,1998.556043,-9770.718434,-995.924147
2516.155657,4663.297435,-10510.924376,1378.971896
2516.155984,4441.235652,-10584.944971,2681.334243
2516.156312,3182.885551,-11177.109724,2757.943793
2516.156639,666.185348,-10214.842000,842.705048
2516.156967,-1110.308913,-9548.656652,-306.438199
2516.157294,-2960.823768,-8586.388927,-995.924147
2516.157622,-2220.617826,-7402.059420,-766.095498
2516.157949,148.041188,-7476.080014,306.438199
2516.158277,1184.329507,-8512.368333,1072.533697
2516.158605,1776.494261,-9918.759623,229.828649
2516.158932,962.267725,-10510.924376,-1302.362347
2516.159260,-666.185348,-10732.986159,-1378.971896
2516.159587,-1258.350101,-11473.192101,-2834.553343
2516.159915,-1258.350101,-10807.006753,-2757.943793
2516.160242,444.123565,-9696.697840,-919.314598
2516.160570,2442.679609,-9548.656652,919.314598
2516.160897,4145.153275,-10732.986159,2145.067394
2516.161225,2960.823768,-11399.171507,1685.410096
2516.161552,740.205942,-11029.068536,153.219100
2516.161880,-2368.659014,-10658.965565,-1225.752797
2516.162207,-4293.194464,-9400.615463,-2221.676944
2516.162535,-3997.112087,-7772.162391,-2145.067394
2516.162862,-2146.597232,-7328.038826,-919.314598
2516.163190,592.164754,-7476.080014,1455.581446
2516.163517,3034.844362,-8364.327145,2604.724693
2516.163845,3330.926739,-9400.615463,2145.067394
2516.164172,814.226536,-10214.842000,612.876398
2516.164500,-592.164754,-11103.089130,-919.314598
2516.164827,-1110.308913,-10732.986159,-2604.724693
2516.165155,-1110.308913,-10066.800811,-2528.115143
2516.165482,592.164754,-9474.636058,-1072.533697
2516.165810,3627.009116,-10066.800811,612.876398
2516.166137,4071.132681,-9770.718434,1915.238745
2516.166465,2812.782580,-10658.965565,1685.410096
2516.166792,0.000000,-10436.903782,766.095498
2516.167120,-2072.576638,-9474.636058,-842.705048
2516.167447,-2516.700203,-8882.471304,-1532.190996
2516.167775,-2294.638420,-8438.347739,-1149.143247
2516.168102,-666.185348,-8142.265362,76.609550
2516.168430,1702.473667,-8216.285956,1378.971896
2516.168757,2590.720797,-9252.574275,1072.533697
2516.169085,1776.494261,-10732.986159,0.000000
2516.169412,444.123565,-11695.253884,-1149.143247
2516.169740,-1480.411884,-11325.150913,-2451.505594
2516.170068,-2072.576638,-10807.006753,-2757.943793
2516.170395,-592.164754,-10436.903782,-2451.505594
2516.170723,1850.514855,-9770.718434,-153.219100
2516.171050,3108.864956,-10510.924376,1302.362347
2516.171378,3404.947333,-11103.089130,2145.067394
2516.171705,2220.617826,-10807.006753,1072.533697
2516.172033,-148.041188,-10362.883188,-536.266849
2516.172360,-2294.638420,-8512.368333,-842.705048
2516.172688,-3849.070898,-7179.997637,-1532.190996
2516.173015,-2516.700203,-7031.956449,229.828649
2516.173343,-370.102971,-7254.018232,536.266849
2516.173670,1702.473667,-8438.347739,995.924147
2516.173998,2738.761985,-10214.842000,689.485948
2516.174325,1406.391290,-11177.109724,76.609550
2516.174653,-370.102971,-12065.356855,-612.876398
2516.174980,-1480.411884,-12509.480420,-1838.629195
2516.175308,-962.267725,-10584.944971,-2911.162892
2516.175636,-370.102971,-8438.347739,-1378.971896
2516.175963,1258.350101,-9400.615463,919.314598
2516.176291,2590.720797,-9474.636058,2145.067394
2516.176618,2072.576638,-9474.636058,1455.581446
2516.176946,0.000000,-9770.718434,612.876398
2516.177273,-2220.617826,-9252.574275,-689.485948
2516.177601,-3108.864956,-9844.739029,-1378.971896
2516.177928,-2738.761985,-9474.636058,-1378.971896
2516.178256,-1036.288319,-8882.471304,-1302.362347
2516.178583,1850.514855,-9178.553681,0.000000
2516.178911,3256.906145,-9696.697840,842.705048
2516.179238,2886.803174,-9992.780217,1685.410096
2516.179566,740.205942,-10288.862594,459.657299
2516.179894,-740.205942,-10881.027347,-995.924147
2516.180221,-888.247130,-10584.944971,-2528.115143
2516.180549,-518.144159,-9622.677246,-2374.896044
2516.180876,1776.494261,-9474.636058,-842.705048
2516.181204,3701.029710,-10214.842000,1302.362347
2516.181531,4737.318029,-11029.068536,1838.629195
2516.181859,2886.803174,-10732.986159,995.924147
2516.182186,1110.308913,-10214.842000,0.000000
2516.182514,-1184.329507,-9252.574275,-766.095498
2516.182841,-2442.679609,-8660.409521,-1072.533697
2516.183169,-1850.514855,-7105.977043,-536.266849
2516.183496,148.041188,-7402.059420,76.609550
2516.183824,1776.494261,-8586.388927,995.924147
2516.184152,2146.597232,-9474.636058,1608.800546
2516.184479,1406.391290,-9696.697840,306.438199
2516.184807,-962.267725,-11029.068536,-995.924147
2516.185134,-1998.556043,-11621.233289,-2451.505594
2516.185462,-1480.411884,-10732.986159,-3217.601092
2516.185789,-518.144159,-9474.636058,-1762.019645
2516.186117,2368.659014,-9918.759623,689.485948
2516.186444,4589.276840,-9844.739029,2221.676944
2516.186772,4293.194464,-9474.636058,2911.162892
2516.187099,1258.350101,-9178.553681,1685.410096
2516.187427,-962.267725,-8882.471304,0.000000
2516.187754,-2960.823768,-9400.615463,-842.705048
2516.188082,-3256.906145,-9474.636058,-1608.800546
2516.188410,-1850.514855,-8660.409521,-1302.362347
2516.188737,518.144159,-9030.512492,-383.047749
2516.189065,2368.659014,-10436.903782,766.095498
2516.189392,2072.576638,-10658.965565,229.828649
2516.189720,296.082377,-10881.027347,-612.876398
2516.190047,-1554.432478,-10955.047942,-995.924147
2516.190375,-2072.576638,-10288.862594,-1838.629195
2516.190702,-2368.659014,-9548.656652,-1149.143247
2516.191030,-888.247130,-9178.553681,-306.438199
2516.191357,1258.350101,-8882.471304,536.266849
2516.191685,2886.803174,-10658.965565,919.314598
2516.192012,1850.514855,-10732.986159,383.047749
2516.192340,-222.061783,-9770.718434,-612.876398
2516.192668,-1850.514855,-9918.759623,-1072.533697
2516.192995,-2664.741391,-10066.800811,-919.314598
2516.193323,-1850.514855,-8438.347739,-995.924147
2516.193650,74.020594,-7920.203579,306.438199
2516.193978,1776.494261,-8364.327145,1915.238745
2516.194305,2664.741391,-9326.594869,1608.800546
2516.194633,1628.453072,-10214.842000,612.876398
2516.194960,-518.144159,-10510.924376,-766.095498
2516.195288,-1702.473667,-10140.821405,-2451.505594
2516.195615,-1702.473667,-10658.965565,-2528.115143
2516.195943,-1628.453072,-9474.636058,-2145.067394
2516.196271,888.247130,-8734.430116,383.047749
2516.196598,4293.194464,-9178.553681,1149.143247
2516.196926,4811.338623,-9548.656652,2374.896044
2516.197253,3404.947333,-9844.739029,2145.067394
2516.197581,1480.411884,-9622.677246,842.705048
2516.197908,-740.205942,-9622.677246,-383.047749
2516.198236,-1406.391290,-9474.636058,-919.314598
2516.198563,-1110.308913,-8586.388927,-536.266849
2516.198891,370.102971,-8290.306550,76.609550
2516.199218,2220.617826,-9030.512492,459.657299
2516.199546,2738.761985,-10584.944971,-229.828649
2516.199873,2072.576638,-11251.130318,-536.266849
2516.200201,0.000000,-10881.027347,-766.095498
2516.200529,-1036.288319,-10140.821405,-1532.190996
2516.200856,-1332.370696,-9770.718434,-1225.752797
2516.201184,-592.164754,-9178.553681,-153.219100
2516.201511,1332.370696,-8956.491898,383.047749
2516.201839,2368.659014,-9400.615463,995.924147
2516.202166,2738.761985,-10807.006753,536.266849
2516.202494,1258.350101,-11103.089130,306.438199
2516.202821,-1480.411884,-9992.780217,229.828649
2516.203149,-2220.617826,-10214.842000,-1072.533697
2516.203476,-2442.679609,-9030.512492,-1302.362347
2516.203804,-1628.453072,-8216.285956,-995.924147
2516.204131,814.226536,-8660.409521,306.438199
2516.204459,2664.741391,-9252.574275,1915.238745
2516.204787,2072.576638,-10288.862594,1302.362347
2516.205114,0.000000,-10214.842000,459.657299
2516.205442,-962.267725,-10584.944971,-1608.800546
2516.205769,-1924.535449,-10362.883188,-1915.238745
2516.206097,-1924.535449,-9400.615463,-2221.676944
2516.206424,-666.185348,-9030.512492,-1225.752797
2516.206752,2146.597232,-8956.491898,-306.438199
2516.207079,3775.050304,-9770.718434,1302.362347
2516.207407,2442.679609,-9178.553681,1915.238745
2516.207734,740.205942,-10066.800811,1608.800546
2516.208062,-444.123565,-10288.862594,0.000000
2516.208389,-1776.494261,-9696.697840,-1302.362347
2516.208717,-1924.535449,-9030.512492,-1378.971896
2516.209045,0.000000,-8216.285956,-536.266849
2516.209372,1776.494261,-8660.409521,1225.752797
2516.209700,3034.844362,-9252.574275,1149.143247
2516.210027,2368.659014,-10288.862594,0.000000
2516.210355,0.000000,-10807.006753,-536.266849
2516.210682,-1924.535449,-10436.903782,-1608.800546
2516.211010,-2738.761985,-9918.759623,-2451.505594
2516.211337,-2368.659014,-9474.636058,-2451.505594
2516.211665,-148.041188,-8438.347739,-229.828649
2516.211992,1998.556043,-8956.491898,995.924147
2516.212320,3034.844362,-10510.924376,1455.581446
2516.212647,2516.700203,-11103.089130,766.095498
2516.212975,592.164754,-10288.862594,-459.657299
2516.213303,-1628.453072,-9844.739029,-1072.533697
2516.213630,-2368.659014,-8586.388927,-1685.410096
2516.213958,-1480.411884,-8068.244768,-1302.362347
2516.214285,296.082377,-8586.388927,76.609550
2516.214613,2664.741391,-9178.553681,1302.362347
2516.214940,3775.050304,-10881.027347,1302.362347
2516.215268,2146.597232,-11251.130318,689.485948
2516.215595,0.000000,-11103.089130,-766.095498
2516.215923,-1776.494261,-10436.903782,-1762.019645
2516.216250,-1850.514855,-9474.636058,-1378.971896
2516.216578,-222.061783,-8586.388927,-1915.238745
2516.216905,1258.350101,-8438.347739,919.314598
2516.217233,3256.906145,-8512.368333,1762.019645
2516.217561,3404.947333,-9622.677246,2145.067394
2516.217888,1702.473667,-10732.986159,1072.533697
2516.218216,-74.020594,-10732.986159,0.000000
2516.218543,-1850.514855,-10066.800811,-2298.286494
2516.218871,-1554.432478,-9400.615463,-2145.067394
2516.219198,74.020594,-9178.553681,-995.924147
2516.219526,1924.535449,-9178.553681,842.705048
2516.219853,3034.844362,-8956.491898,1532.190996
2516.220181,2664.741391,-9696.697840,1302.362347
2516.220508,592.164754,-10584.944971,76.609550
2516.220836,-1258.350101,-9844.739029,-459.657299
2516.221163,-3330.926739,-9030.512492,-2298.286494
2516.221491,-3330.926739,-9178.553681,-1762.019645
2516.221819,-1184.329507,-8586.388927,-995.924147
2516.222146,1480.411884,-8882.471304,229.828649
2516.222474,2886.803174,-10140.821405,1072.533697
2516.222801,2886.803174,-10732.986159,689.485948
2516.223129,1480.411884,-10584.944971,-459.657299
2516.223456,-370.102971,-10955.047942,-536.266849
2516.223784,-1850.514855,-10436.903782,-1455.581446
2516.224111,-1998.556043,-8956.491898,-1302.362347
2516.224439,-222.061783,-8216.285956,0.000000
2516.224766,1924.535449,-8882.471304,1608.800546
2516.225094,2590.720797,-9104.533087,1838.629195
2516.225422,1924.535449,-10510.924376,1072.533697
2516.225749,-666.185348,-9992.780217,-229.828649
2516.226077,-2664.741391,-10288.862594,-2528.115143
2516.226404,-3478.967927,-9770.718434,-2834.553343
2516.226732,-2738.761985,-8438.347739,-1838.629195
2516.227059,148.041188,-8364.327145,0.000000
2516.227387,3182.885551,-9400.615463,1532.190996
2516.227714,4515.256246,-9844.739029,1991.848295
2516.228042,3256.906145,-10214.842000,536.266849
2516.228369,1258.350101,-10436.903782,536.266849
2516.228697,-1110.308913,-10584.944971,-995.924147
2516.229024,-2072.576638,-10066.800811,-2221.676944
2516.229352,-1702.473667,-9622.677246,-2298.286494
2516.229680,740.205942,-9326.594869,-766.095498
2516.230007,3034.844362,-9326.594869,995.924147
2516.230335,2664.741391,-9400.615463,2145.067394
2516.230662,1258.350101,-10658.965565,1072.533697
2516.230990,0.000000,-10066.800811,-383.047749
2516.231317,-1776.494261,-9030.512492,-2145.067394
2516.231645,-2590.720797,-8882.471304,-1532.190996
2516.231972,-1406.391290,-8364.327145,-306.438199
2516.232300,1406.391290,-8512.368333,536.266849
2516.232627,2590.720797,-9918.759623,1762.019645
2516.232955,3627.009116,-11029.068536,1455.581446
2516.233282,1702.473667,-11695.253884,-689.485948
2516.233610,-370.102971,-12213.398043,-1378.971896
2516.233938,-1628.453072,-10584.944971,-1838.629195
2516.234265,-1702.473667,-9622.677246,-1685.410096
2516.234593,-814.226536,-8882.471304,76.609550
2516.234920,1776.494261,-8512.368333,1838.629195
2516.235248,3404.947333,-8956.491898,2221.676944
2516.235575,2220.617826,-9178.553681,2451.505594
2516.235903,592.164754,-10362.883188,612.876398
2516.236230,-1184.329507,-10510.924376,-1991.848295
2516.236558,-3182.885551,-9474.636058,-2911.162892
2516.236885,-2812.782580,-9030.512492,-2528.115143
2516.237213,-296.082377,-8512.368333,-1072.533697
2516.237540,2516.700203,-9178.553681,689.485948
2516.237868,4219.173869,-10066.800811,2221.676944
2516.238196,3552.988522,-10510.924376,2068.457845
2516.238523,1406.391290,-11177.109724,1149.143247
2516.238851,-518.144159,-11103.089130,-306.438199
2516.239178,-1924.535449,-10140.821405,-1378.971896
2516.239506,-2442.679609,-8512.368333,-1608.800546
2516.239833,-1406.391290,-8216.285956,-459.657299
2516.240161,814.226536,-8956.491898,612.876398
2516.240488,1110.308913,-9474.636058,1072.533697
2516.240816,-296.082377,-9844.739029,306.438199
2516.241143,-1332.370696,-10066.800811,-995.924147
2516.241471,-2368.659014,-10140.821405,-2145.067394
2516.241798,-3552.988522,-8586.388927,-1685.410096
2516.242126,-1850.514855,-9400.615463,-995.924147
2516.242454,1110.308913,-8882.471304,0.000000
2516.242781,3330.926739,-9622.677246,1225.752797
2516.243109,3849.070898,-10510.924376,1915.238745
2516.243436,2664.741391,-10881.027347,306.438199
2516.243764,666.185348,-11399.171507,-766.095498
2516.244091,-1258.350101,-10881.027347,-1915.238745
2516.244419,-1924.535449,-9474.636058,-2068.457845
2516.244746,-962.267725,-8142.265362,-1072.533697
2516.245074,1776.494261,-8438.347739,612.876398
2516.245401,3404.947333,-9474.636058,2068.457845
2516.245729,3478.967927,-9992.780217,2145.067394
2516.246056,2220.617826,-9548.656652,995.924147
2516.246384,0.000000,-9400.615463,-766.095498
2516.246712,-1258.350101,-9548.656652,-1532.190996
2516.247039,-2220.617826,-9104.533087,-1915.238745
2516.247367,-962.267725,-8142.265362,-995.924147
2516.247694,1998.556043,-9178.553681,0.000000
2516.248022,3627.009116,-10658.965565,766.095498
2516.248349,4071.132681,-10881.027347,1302.362347
2516.248677,1776.494261,-10436.903782,229.828649
2516.249004,-222.061783,-10288.862594,-612.876398
2516.249332,-1036.288319,-10510.924376,-1455.581446
2516.249659,-1258.350101,-9548.656652,-1149.143247
2516.249987,-222.061783,-8438.347739,229.828649
2516.250315,1924.535449,-8142.265362,1532.190996
2516.250642,2664.741391,-8068.244768,2145.067394
2516.250970,1850.514855,-9844.739029,229.828649
2516.251297,-518.144159,-9918.759623,0.000000
2516.251625,-1998.556043,-9548.656652,-2374.896044
2516.251952,-3108.864956,-9622.677246,-2604.724693
2516.252280,-2294.638420,-9992.780217,-2221.676944
2516.252607,74.020594,-9622.677246,-842.705048
2516.252935,2738.761985,-9696.697840,459.657299
2516.253262,3552.988522,-10214.842000,2298.286494
2516.253590,3330.926739,-11547.212695,1608.800546
2516.253917,1258.350101,-11399.171507,-306.438199
2516.254245,-1480.411884,-10436.903782,-995.924147
2516.254573,-3034.844362,-9252.574275,-1378.971896
2516.254900,-2812.782580,-8734.430116,-919.314598
2516.255228,-296.082377,-8512.368333,306.438199
2516.255555,1036.288319,-8216.285956,995.924147
2516.255883,2220.617826,-9622.677246,1915.238745
2516.256210,592.164754,-10510.924376,842.705048
2516.256538,-518.144159,-9696.697840,-995.924147
2516.256865,-2220.617826,-9474.636058,-2221.676944
2516.257193,-3108.864956,-9400.615463,-1915.238745
2516.257520,-1850.514855,-8734.430116,-919.314598
2516.257848,1110.308913,-9474.636058,689.485948
2516.258175,3404.947333,-10436.903782,1685.410096
2516.258503,3404.947333,-10584.944971,1225.752797
2516.258831,1998.556043,-11177.109724,536.266849
2516.259158,-740.205942,-10584.944971,-612.876398
2516.259486,-2368.659014,-10436.903782,-1608.800546
2516.259813,-1850.514855,-9696.697840,-1762.019645
2516.260141,-1110.308913,-8808.450710,-842.705048
2516.260468,962.267725,-7920.203579,1532.190996
2516.260796,2368.659014,-7772.162391,2145.067394
2516.261123,2516.700203,-9400.615463,2221.676944
2516.261451,888.247130,-9844.739029,766.095498
2516.261778,-1036.288319,-9178.553681,-766.095498
2516.262106,-2072.576638,-9030.512492,-2528.115143
2516.262433,-1850.514855,-9252.574275,-1225.752797
2516.262761,0.000000,-9918.759623,-842.705048
2516.263089,2368.659014,-10140.821405,-153.219100
2516.263416,4071.132681,-10881.027347,1072.533697
2516.263744,4219.173869,-11325.150913,1149.143247
2516.264071,2368.659014,-11251.130318,0.000000
2516.264399,148.041188,-10732.986159,-919.314598
2516.264726,-1184.329507,-9844.739029,-1302.362347
2516.265054,-2220.617826,-8068.244768,-383.047749
2516.265381,-1110.308913,-8068.244768,306.438199
2516.265709,370.102971,-8142.265362,842.705048
2516.266036,1776.494261,-9178.553681,1072.533697
2516.266364,1850.514855,-10807.006753,383.047749
2516.266691,666.185348,-10214.842000,-1149.143247
2516.267019,-1628.453072,-9844.739029,-1455.581446
2516.267347,-2072.576638,-9696.697840,-2451.505594
2516.267674,-1776.494261,-9474.636058,-1991.848295
2516.268002,518.144159,-9474.636058,-919.314598
2516.268329,2812.782580,-9622.677246,689.485948
2516.268657,4145.153275,-10584.944971,1915.238745
2516.268984,3330.926739,-10584.944971,1532.190996
2516.269312,1554.432478,-10732.986159,536.266849
2516.269639,-1184.329507,-10584.944971,0.000000
2516.269967,-3108.864956,-9696.697840,-1685.410096
2516.270294,-2516.700203,-8586.388927,-1685.410096
2516.270622,-444.123565,-8364.327145,-919.314598
2516.270949,1554.432478,-8364.327145,919.314598
2516.271277,2368.659014,-9178.553681,1991.848295
2516.271605,1776.494261,-9992.780217,1608.800546
2516.271932,0.000000,-9918.759623,-536.266849
2516.272260,-1924.535449,-9474.636058,-1608.800546
2516.272587,-2590.720797,-9178.553681,-2681.334243
2516.272915,-1554.432478,-9178.553681,-2298.286494
2516.273242,592.164754,-9474.636058,-536.266849
2516.273570,2664.741391,-9696.697840,1762.019645
2516.273897,3997.112087,-11103.089130,2068.457845
2516.274225,2368.659014,-11251.130318,536.266849
2516.274553,0.000000,-11843.295072,-842.705048
2516.274880,-1998.556043,-10362.883188,-1532.190996
2516.275208,-2886.803174,-8808.450710,-1762.019645
2516.275535,-2146.597232,-8216.285956,-766.095498
2516.275863,222.061783,-7550.100608,1072.533697
2516.276190,1850.514855,-7994.224174,2221.676944
2516.276518,1554.432478,-8438.347739,1838.629195
2516.276846,814.226536,-10288.862594,-536.266849
2516.277173,-1110.308913,-10140.821405,-1991.848295
2516.277501,-2368.659014,-9918.759623,-2987.772442
2516.277828,-2294.638420,-10066.800811,-2757.943793
2516.278156,148.041188,-9992.780217,-1302.362347
2516.278483,3034.844362,-10140.821405,0.000000
2516.278811,4737.318029,-10658.965565,2374.896044
2516.279139,4145.153275,-11029.068536,2298.286494
2516.279466,2590.720797,-11251.130318,1072.533697
2516.279794,0.000000,-10732.986159,-229.828649
2516.280121,-2368.659014,-9622.677246,-1302.362347
2516.280449,-2294.638420,-8216.285956,-383.047749
2516.280776,-1406.391290,-7105.977043,-76.609550
2516.281104,74.020594,-7254.018232,1149.143247
2516.281432,1480.411884,-8808.450710,842.705048
2516.281759,2072.576638,-10140.821405,153.219100
2516.282087,518.144159,-10362.883188,-689.485948
2516.282414,-1036.288319,-10066.800811,-1532.190996
2516.282742,-1480.411884,-10066.800811,-1991.848295
2516.283069,-666.185348,-9844.739029,-2374.896044
2516.283397,888.247130,-9326.594869,-612.876398
2516.283725,3182.885551,-10066.800811,1225.752797
2516.284052,3923.091493,-11029.068536,1455.581446
2516.284380,3182.885551,-11177.109724,995.924147
2516.284707,222.061783,-10436.903782,0.000000
2516.285035,-2442.679609,-9474.636058,-536.266849
2516.285362,-3552.988522,-8660.409521,-1455.581446
2516.285690,-2886.803174,-8216.285956,-1225.752797
2516.286018,-1628.453072,-8068.244768,76.609550
2516.286345,1258.350101,-8438.347739,1532.190996
2516.286673,2738.761985,-9474.636058,1762.019645
2516.287000,2072.576638,-10066.800811,842.705048
2516.287328,370.102971,-9918.759623,-842.705048
2516.287655,-1110.308913,-10066.800811,-1915.238745
2516.287983,-2072.576638,-10658.965565,-2604.724693
2516.288311,-296.082377,-10362.883188,-1762.019645
2516.288638,2072.576638,-9474.636058,-459.657299
2516.288966,3775.050304,-10436.903782,1072.533697
2516.289293,3997.112087,-11251.130318,2298.286494
2516.289621,1998.556043,-10955.047942,1685.410096
2516.289949,74.020594,-9696.697840,-306.438199
2516.290276,-2516.700203,-8956.491898,-1302.362347
2516.290604,-3330.926739,-8808.450710,-1608.800546
2516.290931,-2368.659014,-7698.141797,-536.266849
2516.291259,-444.123565,-7105.977043,1072.533697
2516.291586,1258.350101,-7994.224174,1762.019645
2516.291914,1850.514855,-9548.656652,919.314598
2516.292242,518.144159,-10066.800811,-459.657299
2516.292569,-1702.473667,-10140.821405,-1915.238745
2516.292897,-1406.391290,-10955.047942,-3294.210641
2516.293224,-1110.308913,-11325.150913,-2987.772442
2516.293552,222.061783,-10510.924376,-1225.752797
2516.293879,2368.659014,-9918.759623,1149.143247
2516.294207,4367.215058,-9992.780217,2221.676944
2516.294535,4145.153275,-11325.150913,995.924147
2516.294862,1628.453072,-10140.821405,0.000000
2516.295190,-962.267725,-8808.450710,-612.876398
2516.295517,-2960.823768,-8290.306550,-1378.971896
2516.295845,-3404.947333,-8068.244768,-842.705048
