#time,accel_x,accel_y,accel_z
3212.867821,74.020594,-9104.533087,76.609550
3212.868148,148.041188,-9474.636058,0.000000
3212.868476,74.020594,-9326.594869,-383.047749
3212.868803,370.102971,-9844.739029,-229.828649
3212.869131,444.123565,-10214.842000,0.000000
3212.869459,444.123565,-9844.739029,229.828649
3212.869786,666.185348,-9844.739029,-153.219100
3212.870114,592.164754,-9844.739029,306.438199
3212.870441,222.061783,-9696.697840,0.000000
3212.870769,0.000000,-9474.636058,0.000000
3212.871096,0.000000,-9252.574275,0.000000
3212.871424,0.000000,-9400.615463,-306.438199
3212.871752,-370.102971,-9474.636058,0.000000
3212.872079,148.041188,-9474.636058,-689.485948
3212.872407,296.082377,-9770.718434,-306.438199
3212.872734,592.164754,-10436.903782,-229.828649
3212.873062,518.144159,-10510.924376,-306.438199
3212.873389,592.164754,-10288.862594,0.000000
3212.873717,222.061783,-9844.739029,0.000000
3212.874045,370.102971,-9622.677246,-536.266849
3212.874372,148.041188,-9474.636058,0.000000
3212.874700,-74.020594,-9178.553681,306.438199
3212.875027,222.061783,-9178.553681,-229.828649
3212.875355,0.000000,-9696.697840,-229.828649
3212.875682,0.000000,-9844.739029,-536.266849
3212.876010,148.041188,-9918.759623,-766.095498
3212.876338,222.061783,-10066.800811,-766.095498
3212.876665,518.144159,-10066.800811,-153.219100
3212.876993,518.144159,-9992.780217,76.609550
3212.877320,814.226536,-9770.718434,0.000000
3212.877648,444.123565,-9474.636058,0.000000
3212.877975,444.123565,-9104.533087,0.000000
3212.878303,370.102971,-9252.574275,0.000000
3212.878631,148.041188,-8882.471304,76.609550
3212.878958,370.102971,-9104.533087,-459.657299
3212.879286,592.164754,-9474.636058,0.000000
3212.879613,592.164754,-9770.718434,-919.314598
3212.879941,518.144159,-9770.718434,-383.047749
3212.880268,444.123565,-10140.821405,-306.438199
3212.880596,518.144159,-10436.903782,0.000000
3212.880924,592.164754,-9770.718434,0.000000
3212.881251,740.205942,-9400.615463,0.000000
3212.881579,518.144159,-9548.656652,0.000000
3212.881906,222.061783,-9474.636058,0.000000
3212.882234,0.000000,-9326.594869,0.000000
3212.882561,0.000000,-9474.636058,-842.705048
3212.882889,-148.041188,-9474.636058,-612.876398
3212.883217,0.000000,-9844.739029,0.000000
3212.883544,370.102971,-10214.842000,-536.266849
3212.883872,0.000000,-9696.697840,-612.876398
3212.884199,1036.288319,-10140.821405,-383.047749
3212.884527,1184.329507,-9622.677246,0.000000
3212.884854,1628.453072,-9770.718434,153.219100
3212.885182,2368.659014,-9252.574275,229.828649
3212.885510,2738.761985,-8586.388927,689.485948
3212.885837,3034.844362,-8364.327145,153.219100
3212.886165,3849.070898,-8734.430116,536.266849
3212.886492,4885.359217,-8882.471304,76.609550
3212.886820,5921.647536,-9252.574275,-306.438199
3212.887147,7105.977043,-10214.842000,-459.657299
3212.887475,7920.203579,-10807.006753,-153.219100
3212.887803,8364.327145,-10881.027347,0.000000
3212.888130,8290.306550,-10140.821405,536.266849
3212.888458,8956.491898,-9622.677246,229.828649
3212.888785,9770.718434,-9178.553681,0.000000
3212.889113,10140.821405,-9104.533087,0.000000
3212.889440,10140.821405,-8438.347739,229.828649
3212.889768,10955.047942,-8660.409521,76.609550
3212.890096,11251.130318,-9252.574275,153.219100
3212.890423,11473.192101,-8882.471304,0.000000
3212.890751,11695.253884,-9030.512492,-842.705048
3212.891078,11325.150913,-9474.636058,-306.438199
3212.891406,12435.459826,-10066.800811,-306.438199
3212.891733,13323.706956,-10362.883188,-229.828649
3212.892061,14063.912898,-10881.027347,536.266849
3212.892389,15248.242405,-9400.615463,1378.971896
3212.892716,15470.304188,-9104.533087,1302.362347
3212.893044,14359.995275,-8734.430116,1225.752797
3212.893371,13545.768739,-9178.553681,766.095498
3212.893699,12879.583391,-9326.594869,229.828649
3212.894026,12509.480420,-9844.739029,0.000000
3212.894354,12361.439231,-9844.739029,229.828649
3212.894682,12879.583391,-9622.677246,76.609550
3212.895009,12509.480420,-9474.636058,766.095498
3212.895337,12657.521608,-9696.697840,1072.533697
3212.895664,12361.439231,-9030.512492,1225.752797
3212.895992,11251.130318,-9992.780217,995.924147
3212.896319,10362.883188,-10214.842000,766.095498
3212.896647,9178.553681,-9400.615463,0.000000
3212.896974,6809.894666,-7994.224174,0.000000
3212.897302,7328.038826,-7328.038826,-229.828649
3212.897630,8882.471304,-9104.533087,-1225.752797
3212.897957,10066.800811,-11325.150913,-153.219100
3212.898285,9918.759623,-11695.253884,1149.143247
3212.898612,9178.553681,-11103.089130,612.876398
3212.898940,8438.347739,-9992.780217,0.000000
3212.899267,8364.327145,-8734.430116,-1072.533697
3212.899595,8660.409521,-8438.347739,229.828649
3212.899923,9252.574275,-9770.718434,229.828649
3212.900250,8734.430116,-10881.027347,1685.410096
3212.900578,8586.388927,-9030.512492,919.314598
3212.900905,7624.121203,-7550.100608,0.000000
3212.901233,6143.709319,-9622.677246,-383.047749
3212.901560,5847.626942,-11251.130318,-536.266849
3212.901888,6513.812290,-9474.636058,-2145.067394
3212.902216,8734.430116,-8808.450710,-3064.381992
3212.902543,10436.903782,-9696.697840,-1149.143247
3212.902871,9622.677246,-9548.656652,1685.410096
3212.903198,7920.203579,-8438.347739,3907.087040
3212.903526,9104.533087,-8956.491898,1915.238745
3212.903853,11177.109724,-10658.965565,-1072.533697
3212.904181,10362.883188,-11843.295072,-1915.238745
3212.904509,9104.533087,-10066.800811,-459.657299
3212.904836,7772.162391,-9030.512492,153.219100
3212.905164,6069.688724,-10066.800811,0.000000
3212.905491,4885.359217,-10140.821405,-229.828649
3212.905819,4441.235652,-8512.368333,-995.924147
3212.906146,5995.668130,-8586.388927,-2068.457845
3212.906474,6957.935855,-9030.512492,-536.266849
3212.906802,6143.709319,-9770.718434,1302.362347
3212.907129,4737.318029,-9400.615463,2221.676944
3212.907457,4811.338623,-7476.080014,919.314598
3212.907784,4737.318029,-6439.791695,-153.219100
3212.908112,4219.173869,-8586.388927,-229.828649
3212.908439,5773.606348,-10881.027347,-459.657299
3212.908767,7698.141797,-9622.677246,-1378.971896
3212.909095,7179.997637,-10066.800811,-536.266849
3212.909422,4959.379811,-12065.356855,842.705048
3212.909750,5477.523971,-11251.130318,1072.533697
3212.910077,7994.224174,-8808.450710,-919.314598
3212.910405,8142.265362,-9400.615463,-1838.629195
3212.910732,7920.203579,-11325.150913,229.828649
3212.911060,7402.059420,-9548.656652,1608.800546
3212.911388,5255.462188,-9548.656652,2604.724693
3212.911715,3478.967927,-9030.512492,2681.334243
3212.912043,1480.411884,-8438.347739,-229.828649
3212.912370,-444.123565,-10584.944971,0.000000
3212.912698,370.102971,-10436.903782,-612.876398
3212.913025,666.185348,-9474.636058,-1991.848295
3212.913353,-2146.597232,-11177.109724,-229.828649
3212.913681,-2368.659014,-10066.800811,1072.533697
3212.914008,-740.205942,-8882.471304,-1838.629195
3212.914336,-1702.473667,-10362.883188,-919.314598
3212.914663,-1332.370696,-10807.006753,229.828649
3212.914991,1110.308913,-9326.594869,-1991.848295
3212.915318,-740.205942,-10732.986159,-1149.143247
3212.915646,-962.267725,-10362.883188,1149.143247
3212.915974,-962.267725,-9104.533087,919.314598
3212.916301,-2442.679609,-9252.574275,1532.190996
3212.916629,-2516.700203,-10436.903782,229.828649
3212.916956,-1184.329507,-11325.150913,-1685.410096
3212.917284,-1924.535449,-9622.677246,0.000000
3212.917611,-1628.453072,-8364.327145,383.047749
3212.917939,-1554.432478,-8290.306550,536.266849
3212.918267,-2146.597232,-6883.915261,1762.019645
3212.918594,666.185348,-8216.285956,995.924147
3212.918922,666.185348,-10066.800811,0.000000
3212.919249,0.000000,-9474.636058,-612.876398
3212.919577,888.247130,-9178.553681,-1532.190996
3212.919904,-296.082377,-9770.718434,-306.438199
3212.920232,-1776.494261,-10510.924376,1072.533697
3212.920560,-1850.514855,-10584.944971,0.000000
3212.920887,-3182.885551,-10881.027347,-306.438199
3212.921215,-2368.659014,-9474.636058,-1991.848295
3212.921542,-1628.453072,-9400.615463,-2911.162892
3212.921870,-2960.823768,-8734.430116,-1149.143247
3212.922197,-2442.679609,-8586.388927,612.876398
3212.922525,296.082377,-8734.430116,-459.657299
3212.922853,666.185348,-7402.059420,0.000000
3212.923180,2812.782580,-9252.574275,-229.828649
3212.923508,3034.844362,-9400.615463,-229.828649
3212.923835,3034.844362,-11473.192101,536.266849
3212.924163,2516.700203,-13249.686362,0.000000
3212.924490,1332.370696,-13915.871710,-1915.238745
3212.924818,1406.391290,-11769.274478,-2834.553343
3212.925146,1776.494261,-11177.109724,-2681.334243
3212.925473,1184.329507,-10955.047942,-995.924147
3212.925801,1332.370696,-11325.150913,612.876398
3212.926128,814.226536,-9326.594869,842.705048
3212.926456,1480.411884,-7698.141797,536.266849
3212.926783,1850.514855,-7105.977043,0.000000
3212.927111,888.247130,-7994.224174,229.828649
3212.927439,0.000000,-8364.327145,1072.533697
3212.927766,1776.494261,-9400.615463,0.000000
3212.928094,1776.494261,-9622.677246,383.047749
3212.928421,3478.967927,-9770.718434,1455.581446
3212.928749,4071.132681,-10510.924376,1532.190996
3212.929076,2812.782580,-11621.233289,2298.286494
3212.929404,2442.679609,-10584.944971,919.314598
3212.929732,518.144159,-9696.697840,76.609550
3212.930059,-1924.535449,-9844.739029,-306.438199
3212.930387,-740.205942,-8882.471304,0.000000
3212.930714,-296.082377,-7105.977043,0.000000
3212.931042,-592.164754,-7179.997637,1838.629195
3212.931369,222.061783,-8364.327145,1225.752797
3212.931697,74.020594,-7254.018232,229.828649
3212.932025,-222.061783,-6365.771101,153.219100
3212.932352,-370.102971,-9696.697840,-536.266849
3212.932680,222.061783,-10066.800811,-1072.533697
3212.933007,1628.453072,-10732.986159,-612.876398
3212.933335,2368.659014,-11917.315666,0.000000
3212.933663,814.226536,-12139.377449,1072.533697
3212.933991,222.061783,-11991.336260,153.219100
3212.934318,-740.205942,-11695.253884,-1838.629195
3212.934646,-2442.679609,-11029.068536,-2221.676944
3212.934974,-3997.112087,-10436.903782,-2987.772442
3212.935302,-4293.194464,-9622.677246,-2145.067394
3212.935630,-2812.782580,-7402.059420,-1762.019645
3212.935957,-888.247130,-6957.935855,-1302.362347
3212.936285,-1628.453072,-7698.141797,1685.410096
3212.936613,444.123565,-10140.821405,1378.971896
3212.936941,2516.700203,-11769.274478,0.000000
3212.937269,74.020594,-10658.965565,-995.924147
3212.937596,-962.267725,-10584.944971,-1762.019645
3212.937924,-1406.391290,-10881.027347,-1608.800546
3212.938252,-1702.473667,-11251.130318,-1302.362347
3212.938580,-1184.329507,-11843.295072,-1455.581446
3212.938908,-518.144159,-11473.192101,-1072.533697
3212.939235,0.000000,-9474.636058,0.000000
3212.939563,0.000000,-8882.471304,-306.438199
3212.939891,-1184.329507,-8142.265362,536.266849
3212.940219,-814.226536,-7179.997637,1455.581446
3212.940547,518.144159,-5625.565159,1302.362347
3212.940874,1332.370696,-6439.791695,1455.581446
3212.941202,1406.391290,-7179.997637,1762.019645
3212.941530,2960.823768,-9178.553681,1991.848295
3212.941858,2960.823768,-9918.759623,1455.581446
3212.942186,2368.659014,-12583.501014,-689.485948
3212.942513,148.041188,-13175.665768,-1762.019645
3212.942841,148.041188,-11473.192101,-1915.238745
3212.943169,592.164754,-9622.677246,-2145.067394
3212.943497,-518.144159,-10362.883188,-459.657299
3212.943825,-370.102971,-9918.759623,306.438199
3212.944152,222.061783,-8660.409521,383.047749
3212.944480,0.000000,-7254.018232,842.705048
3212.944808,0.000000,-6143.709319,1225.752797
3212.945136,1998.556043,-7624.121203,153.219100
3212.945464,3034.844362,-9326.594869,0.000000
3212.945791,2886.803174,-9696.697840,-612.876398
3212.946119,2886.803174,-10732.986159,0.000000
3212.946447,3256.906145,-11399.171507,76.609550
3212.946775,2738.761985,-12287.418637,-612.876398
3212.947103,518.144159,-13619.789333,-1532.190996
3212.947430,-518.144159,-13471.748144,-1991.848295
3212.947758,1110.308913,-12139.377449,-3064.381992
3212.948086,814.226536,-10214.842000,-2451.505594
3212.948414,-222.061783,-8808.450710,1072.533697
3212.948742,-444.123565,-8290.306550,2221.676944
3212.949069,-222.061783,-6883.915261,1302.362347
3212.949397,518.144159,-7105.977043,-459.657299
3212.949725,74.020594,-8808.450710,-995.924147
3212.950053,-222.061783,-8882.471304,689.485948
3212.950381,1036.288319,-7550.100608,229.828649
3212.950708,370.102971,-9178.553681,-689.485948
3212.951036,0.000000,-12139.377449,689.485948
3212.951364,370.102971,-12435.459826,842.705048
3212.951692,0.000000,-10658.965565,306.438199
3212.952020,-888.247130,-9696.697840,-1072.533697
3212.952347,-1628.453072,-10066.800811,-1455.581446
3212.952675,-3034.844362,-9474.636058,-536.266849
3212.953003,-3256.906145,-7624.121203,-612.876398
3212.953331,-2516.700203,-8512.368333,383.047749
3212.953659,-2146.597232,-7105.977043,1991.848295
3212.953986,148.041188,-5847.626942,1149.143247
3212.954314,0.000000,-6957.935855,0.000000
3212.954642,-666.185348,-9474.636058,612.876398
3212.954970,-296.082377,-10658.965565,1072.533697
3212.955298,0.000000,-11029.068536,536.266849
3212.955625,444.123565,-10214.842000,-612.876398
3212.955953,296.082377,-11325.150913,-1455.581446
3212.956281,-1702.473667,-12065.356855,-842.705048
3212.956609,-1776.494261,-12657.521608,-842.705048
3212.956937,-1554.432478,-11473.192101,-2451.505594
3212.957264,-1850.514855,-8956.491898,-1915.238745
3212.957592,-2146.597232,-7105.977043,-995.924147
3212.957920,-1554.432478,-8364.327145,-1378.971896
3212.958248,-222.061783,-9252.574275,0.000000
3212.958576,2072.576638,-8142.265362,0.000000
3212.958903,2146.597232,-8142.265362,229.828649
3212.959231,1850.514855,-9474.636058,2221.676944
3212.959559,3627.009116,-11103.089130,383.047749
3212.959887,2220.617826,-11621.233289,153.219100
3212.960215,1036.288319,-12139.377449,-1225.752797
3212.960542,296.082377,-11843.295072,-2145.067394
3212.960870,-296.082377,-11621.233289,-2068.457845
3212.961198,148.041188,-10436.903782,-1838.629195
3212.961526,222.061783,-9474.636058,-1225.752797
3212.961854,740.205942,-8438.347739,766.095498
3212.962181,2442.679609,-8290.306550,919.314598
3212.962509,1924.535449,-7920.203579,1072.533697
3212.962837,814.226536,-7402.059420,1762.019645
3212.963165,814.226536,-7105.977043,1685.410096
3212.963493,1258.350101,-6661.853478,536.266849
3212.963820,1036.288319,-8586.388927,612.876398
3212.964148,1406.391290,-11029.068536,689.485948
3212.964476,1258.350101,-11029.068536,0.000000
3212.964804,2516.700203,-11695.253884,-1608.800546
3212.965132,2294.638420,-11547.212695,-1838.629195
3212.965459,518.144159,-10510.924376,-612.876398
3212.965787,222.061783,-9844.739029,0.000000
3212.966115,-666.185348,-9474.636058,0.000000
3212.966443,-1258.350101,-7994.224174,229.828649
3212.966771,0.000000,-8290.306550,0.000000
3212.967098,-1110.308913,-7105.977043,229.828649
3212.967426,-1258.350101,-7328.038826,536.266849
3212.967754,370.102971,-10066.800811,-766.095498
3212.968082,1184.329507,-11399.171507,-1532.190996
3212.968410,814.226536,-11029.068536,-1378.971896
3212.968737,2146.597232,-8734.430116,-1072.533697
3212.969065,1110.308913,-10658.965565,-536.266849
3212.969393,592.164754,-12953.603985,1455.581446
3212.969721,0.000000,-13471.748144,-612.876398
3212.970049,-1184.329507,-11325.150913,-2451.505594
3212.970376,74.020594,-10066.800811,-2604.724693
3212.970704,0.000000,-8808.450710,-919.314598
3212.971032,-1998.556043,-9992.780217,2528.115143
3212.971360,-1406.391290,-9474.636058,2604.724693
3212.971688,296.082377,-7328.038826,-1225.752797
3212.972015,-296.082377,-7105.977043,-2374.896044
3212.972343,370.102971,-8512.368333,-1225.752797
3212.972671,592.164754,-9400.615463,1149.143247
3212.972999,1332.370696,-9844.739029,1838.629195
3212.973327,1110.308913,-10140.821405,842.705048
3212.973654,-296.082377,-10066.800811,76.609550
3212.973982,-888.247130,-10436.903782,919.314598
3212.974310,0.000000,-9992.780217,612.876398
3212.974638,-222.061783,-9548.656652,-229.828649
3212.974966,-1036.288319,-10066.800811,-1532.190996
3212.975293,-2220.617826,-9992.780217,-689.485948
3212.975621,-1702.473667,-7402.059420,-919.314598
3212.975949,222.061783,-6217.729913,-536.266849
3212.976277,444.123565,-7846.182985,2068.457845
3212.976605,2294.638420,-9030.512492,2221.676944
3212.976932,4145.153275,-8660.409521,689.485948
3212.977260,2516.700203,-8364.327145,76.609550
3212.977588,296.082377,-10214.842000,1302.362347
3212.977916,-296.082377,-11769.274478,612.876398
3212.978244,-888.247130,-10214.842000,-1225.752797
3212.978571,1110.308913,-11695.253884,-3217.601092
3212.978899,518.144159,-13619.789333,-2757.943793
3212.979227,296.082377,-11769.274478,-1225.752797
3212.979555,888.247130,-9992.780217,-1302.362347
3212.979883,518.144159,-9696.697840,-612.876398
3212.980210,0.000000,-8586.388927,-919.314598
3212.980538,74.020594,-8142.265362,-612.876398
3212.980866,814.226536,-7846.182985,-536.266849
3212.981194,3108.864956,-8956.491898,0.000000
3212.981522,3552.988522,-8882.471304,1302.362347
3212.981849,1480.411884,-10214.842000,2987.772442
3212.982177,1036.288319,-12879.583391,2145.067394
3212.982505,74.020594,-12213.398043,-1685.410096
3212.982833,-1036.288319,-9992.780217,-3907.087040
3212.983161,-740.205942,-9992.780217,-4519.963438
3212.983488,-888.247130,-9918.759623,-2221.676944
3212.983816,-740.205942,-8956.491898,536.266849
3212.984144,-296.082377,-8734.430116,2145.067394
3212.984472,370.102971,-8290.306550,2298.286494
3212.984800,1628.453072,-7846.182985,689.485948
3212.985127,888.247130,-7402.059420,153.219100
3212.985455,0.000000,-7920.203579,842.705048
3212.985783,518.144159,-8808.450710,153.219100
3212.986111,444.123565,-10955.047942,0.000000
3212.986439,222.061783,-10066.800811,153.219100
3212.986766,1110.308913,-9030.512492,-459.657299
3212.987094,666.185348,-9918.759623,0.000000
3212.987422,444.123565,-10807.006753,-1072.533697
3212.987750,1036.288319,-11473.192101,-1455.581446
3212.988078,444.123565,-11917.315666,0.000000
3212.988405,1480.411884,-9474.636058,995.924147
3212.988733,1998.556043,-7772.162391,612.876398
3212.989061,-296.082377,-9178.553681,1762.019645
3212.989389,-888.247130,-9696.697840,1455.581446
3212.989717,-666.185348,-9474.636058,-536.266849
3212.990044,-1998.556043,-9104.533087,-2221.676944
3212.990372,-2146.597232,-9178.553681,-2528.115143
3212.990700,-1998.556043,-8956.491898,-1455.581446
3212.991028,-1628.453072,-9918.759623,0.000000
3212.991356,296.082377,-11325.150913,-689.485948
3212.991683,2812.782580,-10288.862594,-1991.848295
3212.992011,1702.473667,-9918.759623,689.485948
3212.992339,1702.473667,-11621.233289,1762.019645
3212.992667,222.061783,-10658.965565,1455.581446
3212.992995,-666.185348,-9844.739029,0.000000
3212.993322,0.000000,-10436.903782,-1991.848295
3212.993650,222.061783,-9622.677246,-2528.115143
3212.993978,-518.144159,-8216.285956,-1072.533697
3212.994306,-296.082377,-7624.121203,766.095498
3212.994634,814.226536,-8216.285956,842.705048
3212.994961,1184.329507,-9548.656652,-689.485948
3212.995289,592.164754,-10288.862594,0.000000
3212.995617,518.144159,-8142.265362,459.657299
3212.995945,1924.535449,-8068.244768,306.438199
3212.996273,2146.597232,-10881.027347,842.705048
3212.996600,2442.679609,-11917.315666,1149.143247
3212.996928,2516.700203,-12583.501014,1302.362347
3212.997256,1702.473667,-10881.027347,0.000000
3212.997584,444.123565,-9326.594869,-2221.676944
3212.997912,-2812.782580,-8586.388927,-1838.629195
3212.998239,-3108.864956,-7550.100608,-1378.971896
3212.998567,-1406.391290,-7254.018232,-995.924147
3212.998895,296.082377,-8660.409521,0.000000
3212.999223,1036.288319,-7698.141797,1225.752797
3212.999551,2442.679609,-7772.162391,2374.896044
3212.999878,2812.782580,-8660.409521,2374.896044
3213.000206,888.247130,-11621.233289,1608.800546
3213.000534,-518.144159,-13101.645173,306.438199
3213.000862,666.185348,-10881.027347,-2604.724693
3213.001190,1554.432478,-10066.800811,-2681.334243
3213.001517,666.185348,-11621.233289,76.609550
3213.001845,-444.123565,-11621.233289,1532.190996
3213.002173,0.000000,-10881.027347,459.657299
3213.002501,0.000000,-9474.636058,-1991.848295
3213.002829,-1036.288319,-8290.306550,-2068.457845
3213.003156,-1850.514855,-6439.791695,-612.876398
3213.003484,-1628.453072,-7105.977043,766.095498
3213.003812,-370.102971,-8068.244768,689.485948
3213.004140,1406.391290,-10807.006753,153.219100
3213.004468,592.164754,-11991.336260,919.314598
3213.004795,2294.638420,-10288.862594,0.000000
3213.005123,2294.638420,-10140.821405,-1149.143247
3213.005451,-296.082377,-12731.542202,-689.485948
3213.005779,-1258.350101,-11177.109724,-1608.800546
3213.006107,-592.164754,-8956.491898,-2987.772442
3213.006434,-740.205942,-9770.718434,-1608.800546
3213.006762,-296.082377,-10140.821405,536.266849
3213.007090,0.000000,-8956.491898,1455.581446
3213.007418,0.000000,-8142.265362,1072.533697
3213.007746,518.144159,-10066.800811,-842.705048
3213.008073,-518.144159,-9622.677246,-842.705048
3213.008401,-444.123565,-7402.059420,-229.828649
3213.008729,444.123565,-7254.018232,0.000000
3213.009057,222.061783,-9178.553681,229.828649
3213.009385,0.000000,-11621.233289,1225.752797
3213.009712,370.102971,-11325.150913,536.266849
3213.010040,888.247130,-9474.636058,-1072.533697
3213.010368,592.164754,-9622.677246,-1378.971896
3213.010696,74.020594,-11695.253884,0.000000
3213.011024,-148.041188,-10955.047942,919.314598
3213.011351,1184.329507,-9844.739029,-689.485948
3213.011679,1480.411884,-9400.615463,-1532.190996
3213.012007,740.205942,-8660.409521,536.266849
3213.012335,592.164754,-8142.265362,2221.676944
3213.012663,222.061783,-7920.203579,2145.067394
3213.012990,0.000000,-8586.388927,459.657299
3213.013318,-666.185348,-9622.677246,-1915.238745
3213.013646,-1776.494261,-9844.739029,-1685.410096
3213.013974,74.020594,-9252.574275,-306.438199
3213.014302,1554.432478,-9104.533087,-229.828649
3213.014629,1406.391290,-10807.006753,536.266849
3213.014957,518.144159,-13027.624579,536.266849
3213.015285,740.205942,-12953.603985,-1532.190996
3213.015613,666.185348,-10214.842000,-2068.457845
3213.015941,1332.370696,-9400.615463,-2068.457845
3213.016268,-296.082377,-10362.883188,0.000000
3213.016596,444.123565,-10066.800811,1532.190996
3213.016924,1628.453072,-8142.265362,0.000000
3213.017252,962.267725,-7846.182985,-229.828649
3213.017580,962.267725,-9400.615463,0.000000
3213.017907,0.000000,-8586.388927,536.266849
3213.018235,-296.082377,-8290.306550,76.609550
3213.018563,370.102971,-9696.697840,-842.705048
3213.018891,-148.041188,-11547.212695,-383.047749
3213.019219,1332.370696,-10955.047942,-536.266849
3213.019546,2960.823768,-10955.047942,0.000000
3213.019874,2294.638420,-11843.295072,919.314598
3213.020202,888.247130,-10584.944971,536.266849
3213.020530,-592.164754,-9178.553681,-1302.362347
3213.020858,-2220.617826,-8216.285956,-1455.581446
3213.021185,-2072.576638,-7328.038826,-995.924147
3213.021513,-1850.514855,-7624.121203,0.000000
3213.021841,-962.267725,-7772.162391,1072.533697
3213.022169,0.000000,-7179.997637,842.705048
3213.022497,666.185348,-9474.636058,1072.533697
3213.022824,222.061783,-8808.450710,1378.971896
3213.023152,222.061783,-9770.718434,306.438199
3213.023480,-296.082377,-10066.800811,-689.485948
3213.023808,296.082377,-10140.821405,-919.314598
3213.024136,1406.391290,-12287.418637,-766.095498
3213.024463,-74.020594,-12879.583391,459.657299
3213.024791,-296.082377,-10214.842000,919.314598
3213.025119,740.205942,-9770.718434,-766.095498
3213.025447,-1184.329507,-9400.615463,-1149.143247
3213.025775,-2516.700203,-9844.739029,-995.924147
3213.026102,-2072.576638,-7328.038826,-1838.629195
3213.026430,-444.123565,-7031.956449,-1302.362347
3213.026758,222.061783,-8734.430116,536.266849
3213.027086,444.123565,-8438.347739,1455.581446
3213.027414,1036.288319,-9622.677246,2451.505594
3213.027741,2368.659014,-12361.439231,612.876398
3213.028069,1628.453072,-13101.645173,-1991.848295
3213.028397,222.061783,-11547.212695,-1838.629195
3213.028725,0.000000,-10140.821405,-2145.067394
3213.029053,-1110.308913,-10140.821405,-459.657299
3213.029380,-740.205942,-11473.192101,0.000000
3213.029708,370.102971,-10436.903782,-689.485948
3213.030036,1110.308913,-9696.697840,-1149.143247
3213.030364,1332.370696,-7846.182985,-995.924147
3213.030692,888.247130,-7254.018232,0.000000
3213.031019,814.226536,-8142.265362,153.219100
3213.031347,0.000000,-8216.285956,1302.362347
3213.031675,0.000000,-8068.244768,842.705048
3213.032003,1258.350101,-7402.059420,383.047749
3213.032331,1850.514855,-10362.883188,76.609550
3213.032658,1258.350101,-12731.542202,689.485948
3213.032986,1110.308913,-12731.542202,-153.219100
3213.033314,666.185348,-12509.480420,-1608.800546
3213.033642,-666.185348,-11769.274478,-1991.848295
3213.033970,0.000000,-8956.491898,-2451.505594
3213.034297,518.144159,-7105.977043,-1455.581446
3213.034625,1036.288319,-8364.327145,919.314598
3213.034953,1776.494261,-9696.697840,2068.457845
3213.035281,2368.659014,-8882.471304,1991.848295
3213.035608,2368.659014,-6957.935855,1915.238745
3213.035936,1036.288319,-7698.141797,1685.410096
3213.036263,-1110.308913,-9326.594869,919.314598
3213.036591,-1850.514855,-10214.842000,0.000000
3213.036919,0.000000,-11103.089130,-2757.943793
3213.037246,222.061783,-10807.006753,-2604.724693
3213.037574,-1628.453072,-9474.636058,-306.438199
3213.037902,-1406.391290,-10362.883188,-306.438199
3213.038229,-592.164754,-11103.089130,-1225.752797
3213.038557,370.102971,-11029.068536,-1685.410096
3213.038885,1036.288319,-10214.842000,-2604.724693
3213.039212,1184.329507,-9400.615463,-689.485948
3213.039540,1258.350101,-9326.594869,1838.629195
3213.039867,1554.432478,-8882.471304,2145.067394
3213.040195,1628.453072,-10214.842000,995.924147
3213.040523,1110.308913,-10955.047942,-1072.533697
3213.040850,0.000000,-8808.450710,-1991.848295
3213.041178,0.000000,-7698.141797,-1532.190996
3213.041506,0.000000,-8216.285956,-383.047749
3213.041833,-518.144159,-10214.842000,919.314598
3213.042161,518.144159,-11473.192101,766.095498
3213.042489,666.185348,-10140.821405,0.000000
3213.042816,962.267725,-9844.739029,-766.095498
3213.043144,740.205942,-10584.944971,-612.876398
3213.043472,-518.144159,-11029.068536,-306.438199
3213.043799,-296.082377,-9992.780217,0.000000
3213.044127,444.123565,-9474.636058,-1072.533697
3213.044454,-370.102971,-9474.636058,459.657299
3213.044782,-888.247130,-7550.100608,766.095498
3213.045110,-148.041188,-5995.668130,995.924147
3213.045437,444.123565,-7402.059420,383.047749
3213.045765,-962.267725,-9622.677246,766.095498
3213.046093,-1702.473667,-9992.780217,0.000000
3213.046420,444.123565,-8734.430116,-536.266849
3213.046748,1258.350101,-9474.636058,612.876398
3213.047076,666.185348,-12065.356855,1072.533697
3213.047403,370.102971,-12065.356855,1378.971896
3213.047731,592.164754,-11103.089130,-1302.362347
3213.048059,666.185348,-11103.089130,-2757.943793
3213.048386,-592.164754,-9548.656652,-1455.581446
3213.048714,-1036.288319,-7698.141797,-612.876398
3213.049041,-296.082377,-7254.018232,153.219100
3213.049369,0.000000,-8882.471304,0.000000
3213.049697,148.041188,-9252.574275,0.000000
3213.050024,518.144159,-9178.553681,536.266849
3213.050352,1628.453072,-9548.656652,612.876398
3213.050680,1258.350101,-10732.986159,229.828649
3213.051007,74.020594,-11843.295072,0.000000
3213.051335,0.000000,-11399.171507,-2145.067394
3213.051663,1110.308913,-11843.295072,-3983.696590
3213.051990,1036.288319,-10658.965565,-995.924147
3213.052318,666.185348,-9400.615463,153.219100
3213.052645,1110.308913,-9326.594869,1225.752797
3213.052973,1924.535449,-9252.574275,0.000000
3213.053301,814.226536,-9844.739029,-766.095498
3213.053628,-592.164754,-9474.636058,0.000000
3213.053956,-666.185348,-7179.997637,0.000000
3213.054284,-1036.288319,-7402.059420,689.485948
3213.054611,-370.102971,-8512.368333,0.000000
3213.054939,74.020594,-9622.677246,0.000000
3213.055267,666.185348,-11251.130318,229.828649
3213.055594,1702.473667,-10066.800811,0.000000
3213.055922,1924.535449,-9474.636058,-383.047749
3213.056250,1258.350101,-10362.883188,995.924147
3213.056577,518.144159,-10362.883188,459.657299
3213.056905,962.267725,-9548.656652,-306.438199
3213.057232,444.123565,-8586.388927,-306.438199
3213.057560,666.185348,-9474.636058,306.438199
3213.057888,888.247130,-9770.718434,919.314598
3213.058215,444.123565,-8808.450710,842.705048
3213.058543,444.123565,-8882.471304,-229.828649
3213.058871,-962.267725,-10214.842000,-766.095498
3213.059198,-1554.432478,-9178.553681,-689.485948
3213.059526,0.000000,-8512.368333,-689.485948
3213.059854,-296.082377,-7624.121203,229.828649
3213.060181,-740.205942,-8956.491898,383.047749
3213.060509,-814.226536,-11103.089130,-383.047749
3213.060836,-148.041188,-11991.336260,-2068.457845
3213.061164,814.226536,-10510.924376,-1685.410096
3213.061492,1110.308913,-10955.047942,-1608.800546
3213.061819,74.020594,-11399.171507,-536.266849
3213.062147,444.123565,-11547.212695,0.000000
3213.062475,962.267725,-11399.171507,-919.314598
3213.062802,1258.350101,-10658.965565,-459.657299
3213.063130,1406.391290,-8660.409521,-1072.533697
3213.063458,592.164754,-7328.038826,0.000000
3213.063785,-296.082377,-6809.894666,919.314598
3213.064113,370.102971,-8586.388927,1378.971896
3213.064441,222.061783,-8956.491898,995.924147
3213.064768,148.041188,-9622.677246,459.657299
3213.065096,296.082377,-10658.965565,0.000000
3213.065423,-444.123565,-10584.944971,-229.828649
3213.065751,-666.185348,-11325.150913,-689.485948
3213.066079,-444.123565,-12879.583391,-2068.457845
3213.066406,296.082377,-11325.150913,-1991.848295
3213.066734,1332.370696,-8734.430116,-1378.971896
3213.067062,666.185348,-7846.182985,536.266849
3213.067389,518.144159,-8438.347739,2604.724693
3213.067717,1406.391290,-6809.894666,1532.190996
3213.068045,1406.391290,-5699.585753,995.924147
3213.068372,74.020594,-7550.100608,842.705048
3213.068700,-1036.288319,-8216.285956,383.047749
3213.069028,-1110.308913,-8586.388927,459.657299
3213.069355,518.144159,-10881.027347,-153.219100
3213.069683,962.267725,-13841.851115,-383.047749
3213.070010,1184.329507,-13619.789333,-306.438199
3213.070338,1554.432478,-10362.883188,-1608.800546
3213.070666,1406.391290,-10658.965565,-1378.971896
3213.070993,74.020594,-9696.697840,-689.485948
3213.071321,-962.267725,-9104.533087,-229.828649
3213.071649,-740.205942,-8068.244768,-383.047749
3213.071976,-370.102971,-7254.018232,-459.657299
3213.072304,0.000000,-9252.574275,383.047749
3213.072632,-666.185348,-9474.636058,1762.019645
3213.072959,296.082377,-11103.089130,383.047749
3213.073287,444.123565,-12065.356855,-1378.971896
3213.073614,-444.123565,-12287.418637,-2451.505594
3213.073942,148.041188,-10807.006753,-3140.991542
3213.074270,888.247130,-9548.656652,-1608.800546
3213.074597,592.164754,-9474.636058,1072.533697
3213.074925,1184.329507,-10807.006753,1608.800546
3213.075253,1480.411884,-9178.553681,842.705048
3213.075580,1332.370696,-8660.409521,-612.876398
3213.075908,222.061783,-9844.739029,-995.924147
3213.076236,-1036.288319,-9474.636058,0.000000
3213.076563,-2146.597232,-7698.141797,0.000000
3213.076891,-666.185348,-8956.491898,-306.438199
3213.077219,0.000000,-9178.553681,-536.266849
3213.077546,814.226536,-8586.388927,-383.047749
3213.077874,1554.432478,-8660.409521,689.485948
3213.078201,1702.473667,-9844.739029,1608.800546
3213.078529,1628.453072,-10955.047942,1072.533697
3213.078857,1036.288319,-9178.553681,0.000000
3213.079184,518.144159,-8808.450710,0.000000
3213.079512,518.144159,-9474.636058,-766.095498
3213.079840,-444.123565,-10214.842000,383.047749
3213.080167,444.123565,-9844.739029,229.828649
3213.080495,1110.308913,-10214.842000,-459.657299
3213.080823,962.267725,-10955.047942,-306.438199
3213.081150,1110.308913,-9474.636058,-306.438199
3213.081478,592.164754,-8808.450710,766.095498
3213.081805,-370.102971,-7846.182985,612.876398
3213.082133,222.061783,-8438.347739,76.609550
3213.082461,-296.082377,-9548.656652,0.000000
3213.082788,-962.267725,-8808.450710,919.314598
3213.083116,-962.267725,-9030.512492,0.000000
3213.083444,-1184.329507,-11325.150913,-919.314598
3213.083771,-888.247130,-12435.459826,-2604.724693
3213.084099,518.144159,-12139.377449,-2834.553343
3213.084427,592.164754,-12139.377449,-1991.848295
3213.084754,1258.350101,-11473.192101,-306.438199
3213.085082,1628.453072,-9474.636058,0.000000
3213.085410,1406.391290,-9474.636058,459.657299
3213.085737,1332.370696,-9770.718434,1302.362347
3213.086065,1036.288319,-8734.430116,229.828649
3213.086392,74.020594,-6365.771101,229.828649
3213.086720,0.000000,-7031.956449,153.219100
3213.087048,-962.267725,-8142.265362,536.266849
3213.087375,-592.164754,-9770.718434,1378.971896
3213.087703,0.000000,-11547.212695,612.876398
3213.088031,74.020594,-11325.150913,-1608.800546
3213.088358,222.061783,-10510.924376,-2451.505594
3213.088686,296.082377,-11177.109724,-1685.410096
3213.089014,888.247130,-11103.089130,-306.438199
3213.089341,1332.370696,-9400.615463,383.047749
3213.089669,962.267725,-8142.265362,689.485948
3213.089997,444.123565,-7994.224174,1532.190996
3213.090324,1036.288319,-7698.141797,2374.896044
3213.090652,518.144159,-6809.894666,995.924147
3213.090979,-518.144159,-6735.874072,766.095498
3213.091307,-1850.514855,-9326.594869,-842.705048
3213.091635,-2738.761985,-10436.903782,-1302.362347
3213.091962,-296.082377,-10362.883188,-1378.971896
3213.092290,1110.308913,-11547.212695,-612.876398
3213.092618,1702.473667,-12879.583391,459.657299
3213.092945,888.247130,-11695.253884,306.438199
3213.093273,1776.494261,-11695.253884,-1072.533697
3213.093601,592.164754,-9696.697840,-995.924147
3213.093928,-592.164754,-8438.347739,-153.219100
3213.094256,-1480.411884,-7920.203579,0.000000
3213.094583,-2516.700203,-7846.182985,0.000000
3213.094911,-740.205942,-9548.656652,-766.095498
3213.095239,-222.061783,-9992.780217,-1378.971896
3213.095566,-444.123565,-11325.150913,-766.095498
3213.095894,1702.473667,-10658.965565,-383.047749
3213.096222,1776.494261,-10140.821405,-1072.533697
3213.096549,1110.308913,-11769.274478,-689.485948
3213.096877,1332.370696,-11547.212695,-1225.752797
3213.097205,1628.453072,-9178.553681,-612.876398
3213.097532,1184.329507,-7994.224174,842.705048
3213.097860,0.000000,-9474.636058,1915.238745
3213.098188,0.000000,-10214.842000,1072.533697
3213.098515,0.000000,-9030.512492,-919.314598
3213.098843,222.061783,-9770.718434,-2221.676944
3213.099170,-370.102971,-9918.759623,-995.924147
3213.099498,-222.061783,-8364.327145,-306.438199
3213.099826,296.082377,-7994.224174,766.095498
3213.100153,518.144159,-8364.327145,383.047749
3213.100481,1258.350101,-9696.697840,0.000000
3213.100809,1998.556043,-9400.615463,1149.143247
3213.101136,1628.453072,-9474.636058,1378.971896
3213.101464,888.247130,-10140.821405,919.314598
3213.101792,444.123565,-9622.677246,0.000000
3213.102119,0.000000,-10066.800811,-1455.581446
3213.102447,-962.267725,-11103.089130,-2145.067394
3213.102774,-814.226536,-10066.800811,-1302.362347
3213.103102,814.226536,-8808.450710,-1072.533697
3213.103430,1036.288319,-9548.656652,-306.438199
3213.103757,1332.370696,-10288.862594,766.095498
3213.104085,962.267725,-9178.553681,1455.581446
3213.104413,1184.329507,-8438.347739,1838.629195
3213.104740,1258.350101,-7994.224174,0.000000
3213.105068,74.020594,-9474.636058,1225.752797
3213.105396,-814.226536,-9696.697840,306.438199
3213.105723,-666.185348,-9104.533087,-995.924147
3213.106051,-1554.432478,-10288.862594,-1225.752797
3213.106379,-2072.576638,-11547.212695,-1455.581446
3213.106706,-2072.576638,-11251.130318,-2451.505594
3213.107034,-1184.329507,-10362.883188,-1762.019645
3213.107361,444.123565,-9326.594869,-3217.601092
3213.107689,2072.576638,-9696.697840,-1838.629195
3213.108017,1184.329507,-11547.212695,2374.896044
3213.108344,1184.329507,-9400.615463,3524.039291
3213.108672,2960.823768,-7624.121203,1532.190996
3213.109000,1110.308913,-9400.615463,-612.876398
3213.109327,0.000000,-10807.006753,-536.266849
3213.109655,-1406.391290,-9326.594869,-153.219100
3213.109983,-1110.308913,-8808.450710,-919.314598
3213.110310,-740.205942,-9326.594869,-1608.800546
3213.110638,-370.102971,-9622.677246,-766.095498
3213.110966,-592.164754,-9992.780217,612.876398
3213.111293,1184.329507,-11399.171507,229.828649
3213.111621,2072.576638,-10955.047942,-459.657299
3213.111948,814.226536,-9104.533087,-612.876398
3213.112276,222.061783,-9178.553681,383.047749
3213.112604,666.185348,-8290.306550,536.266849
3213.112931,1110.308913,-7476.080014,76.609550
3213.113259,666.185348,-9400.615463,459.657299
3213.113587,592.164754,-11251.130318,919.314598
3213.113914,2072.576638,-9474.636058,0.000000
3213.114242,1110.308913,-7031.956449,-842.705048
3213.114570,-1480.411884,-8512.368333,229.828649
3213.114897,-1776.494261,-11621.233289,-229.828649
3213.115225,296.082377,-12065.356855,-766.095498
3213.115552,2146.597232,-9548.656652,-1302.362347
3213.115880,1998.556043,-9622.677246,153.219100
3213.116208,222.061783,-10436.903782,1838.629195
3213.116535,444.123565,-10510.924376,1225.752797
3213.116863,740.205942,-9030.512492,76.609550
3213.117191,-296.082377,-8734.430116,-1455.581446
3213.117518,-1776.494261,-9548.656652,-1685.410096
3213.117846,-1702.473667,-8216.285956,-306.438199
3213.118174,-592.164754,-6735.874072,-689.485948
3213.118501,1110.308913,-10436.903782,153.219100
3213.118829,1480.411884,-13249.686362,766.095498
3213.119157,1184.329507,-12065.356855,1149.143247
3213.119484,1184.329507,-9548.656652,-536.266849
3213.119812,962.267725,-9326.594869,-1608.800546
3213.120139,370.102971,-10288.862594,-1149.143247
3213.120467,-740.205942,-9474.636058,306.438199
3213.120795,-518.144159,-8586.388927,383.047749
3213.121122,888.247130,-8290.306550,0.000000
3213.121450,592.164754,-9474.636058,-612.876398
3213.121778,-148.041188,-9400.615463,-153.219100
3213.122105,444.123565,-9474.636058,-536.266849
3213.122433,370.102971,-9918.759623,-612.876398
3213.122761,-444.123565,-9474.636058,-612.876398
3213.123088,148.041188,-9918.759623,-153.219100
3213.123416,740.205942,-9104.533087,0.000000
3213.123743,666.185348,-8882.471304,1072.533697
3213.124071,740.205942,-10436.903782,612.876398
3213.124399,-370.102971,-11325.150913,-383.047749
3213.124726,0.000000,-10140.821405,-1608.800546
3213.125054,222.061783,-9030.512492,-1915.238745
3213.125382,-518.144159,-9474.636058,-689.485948
3213.125709,296.082377,-10362.883188,383.047749
3213.126037,592.164754,-10214.842000,383.047749
3213.126365,666.185348,-9474.636058,153.219100
3213.126692,148.041188,-9400.615463,0.000000
3213.127020,444.123565,-9696.697840,153.219100
3213.127348,814.226536,-9844.739029,1378.971896
3213.127675,592.164754,-10362.883188,689.485948
3213.128003,814.226536,-9622.677246,-612.876398
3213.128330,592.164754,-8882.471304,-995.924147
3213.128658,814.226536,-8956.491898,-536.266849
3213.128986,148.041188,-8882.471304,0.000000
3213.129313,-814.226536,-10066.800811,995.924147
3213.129641,-1110.308913,-9844.739029,76.609550
3213.129969,-888.247130,-9548.656652,-1762.019645
3213.130296,-962.267725,-9474.636058,-2221.676944
3213.130624,0.000000,-9696.697840,-1762.019645
3213.130952,1406.391290,-9548.656652,-1072.533697
3213.131279,1776.494261,-10732.986159,689.485948
3213.131607,1702.473667,-10658.965565,1455.581446
3213.131935,1776.494261,-9252.574275,383.047749
3213.132262,2220.617826,-9474.636058,-1225.752797
3213.132590,1110.308913,-9474.636058,-995.924147
3213.132917,148.041188,-9696.697840,-536.266849
3213.133245,0.000000,-9474.636058,0.000000
3213.133573,-296.082377,-8882.471304,306.438199
3213.133900,666.185348,-9844.739029,689.485948
3213.134228,592.164754,-10955.047942,1302.362347
3213.134556,296.082377,-11251.130318,919.314598
3213.134883,518.144159,-9992.780217,-995.924147
3213.135211,-148.041188,-9178.553681,-2528.115143
3213.135539,-592.164754,-9992.780217,-1838.629195
3213.135866,370.102971,-9326.594869,-536.266849
3213.136194,1406.391290,-7550.100608,689.485948
3213.136521,2294.638420,-9178.553681,1915.238745
3213.136849,1702.473667,-11473.192101,1455.581446
3213.137177,888.247130,-11399.171507,689.485948
3213.137504,1110.308913,-8808.450710,0.000000
3213.137832,-370.102971,-8290.306550,-306.438199
3213.138159,-2368.659014,-10066.800811,0.000000
3213.138487,-1850.514855,-10436.903782,229.828649
3213.138814,74.020594,-8586.388927,-1378.971896
3213.139142,1258.350101,-8438.347739,-689.485948
3213.139469,1332.370696,-9918.759623,0.000000
3213.139797,518.144159,-9844.739029,1915.238745
3213.140125,1110.308913,-8216.285956,919.314598
3213.140452,740.205942,-7698.141797,-995.924147
3213.140780,-1628.453072,-8586.388927,-153.219100
3213.141107,-444.123565,-9030.512492,76.609550
3213.141435,518.144159,-10584.944971,0.000000
3213.141762,888.247130,-12361.439231,0.000000
3213.142090,666.185348,-12139.377449,383.047749
3213.142418,740.205942,-12139.377449,-842.705048
3213.142745,444.123565,-11547.212695,-2068.457845
3213.143073,-444.123565,-9474.636058,-3064.381992
3213.143400,-1406.391290,-7179.997637,-1685.410096
3213.143728,-1406.391290,-6661.853478,0.000000
3213.144055,296.082377,-9104.533087,0.000000
3213.144383,666.185348,-9696.697840,1149.143247
3213.144711,-148.041188,-9252.574275,2451.505594
3213.145038,740.205942,-10807.006753,1225.752797
3213.145366,740.205942,-12213.398043,-1072.533697
3213.145693,0.000000,-11177.109724,-2221.676944
3213.146021,-592.164754,-9622.677246,-2451.505594
3213.146348,-740.205942,-9622.677246,-383.047749
3213.146676,222.061783,-9474.636058,0.000000
3213.147003,666.185348,-8216.285956,0.000000
3213.147331,74.020594,-8438.347739,842.705048
3213.147659,370.102971,-8734.430116,0.000000
3213.147986,444.123565,-9326.594869,0.000000
3213.148314,296.082377,-9178.553681,-689.485948
3213.148641,0.000000,-9326.594869,0.000000
3213.148969,-148.041188,-8956.491898,919.314598
3213.149296,444.123565,-8808.450710,842.705048
3213.149624,1110.308913,-10140.821405,0.000000
3213.149952,888.247130,-10881.027347,0.000000
3213.150279,1850.514855,-9992.780217,-842.705048
3213.150607,1036.288319,-8438.347739,-306.438199
3213.150934,962.267725,-8364.327145,383.047749
3213.151262,-296.082377,-9474.636058,842.705048
3213.151589,74.020594,-9326.594869,153.219100
3213.151917,0.000000,-9326.594869,153.219100
3213.152244,-888.247130,-10658.965565,0.000000
3213.152572,-2516.700203,-10288.862594,76.609550
3213.152900,-1702.473667,-9622.677246,-1532.190996
3213.153227,-962.267725,-9252.574275,-2911.162892
3213.153555,518.144159,-10658.965565,-2451.505594
3213.153882,1702.473667,-11621.233289,-689.485948
3213.154210,2516.700203,-10288.862594,536.266849
3213.154537,2294.638420,-8586.388927,0.000000
3213.154865,1998.556043,-10658.965565,-1072.533697
3213.155193,518.144159,-11399.171507,459.657299
3213.155520,370.102971,-9696.697840,536.266849
3213.155848,962.267725,-8364.327145,-766.095498
3213.156175,148.041188,-9252.574275,0.000000
3213.156503,0.000000,-10066.800811,1072.533697
3213.156830,518.144159,-10732.986159,612.876398
3213.157158,222.061783,-10881.027347,536.266849
3213.157486,0.000000,-9252.574275,-2145.067394
3213.157813,148.041188,-7476.080014,-3140.991542
3213.158141,-666.185348,-8142.265362,-536.266849
3213.158468,888.247130,-9474.636058,153.219100
3213.158796,1850.514855,-9770.718434,1072.533697
3213.159123,1776.494261,-9770.718434,1455.581446
3213.159451,888.247130,-10436.903782,1072.533697
3213.159778,222.061783,-9992.780217,689.485948
3213.160106,740.205942,-9252.574275,306.438199
3213.160434,-444.123565,-9326.594869,0.000000
3213.160761,-2442.679609,-10807.006753,-306.438199
3213.161089,-2368.659014,-9104.533087,-1302.362347
3213.161416,0.000000,-7476.080014,-1762.019645
3213.161744,814.226536,-9030.512492,306.438199
3213.162071,814.226536,-10066.800811,1991.848295
3213.162399,666.185348,-9548.656652,1302.362347
3213.162727,1406.391290,-8660.409521,76.609550
3213.163054,1036.288319,-8882.471304,-1072.533697
3213.163382,-814.226536,-9400.615463,383.047749
3213.163709,-962.267725,-9030.512492,459.657299
3213.164037,-666.185348,-10066.800811,-689.485948
3213.164364,-518.144159,-11917.315666,-766.095498
3213.164692,296.082377,-11399.171507,-995.924147
3213.165019,962.267725,-10362.883188,-1455.581446
3213.165347,814.226536,-9918.759623,-689.485948
3213.165675,666.185348,-10214.842000,-1762.019645
3213.166002,-370.102971,-9918.759623,-1838.629195
3213.166330,-962.267725,-8290.306550,-1838.629195
3213.166657,592.164754,-8364.327145,-842.705048
3213.166985,0.000000,-9104.533087,1991.848295
3213.167312,148.041188,-9622.677246,2451.505594
3213.167640,444.123565,-11251.130318,1072.533697
3213.167968,814.226536,-12287.418637,-1378.971896
3213.168295,666.185348,-11325.150913,-2834.553343
3213.168623,0.000000,-9252.574275,-2374.896044
3213.168950,-962.267725,-7846.182985,-383.047749
3213.169278,148.041188,-9474.636058,919.314598
3213.169605,518.144159,-10066.800811,919.314598
3213.169933,74.020594,-8956.491898,1072.533697
3213.170261,370.102971,-8956.491898,76.609550
3213.170588,296.082377,-9474.636058,0.000000
3213.170916,-296.082377,-9770.718434,612.876398
3213.171243,-444.123565,-10881.027347,306.438199
3213.171571,-296.082377,-9918.759623,0.000000
3213.171898,0.000000,-7994.224174,-689.485948
3213.172226,1480.411884,-8216.285956,-459.657299
3213.172553,1184.329507,-8956.491898,995.924147
3213.172881,1406.391290,-9696.697840,1378.971896
3213.173209,1554.432478,-9622.677246,612.876398
3213.173536,666.185348,-9474.636058,689.485948
3213.173864,1258.350101,-8586.388927,-536.266849
3213.174191,444.123565,-9252.574275,0.000000
3213.174519,-592.164754,-9030.512492,842.705048
3213.174846,-666.185348,-9918.759623,612.876398
3213.175174,-2368.659014,-10140.821405,-536.266849
3213.175502,-1702.473667,-9844.739029,-2757.943793
3213.175829,-1406.391290,-7920.203579,-2145.067394
3213.176157,888.247130,-8364.327145,-2604.724693
3213.176484,1702.473667,-10362.883188,-612.876398
3213.176812,2368.659014,-12139.377449,536.266849
3213.177139,1924.535449,-11103.089130,842.705048
3213.177467,2294.638420,-9918.759623,-689.485948
3213.177794,1110.308913,-11177.109724,-153.219100
3213.178122,592.164754,-11769.274478,-1072.533697
3213.178450,222.061783,-10436.903782,-1072.533697
3213.178777,-592.164754,-10288.862594,-919.314598
3213.179105,-370.102971,-9844.739029,-766.095498
3213.179432,518.144159,-8956.491898,-689.485948
3213.179760,74.020594,-9326.594869,1072.533697
3213.180087,518.144159,-9770.718434,383.047749
3213.180415,296.082377,-10362.883188,-1378.971896
3213.180743,592.164754,-10288.862594,-1532.190996
3213.181070,0.000000,-8956.491898,-842.705048
3213.181398,1110.308913,-8512.368333,0.000000
3213.181725,1110.308913,-8882.471304,1915.238745
3213.182053,962.267725,-10658.965565,1685.410096
3213.182380,666.185348,-10658.965565,1072.533697
3213.182708,1406.391290,-9844.739029,153.219100
3213.183036,1850.514855,-8216.285956,-1225.752797
3213.183363,-1184.329507,-6883.915261,-229.828649
3213.183691,-2960.823768,-7698.141797,459.657299
3213.184018,-2368.659014,-8512.368333,0.000000
3213.184346,-148.041188,-9474.636058,-459.657299
3213.184673,1036.288319,-9326.594869,-383.047749
3213.185001,740.205942,-9030.512492,1072.533697
3213.185328,444.123565,-9474.636058,2298.286494
3213.185656,888.247130,-9918.759623,306.438199
3213.185984,-740.205942,-10436.903782,-766.095498
3213.186311,-1480.411884,-9622.677246,-995.924147
3213.186639,-740.205942,-8142.265362,-1838.629195
3213.186966,-222.061783,-9548.656652,-766.095498
3213.187294,444.123565,-11399.171507,229.828649
3213.187621,370.102971,-11991.336260,153.219100
3213.187949,518.144159,-11917.315666,-536.266849
3213.188277,1036.288319,-12139.377449,-2298.286494
3213.188604,-296.082377,-10732.986159,-3064.381992
3213.188932,-666.185348,-8956.491898,-2145.067394
3213.189259,222.061783,-8660.409521,-689.485948
3213.189587,1110.308913,-10732.986159,0.000000
3213.189914,370.102971,-10955.047942,1838.629195
3213.190242,1110.308913,-9622.677246,1762.019645
3213.190569,1406.391290,-8808.450710,-229.828649
3213.190897,1554.432478,-11103.089130,-1532.190996
3213.191225,370.102971,-11251.130318,-1608.800546
3213.191552,-444.123565,-8734.430116,-766.095498
3213.191880,296.082377,-9252.574275,153.219100
3213.192207,1110.308913,-10214.842000,383.047749
3213.192535,296.082377,-8882.471304,1685.410096
3213.192862,370.102971,-8216.285956,1455.581446
3213.193190,518.144159,-9326.594869,76.609550
3213.193518,74.020594,-9844.739029,-536.266849
3213.193845,0.000000,-8956.491898,-995.924147
3213.194173,222.061783,-8142.265362,-1149.143247
3213.194500,666.185348,-7254.018232,766.095498
3213.194828,1406.391290,-8142.265362,536.266849
3213.195155,740.205942,-10288.862594,1302.362347
3213.195483,1036.288319,-11029.068536,766.095498
3213.195811,1702.473667,-10362.883188,-842.705048
3213.196138,370.102971,-9844.739029,0.000000
3213.196466,74.020594,-9252.574275,842.705048
3213.196793,0.000000,-10362.883188,229.828649
3213.197121,0.000000,-11029.068536,76.609550
3213.197448,592.164754,-9918.759623,-383.047749
3213.197776,222.061783,-8882.471304,-766.095498
3213.198103,-814.226536,-7994.224174,766.095498
3213.198431,-1184.329507,-9252.574275,153.219100
3213.198759,-2220.617826,-10066.800811,-1149.143247
3213.199086,-370.102971,-10584.944971,-2451.505594
3213.199414,1258.350101,-11325.150913,-2987.772442
3213.199741,1110.308913,-11103.089130,-612.876398
3213.200069,1702.473667,-11621.233289,1302.362347
3213.200396,2146.597232,-11547.212695,0.000000
3213.200724,1998.556043,-12361.439231,-229.828649
3213.201052,444.123565,-9696.697840,-1302.362347
3213.201379,222.061783,-7179.997637,-2145.067394
3213.201707,-740.205942,-7179.997637,0.000000
3213.202034,148.041188,-8290.306550,612.876398
3213.202362,-296.082377,-9770.718434,1455.581446
3213.202689,-592.164754,-9770.718434,1532.190996
3213.203017,0.000000,-9548.656652,-612.876398
3213.203344,296.082377,-9770.718434,-1915.238745
3213.203672,0.000000,-9918.759623,-1072.533697
3213.204000,518.144159,-9622.677246,-1915.238745
3213.204327,888.247130,-9474.636058,-383.047749
3213.204655,1776.494261,-9696.697840,459.657299
3213.204982,1554.432478,-9992.780217,1149.143247
3213.205310,1406.391290,-8364.327145,2374.896044
3213.205637,2294.638420,-8586.388927,1072.533697
3213.205965,518.144159,-9474.636058,76.609550
3213.206293,-1332.370696,-8660.409521,383.047749
3213.206620,-2738.761985,-8660.409521,-919.314598
3213.206948,-2442.679609,-9178.553681,-1225.752797
3213.207275,-740.205942,-9548.656652,-612.876398
3213.207603,1628.453072,-10658.965565,-919.314598
3213.207930,1554.432478,-10881.027347,0.000000
3213.208258,1702.473667,-10436.903782,919.314598
3213.208586,1628.453072,-8734.430116,-612.876398
3213.208913,296.082377,-8586.388927,306.438199
3213.209241,-1036.288319,-8808.450710,536.266849
3213.209568,-1184.329507,-9030.512492,-842.705048
3213.209896,-888.247130,-9770.718434,-612.876398
3213.210223,814.226536,-11177.109724,-1072.533697
3213.210551,1036.288319,-11399.171507,-766.095498
3213.210878,1258.350101,-11917.315666,766.095498
3213.211206,814.226536,-11473.192101,-842.705048
3213.211534,592.164754,-10955.047942,-2757.943793
3213.211861,0.000000,-9992.780217,-2451.505594
3213.212189,-740.205942,-7402.059420,-1838.629195
3213.212516,0.000000,-7328.038826,0.000000
3213.212844,296.082377,-8438.347739,2681.334243
3213.213171,2368.659014,-10066.800811,2145.067394
3213.213499,2146.597232,-12065.356855,1455.581446
3213.213827,1554.432478,-11547.212695,-1225.752797
3213.214154,-222.061783,-9326.594869,-2757.943793
3213.214482,-740.205942,-10066.800811,-995.924147
3213.214809,0.000000,-10066.800811,-995.924147
3213.215137,0.000000,-10362.883188,0.000000
3213.215464,962.267725,-10066.800811,536.266849
3213.215792,1850.514855,-8956.491898,0.000000
3213.216120,1554.432478,-9178.553681,1072.533697
3213.216447,1110.308913,-8216.285956,1532.190996
3213.216775,-370.102971,-7254.018232,919.314598
3213.217102,-1776.494261,-8586.388927,919.314598
3213.217430,0.000000,-8438.347739,-1302.362347
3213.217757,-592.164754,-8512.368333,-229.828649
3213.218085,-222.061783,-9252.574275,1455.581446
3213.218412,1184.329507,-11029.068536,383.047749
3213.218740,1258.350101,-13397.727550,-383.047749
3213.219068,962.267725,-10955.047942,-919.314598
3213.219395,444.123565,-8734.430116,-842.705048
3213.219723,-518.144159,-8290.306550,306.438199
3213.220050,-444.123565,-8586.388927,1225.752797
3213.220378,-296.082377,-9474.636058,229.828649
3213.220705,-370.102971,-9622.677246,153.219100
3213.221033,-592.164754,-9696.697840,0.000000
3213.221361,0.000000,-10362.883188,-766.095498
3213.221688,-888.247130,-9178.553681,766.095498
3213.222016,-814.226536,-9474.636058,-1378.971896
3213.222343,-1554.432478,-11695.253884,-2068.457845
3213.222671,-962.267725,-11843.295072,-2987.772442
3213.222998,592.164754,-9992.780217,-2987.772442
3213.223326,2220.617826,-9992.780217,-842.705048
3213.223653,2442.679609,-11473.192101,1991.848295
3213.223981,2146.597232,-11325.150913,2068.457845
3213.224309,814.226536,-8808.450710,1225.752797
3213.224636,740.205942,-9918.759623,-689.485948
3213.224964,-888.247130,-9770.718434,-1225.752797
3213.225291,-2590.720797,-8068.244768,-383.047749
3213.225619,-2220.617826,-7254.018232,-1072.533697
3213.225946,-148.041188,-9474.636058,-1378.971896
3213.226274,1332.370696,-11251.130318,-229.828649
3213.226602,2368.659014,-9992.780217,689.485948
3213.226929,1850.514855,-8734.430116,919.314598
3213.227257,1258.350101,-9252.574275,306.438199
3213.227584,222.061783,-9400.615463,-536.266849
3213.227912,-1332.370696,-8660.409521,-229.828649
3213.228239,0.000000,-7772.162391,0.000000
3213.228567,518.144159,-9030.512492,842.705048
3213.228895,0.000000,-11103.089130,1455.581446
3213.229222,592.164754,-10807.006753,0.000000
3213.229550,222.061783,-10288.862594,-1455.581446
3213.229877,666.185348,-10140.821405,-1378.971896
3213.230205,148.041188,-7994.224174,-1991.848295
3213.230532,-814.226536,-7624.121203,-842.705048
3213.230860,-370.102971,-8142.265362,1149.143247
3213.231187,1702.473667,-8586.388927,1225.752797
3213.231515,2146.597232,-10362.883188,1302.362347
3213.231843,2072.576638,-11695.253884,2068.457845
3213.232170,1110.308913,-11621.233289,1072.533697
3213.232498,1258.350101,-10807.006753,-383.047749
3213.232825,740.205942,-10510.924376,-2068.457845
3213.233153,-444.123565,-11695.253884,-2451.505594
3213.233480,-1184.329507,-10510.924376,-1915.238745
3213.233808,148.041188,-9400.615463,-1532.190996
3213.234136,518.144159,-9770.718434,-459.657299
3213.234463,1184.329507,-10066.800811,842.705048
3213.234791,1332.370696,-9696.697840,1225.752797
3213.235118,666.185348,-9104.533087,459.657299
3213.235446,296.082377,-7994.224174,-536.266849
3213.235773,0.000000,-9178.553681,-766.095498
3213.236101,-1184.329507,-8438.347739,536.266849
3213.236429,-444.123565,-8586.388927,536.266849
3213.236756,0.000000,-9770.718434,0.000000
3213.237084,74.020594,-12065.356855,0.000000
3213.237411,1480.411884,-11843.295072,-689.485948
3213.237739,888.247130,-9918.759623,-1915.238745
3213.238066,0.000000,-9548.656652,-1072.533697
3213.238394,0.000000,-9178.553681,0.000000
3213.238722,0.000000,-9030.512492,-306.438199
3213.239049,74.020594,-8808.450710,612.876398
3213.239377,74.020594,-8068.244768,689.485948
3213.239704,-370.102971,-8216.285956,1378.971896
3213.240032,-370.102971,-9548.656652,1149.143247
3213.240360,-444.123565,-10510.924376,-612.876398
3213.240687,-518.144159,-9696.697840,-2145.067394
3213.241015,-592.164754,-10066.800811,-2221.676944
3213.241342,0.000000,-10436.903782,-1225.752797
3213.241670,888.247130,-9622.677246,-459.657299
3213.241997,1850.514855,-10436.903782,-306.438199
3213.242325,370.102971,-10955.047942,536.266849
3213.242653,0.000000,-10807.006753,1455.581446
3213.242980,0.000000,-9252.574275,0.000000
3213.243308,-1332.370696,-9104.533087,-153.219100
3213.243635,-1702.473667,-8438.347739,0.000000
3213.243963,-148.041188,-9030.512492,-1915.238745
3213.244291,-370.102971,-9622.677246,0.000000
3213.244618,0.000000,-9622.677246,919.314598
3213.244946,-370.102971,-8956.491898,-229.828649
3213.245273,74.020594,-9918.759623,-919.314598
3213.245601,1110.308913,-10288.862594,-1762.019645
3213.245928,1998.556043,-10510.924376,-1608.800546
3213.246256,1406.391290,-10732.986159,1455.581446
3213.246584,2146.597232,-10584.944971,1532.190996
3213.246911,1702.473667,-9474.636058,612.876398
3213.247239,666.185348,-9770.718434,1072.533697
3213.247566,74.020594,-10140.821405,0.000000
3213.247894,-1406.391290,-9326.594869,-1302.362347
3213.248221,-1480.411884,-8142.265362,-1838.629195
3213.248549,-444.123565,-8290.306550,-1762.019645
3213.248877,148.041188,-9474.636058,383.047749
3213.249204,2146.597232,-9326.594869,1915.238745
3213.249532,2590.720797,-9548.656652,1072.533697
3213.249859,2072.576638,-10436.903782,689.485948
3213.250187,1110.308913,-9992.780217,76.609550
3213.250515,-296.082377,-8142.265362,-153.219100
3213.250842,-222.061783,-7846.182985,612.876398
3213.251170,0.000000,-9844.739029,0.000000
3213.251497,0.000000,-12287.418637,536.266849
3213.251825,1110.308913,-10732.986159,-306.438199
3213.252152,1998.556043,-10140.821405,-2145.067394
3213.252480,1332.370696,-9696.697840,-689.485948
3213.252808,-888.247130,-7846.182985,0.000000
3213.253135,-2220.617826,-8290.306550,-689.485948
3213.253463,-1702.473667,-8956.491898,0.000000
3213.253790,1036.288319,-8882.471304,-459.657299
3213.254118,1036.288319,-9474.636058,766.095498
3213.254445,666.185348,-9770.718434,3370.820191
3213.254773,740.205942,-10436.903782,995.924147
3213.255101,888.247130,-11621.233289,-1149.143247
3213.255428,-518.144159,-11029.068536,-1991.848295
3213.255756,-1036.288319,-9252.574275,-2757.943793
3213.256083,-740.205942,-8512.368333,-1762.019645
3213.256411,0.000000,-9696.697840,536.266849
3213.256739,666.185348,-11177.109724,459.657299
3213.257066,74.020594,-10732.986159,1608.800546
3213.257394,518.144159,-9474.636058,842.705048
3213.257721,444.123565,-8808.450710,-1378.971896
3213.258049,-1332.370696,-8142.265362,-995.924147
3213.258376,-1184.329507,-7994.224174,-919.314598
3213.258704,-962.267725,-8512.368333,0.000000
3213.259032,-370.102971,-9252.574275,76.609550
3213.259359,-222.061783,-8882.471304,153.219100
3213.259687,814.226536,-10510.924376,766.095498
3213.260014,1628.453072,-11325.150913,-383.047749
3213.260342,1702.473667,-12065.356855,-1608.800546
3213.260670,962.267725,-10955.047942,-995.924147
3213.260997,1110.308913,-9622.677246,-2604.724693
3213.261325,74.020594,-9326.594869,459.657299
3213.261652,-296.082377,-8512.368333,2374.896044
3213.261980,518.144159,-8438.347739,1149.143247
3213.262307,518.144159,-9622.677246,0.000000
3213.262635,444.123565,-10214.842000,-689.485948
3213.262963,222.061783,-9030.512492,-1378.971896
3213.263290,-148.041188,-8290.306550,-229.828649
3213.263618,296.082377,-8660.409521,-536.266849
3213.263945,1702.473667,-10140.821405,-1149.143247
3213.264273,1702.473667,-10658.965565,0.000000
3213.264600,1776.494261,-10436.903782,153.219100
3213.264928,1110.308913,-10214.842000,459.657299
3213.265256,0.000000,-10732.986159,1378.971896
3213.265583,444.123565,-10214.842000,383.047749
3213.265911,-888.247130,-10510.924376,-689.485948
3213.266238,-1924.535449,-9252.574275,-612.876398
3213.266566,0.000000,-8586.388927,-1991.848295
3213.266894,-592.164754,-7698.141797,-612.876398
3213.267221,-592.164754,-8216.285956,766.095498
3213.267549,444.123565,-9770.718434,459.657299
3213.267876,888.247130,-10066.800811,-536.266849
3213.268204,1184.329507,-10066.800811,-1302.362347
3213.268531,2072.576638,-10214.842000,-1072.533697
3213.268859,1406.391290,-11473.192101,1762.019645
3213.269187,1110.308913,-11177.109724,1991.848295
3213.269514,1480.411884,-11103.089130,459.657299
3213.269842,0.000000,-10140.821405,-766.095498
3213.270169,-296.082377,-9770.718434,-2221.676944
3213.270497,-1480.411884,-8216.285956,-2374.896044
3213.270824,-1184.329507,-7772.162391,-766.095498
3213.271152,0.000000,-8956.491898,-229.828649
3213.271480,0.000000,-10214.842000,842.705048
3213.271807,1036.288319,-9474.636058,459.657299
3213.272135,1184.329507,-8660.409521,-995.924147
3213.272462,444.123565,-9992.780217,0.000000
3213.272790,222.061783,-9918.759623,0.000000
3213.273118,592.164754,-9400.615463,-1072.533697
3213.273445,222.061783,-9918.759623,-306.438199
3213.273773,962.267725,-10955.047942,0.000000
3213.274100,740.205942,-10436.903782,0.000000
3213.274428,962.267725,-9770.718434,766.095498
3213.274755,888.247130,-8660.409521,0.000000
3213.275083,-370.102971,-9918.759623,-689.485948
3213.275411,-2294.638420,-9474.636058,-536.266849
3213.275738,-1184.329507,-8364.327145,-1225.752797
3213.276066,0.000000,-7698.141797,0.000000
3213.276393,592.164754,-8068.244768,1302.362347
3213.276721,518.144159,-9400.615463,2068.457845
3213.277049,74.020594,-10436.903782,1455.581446
3213.277376,444.123565,-9178.553681,-459.657299
3213.277704,888.247130,-9992.780217,-2298.286494
3213.278031,-666.185348,-10288.862594,-919.314598
3213.278359,-296.082377,-10214.842000,-306.438199
3213.278686,814.226536,-10881.027347,-536.266849
3213.279014,1776.494261,-11399.171507,-612.876398
3213.279342,888.247130,-11547.212695,995.924147
3213.279669,888.247130,-9918.759623,1455.581446
3213.279997,1554.432478,-8882.471304,536.266849
3213.280324,370.102971,-9178.553681,-612.876398
3213.280652,-666.185348,-8734.430116,-919.314598
3213.280979,-1184.329507,-7476.080014,-995.924147
3213.281307,0.000000,-8216.285956,0.000000
3213.281635,0.000000,-9844.739029,536.266849
3213.281962,296.082377,-10288.862594,153.219100
3213.282290,666.185348,-10510.924376,0.000000
3213.282617,1850.514855,-12435.459826,-919.314598
3213.282945,1776.494261,-11547.212695,-1302.362347
3213.283273,370.102971,-9622.677246,-306.438199
3213.283600,370.102971,-9178.553681,76.609550
3213.283928,296.082377,-9548.656652,-383.047749
3213.284255,-740.205942,-9474.636058,612.876398
3213.284583,222.061783,-9770.718434,-689.485948
3213.284910,740.205942,-9178.553681,-1072.533697
3213.285238,666.185348,-8512.368333,-536.266849
3213.285566,74.020594,-9030.512492,-229.828649
3213.285893,0.000000,-9844.739029,0.000000
3213.286221,296.082377,-8586.388927,0.000000
3213.286548,1702.473667,-9326.594869,383.047749
3213.286876,1480.411884,-11103.089130,306.438199
3213.287204,1184.329507,-10066.800811,1302.362347
3213.287531,1110.308913,-10362.883188,536.266849
3213.287859,-444.123565,-11547.212695,766.095498
3213.288186,-592.164754,-10436.903782,229.828649
3213.288514,-962.267725,-7624.121203,-1991.848295
3213.288841,-1332.370696,-7846.182985,-1455.581446
3213.289169,-1110.308913,-8364.327145,-229.828649
3213.289497,-666.185348,-8808.450710,919.314598
3213.289824,-962.267725,-9548.656652,1302.362347
3213.290152,-296.082377,-10066.800811,-459.657299
3213.290479,370.102971,-9326.594869,-1302.362347
3213.290807,1110.308913,-8660.409521,-1225.752797
3213.291134,962.267725,-11177.109724,0.000000
3213.291462,1776.494261,-12213.398043,536.266849
3213.291790,2368.659014,-10214.842000,76.609550
3213.292117,2072.576638,-10584.944971,-995.924147
3213.292445,148.041188,-10732.986159,0.000000
3213.292772,-666.185348,-9030.512492,-306.438199
3213.293100,-1258.350101,-8586.388927,-1149.143247
3213.293428,-814.226536,-9474.636058,-995.924147
3213.293755,-370.102971,-10066.800811,-306.438199
3213.294083,444.123565,-10436.903782,689.485948
3213.294410,1184.329507,-9918.759623,766.095498
3213.294738,1702.473667,-9992.780217,-919.314598
3213.295065,592.164754,-10362.883188,-1455.581446
3213.295393,0.000000,-10140.821405,-919.314598
3213.295721,666.185348,-8734.430116,-1991.848295
3213.296048,1184.329507,-9252.574275,76.609550
3213.296376,888.247130,-9844.739029,1608.800546
3213.296703,814.226536,-11029.068536,1225.752797
3213.297031,814.226536,-10658.965565,842.705048
3213.297358,962.267725,-9178.553681,0.000000
3213.297686,-666.185348,-9474.636058,-919.314598
3213.298014,-1924.535449,-9400.615463,-536.266849
3213.298341,-666.185348,-8142.265362,-766.095498
3213.298669,666.185348,-8734.430116,0.000000
3213.298996,1332.370696,-9548.656652,919.314598
3213.299324,0.000000,-10066.800811,1838.629195
3213.299652,74.020594,-7920.203579,1838.629195
3213.299979,1258.350101,-7402.059420,-995.924147
3213.300307,296.082377,-9770.718434,-995.924147
3213.300634,-962.267725,-11103.089130,-153.219100
3213.300962,-592.164754,-10140.821405,-306.438199
3213.301289,1110.308913,-9918.759623,-995.924147
3213.301617,1702.473667,-11103.089130,229.828649
3213.301945,1332.370696,-12213.398043,1149.143247
3213.302272,592.164754,-10584.944971,459.657299
3213.302600,1110.308913,-9030.512492,-1991.848295
3213.302927,592.164754,-9030.512492,-3064.381992
3213.303255,-740.205942,-8068.244768,-1685.410096
3213.303583,-1110.308913,-7254.018232,0.000000
3213.303910,0.000000,-8660.409521,536.266849
3213.304238,518.144159,-10584.944971,1225.752797
3213.304565,1554.432478,-12953.603985,383.047749
3213.304893,1406.391290,-12435.459826,-229.828649
3213.305220,962.267725,-10436.903782,-1378.971896
3213.305548,1110.308913,-10658.965565,-1225.752797
3213.305876,666.185348,-12139.377449,-1225.752797
3213.306203,-296.082377,-10436.903782,-383.047749
3213.306531,370.102971,-8364.327145,-383.047749
3213.306858,0.000000,-7328.038826,0.000000
3213.307186,148.041188,-9474.636058,0.000000
3213.307513,444.123565,-9696.697840,459.657299
3213.307841,-888.247130,-8956.491898,612.876398
3213.308169,-888.247130,-7846.182985,383.047749
3213.308496,148.041188,-8586.388927,-842.705048
3213.308824,0.000000,-9548.656652,612.876398
3213.309151,148.041188,-10066.800811,1378.971896
3213.309479,1776.494261,-10066.800811,-1072.533697
3213.309807,1850.514855,-10658.965565,-459.657299
3213.310134,1554.432478,-9844.739029,-766.095498
3213.310462,296.082377,-8364.327145,153.219100
3213.310789,-962.267725,-8290.306550,1455.581446
3213.311117,-740.205942,-9252.574275,689.485948
3213.311444,-962.267725,-9030.512492,-306.438199
3213.311772,-592.164754,-8512.368333,-689.485948
3213.312100,-740.205942,-8438.347739,-459.657299
3213.312427,-1332.370696,-8734.430116,1608.800546
3213.312755,-888.247130,-8882.471304,919.314598
3213.313082,74.020594,-10510.924376,-1532.190996
3213.313410,222.061783,-10807.006753,-2221.676944
3213.313737,1332.370696,-9770.718434,-2374.896044
3213.314065,1776.494261,-9770.718434,-1762.019645
3213.314393,2368.659014,-11177.109724,1149.143247
3213.314720,2294.638420,-11769.274478,1072.533697
3213.315048,1406.391290,-11251.130318,612.876398
3213.315375,1406.391290,-10732.986159,76.609550
3213.315703,296.082377,-10436.903782,-995.924147
3213.316031,-1406.391290,-9400.615463,-459.657299
3213.316358,-1702.473667,-8364.327145,0.000000
3213.316686,-1702.473667,-8068.244768,-1378.971896
3213.317013,-666.185348,-9696.697840,-459.657299
3213.317341,962.267725,-10140.821405,-689.485948
3213.317668,1110.308913,-9548.656652,-766.095498
3213.317996,1406.391290,-9178.553681,-153.219100
3213.318324,1702.473667,-9474.636058,-612.876398
3213.318651,962.267725,-10436.903782,-229.828649
3213.318979,74.020594,-9474.636058,1302.362347
3213.319306,814.226536,-9622.677246,1302.362347
3213.319634,888.247130,-10436.903782,2068.457845
3213.319962,814.226536,-10214.842000,1455.581446
3213.320289,1036.288319,-10658.965565,153.219100
3213.320617,370.102971,-9178.553681,-1302.362347
3213.320944,-296.082377,-7698.141797,-1455.581446
3213.321272,-1924.535449,-7179.997637,-612.876398
3213.321599,-1258.350101,-6587.832884,383.047749
3213.321927,0.000000,-7105.977043,536.266849
3213.322255,1406.391290,-8660.409521,459.657299
3213.322582,1110.308913,-10066.800811,2451.505594
3213.322910,2368.659014,-12361.439231,1225.752797
3213.323237,1258.350101,-11843.295072,1225.752797
3213.323565,740.205942,-10214.842000,-689.485948
3213.323892,-1258.350101,-9474.636058,-2298.286494
3213.324220,-1480.411884,-10732.986159,-2451.505594
3213.324548,444.123565,-11473.192101,-1915.238745
3213.324875,592.164754,-10066.800811,-995.924147
3213.325203,592.164754,-9326.594869,-153.219100
3213.325530,1628.453072,-9030.512492,-153.219100
3213.325858,592.164754,-9252.574275,-995.924147
3213.326186,-888.247130,-9400.615463,76.609550
3213.326513,-1776.494261,-8068.244768,-919.314598
3213.326841,-1628.453072,-9030.512492,0.000000
3213.327168,222.061783,-10658.965565,459.657299
3213.327496,2220.617826,-12361.439231,459.657299
3213.327823,1480.411884,-11695.253884,0.000000
3213.328151,2442.679609,-11843.295072,-919.314598
3213.328479,1702.473667,-11917.315666,-1762.019645
3213.328806,0.000000,-9474.636058,-1455.581446
3213.329134,-1036.288319,-6217.729913,-1762.019645
3213.329461,-1184.329507,-7846.182985,-536.266849
3213.329789,-296.082377,-9918.759623,1455.581446
3213.330117,592.164754,-9548.656652,766.095498
3213.330444,-592.164754,-8808.450710,2221.676944
3213.330772,296.082377,-8586.388927,1762.019645
3213.331099,592.164754,-8956.491898,-153.219100
3213.331427,0.000000,-9992.780217,-536.266849
3213.331754,518.144159,-9178.553681,-766.095498
3213.332082,814.226536,-7772.162391,-766.095498
3213.332410,-296.082377,-9696.697840,536.266849
3213.332737,2368.659014,-11621.233289,306.438199
3213.333065,2294.638420,-11473.192101,0.000000
3213.333392,1110.308913,-10510.924376,612.876398
3213.333720,296.082377,-9474.636058,0.000000
3213.334047,-592.164754,-9030.512492,229.828649
3213.334375,-814.226536,-7994.224174,0.000000
3213.334703,-518.144159,-8290.306550,306.438199
3213.335030,-2294.638420,-8734.430116,995.924147
3213.335358,-1924.535449,-8734.430116,-383.047749
3213.335685,-1332.370696,-9844.739029,-2528.115143
3213.336013,-1332.370696,-9918.759623,-2374.896044
3213.336343,370.102971,-8586.388927,-3140.991542
3213.336671,1776.494261,-9992.780217,-1378.971896
3213.336998,2516.700203,-13249.686362,536.266849
3213.337326,3108.864956,-12731.542202,995.924147
3213.337654,2590.720797,-11917.315666,842.705048
3213.337981,1628.453072,-11029.068536,766.095498
3213.338309,518.144159,-10066.800811,-689.485948
3213.338637,-1110.308913,-9400.615463,-766.095498
3213.338964,-1554.432478,-7698.141797,-1225.752797
3213.339292,-1628.453072,-7254.018232,-1455.581446
3213.339620,-814.226536,-8882.471304,-766.095498
3213.339948,0.000000,-8068.244768,76.609550
3213.340275,592.164754,-9474.636058,-536.266849
3213.340603,1258.350101,-10288.862594,-459.657299
3213.340931,1110.308913,-9918.759623,0.000000
3213.341258,592.164754,-10584.944971,383.047749
3213.341586,1184.329507,-9548.656652,1455.581446
3213.341914,2442.679609,-10288.862594,1685.410096
3213.342241,1184.329507,-11991.336260,1838.629195
3213.342569,444.123565,-11251.130318,306.438199
3213.342897,962.267725,-9474.636058,-1915.238745
3213.343224,148.041188,-7254.018232,-1991.848295
3213.343552,-1258.350101,-7105.977043,-1072.533697
3213.343880,-2294.638420,-6809.894666,-689.485948
3213.344208,-1332.370696,-7994.224174,229.828649
3213.344535,148.041188,-9474.636058,689.485948
3213.344863,666.185348,-9844.739029,1149.143247
3213.345191,814.226536,-9696.697840,2374.896044
3213.345518,1998.556043,-10362.883188,919.314598
3213.345846,1184.329507,-11029.068536,-383.047749
3213.346174,888.247130,-11325.150913,-306.438199
3213.346501,888.247130,-10214.842000,-1991.848295
3213.346829,370.102971,-9474.636058,-2068.457845
3213.347157,148.041188,-10066.800811,-766.095498
3213.347484,-444.123565,-10214.842000,-459.657299
3213.347812,-1036.288319,-10214.842000,919.314598
3213.348140,592.164754,-9918.759623,-459.657299
3213.348468,-222.061783,-9104.533087,-1608.800546
3213.348795,-1554.432478,-8586.388927,689.485948
3213.349123,-814.226536,-7698.141797,153.219100
3213.349451,148.041188,-9104.533087,-383.047749
3213.349778,148.041188,-10807.006753,612.876398
3213.350106,222.061783,-10584.944971,76.609550
3213.350434,1036.288319,-9622.677246,-689.485948
3213.350761,2146.597232,-10288.862594,-306.438199
3213.351089,1924.535449,-11769.274478,-919.314598
3213.351417,0.000000,-11029.068536,0.000000
3213.351744,-296.082377,-8808.450710,-306.438199
3213.352072,0.000000,-9400.615463,-1225.752797
3213.352400,-370.102971,-9622.677246,-536.266849
3213.352728,0.000000,-8808.450710,536.266849
3213.353055,-296.082377,-8734.430116,1608.800546
3213.353383,444.123565,-9770.718434,689.485948
3213.353711,740.205942,-9252.574275,-612.876398
3213.354038,-296.082377,-9252.574275,0.000000
3213.354366,148.041188,-8364.327145,536.266849
3213.354694,1332.370696,-7846.182985,-536.266849
3213.355021,370.102971,-9252.574275,0.000000
3213.355349,1258.350101,-10584.944971,306.438199
3213.355677,1480.411884,-10732.986159,0.000000
3213.356005,1998.556043,-11547.212695,383.047749
3213.356332,888.247130,-9992.780217,76.609550
3213.356660,-888.247130,-9844.739029,0.000000
3213.356988,444.123565,-10214.842000,-612.876398
3213.357315,-444.123565,-9030.512492,-995.924147
3213.357643,-1702.473667,-8142.265362,919.314598
3213.357971,-2442.679609,-7105.977043,306.438199
3213.358298,-1258.350101,-8512.368333,-1838.629195
3213.358626,-962.267725,-9104.533087,-2221.676944
3213.358954,0.000000,-9696.697840,-1991.848295
3213.359281,666.185348,-11621.233289,-383.047749
3213.359609,2146.597232,-12139.377449,1608.800546
3213.359937,4145.153275,-11769.274478,229.828649
3213.360265,2368.659014,-12213.398043,612.876398
3213.360592,1332.370696,-12065.356855,0.000000
3213.360920,1184.329507,-9918.759623,-1685.410096
3213.361248,-592.164754,-7402.059420,-1455.581446
3213.361575,-888.247130,-6513.812290,-612.876398
3213.361903,-296.082377,-7328.038826,536.266849
3213.362231,-518.144159,-9326.594869,2528.115143
3213.362558,222.061783,-10066.800811,1685.410096
3213.362886,666.185348,-9474.636058,-1302.362347
3213.363214,296.082377,-8734.430116,-1991.848295
3213.363541,0.000000,-9400.615463,-995.924147
3213.363869,518.144159,-11325.150913,0.000000
3213.364197,1332.370696,-11621.233289,689.485948
3213.364525,2664.741391,-10214.842000,536.266849
3213.364852,1850.514855,-10288.862594,1532.190996
3213.365180,1110.308913,-9770.718434,1532.190996
3213.365508,814.226536,-8808.450710,689.485948
3213.365835,-962.267725,-8068.244768,-229.828649
3213.366163,-2738.761985,-8808.450710,-1915.238745
3213.366491,-3034.844362,-8068.244768,-2681.334243
3213.366818,-1480.411884,-7920.203579,-1378.971896
3213.367146,1184.329507,-9770.718434,919.314598
3213.367474,1110.308913,-10732.986159,1762.019645
3213.367801,666.185348,-10881.027347,2068.457845
3213.368129,1998.556043,-10584.944971,-842.705048
3213.368457,1776.494261,-10732.986159,-1225.752797
3213.368785,0.000000,-9326.594869,-766.095498
3213.369112,0.000000,-8586.388927,-306.438199
3213.369440,-222.061783,-9918.759623,153.219100
3213.369768,518.144159,-11399.171507,-306.438199
3213.370095,74.020594,-11769.274478,-536.266849
3213.370423,0.000000,-10658.965565,612.876398
3213.370751,666.185348,-9474.636058,0.000000
3213.371078,518.144159,-9918.759623,-1149.143247
3213.371406,-1332.370696,-9696.697840,-612.876398
3213.371734,-888.247130,-7698.141797,-1378.971896
3213.372061,-888.247130,-7402.059420,-995.924147
3213.372389,-518.144159,-9104.533087,383.047749
3213.372717,1036.288319,-9844.739029,1532.190996
3213.373045,1184.329507,-9770.718434,1608.800546
3213.373372,1480.411884,-9696.697840,153.219100
3213.373700,1776.494261,-12139.377449,-995.924147
3213.374028,1036.288319,-11695.253884,-306.438199
3213.374355,518.144159,-8290.306550,-383.047749
3213.374683,-518.144159,-7920.203579,0.000000
3213.375011,-518.144159,-10807.006753,-689.485948
3213.375338,0.000000,-11029.068536,-995.924147
3213.375666,518.144159,-10214.842000,-612.876398
3213.375994,148.041188,-8364.327145,153.219100
3213.376322,1184.329507,-7994.224174,76.609550
3213.376649,814.226536,-8808.450710,995.924147
3213.376977,-518.144159,-8438.347739,995.924147
3213.377305,-518.144159,-9030.512492,153.219100
3213.377632,592.164754,-9696.697840,0.000000
3213.377960,962.267725,-10214.842000,0.000000
3213.378288,666.185348,-11177.109724,0.000000
3213.378615,1184.329507,-12065.356855,0.000000
3213.378943,1258.350101,-11547.212695,-1149.143247
3213.379271,1258.350101,-10658.965565,-1608.800546
3213.379598,1332.370696,-8734.430116,-1302.362347
3213.379926,0.000000,-7031.956449,995.924147
3213.380254,-1924.535449,-8216.285956,2757.943793
3213.380582,-2738.761985,-9770.718434,766.095498
3213.380909,-1702.473667,-8956.491898,-2451.505594
3213.381237,-1258.350101,-7846.182985,-3447.429741
3213.381565,-518.144159,-9992.780217,-842.705048
3213.381892,814.226536,-10955.047942,536.266849
3213.382220,2442.679609,-12731.542202,306.438199
3213.382548,2664.741391,-12435.459826,-919.314598
3213.382875,1776.494261,-10881.027347,-1838.629195
3213.383203,666.185348,-8882.471304,-766.095498
3213.383531,370.102971,-6883.915261,153.219100
3213.383858,-296.082377,-7772.162391,842.705048
3213.384186,-1554.432478,-9104.533087,1455.581446
3213.384514,-296.082377,-9844.739029,1532.190996
3213.384842,1258.350101,-10066.800811,689.485948
3213.385169,740.205942,-8364.327145,0.000000
3213.385497,-1184.329507,-7920.203579,-459.657299
3213.385825,-1332.370696,-9030.512492,-1762.019645
3213.386152,-222.061783,-8956.491898,-2451.505594
3213.386480,814.226536,-10807.006753,-1838.629195
3213.386808,2072.576638,-11695.253884,766.095498
3213.387135,2886.803174,-9474.636058,2757.943793
3213.387463,3330.926739,-10584.944971,1838.629195
3213.387791,1776.494261,-10807.006753,842.705048
3213.388118,296.082377,-9474.636058,-689.485948
3213.388446,-2368.659014,-8438.347739,-1455.581446
3213.388774,-3182.885551,-8734.430116,-1532.190996
3213.389102,-1110.308913,-8882.471304,-2298.286494
3213.389429,222.061783,-9992.780217,-995.924147
3213.389757,1184.329507,-11769.274478,-612.876398
3213.390085,592.164754,-11251.130318,919.314598
3213.390412,1628.453072,-9622.677246,-229.828649
3213.390740,2294.638420,-7328.038826,-919.314598
3213.391068,370.102971,-7402.059420,-536.266849
3213.391395,-1776.494261,-10140.821405,919.314598
3213.391723,-1036.288319,-10807.006753,1378.971896
3213.392051,222.061783,-9696.697840,76.609550
3213.392379,1406.391290,-9844.739029,-229.828649
3213.392706,518.144159,-11917.315666,383.047749
3213.393034,148.041188,-12139.377449,0.000000
3213.393362,0.000000,-9622.677246,-1991.848295
3213.393689,-1036.288319,-9030.512492,-3447.429741
3213.394017,-1776.494261,-8364.327145,-1762.019645
3213.394345,-962.267725,-7179.997637,536.266849
3213.394672,296.082377,-7624.121203,2298.286494
3213.395000,1480.411884,-10658.965565,2681.334243
3213.395328,962.267725,-11103.089130,2068.457845
3213.395655,1110.308913,-9696.697840,0.000000
3213.395983,444.123565,-9400.615463,-1225.752797
3213.396311,-666.185348,-9548.656652,-689.485948
3213.396639,74.020594,-10732.986159,-766.095498
3213.396966,-444.123565,-11029.068536,-766.095498
3213.397294,592.164754,-10584.944971,-1762.019645
3213.397622,1850.514855,-10140.821405,-1685.410096
3213.397949,1110.308913,-9844.739029,689.485948
3213.398277,0.000000,-8956.491898,1225.752797
3213.398605,-444.123565,-9030.512492,0.000000
3213.398932,-296.082377,-8660.409521,-995.924147
3213.399260,-370.102971,-8956.491898,-1532.190996
3213.399588,0.000000,-9178.553681,612.876398
3213.399915,1480.411884,-9178.553681,1302.362347
3213.400243,1258.350101,-10955.047942,919.314598
3213.400571,1480.411884,-12583.501014,-919.314598
3213.400899,1110.308913,-11843.295072,-2221.676944
3213.401226,74.020594,-9474.636058,-1838.629195
3213.401554,444.123565,-8512.368333,-919.314598
3213.401882,888.247130,-9918.759623,229.828649
3213.402209,518.144159,-10732.986159,612.876398
3213.402537,1258.350101,-9252.574275,459.657299
3213.402865,1332.370696,-8364.327145,995.924147
3213.403192,0.000000,-8734.430116,2298.286494
3213.403520,-1998.556043,-9030.512492,995.924147
3213.403848,-2960.823768,-9400.615463,-536.266849
3213.404175,-2738.761985,-8734.430116,-2911.162892
3213.404503,-888.247130,-8956.491898,-3600.648841
3213.404831,0.000000,-10584.944971,-1532.190996
3213.405159,1628.453072,-10658.965565,612.876398
3213.405486,3256.906145,-10658.965565,1149.143247
3213.405814,2368.659014,-11399.171507,766.095498
3213.406142,1258.350101,-10955.047942,459.657299
3213.406469,0.000000,-8364.327145,383.047749
3213.406797,-962.267725,-7550.100608,612.876398
3213.407125,-1332.370696,-7105.977043,1149.143247
3213.407452,-592.164754,-9622.677246,612.876398
3213.407780,74.020594,-10955.047942,153.219100
3213.408108,1628.453072,-9474.636058,-1302.362347
3213.408435,1036.288319,-8882.471304,-1762.019645
3213.408763,74.020594,-8882.471304,-995.924147
3213.409091,296.082377,-8438.347739,-995.924147
3213.409419,0.000000,-9844.739029,0.000000
3213.409746,518.144159,-10214.842000,536.266849
3213.410074,1776.494261,-10436.903782,1455.581446
3213.410402,2812.782580,-11843.295072,1532.190996
3213.410729,2442.679609,-12583.501014,1532.190996
3213.411057,1110.308913,-10436.903782,459.657299
3213.411385,-370.102971,-8364.327145,-2221.676944
3213.411712,-2590.720797,-9252.574275,-3677.258390
3213.412040,-3775.050304,-9696.697840,-2834.553343
3213.412368,-1628.453072,-8364.327145,-612.876398
3213.412696,1110.308913,-9178.553681,0.000000
3213.413023,1406.391290,-10214.842000,1762.019645
3213.413351,1480.411884,-9770.718434,2145.067394
3213.413679,2220.617826,-9844.739029,1225.752797
3213.414006,1776.494261,-9992.780217,689.485948
3213.414334,74.020594,-9548.656652,766.095498
3213.414662,-1702.473667,-8068.244768,-383.047749
3213.414989,-1850.514855,-10436.903782,-995.924147
3213.415317,222.061783,-10214.842000,-1838.629195
3213.415645,814.226536,-10436.903782,-689.485948
3213.415972,1406.391290,-11251.130318,842.705048
3213.416300,1110.308913,-9918.759623,0.000000
3213.416628,-592.164754,-8586.388927,-1302.362347
3213.416956,-1628.453072,-7105.977043,-1608.800546
3213.417283,-1332.370696,-7254.018232,-1072.533697
3213.417611,-1110.308913,-7254.018232,1378.971896
3213.417939,518.144159,-8734.430116,2451.505594
3213.418266,814.226536,-9770.718434,2374.896044
3213.418594,2590.720797,-11769.274478,0.000000
3213.418922,2590.720797,-11991.336260,-1991.848295
3213.419249,962.267725,-11473.192101,-1532.190996
3213.419577,444.123565,-7994.224174,-2451.505594
3213.419905,666.185348,-7846.182985,-1455.581446
3213.420232,-518.144159,-11251.130318,306.438199
3213.420560,444.123565,-11251.130318,536.266849
3213.420888,1036.288319,-9400.615463,-153.219100
3213.421216,1036.288319,-10362.883188,229.828649
3213.421543,296.082377,-10140.821405,612.876398
3213.421871,-444.123565,-9030.512492,842.705048
3213.422199,-370.102971,-7772.162391,-1378.971896
3213.422526,666.185348,-9326.594869,-2987.772442
3213.422854,592.164754,-10732.986159,-1149.143247
3213.423182,1110.308913,-10584.944971,536.266849
3213.423509,1776.494261,-9844.739029,689.485948
3213.423837,2516.700203,-11621.233289,76.609550
3213.424165,1258.350101,-11843.295072,0.000000
3213.424492,0.000000,-10881.027347,536.266849
3213.424820,0.000000,-9252.574275,-306.438199
3213.425148,0.000000,-7772.162391,-153.219100
3213.425476,-888.247130,-8808.450710,1225.752797
3213.425803,-1110.308913,-9918.759623,1149.143247
3213.426131,740.205942,-8216.285956,-306.438199
3213.426459,962.267725,-7105.977043,-995.924147
3213.426786,-592.164754,-8142.265362,689.485948
3213.427114,-1110.308913,-8586.388927,1378.971896
3213.427442,-2072.576638,-10066.800811,-459.657299
3213.427769,-814.226536,-10584.944971,-2374.896044
3213.428097,888.247130,-10362.883188,-3524.039291
3213.428425,1036.288319,-11251.130318,-1302.362347
3213.428753,1184.329507,-10881.027347,2528.115143
3213.429080,1628.453072,-10140.821405,2451.505594
3213.429408,592.164754,-10807.006753,1072.533697
3213.429736,148.041188,-10140.821405,-1225.752797
3213.430063,-962.267725,-8586.388927,-2528.115143
3213.430391,-888.247130,-7328.038826,-1455.581446
3213.430719,-814.226536,-6291.750507,-689.485948
3213.431046,-444.123565,-8290.306550,306.438199
3213.431374,962.267725,-10881.027347,995.924147
3213.431702,2368.659014,-10881.027347,536.266849
3213.432029,2738.761985,-11325.150913,229.828649
3213.432357,1480.411884,-10362.883188,842.705048
3213.432685,0.000000,-9622.677246,229.828649
3213.433013,-1258.350101,-10140.821405,-766.095498
3213.433340,-740.205942,-9992.780217,-1915.238745
3213.433668,-222.061783,-10362.883188,-1608.800546
3213.433996,444.123565,-10362.883188,0.000000
3213.434323,1850.514855,-10658.965565,383.047749
3213.434651,1628.453072,-10214.842000,76.609550
3213.434979,666.185348,-8142.265362,-995.924147
3213.435306,-2368.659014,-7550.100608,-842.705048
3213.435634,-3552.988522,-8364.327145,-995.924147
3213.435962,-1850.514855,-8364.327145,-383.047749
3213.436289,370.102971,-8956.491898,689.485948
3213.436617,1776.494261,-10881.027347,1838.629195
3213.436945,2368.659014,-11991.336260,1838.629195
3213.437273,2886.803174,-11103.089130,383.047749
3213.437600,2072.576638,-9178.553681,-459.657299
3213.437928,1110.308913,-8142.265362,-1378.971896
3213.438255,-1332.370696,-7105.977043,-1149.143247
3213.438583,-1110.308913,-9918.759623,-612.876398
3213.438911,296.082377,-11251.130318,0.000000
3213.439238,1628.453072,-11473.192101,76.609550
3213.439566,592.164754,-10510.924376,995.924147
3213.439894,888.247130,-8956.491898,1838.629195
3213.440221,296.082377,-9622.677246,-612.876398
3213.440549,-592.164754,-8512.368333,-1838.629195
3213.440876,-1036.288319,-6957.935855,-1915.238745
3213.441204,-592.164754,-8290.306550,-919.314598
3213.441532,1184.329507,-9992.780217,766.095498
3213.441859,1998.556043,-11843.295072,1991.848295
3213.442187,1628.453072,-12065.356855,842.705048
3213.442514,1332.370696,-11769.274478,-1608.800546
3213.442842,148.041188,-11991.336260,-2834.553343
3213.443170,-296.082377,-10140.821405,-1838.629195
3213.443497,-1258.350101,-7105.977043,0.000000
3213.443825,-1110.308913,-8512.368333,919.314598
3213.444152,-888.247130,-9844.739029,536.266849
3213.444480,-740.205942,-9474.636058,459.657299
3213.444808,-814.226536,-7772.162391,-229.828649
3213.445135,0.000000,-7994.224174,153.219100
3213.445463,-370.102971,-9474.636058,-1072.533697
3213.445791,0.000000,-10658.965565,-995.924147
3213.446118,370.102971,-9622.677246,-1378.971896
3213.446446,1628.453072,-10288.862594,-766.095498
3213.446773,2368.659014,-11325.150913,459.657299
3213.447101,2368.659014,-11621.233289,2681.334243
3213.447429,962.267725,-9548.656652,1915.238745
3213.447756,74.020594,-8586.388927,-919.314598
3213.448084,-740.205942,-9474.636058,-1149.143247
3213.448411,-370.102971,-9104.533087,-919.314598
3213.448739,296.082377,-7846.182985,0.000000
3213.449067,1554.432478,-6587.832884,1149.143247
3213.449394,222.061783,-8438.347739,919.314598
3213.449722,-518.144159,-10658.965565,919.314598
3213.450049,-888.247130,-10214.842000,-229.828649
3213.450377,-962.267725,-9844.739029,-1685.410096
3213.450705,-592.164754,-9844.739029,-1762.019645
3213.451032,74.020594,-10510.924376,-1685.410096
3213.451360,518.144159,-11843.295072,383.047749
3213.451688,1480.411884,-11843.295072,306.438199
3213.452015,370.102971,-10658.965565,0.000000
3213.452343,666.185348,-9770.718434,-612.876398
3213.452670,814.226536,-7920.203579,-689.485948
3213.452998,-370.102971,-7846.182985,-689.485948
3213.453326,-1332.370696,-8364.327145,-306.438199
3213.453653,-666.185348,-9178.553681,0.000000
3213.453981,1406.391290,-10584.944971,229.828649
3213.454308,1998.556043,-9548.656652,1532.190996
3213.454636,1850.514855,-9548.656652,1378.971896
3213.454964,1776.494261,-10436.903782,459.657299
3213.455291,2072.576638,-9992.780217,-1149.143247
3213.455619,1184.329507,-9918.759623,-995.924147
3213.455946,888.247130,-8808.450710,-612.876398
3213.456274,888.247130,-9326.594869,1532.190996
3213.456602,444.123565,-9992.780217,1378.971896
3213.456929,2294.638420,-11251.130318,459.657299
3213.457257,2146.597232,-10658.965565,0.000000
3213.457585,962.267725,-8364.327145,-306.438199
3213.457912,-1258.350101,-8142.265362,-689.485948
3213.458240,-2516.700203,-9622.677246,-383.047749
3213.458567,-1924.535449,-8808.450710,-1532.190996
3213.458895,-518.144159,-8364.327145,-306.438199
3213.459223,666.185348,-9400.615463,1378.971896
3213.459550,1702.473667,-10807.006753,1991.848295
3213.459878,2590.720797,-10362.883188,1149.143247
3213.460205,1850.514855,-9548.656652,-306.438199
3213.460533,-518.144159,-9992.780217,-1762.019645
3213.460861,-1554.432478,-10066.800811,-1455.581446
3213.461188,-1776.494261,-8364.327145,-995.924147
3213.461516,-814.226536,-8808.450710,-689.485948
3213.461843,222.061783,-11251.130318,612.876398
3213.462171,0.000000,-11695.253884,1608.800546
3213.462499,222.061783,-9548.656652,766.095498
3213.462826,-222.061783,-9178.553681,-1302.362347
3213.463154,-1332.370696,-8216.285956,-2068.457845
3213.463482,-1702.473667,-5847.626942,-2068.457845
3213.463809,-1480.411884,-7105.977043,-689.485948
3213.464137,518.144159,-10732.986159,1302.362347
3213.464464,2220.617826,-12879.583391,1838.629195
3213.464792,1850.514855,-12213.398043,1072.533697
3213.465120,1998.556043,-9918.759623,-919.314598
3213.465447,1332.370696,-9548.656652,-1302.362347
3213.465775,222.061783,-10288.862594,-919.314598
3213.466102,-962.267725,-9400.615463,-1072.533697
3213.466430,-518.144159,-9252.574275,0.000000
3213.466758,0.000000,-8956.491898,0.000000
3213.467085,888.247130,-8586.388927,612.876398
3213.467413,-148.041188,-8882.471304,1762.019645
3213.467741,0.000000,-8142.265362,153.219100
3213.468068,-444.123565,-9104.533087,-1302.362347
3213.468396,0.000000,-10807.006753,-1838.629195
3213.468723,-296.082377,-9548.656652,-1302.362347
3213.469051,1110.308913,-9400.615463,-536.266849
3213.469379,1998.556043,-11399.171507,612.876398
3213.469706,2146.597232,-12509.480420,919.314598
3213.470034,1110.308913,-11103.089130,229.828649
3213.470361,518.144159,-8956.491898,-1072.533697
3213.470689,-222.061783,-7179.997637,-1532.190996
3213.471017,0.000000,-8142.265362,-536.266849
3213.471344,-222.061783,-9474.636058,612.876398
3213.471672,1110.308913,-10362.883188,459.657299
3213.471999,1924.535449,-9104.533087,0.000000
3213.472327,-296.082377,-9252.574275,1225.752797
3213.472655,222.061783,-9474.636058,459.657299
3213.472982,-1406.391290,-10066.800811,-919.314598
3213.473310,-1406.391290,-10140.821405,-1915.238745
3213.473638,-666.185348,-9992.780217,-2911.162892
3213.473965,-444.123565,-10362.883188,-2145.067394
3213.474293,518.144159,-9696.697840,1225.752797
3213.474620,1406.391290,-9844.739029,1149.143247
3213.474948,1110.308913,-10881.027347,1149.143247
3213.475276,740.205942,-10510.924376,-459.657299
3213.475603,518.144159,-10362.883188,-1378.971896
3213.475931,0.000000,-8512.368333,-995.924147
3213.476258,740.205942,-6957.935855,0.000000
3213.476586,888.247130,-8734.430116,1225.752797
3213.476914,1184.329507,-10362.883188,3524.039291
3213.477241,2812.782580,-9992.780217,766.095498
3213.477569,2442.679609,-9474.636058,-229.828649
3213.477896,1702.473667,-8438.347739,0.000000
3213.478224,962.267725,-9178.553681,0.000000
3213.478552,74.020594,-10732.986159,229.828649
3213.478879,0.000000,-10066.800811,-612.876398
3213.479207,148.041188,-10584.944971,-306.438199
3213.479535,370.102971,-10214.842000,-306.438199
3213.479862,2220.617826,-10214.842000,-229.828649
3213.480190,2368.659014,-10214.842000,229.828649
3213.480517,1110.308913,-8808.450710,-612.876398
3213.480845,-1850.514855,-9030.512492,-1685.410096
3213.481173,-2960.823768,-9030.512492,-995.924147
3213.481500,-1332.370696,-6809.894666,-919.314598
3213.481828,0.000000,-7624.121203,153.219100
3213.482155,592.164754,-10510.924376,1838.629195
3213.482483,1776.494261,-12805.562797,689.485948
3213.482811,1924.535449,-11029.068536,-612.876398
3213.483138,1702.473667,-10362.883188,-995.924147
3213.483466,444.123565,-9548.656652,-383.047749
3213.483793,-666.185348,-9104.533087,153.219100
3213.484121,-592.164754,-9622.677246,0.000000
3213.484449,148.041188,-9622.677246,-1149.143247
3213.484776,74.020594,-10214.842000,-229.828649
3213.485104,0.000000,-9844.739029,1149.143247
3213.485432,-370.102971,-8586.388927,1072.533697
3213.485759,-1628.453072,-7920.203579,-459.657299
3213.486087,-2368.659014,-8882.471304,-2221.676944
3213.486414,-2368.659014,-8512.368333,-2911.162892
3213.486742,-592.164754,-8882.471304,-1225.752797
3213.487070,222.061783,-9844.739029,1608.800546
3213.487397,1184.329507,-12139.377449,2528.115143
3213.487725,1110.308913,-11325.150913,1455.581446
3213.488052,1480.411884,-10288.862594,-1455.581446
3213.488380,888.247130,-9548.656652,-1915.238745
3213.488708,814.226536,-8364.327145,-1149.143247
3213.489035,-740.205942,-6883.915261,766.095498
3213.489363,-740.205942,-8956.491898,1225.752797
3213.489690,-148.041188,-10288.862594,76.609550
3213.490018,-592.164754,-10214.842000,0.000000
3213.490346,-666.185348,-8808.450710,-383.047749
3213.490673,0.000000,-8586.388927,0.000000
3213.491001,0.000000,-11103.089130,-153.219100
3213.491329,444.123565,-11251.130318,0.000000
3213.491656,370.102971,-10288.862594,-536.266849
3213.491984,1554.432478,-8956.491898,-995.924147
3213.492311,2294.638420,-9252.574275,0.000000
3213.492639,740.205942,-10362.883188,1762.019645
3213.492967,0.000000,-9844.739029,536.266849
3213.493294,0.000000,-9918.759623,-612.876398
3213.493622,0.000000,-10362.883188,-1915.238745
3213.493949,0.000000,-9770.718434,-459.657299
3213.494277,444.123565,-8882.471304,1302.362347
3213.494605,1480.411884,-8808.450710,1302.362347
3213.494932,888.247130,-9030.512492,0.000000
3213.495260,74.020594,-9252.574275,-229.828649
3213.495587,-1406.391290,-8734.430116,-1302.362347
3213.495915,-1850.514855,-9252.574275,-766.095498
3213.496243,-1184.329507,-9178.553681,-1762.019645
3213.496570,-888.247130,-9474.636058,-2298.286494
3213.496898,0.000000,-10807.006753,-1225.752797
3213.497226,1998.556043,-12879.583391,76.609550
3213.497553,2368.659014,-11843.295072,1072.533697
3213.497881,2516.700203,-9696.697840,1915.238745
3213.498208,1702.473667,-9844.739029,229.828649
3213.498536,740.205942,-9548.656652,-766.095498
3213.498864,74.020594,-8290.306550,-1225.752797
3213.499191,0.000000,-7624.121203,-689.485948
3213.499519,518.144159,-7624.121203,153.219100
3213.499846,2220.617826,-8734.430116,1072.533697
3213.500174,1850.514855,-8512.368333,1225.752797
3213.500502,1110.308913,-9992.780217,842.705048
3213.500829,666.185348,-11547.212695,995.924147
3213.501157,444.123565,-10807.006753,0.000000
3213.501485,148.041188,-9548.656652,-383.047749
3213.501812,-518.144159,-9844.739029,-306.438199
3213.502140,592.164754,-10881.027347,459.657299
3213.502467,2146.597232,-13027.624579,995.924147
3213.502795,2368.659014,-11251.130318,-689.485948
3213.503123,740.205942,-7328.038826,-1532.190996
3213.503450,-1258.350101,-6661.853478,-1838.629195
3213.503778,-3256.906145,-8068.244768,-1455.581446
3213.504105,-2072.576638,-9474.636058,-229.828649
3213.504433,-888.247130,-8882.471304,383.047749
3213.504761,444.123565,-10140.821405,1838.629195
3213.505088,962.267725,-11029.068536,1608.800546
3213.505416,1554.432478,-11399.171507,536.266849
3213.505743,1480.411884,-11621.233289,-612.876398
3213.506071,1332.370696,-11103.089130,-1378.971896
3213.506399,222.061783,-9844.739029,-1762.019645
3213.506726,-666.185348,-8808.450710,-536.266849
3213.507054,666.185348,-7698.141797,0.000000
3213.507382,74.020594,-8068.244768,1149.143247
3213.507709,-740.205942,-9918.759623,1149.143247
3213.508037,-1554.432478,-9844.739029,306.438199
3213.508364,-2146.597232,-9622.677246,-1302.362347
3213.508692,-1110.308913,-8660.409521,-1991.848295
3213.509020,-1850.514855,-7698.141797,-536.266849
3213.509347,-740.205942,-9918.759623,76.609550
3213.509675,962.267725,-10955.047942,612.876398
3213.510002,1110.308913,-11177.109724,689.485948
3213.510330,1110.308913,-11029.068536,76.609550
3213.510658,1850.514855,-9030.512492,-1225.752797
3213.510985,1184.329507,-9178.553681,0.000000
3213.511313,1258.350101,-10214.842000,-229.828649
3213.511640,-518.144159,-10584.944971,459.657299
3213.511968,-518.144159,-9326.594869,306.438199
3213.512296,-444.123565,-8956.491898,-1072.533697
3213.512623,-740.205942,-9622.677246,-689.485948
3213.512951,-1332.370696,-8216.285956,-995.924147
3213.513279,-666.185348,-9918.759623,-459.657299
3213.513606,740.205942,-10510.924376,0.000000
3213.513934,2072.576638,-10658.965565,-689.485948
3213.514261,1332.370696,-8882.471304,-536.266849
3213.514589,1776.494261,-8956.491898,0.000000
3213.514917,1480.411884,-10807.006753,383.047749
3213.515244,1406.391290,-11251.130318,229.828649
3213.515572,-296.082377,-10510.924376,0.000000
3213.515899,0.000000,-9770.718434,0.000000
3213.516227,444.123565,-8956.491898,-459.657299
3213.516555,740.205942,-10066.800811,0.000000
3213.516882,1036.288319,-11473.192101,536.266849
3213.517210,1406.391290,-9696.697840,-612.876398
3213.517537,1184.329507,-7698.141797,-1149.143247
3213.517865,888.247130,-7179.997637,0.000000
3213.518193,74.020594,-7179.997637,1072.533697
3213.518520,-148.041188,-8882.471304,1915.238745
3213.518848,-222.061783,-10066.800811,766.095498
3213.519176,74.020594,-9992.780217,-1225.752797
3213.519503,-740.205942,-9474.636058,-919.314598
3213.519831,-296.082377,-10584.944971,0.000000
3213.520158,-814.226536,-11843.295072,229.828649
3213.520486,666.185348,-11843.295072,-1072.533697
3213.520814,740.205942,-9696.697840,-2528.115143
3213.521141,1332.370696,-9992.780217,-2757.943793
3213.521469,1850.514855,-9104.533087,-1072.533697
3213.521796,1628.453072,-8512.368333,612.876398
3213.522124,962.267725,-8438.347739,1838.629195
3213.522452,444.123565,-8290.306550,306.438199
3213.522779,-222.061783,-8882.471304,-229.828649
3213.523107,-592.164754,-8882.471304,306.438199
3213.523434,-148.041188,-9400.615463,919.314598
3213.523762,-740.205942,-10881.027347,1455.581446
3213.524090,740.205942,-12509.480420,-383.047749
3213.524417,1332.370696,-13323.706956,-1915.238745
3213.524745,888.247130,-11621.233289,-1991.848295
3213.525073,1628.453072,-9696.697840,-1838.629195
3213.525400,1258.350101,-8586.388927,612.876398
3213.525728,370.102971,-8808.450710,766.095498
3213.526055,-1110.308913,-8364.327145,76.609550
3213.526383,-2368.659014,-8956.491898,536.266849
3213.526711,-1998.556043,-9326.594869,-306.438199
3213.527038,-1184.329507,-9104.533087,-153.219100
3213.527366,-740.205942,-8882.471304,689.485948
3213.527693,-148.041188,-9770.718434,0.000000
3213.528021,-740.205942,-11177.109724,0.000000
3213.528349,-148.041188,-11695.253884,-1225.752797
3213.528676,888.247130,-9400.615463,-1838.629195
3213.529004,2664.741391,-8586.388927,0.000000
3213.529331,2368.659014,-9622.677246,2298.286494
3213.529659,1110.308913,-10436.903782,2604.724693
3213.529987,370.102971,-8808.450710,1762.019645
3213.530314,740.205942,-8512.368333,-536.266849
3213.530642,-740.205942,-8882.471304,-612.876398
3213.530970,-2072.576638,-8734.430116,0.000000
3213.531297,-2220.617826,-9252.574275,-1149.143247
3213.531625,-1036.288319,-10584.944971,-1685.410096
3213.531952,-222.061783,-11399.171507,-1991.848295
3213.532280,1554.432478,-10732.986159,-995.924147
3213.532608,2368.659014,-8808.450710,1149.143247
3213.532935,2294.638420,-9178.553681,1378.971896
3213.533263,1036.288319,-10584.944971,383.047749
3213.533590,592.164754,-10436.903782,-536.266849
3213.533918,0.000000,-8438.347739,-1072.533697
3213.534246,222.061783,-7994.224174,76.609550
3213.534573,592.164754,-10658.965565,1762.019645
3213.534901,740.205942,-11991.336260,153.219100
3213.535229,0.000000,-11473.192101,-1838.629195
3213.535556,-222.061783,-10362.883188,-3140.991542
3213.535884,222.061783,-8882.471304,-3294.210641
3213.536211,814.226536,-8068.244768,-612.876398
3213.536539,592.164754,-8956.491898,2681.334243
3213.536867,1036.288319,-9400.615463,2987.772442
3213.537195,2072.576638,-9770.718434,1532.190996
3213.537522,1924.535449,-9548.656652,76.609550
3213.537850,1702.473667,-9844.739029,306.438199
3213.538178,888.247130,-10066.800811,229.828649
3213.538505,222.061783,-10362.883188,-536.266849
3213.538833,-518.144159,-10881.027347,-919.314598
3213.539161,-296.082377,-10658.965565,-1762.019645
3213.539488,962.267725,-9030.512492,-1685.410096
3213.539816,2072.576638,-9622.677246,229.828649
3213.540144,1480.411884,-8808.450710,1762.019645
3213.540472,370.102971,-8660.409521,1532.190996
3213.540799,-1110.308913,-7772.162391,1072.533697
3213.541127,-1702.473667,-8142.265362,919.314598
3213.541455,-1406.391290,-7772.162391,383.047749
3213.541782,-962.267725,-8290.306550,306.438199
3213.542110,-888.247130,-10436.903782,0.000000
3213.542438,370.102971,-11917.315666,-1532.190996
3213.542765,444.123565,-11843.295072,-1225.752797
3213.543093,740.205942,-11103.089130,-995.924147
3213.543421,148.041188,-9474.636058,-612.876398
3213.543749,0.000000,-9696.697840,-1225.752797
3213.544076,0.000000,-9030.512492,-1762.019645
3213.544404,222.061783,-9770.718434,-1532.190996
3213.544732,-370.102971,-10362.883188,919.314598
3213.545059,666.185348,-8586.388927,1149.143247
3213.545387,444.123565,-8364.327145,612.876398
3213.545715,0.000000,-9474.636058,0.000000
3213.546043,148.041188,-11621.233289,-1991.848295
3213.546370,-740.205942,-11917.315666,-766.095498
3213.546698,0.000000,-9030.512492,-1762.019645
3213.547026,592.164754,-8512.368333,-1302.362347
3213.547353,1628.453072,-10807.006753,536.266849
3213.547681,2516.700203,-12287.418637,1302.362347
3213.548009,3034.844362,-11325.150913,766.095498
3213.548336,1480.411884,-10436.903782,-995.924147
3213.548664,-148.041188,-8290.306550,-2298.286494
3213.548992,-1406.391290,-7031.956449,-1685.410096
3213.549320,-2664.741391,-7550.100608,-459.657299
3213.549647,-1850.514855,-9474.636058,0.000000
3213.549975,-1110.308913,-11251.130318,383.047749
3213.550303,0.000000,-9104.533087,0.000000
3213.550630,1406.391290,-8068.244768,-919.314598
3213.550958,814.226536,-9992.780217,612.876398
3213.551286,444.123565,-10362.883188,766.095498
3213.551613,1110.308913,-9770.718434,612.876398
3213.551941,2072.576638,-9474.636058,153.219100
3213.552269,2368.659014,-9992.780217,536.266849
3213.552597,1776.494261,-10140.821405,1762.019645
3213.552924,1184.329507,-7920.203579,1685.410096
3213.553252,666.185348,-8734.430116,-995.924147
3213.553580,-888.247130,-10436.903782,-1378.971896
3213.553907,-2072.576638,-9696.697840,-2221.676944
3213.554235,-1184.329507,-7846.182985,-1302.362347
3213.554563,74.020594,-8068.244768,0.000000
3213.554891,1776.494261,-10807.006753,766.095498
3213.555218,1184.329507,-11843.295072,1072.533697
3213.555546,444.123565,-10214.842000,1302.362347
3213.555874,2220.617826,-9474.636058,-1225.752797
3213.556201,1924.535449,-9252.574275,-842.705048
3213.556529,0.000000,-9474.636058,76.609550
3213.556857,-370.102971,-10288.862594,-689.485948
3213.557184,-888.247130,-10807.006753,-1072.533697
3213.557512,444.123565,-11029.068536,-2221.676944
3213.557840,370.102971,-10510.924376,-919.314598
3213.558168,0.000000,-9326.594869,-842.705048
3213.558495,148.041188,-9326.594869,-689.485948
3213.558823,148.041188,-10362.883188,-383.047749
3213.559151,-666.185348,-10288.862594,919.314598
3213.559478,0.000000,-7994.224174,1225.752797
3213.559806,222.061783,-6883.915261,1532.190996
3213.560134,444.123565,-9474.636058,1149.143247
3213.560461,0.000000,-11621.233289,0.000000
3213.560789,148.041188,-11991.336260,-1072.533697
3213.561117,444.123565,-10214.842000,-2528.115143
3213.561445,148.041188,-9844.739029,-1762.019645
3213.561772,74.020594,-9252.574275,766.095498
3213.562100,222.061783,-9400.615463,1149.143247
3213.562428,814.226536,-10140.821405,536.266849
3213.562755,518.144159,-9918.759623,-306.438199
3213.563083,-666.185348,-7994.224174,766.095498
3213.563411,-148.041188,-5847.626942,1072.533697
3213.563739,-1110.308913,-7179.997637,1915.238745
3213.564066,-814.226536,-10658.965565,229.828649
3213.564394,-1258.350101,-10288.862594,-1608.800546
3213.564722,-1480.411884,-9844.739029,-2528.115143
3213.565049,962.267725,-9400.615463,-1991.848295
3213.565377,2220.617826,-9622.677246,-995.924147
3213.565705,1332.370696,-11251.130318,1762.019645
3213.566032,1036.288319,-12139.377449,1915.238745
3213.566360,296.082377,-12361.439231,919.314598
3213.566688,518.144159,-8956.491898,-2528.115143
3213.567016,592.164754,-7920.203579,-2604.724693
3213.567343,-888.247130,-8364.327145,919.314598
3213.567671,-222.061783,-9474.636058,1149.143247
3213.567999,-666.185348,-10658.965565,0.000000
3213.568326,74.020594,-9252.574275,-2221.676944
3213.568654,222.061783,-8882.471304,-2451.505594
3213.568982,888.247130,-10732.986159,-612.876398
3213.569309,1110.308913,-10658.965565,1378.971896
3213.569637,666.185348,-10288.862594,229.828649
3213.569965,962.267725,-10732.986159,76.609550
3213.570293,2738.761985,-11399.171507,0.000000
3213.570620,4441.235652,-10658.965565,842.705048
3213.570948,2294.638420,-10881.027347,2145.067394
3213.571276,0.000000,-9474.636058,919.314598
3213.571603,-814.226536,-7994.224174,-1072.533697
3213.571931,-1702.473667,-8290.306550,-2987.772442
3213.572259,-2368.659014,-7105.977043,-1915.238745
3213.572587,-1628.453072,-6957.935855,1149.143247
3213.572914,222.061783,-8808.450710,1685.410096
3213.573242,518.144159,-10436.903782,459.657299
3213.573570,-370.102971,-10658.965565,842.705048
3213.573897,0.000000,-9622.677246,0.000000
3213.574225,2146.597232,-8734.430116,-229.828649
3213.574553,3404.947333,-9252.574275,689.485948
3213.574880,2590.720797,-9474.636058,1532.190996
3213.575208,1554.432478,-10214.842000,1455.581446
3213.575536,1332.370696,-10362.883188,306.438199
3213.575864,1258.350101,-9474.636058,-1225.752797
3213.576191,-518.144159,-8216.285956,-1302.362347
3213.576519,-1480.411884,-7846.182985,-612.876398
3213.576847,-2146.597232,-10066.800811,-306.438199
3213.577174,-1554.432478,-10955.047942,-689.485948
3213.577502,740.205942,-11399.171507,-689.485948
3213.577830,1110.308913,-9696.697840,306.438199
3213.578157,1332.370696,-8216.285956,1302.362347
3213.578485,444.123565,-9844.739029,306.438199
3213.578813,444.123565,-10955.047942,-1762.019645
3213.579141,-222.061783,-10732.986159,-2451.505594
3213.579468,-518.144159,-9770.718434,-2221.676944
3213.579796,0.000000,-9178.553681,-842.705048
3213.580124,444.123565,-10436.903782,153.219100
3213.580451,0.000000,-11621.233289,-536.266849
3213.580779,-1406.391290,-10955.047942,-1455.581446
3213.581107,-1776.494261,-9104.533087,-1532.190996
3213.581435,-592.164754,-7476.080014,-1608.800546
3213.581762,-814.226536,-7402.059420,612.876398
3213.582090,-1258.350101,-9622.677246,2528.115143
3213.582418,148.041188,-10288.862594,1455.581446
3213.582745,1258.350101,-10658.965565,-229.828649
3213.583073,1036.288319,-9474.636058,-1378.971896
3213.583401,592.164754,-9474.636058,-612.876398
3213.583728,0.000000,-9474.636058,153.219100
3213.584056,0.000000,-9992.780217,153.219100
3213.584384,-814.226536,-11473.192101,229.828649
3213.584712,74.020594,-11473.192101,0.000000
3213.585039,888.247130,-8734.430116,-383.047749
3213.585367,444.123565,-8216.285956,1149.143247
3213.585695,0.000000,-8438.347739,1455.581446
3213.586022,-444.123565,-8216.285956,766.095498
3213.586350,-814.226536,-7476.080014,-689.485948
3213.586678,-814.226536,-8586.388927,-1378.971896
3213.587005,-1258.350101,-8882.471304,-689.485948
3213.587333,370.102971,-8734.430116,-1302.362347
3213.587661,444.123565,-9918.759623,-612.876398
3213.587989,666.185348,-12139.377449,-229.828649
3213.588316,518.144159,-12361.439231,689.485948
3213.588644,1924.535449,-11103.089130,229.828649
3213.588972,1406.391290,-10881.027347,0.000000
3213.589299,888.247130,-10955.047942,-459.657299
3213.589627,1110.308913,-9474.636058,-1378.971896
3213.589955,666.185348,-9474.636058,-536.266849
3213.590283,888.247130,-8586.388927,-612.876398
3213.590610,1480.411884,-8142.265362,-919.314598
3213.590938,444.123565,-8364.327145,76.609550
3213.591266,1406.391290,-10658.965565,0.000000
3213.591593,740.205942,-11843.295072,306.438199
3213.591921,1184.329507,-11473.192101,383.047749
3213.592249,1332.370696,-9474.636058,-919.314598
3213.592576,1702.473667,-9252.574275,-229.828649
3213.592904,2590.720797,-10066.800811,1149.143247
3213.593232,3552.988522,-11621.233289,1378.971896
3213.593560,2442.679609,-11547.212695,995.924147
3213.593887,1850.514855,-8364.327145,-612.876398
3213.594215,-222.061783,-6217.729913,-1991.848295
3213.594543,-2738.761985,-6661.853478,-919.314598
3213.594870,-2368.659014,-7846.182985,-612.876398
3213.595198,-2146.597232,-8956.491898,612.876398
3213.595526,-1184.329507,-9844.739029,383.047749
3213.595853,-444.123565,-10658.965565,0.000000
3213.596181,370.102971,-9992.780217,306.438199
3213.596509,740.205942,-10066.800811,1072.533697
3213.596837,1258.350101,-10362.883188,383.047749
3213.597164,2516.700203,-10066.800811,-536.266849
3213.597492,1628.453072,-9030.512492,-995.924147
3213.597820,1110.308913,-8734.430116,689.485948
3213.598147,592.164754,-9400.615463,1378.971896
3213.598475,-518.144159,-10140.821405,689.485948
3213.598803,-740.205942,-9770.718434,-383.047749
3213.599131,-1998.556043,-10140.821405,-919.314598
3213.599458,-2072.576638,-10140.821405,-995.924147
3213.599786,-1628.453072,-9992.780217,-153.219100
3213.600114,0.000000,-9918.759623,0.000000
3213.600441,0.000000,-10140.821405,0.000000
3213.600769,-370.102971,-10658.965565,306.438199
3213.601097,74.020594,-9104.533087,0.000000
3213.601424,888.247130,-7920.203579,-842.705048
3213.601752,740.205942,-9252.574275,-689.485948
3213.602080,-370.102971,-9844.739029,76.609550
3213.602408,-1110.308913,-10658.965565,229.828649
3213.602735,-592.164754,-11769.274478,-383.047749
3213.603063,0.000000,-11547.212695,-1455.581446
3213.603391,-1110.308913,-9104.533087,-689.485948
3213.603718,-962.267725,-7698.141797,-306.438199
3213.604046,-370.102971,-8956.491898,-1072.533697
3213.604374,-222.061783,-8808.450710,0.000000
3213.604701,-518.144159,-8956.491898,919.314598
3213.605029,0.000000,-9030.512492,229.828649
3213.605357,814.226536,-9104.533087,0.000000
3213.605685,1850.514855,-9770.718434,-1378.971896
3213.606012,1776.494261,-11399.171507,-612.876398
3213.606340,148.041188,-12139.377449,0.000000
3213.606668,518.144159,-10510.924376,0.000000
3213.606995,1036.288319,-9622.677246,-229.828649
3213.607323,296.082377,-10066.800811,306.438199
3213.607651,592.164754,-10732.986159,76.609550
3213.607979,592.164754,-9844.739029,-536.266849
3213.608306,1036.288319,-8142.265362,766.095498
3213.608634,592.164754,-7254.018232,-306.438199
3213.608962,-370.102971,-7105.977043,306.438199
3213.609289,-370.102971,-8290.306550,153.219100
3213.609617,-592.164754,-9918.759623,-1072.533697
3213.609945,-814.226536,-11547.212695,-689.485948
3213.610272,-444.123565,-11251.130318,-919.314598
3213.610600,1332.370696,-9400.615463,-383.047749
3213.610928,1406.391290,-9918.759623,1302.362347
3213.611256,1628.453072,-11843.295072,1991.848295
3213.611583,1110.308913,-11917.315666,459.657299
3213.611911,592.164754,-9696.697840,-1532.190996
3213.612239,888.247130,-7476.080014,-3447.429741
3213.612566,518.144159,-7402.059420,-2145.067394
3213.612894,962.267725,-8734.430116,1072.533697
3213.613222,518.144159,-8586.388927,1762.019645
3213.613549,-296.082377,-9844.739029,612.876398
3213.613877,518.144159,-11399.171507,0.000000
3213.614205,1110.308913,-11103.089130,-612.876398
3213.614533,666.185348,-9622.677246,153.219100
3213.614860,1184.329507,-10436.903782,536.266849
3213.615188,1406.391290,-11473.192101,536.266849
3213.615516,1628.453072,-11103.089130,0.000000
3213.615843,1776.494261,-10955.047942,459.657299
3213.616171,2516.700203,-8660.409521,-766.095498
3213.616499,444.123565,-8142.265362,-689.485948
3213.616827,-2072.576638,-7846.182985,-919.314598
3213.617154,-2442.679609,-8438.347739,-1225.752797
3213.617482,-2368.659014,-9178.553681,-1225.752797
3213.617810,-222.061783,-8364.327145,-306.438199
3213.618137,-296.082377,-9104.533087,1225.752797
3213.618465,74.020594,-10955.047942,1455.581446
3213.618793,1776.494261,-10807.006753,-306.438199
3213.619120,1480.411884,-10955.047942,-919.314598
3213.619448,1406.391290,-9992.780217,-689.485948
3213.619776,2368.659014,-7920.203579,-1762.019645
3213.620104,2590.720797,-7920.203579,306.438199
3213.620431,1702.473667,-9918.759623,842.705048
3213.620759,-592.164754,-11843.295072,1532.190996
3213.621087,-1036.288319,-10140.821405,-229.828649
3213.621414,-1850.514855,-8290.306550,-1532.190996
3213.621742,-1184.329507,-8512.368333,-1149.143247
3213.622070,-1258.350101,-9696.697840,-153.219100
3213.622397,-518.144159,-11103.089130,842.705048
3213.622725,222.061783,-9622.677246,-383.047749
3213.623053,1702.473667,-9844.739029,-1149.143247
3213.623381,0.000000,-9178.553681,153.219100
3213.623708,-592.164754,-8956.491898,1149.143247
3213.624036,296.082377,-8364.327145,-536.266849
3213.624364,0.000000,-10955.047942,-383.047749
3213.624691,-296.082377,-12435.459826,76.609550
3213.625019,74.020594,-10362.883188,-153.219100
3213.625347,-592.164754,-9178.553681,459.657299
3213.625674,0.000000,-10362.883188,76.609550
3213.626002,222.061783,-11399.171507,-1302.362347
3213.626330,-148.041188,-9400.615463,-1302.362347
3213.626658,-296.082377,-6735.874072,153.219100
3213.626985,0.000000,-6587.832884,153.219100
3213.627313,592.164754,-8438.347739,1532.190996
3213.627641,666.185348,-9622.677246,1378.971896
3213.627968,74.020594,-9918.759623,0.000000
3213.628296,74.020594,-10807.006753,-1225.752797
3213.628624,888.247130,-10955.047942,-1991.848295
3213.628952,296.082377,-10362.883188,-766.095498
3213.629279,444.123565,-9770.718434,153.219100
3213.629607,222.061783,-10140.821405,0.000000
3213.629935,0.000000,-10807.006753,-459.657299
3213.630262,740.205942,-9474.636058,-1225.752797
3213.630590,740.205942,-8142.265362,-766.095498
3213.630918,1184.329507,-8438.347739,919.314598
3213.631245,1036.288319,-8216.285956,153.219100
3213.631573,1036.288319,-9622.677246,76.609550
3213.631901,74.020594,-10436.903782,229.828649
3213.632229,-296.082377,-11029.068536,-1072.533697
3213.632556,-1554.432478,-9918.759623,-612.876398
3213.632884,0.000000,-9844.739029,-995.924147
3213.633212,1036.288319,-10362.883188,-1532.190996
3213.633539,-370.102971,-11177.109724,459.657299
3213.633867,-1258.350101,-9770.718434,995.924147
3213.634195,370.102971,-9104.533087,-1072.533697
3213.634522,1258.350101,-7994.224174,-1302.362347
3213.634850,888.247130,-8882.471304,-383.047749
3213.635178,0.000000,-9622.677246,612.876398
3213.635506,0.000000,-10436.903782,842.705048
3213.635833,1924.535449,-9696.697840,-1225.752797
3213.636161,1258.350101,-8734.430116,-306.438199
3213.636489,0.000000,-9474.636058,995.924147
3213.636816,592.164754,-10066.800811,1302.362347
3213.637144,1406.391290,-9770.718434,-229.828649
3213.637472,0.000000,-9400.615463,-766.095498
3213.637800,296.082377,-9400.615463,76.609550
3213.638127,1480.411884,-8512.368333,459.657299
3213.638455,1702.473667,-9696.697840,-229.828649
3213.638783,1110.308913,-12213.398043,1072.533697
3213.639110,1406.391290,-11325.150913,-612.876398
3213.639438,222.061783,-8142.265362,-2681.334243
3213.639766,-1036.288319,-7846.182985,-1455.581446
3213.640094,-1406.391290,-9326.594869,612.876398
3213.640421,370.102971,-9548.656652,-459.657299
3213.640749,-222.061783,-10436.903782,842.705048
3213.641077,-1036.288319,-9844.739029,-766.095498
3213.641405,-370.102971,-9030.512492,-2374.896044
3213.641732,0.000000,-8808.450710,-612.876398
3213.642060,518.144159,-10066.800811,229.828649
3213.642388,1184.329507,-10807.006753,842.705048
3213.642715,814.226536,-10807.006753,1225.752797
3213.643043,1184.329507,-9992.780217,0.000000
3213.643371,148.041188,-9326.594869,153.219100
3213.643699,0.000000,-9770.718434,766.095498
3213.644026,-444.123565,-9770.718434,229.828649
3213.644354,-1184.329507,-9622.677246,-306.438199
3213.644682,-666.185348,-9844.739029,-689.485948
3213.645010,0.000000,-9474.636058,-536.266849
3213.645337,-148.041188,-8586.388927,0.000000
3213.645665,666.185348,-8290.306550,0.000000
3213.645993,0.000000,-10066.800811,459.657299
3213.646320,0.000000,-9474.636058,919.314598
3213.646648,444.123565,-8364.327145,0.000000
3213.646976,1554.432478,-10584.944971,229.828649
3213.647304,1406.391290,-11325.150913,1302.362347
3213.647631,888.247130,-9770.718434,0.000000
3213.647959,740.205942,-9400.615463,-536.266849
3213.648287,-370.102971,-10362.883188,-919.314598
3213.648614,-296.082377,-9844.739029,-1608.800546
3213.648942,-222.061783,-7846.182985,-919.314598
3213.649270,296.082377,-7994.224174,-459.657299
3213.649598,222.061783,-8808.450710,459.657299
3213.649925,0.000000,-10140.821405,995.924147
3213.650253,-740.205942,-9252.574275,536.266849
3213.650581,-222.061783,-8660.409521,-1608.800546
3213.650909,148.041188,-10140.821405,-1915.238745
3213.651236,740.205942,-11103.089130,-1149.143247
3213.651564,962.267725,-11473.192101,0.000000
3213.651892,592.164754,-11177.109724,459.657299
3213.652219,1702.473667,-10362.883188,-383.047749
3213.652547,1332.370696,-9104.533087,-766.095498
3213.652875,-370.102971,-8586.388927,-306.438199
3213.653203,-1702.473667,-8290.306550,459.657299
3213.653530,-1258.350101,-9178.553681,0.000000
3213.653858,444.123565,-10214.842000,-1149.143247
3213.654186,666.185348,-9770.718434,-306.438199
3213.654514,2072.576638,-9696.697840,0.000000
3213.654841,2590.720797,-10436.903782,0.000000
3213.655169,1628.453072,-11769.274478,842.705048
3213.655497,1406.391290,-10658.965565,842.705048
3213.655824,740.205942,-7550.100608,229.828649
3213.656152,-1258.350101,-8290.306550,1532.190996
3213.656480,-2368.659014,-9252.574275,0.000000
3213.656808,-2072.576638,-8882.471304,-919.314598
3213.657135,-1850.514855,-8882.471304,-1378.971896
3213.657463,-1184.329507,-10066.800811,-1762.019645
3213.657791,222.061783,-10362.883188,-1072.533697
3213.658119,1998.556043,-9992.780217,0.000000
3213.658446,2442.679609,-9918.759623,229.828649
3213.658774,1628.453072,-9474.636058,76.609550
3213.659102,1036.288319,-9474.636058,536.266849
3213.659429,592.164754,-8734.430116,153.219100
3213.659757,888.247130,-7402.059420,229.828649
3213.660085,0.000000,-8734.430116,766.095498
3213.660413,148.041188,-10732.986159,1302.362347
3213.660740,222.061783,-11769.274478,383.047749
3213.661068,0.000000,-11399.171507,-766.095498
3213.661396,222.061783,-9548.656652,-1838.629195
3213.661723,-1184.329507,-8438.347739,-2068.457845
3213.662051,0.000000,-9400.615463,-1532.190996
3213.662379,370.102971,-11325.150913,-459.657299
3213.662707,1628.453072,-12287.418637,383.047749
3213.663034,3034.844362,-9548.656652,0.000000
3213.663362,2146.597232,-6661.853478,-383.047749
3213.663690,-296.082377,-8586.388927,536.266849
3213.664018,-1406.391290,-9400.615463,76.609550
3213.664345,-1184.329507,-10140.821405,-536.266849
3213.664673,-370.102971,-11251.130318,-919.314598
3213.665001,444.123565,-9770.718434,-1378.971896
3213.665328,222.061783,-9474.636058,459.657299
3213.665656,962.267725,-11251.130318,306.438199
3213.665984,1702.473667,-11917.315666,306.438199
3213.666312,666.185348,-9918.759623,-153.219100
3213.666639,0.000000,-7179.997637,-1072.533697
3213.666967,370.102971,-6809.894666,-536.266849
3213.667295,444.123565,-8660.409521,1378.971896
3213.667623,444.123565,-9770.718434,2451.505594
3213.667950,518.144159,-9992.780217,919.314598
3213.668278,-962.267725,-10066.800811,-153.219100
3213.668606,-666.185348,-10214.842000,-766.095498
3213.668933,-296.082377,-8956.491898,-612.876398
3213.669261,0.000000,-9326.594869,-766.095498
3213.669589,666.185348,-11473.192101,-459.657299
3213.669917,1184.329507,-11251.130318,-766.095498
3213.670244,370.102971,-9326.594869,-383.047749
3213.670572,1184.329507,-8660.409521,536.266849
3213.670900,888.247130,-7994.224174,0.000000
3213.671228,370.102971,-8512.368333,459.657299
3213.671555,-222.061783,-10510.924376,536.266849
3213.671883,-962.267725,-10066.800811,76.609550
3213.672211,0.000000,-8364.327145,-1072.533697
3213.672538,518.144159,-9474.636058,-689.485948
3213.672866,740.205942,-11251.130318,0.000000
3213.673194,888.247130,-11843.295072,0.000000
3213.673522,296.082377,-10955.047942,-1072.533697
3213.673849,74.020594,-10140.821405,-1685.410096
3213.674177,814.226536,-9918.759623,-1532.190996
3213.674505,962.267725,-9474.636058,1302.362347
3213.674832,518.144159,-7994.224174,1991.848295
3213.675160,74.020594,-10066.800811,536.266849
3213.675488,0.000000,-11473.192101,842.705048
3213.675816,-296.082377,-8364.327145,-383.047749
3213.676143,-592.164754,-7550.100608,-459.657299
3213.676471,-1110.308913,-9696.697840,0.000000
3213.676799,222.061783,-11769.274478,-536.266849
3213.677127,592.164754,-11473.192101,-1685.410096
3213.677454,1258.350101,-9474.636058,-995.924147
