#time,accel_x,accel_y,accel_z
2498.720398,0.000000,-10288.862594,-383.047749
2498.720725,370.102971,-10288.862594,-459.657299
2498.721053,444.123565,-9992.780217,-459.657299
2498.721380,592.164754,-9474.636058,-229.828649
2498.721707,740.205942,-9844.739029,0.000000
2498.722035,1036.288319,-9548.656652,229.828649
2498.722362,592.164754,-9474.636058,0.000000
2498.722689,370.102971,-9252.574275,-306.438199
2498.723017,148.041188,-9252.574275,-306.438199
2498.723344,-222.061783,-9104.533087,0.000000
2498.723671,0.000000,-9030.512492,-612.876398
2498.723999,518.144159,-9844.739029,-383.047749
2498.724326,888.247130,-9918.759623,-689.485948
2498.724654,814.226536,-9844.739029,0.000000
2498.724981,962.267725,-9918.759623,76.609550
2498.725308,814.226536,-9696.697840,306.438199
2498.725636,666.185348,-9178.553681,689.485948
2498.725963,740.205942,-9252.574275,76.609550
2498.726290,370.102971,-9030.512492,383.047749
2498.726618,444.123565,-9178.553681,0.000000
2498.726945,0.000000,-9548.656652,0.000000
2498.727272,0.000000,-9622.677246,-612.876398
2498.727600,0.000000,-9548.656652,-612.876398
2498.727927,74.020594,-10066.800811,-689.485948
2498.728255,444.123565,-10066.800811,-1072.533697
2498.728582,962.267725,-10140.821405,-459.657299
2498.728909,1036.288319,-9992.780217,153.219100
2498.729237,444.123565,-9844.739029,0.000000
2498.729564,444.123565,-9770.718434,0.000000
2498.729891,74.020594,-9696.697840,0.000000
2498.730219,296.082377,-9622.677246,0.000000
2498.730546,-148.041188,-9474.636058,0.000000
2498.730873,-518.144159,-9548.656652,153.219100
2498.731201,-222.061783,-9770.718434,0.000000
2498.731528,0.000000,-9992.780217,-383.047749
2498.731856,148.041188,-10140.821405,0.000000
2498.732183,444.123565,-9992.780217,-153.219100
2498.732510,666.185348,-9918.759623,536.266849
2498.732838,592.164754,-9474.636058,459.657299
2498.733165,592.164754,-9178.553681,0.000000
2498.733492,370.102971,-8660.409521,536.266849
2498.733820,296.082377,-9252.574275,0.000000
2498.734147,0.000000,-8956.491898,-383.047749
2498.734474,0.000000,-9178.553681,-689.485948
2498.734802,222.061783,-9474.636058,-766.095498
2498.735129,74.020594,-9252.574275,-459.657299
2498.735457,814.226536,-9622.677246,-383.047749
2498.735784,1406.391290,-9548.656652,-612.876398
2498.736111,1998.556043,-10066.800811,0.000000
2498.736439,2812.782580,-9548.656652,76.609550
2498.736766,3552.988522,-9104.533087,306.438199
2498.737093,3775.050304,-9252.574275,306.438199
2498.737421,3478.967927,-10066.800811,-306.438199
2498.737748,4145.153275,-9104.533087,-229.828649
2498.738075,5625.565159,-9030.512492,-919.314598
2498.738403,5847.626942,-9696.697840,-919.314598
2498.738730,6587.832884,-10584.944971,-689.485948
2498.739058,7550.100608,-10955.047942,0.000000
2498.739385,7772.162391,-10807.006753,76.609550
2498.739712,8438.347739,-9474.636058,0.000000
2498.740040,9400.615463,-9326.594869,0.000000
2498.740367,9770.718434,-9030.512492,842.705048
2498.740694,10288.862594,-8882.471304,766.095498
2498.741022,11399.171507,-8956.491898,383.047749
2498.741349,11325.150913,-9696.697840,612.876398
2498.741676,10732.986159,-9770.718434,612.876398
2498.742004,9992.780217,-9474.636058,153.219100
2498.742331,9252.574275,-9474.636058,-306.438199
2498.742658,9918.759623,-10807.006753,306.438199
2498.742986,9770.718434,-11177.109724,-383.047749
2498.743313,9548.656652,-10214.842000,76.609550
2498.743641,9548.656652,-9622.677246,919.314598
2498.743968,9474.636058,-8808.450710,995.924147
2498.744295,8586.388927,-7624.121203,1072.533697
2498.744623,7994.224174,-7402.059420,689.485948
2498.744950,8734.430116,-7772.162391,0.000000
2498.745277,8438.347739,-8882.471304,-229.828649
2498.745605,8438.347739,-9918.759623,0.000000
2498.745932,7328.038826,-10436.903782,153.219100
2498.746259,6069.688724,-10658.965565,383.047749
2498.746587,4515.256246,-11177.109724,459.657299
2498.746914,4589.276840,-11251.130318,-689.485948
2498.747242,3849.070898,-10807.006753,0.000000
2498.747569,3552.988522,-9844.739029,-383.047749
2498.747896,2886.803174,-9918.759623,689.485948
2498.748224,1924.535449,-9474.636058,1149.143247
2498.748551,1110.308913,-8290.306550,612.876398
2498.748878,-222.061783,-8364.327145,0.000000
2498.749206,-518.144159,-9622.677246,-1455.581446
2498.749533,-1554.432478,-10066.800811,-306.438199
2498.749860,-1332.370696,-9992.780217,-995.924147
2498.750188,-1036.288319,-10214.842000,-459.657299
2498.750515,-666.185348,-11325.150913,76.609550
2498.750843,-1702.473667,-11621.233289,612.876398
2498.751170,-3330.926739,-11029.068536,995.924147
2498.751497,-4515.256246,-9622.677246,-995.924147
2498.751825,-5551.544565,-8586.388927,-1149.143247
2498.752152,-7105.977043,-8142.265362,-1378.971896
2498.752479,-6809.894666,-7698.141797,-919.314598
2498.752807,-4663.297435,-7624.121203,-536.266849
2498.753134,-2220.617826,-9326.594869,-229.828649
2498.753461,-592.164754,-9770.718434,383.047749
2498.753789,666.185348,-9844.739029,0.000000
2498.754116,-444.123565,-10066.800811,536.266849
2498.754444,-1554.432478,-10288.862594,0.000000
2498.754771,-1850.514855,-10436.903782,0.000000
2498.755098,-2072.576638,-10140.821405,0.000000
2498.755426,-1110.308913,-9770.718434,-306.438199
2498.755753,0.000000,-9696.697840,0.000000
2498.756080,0.000000,-9548.656652,229.828649
2498.756408,-962.267725,-9030.512492,229.828649
2498.756735,-1332.370696,-8364.327145,-1072.533697
2498.757062,-2516.700203,-6661.853478,-2298.286494
2498.757390,-1924.535449,-7105.977043,-2221.676944
2498.757717,-222.061783,-7179.997637,-1302.362347
2498.758045,2664.741391,-7920.203579,0.000000
2498.758372,5921.647536,-9844.739029,689.485948
2498.758699,7402.059420,-11843.295072,842.705048
2498.759027,5995.668130,-12731.542202,1302.362347
2498.759354,4959.379811,-13249.686362,306.438199
2498.759681,3182.885551,-12139.377449,-2068.457845
2498.760009,888.247130,-11695.253884,-3140.991542
2498.760336,-666.185348,-9992.780217,-1838.629195
2498.760663,444.123565,-8660.409521,-1225.752797
2498.760991,2738.761985,-8290.306550,76.609550
2498.761318,3256.906145,-9252.574275,1378.971896
2498.761646,3182.885551,-9178.553681,2068.457845
2498.761973,3330.926739,-9030.512492,919.314598
2498.762300,2960.823768,-9104.533087,-995.924147
2498.762628,2738.761985,-8734.430116,-1302.362347
2498.762955,2072.576638,-9104.533087,0.000000
2498.763282,4441.235652,-10140.821405,995.924147
2498.763610,5773.606348,-11103.089130,1915.238745
2498.763937,5255.462188,-12731.542202,919.314598
2498.764264,3552.988522,-14508.036463,0.000000
2498.764592,222.061783,-13397.727550,-536.266849
2498.764919,-1628.453072,-11029.068536,-1608.800546
2498.765246,-3627.009116,-9252.574275,-1378.971896
2498.765574,-3775.050304,-7328.038826,459.657299
2498.765901,-1554.432478,-5255.462188,1608.800546
2498.766229,444.123565,-5033.400406,2911.162892
2498.766556,1628.453072,-6513.812290,3753.867940
2498.766883,1776.494261,-8216.285956,2911.162892
2498.767211,148.041188,-9326.594869,2145.067394
2498.767538,-1628.453072,-8660.409521,229.828649
2498.767865,-2886.803174,-10214.842000,-2221.676944
2498.768193,-3256.906145,-11325.150913,-2298.286494
2498.768520,-2146.597232,-11621.233289,-2145.067394
2498.768847,0.000000,-12731.542202,-1762.019645
2498.769175,370.102971,-12879.583391,-383.047749
2498.769502,-814.226536,-12213.398043,536.266849
2498.769830,-2442.679609,-10510.924376,153.219100
2498.770157,-4737.318029,-7846.182985,0.000000
2498.770484,-5847.626942,-6069.688724,-1915.238745
2498.770812,-5699.585753,-4811.338623,-1072.533697
2498.771139,-3923.091493,-5107.421000,842.705048
2498.771466,-666.185348,-6661.853478,1072.533697
2498.771794,1480.411884,-9400.615463,1455.581446
2498.772121,1036.288319,-11843.295072,842.705048
2498.772448,0.000000,-13471.748144,-1302.362347
2498.772776,-888.247130,-13915.871710,-3907.087040
2498.773103,-2442.679609,-13397.727550,-5132.839837
2498.773431,-2738.761985,-12139.377449,-4060.306139
2498.773758,-888.247130,-10807.006753,-2528.115143
2498.774085,1184.329507,-10214.842000,0.000000
2498.774413,2886.803174,-10066.800811,2145.067394
2498.774740,2294.638420,-8882.471304,1685.410096
2498.775067,222.061783,-8586.388927,1302.362347
2498.775395,-592.164754,-7994.224174,-536.266849
2498.775722,-666.185348,-6735.874072,-1915.238745
2498.776049,-370.102971,-7328.038826,-995.924147
2498.776377,1776.494261,-8660.409521,306.438199
2498.776704,4811.338623,-8586.388927,1838.629195
2498.777032,5921.647536,-10436.903782,2681.334243
2498.777359,4441.235652,-12213.398043,2068.457845
2498.777686,3108.864956,-13545.768739,-383.047749
2498.778014,1480.411884,-13101.645173,-2221.676944
2498.778341,0.000000,-10881.027347,-3064.381992
2498.778668,0.000000,-9030.512492,-2451.505594
2498.778996,888.247130,-8068.244768,-1149.143247
2498.779323,3256.906145,-6883.915261,1455.581446
2498.779650,4737.318029,-8068.244768,2987.772442
2498.779978,4441.235652,-8956.491898,3524.039291
2498.780305,3552.988522,-9622.677246,2451.505594
2498.780633,2886.803174,-9474.636058,689.485948
2498.780960,1110.308913,-8142.265362,-229.828649
2498.781287,-370.102971,-8364.327145,-306.438199
2498.781615,888.247130,-9030.512492,383.047749
2498.781942,1924.535449,-9474.636058,383.047749
2498.782269,1998.556043,-11251.130318,383.047749
2498.782597,1628.453072,-12583.501014,0.000000
2498.782924,0.000000,-12657.521608,-1072.533697
2498.783251,-1998.556043,-11991.336260,-2298.286494
2498.783579,-2664.741391,-9770.718434,-2681.334243
2498.783906,-2886.803174,-8364.327145,-2145.067394
2498.784234,-1332.370696,-6439.791695,-383.047749
2498.784561,666.185348,-6735.874072,1685.410096
2498.784889,2368.659014,-8734.430116,2757.943793
2498.785216,2590.720797,-9918.759623,2604.724693
2498.785544,740.205942,-10214.842000,1915.238745
2498.785871,-2516.700203,-10732.986159,-842.705048
2498.786199,-3923.091493,-10658.965565,-3370.820191
2498.786526,-4737.318029,-9992.780217,-3447.429741
2498.786854,-3330.926739,-9252.574275,-2451.505594
2498.787181,-666.185348,-9326.594869,-1685.410096
2498.787509,962.267725,-10955.047942,0.000000
2498.787836,1036.288319,-11621.233289,1225.752797
2498.788164,-740.205942,-10881.027347,1608.800546
2498.788491,-2516.700203,-9474.636058,229.828649
2498.788819,-3404.947333,-8290.306550,-2145.067394
2498.789146,-3627.009116,-7179.997637,-2451.505594
2498.789474,-1924.535449,-6735.874072,-842.705048
2498.789801,740.205942,-7698.141797,766.095498
2498.790129,2738.761985,-9474.636058,2221.676944
2498.790456,2220.617826,-11325.150913,1685.410096
2498.790783,518.144159,-12065.356855,612.876398
2498.791111,-888.247130,-11917.315666,-1915.238745
2498.791438,-1628.453072,-10955.047942,-3064.381992
2498.791766,-1924.535449,-9696.697840,-2221.676944
2498.792093,0.000000,-8660.409521,-306.438199
2498.792421,2220.617826,-7698.141797,1608.800546
2498.792748,3330.926739,-9104.533087,3447.429741
2498.793076,2664.741391,-9770.718434,2681.334243
2498.793403,518.144159,-9844.739029,1455.581446
2498.793731,-1406.391290,-9400.615463,-1149.143247
2498.794058,-1850.514855,-8956.491898,-3064.381992
2498.794386,-1850.514855,-8882.471304,-2604.724693
2498.794713,-740.205942,-9326.594869,-689.485948
2498.795041,2368.659014,-8438.347739,1455.581446
2498.795368,4515.256246,-10140.821405,2451.505594
2498.795696,4145.153275,-11547.212695,1838.629195
2498.796023,3108.864956,-12805.562797,766.095498
2498.796351,1850.514855,-11991.336260,-919.314598
2498.796678,222.061783,-10214.842000,-2068.457845
2498.797006,-666.185348,-9104.533087,-1302.362347
2498.797333,0.000000,-7476.080014,-383.047749
2498.797661,2442.679609,-7031.956449,383.047749
2498.797988,2886.803174,-8438.347739,1455.581446
2498.798316,2812.782580,-10362.883188,1685.410096
2498.798643,2368.659014,-11769.274478,153.219100
2498.798971,962.267725,-10584.944971,-919.314598
2498.799298,-740.205942,-9548.656652,-2068.457845
2498.799626,-1480.411884,-9770.718434,-1762.019645
2498.799953,0.000000,-9400.615463,-306.438199
2498.800281,2072.576638,-8660.409521,0.000000
2498.800608,3404.947333,-10362.883188,919.314598
2498.800936,3775.050304,-11769.274478,1532.190996
2498.801263,2146.597232,-11917.315666,1225.752797
2498.801591,222.061783,-10881.027347,-153.219100
2498.801918,-1702.473667,-9696.697840,-1991.848295
2498.802246,-2368.659014,-8660.409521,-1762.019645
2498.802573,-1850.514855,-7179.997637,-383.047749
2498.802901,74.020594,-7105.977043,1302.362347
2498.803228,1924.535449,-8438.347739,2374.896044
2498.803556,2220.617826,-10362.883188,2757.943793
2498.803883,370.102971,-11621.233289,1378.971896
2498.804211,-2368.659014,-9918.759623,0.000000
2498.804538,-3923.091493,-9030.512492,-2757.943793
2498.804866,-4737.318029,-8882.471304,-3140.991542
2498.805193,-3849.070898,-7772.162391,-1838.629195
2498.805521,-962.267725,-8216.285956,-153.219100
2498.805848,1184.329507,-9992.780217,1532.190996
2498.806176,1332.370696,-11843.295072,1915.238745
2498.806503,370.102971,-11695.253884,919.314598
2498.806831,-1850.514855,-10584.944971,-383.047749
2498.807158,-3330.926739,-9104.533087,-1762.019645
2498.807486,-3330.926739,-8364.327145,-2451.505594
2498.807813,-2220.617826,-7920.203579,-536.266849
2498.808141,222.061783,-7698.141797,689.485948
2498.808468,2516.700203,-9104.533087,1608.800546
2498.808796,1554.432478,-10807.006753,1915.238745
2498.809123,-148.041188,-11473.192101,0.000000
2498.809451,-1924.535449,-11029.068536,-2451.505594
2498.809778,-2738.761985,-10140.821405,-3983.696590
2498.810106,-2368.659014,-9770.718434,-3140.991542
2498.810433,74.020594,-8956.491898,-1532.190996
2498.810761,2738.761985,-8808.450710,842.705048
2498.811088,4737.318029,-10436.903782,2528.115143
2498.811416,4885.359217,-10955.047942,1991.848295
2498.811743,2886.803174,-11473.192101,1302.362347
2498.812071,1184.329507,-10732.986159,-612.876398
2498.812398,-296.082377,-10214.842000,-2604.724693
2498.812726,-296.082377,-9474.636058,-2451.505594
2498.813053,740.205942,-8512.368333,-1072.533697
2498.813381,2738.761985,-8808.450710,1685.410096
2498.813708,4441.235652,-9104.533087,2987.772442
2498.814036,4071.132681,-11177.109724,1685.410096
2498.814363,2886.803174,-12287.418637,766.095498
2498.814691,814.226536,-10288.862594,-766.095498
2498.815018,-444.123565,-9030.512492,-1991.848295
2498.815346,-1480.411884,-8068.244768,-1532.190996
2498.815673,-666.185348,-6735.874072,306.438199
2498.816001,1628.453072,-7402.059420,1149.143247
2498.816328,2294.638420,-8364.327145,2145.067394
2498.816656,2368.659014,-10214.842000,1225.752797
2498.816983,1702.473667,-11769.274478,383.047749
2498.817310,-296.082377,-11325.150913,-612.876398
2498.817638,-814.226536,-10510.924376,-1915.238745
2498.817965,-1332.370696,-8956.491898,-842.705048
2498.818293,-814.226536,-8660.409521,153.219100
2498.818620,1184.329507,-8364.327145,1149.143247
2498.818948,2368.659014,-8882.471304,1532.190996
2498.819275,1406.391290,-9992.780217,1915.238745
2498.819603,0.000000,-10732.986159,919.314598
2498.819930,-1036.288319,-9992.780217,-1225.752797
2498.820258,-3034.844362,-9400.615463,-2374.896044
2498.820585,-2960.823768,-9400.615463,-2834.553343
2498.820913,-2368.659014,-8364.327145,-1685.410096
2498.821240,74.020594,-8734.430116,-689.485948
2498.821568,2072.576638,-10066.800811,459.657299
2498.821895,2590.720797,-11547.212695,842.705048
2498.822223,1480.411884,-11843.295072,1378.971896
2498.822550,-296.082377,-11991.336260,536.266849
2498.822878,-1406.391290,-10584.944971,-1915.238745
2498.823205,-3108.864956,-9992.780217,-2681.334243
2498.823533,-3182.885551,-9252.574275,-2221.676944
2498.823860,-1406.391290,-8734.430116,-1378.971896
2498.824188,148.041188,-9400.615463,-459.657299
2498.824515,1406.391290,-10732.986159,306.438199
2498.824843,814.226536,-11177.109724,1455.581446
2498.825170,-740.205942,-10362.883188,459.657299
2498.825498,-1850.514855,-9252.574275,-995.924147
2498.825825,-2590.720797,-8364.327145,-1915.238745
2498.826153,-1480.411884,-7550.100608,-1072.533697
2498.826480,296.082377,-7105.977043,689.485948
2498.826808,2294.638420,-8216.285956,2221.676944
2498.827135,3108.864956,-10881.027347,2451.505594
2498.827463,1776.494261,-11399.171507,1915.238745
2498.827790,74.020594,-10955.047942,-153.219100
2498.828118,-1702.473667,-10214.842000,-2374.896044
2498.828445,-2368.659014,-9548.656652,-2757.943793
2498.828773,-1184.329507,-8586.388927,-1685.410096
2498.829100,1036.288319,-7994.224174,383.047749
2498.829428,3404.947333,-7994.224174,3217.601092
2498.829755,3923.091493,-8956.491898,3140.991542
2498.830083,2812.782580,-10214.842000,2604.724693
2498.830410,1036.288319,-9918.759623,459.657299
2498.830738,-740.205942,-9326.594869,-2298.286494
2498.831065,-1406.391290,-9104.533087,-3064.381992
2498.831393,-740.205942,-8216.285956,-2221.676944
2498.831720,2442.679609,-8586.388927,-383.047749
2498.832048,4885.359217,-9992.780217,76.609550
2498.832375,4959.379811,-12361.439231,1532.190996
2498.832703,4367.215058,-13027.624579,689.485948
2498.833030,2516.700203,-11843.295072,-306.438199
2498.833358,74.020594,-10807.006753,-1685.410096
2498.833685,-1406.391290,-9474.636058,-2221.676944
2498.834013,-1480.411884,-8956.491898,-1838.629195
2498.834340,-518.144159,-7846.182985,-383.047749
2498.834668,1332.370696,-8586.388927,689.485948
2498.834995,2294.638420,-10584.944971,612.876398
2498.835323,1406.391290,-11843.295072,766.095498
2498.835650,-296.082377,-10955.047942,0.000000
2498.835978,-1776.494261,-10140.821405,-1991.848295
2498.836305,-2812.782580,-9548.656652,-1762.019645
2498.836633,-2738.761985,-8438.347739,-689.485948
2498.836960,-222.061783,-7994.224174,0.000000
2498.837288,1850.514855,-9104.533087,1072.533697
2498.837615,2220.617826,-10658.965565,2145.067394
2498.837943,1036.288319,-11399.171507,1455.581446
2498.838270,-962.267725,-11399.171507,0.000000
2498.838598,-2516.700203,-9770.718434,-1991.848295
2498.838925,-3330.926739,-8586.388927,-2528.115143
2498.839253,-2442.679609,-8142.265362,-1532.190996
2498.839580,-962.267725,-7179.997637,536.266849
2498.839908,1554.432478,-7402.059420,2298.286494
2498.840235,2294.638420,-9474.636058,2757.943793
2498.840563,1628.453072,-10510.924376,2604.724693
2498.840890,0.000000,-9622.677246,612.876398
2498.841218,-1480.411884,-9178.553681,-1762.019645
2498.841545,-2516.700203,-8734.430116,-2528.115143
2498.841873,-2072.576638,-8660.409521,-2298.286494
2498.842200,444.123565,-8808.450710,-766.095498
2498.842528,2442.679609,-9474.636058,383.047749
2498.842855,4071.132681,-11325.150913,1149.143247
2498.843182,3627.009116,-12583.501014,1302.362347
2498.843510,1554.432478,-11991.336260,-229.828649
2498.843837,0.000000,-11029.068536,-1532.190996
2498.844165,-1702.473667,-9622.677246,-2451.505594
2498.844492,-2146.597232,-9104.533087,-1608.800546
2498.844820,-888.247130,-8216.285956,-383.047749
2498.845147,1184.329507,-8290.306550,-459.657299
2498.845475,1924.535449,-9844.739029,76.609550
2498.845802,1036.288319,-10807.006753,1149.143247
2498.846130,-296.082377,-10658.965565,-383.047749
2498.846457,-1702.473667,-10214.842000,-2068.457845
2498.846785,-1628.453072,-9622.677246,-3217.601092
2498.847112,-888.247130,-9696.697840,-2221.676944
2498.847440,1332.370696,-8882.471304,-306.438199
2498.847767,3330.926739,-9252.574275,1225.752797
2498.848095,3997.112087,-10510.924376,2145.067394
2498.848422,3552.988522,-12065.356855,1915.238745
2498.848750,962.267725,-11399.171507,1072.533697
2498.849077,-1036.288319,-9622.677246,-689.485948
2498.849405,-2516.700203,-8734.430116,-2298.286494
2498.849732,-2368.659014,-7994.224174,-1455.581446
2498.850060,-444.123565,-6587.832884,-459.657299
2498.850387,1332.370696,-7179.997637,612.876398
2498.850715,2442.679609,-9252.574275,2681.334243
2498.851042,2590.720797,-10436.903782,1991.848295
2498.851370,1036.288319,-10362.883188,536.266849
2498.851697,-444.123565,-9770.718434,-919.314598
2498.852025,-666.185348,-9252.574275,-1838.629195
2498.852352,-1110.308913,-8660.409521,-1455.581446
2498.852680,518.144159,-8660.409521,-383.047749
2498.853007,3256.906145,-10066.800811,229.828649
2498.853335,4219.173869,-11843.295072,842.705048
2498.853662,2886.803174,-11769.274478,995.924147
2498.853990,1258.350101,-11843.295072,0.000000
2498.854317,-222.061783,-10955.047942,-1225.752797
2498.854645,-1628.453072,-9844.739029,-1991.848295
2498.854972,-2738.761985,-8660.409521,-1149.143247
2498.855300,-1554.432478,-7624.121203,-153.219100
2498.855627,666.185348,-7476.080014,766.095498
2498.855955,1332.370696,-8586.388927,1532.190996
2498.856282,592.164754,-10066.800811,1378.971896
2498.856610,-666.185348,-10436.903782,0.000000
2498.856937,-1850.514855,-10584.944971,-2374.896044
2498.857265,-2738.761985,-10066.800811,-3294.210641
2498.857592,-1998.556043,-9622.677246,-2987.772442
2498.857920,-148.041188,-9030.512492,-612.876398
2498.858247,1850.514855,-9474.636058,1302.362347
2498.858575,3034.844362,-10955.047942,2374.896044
2498.858902,2738.761985,-11621.233289,1225.752797
2498.859230,518.144159,-11029.068536,919.314598
2498.859557,-1702.473667,-9770.718434,-1378.971896
2498.859885,-3330.926739,-7846.182985,-1072.533697
2498.860212,-3775.050304,-7105.977043,-995.924147
2498.860540,-2146.597232,-6069.688724,0.000000
2498.860867,592.164754,-7031.956449,536.266849
2498.861195,2442.679609,-9622.677246,1149.143247
2498.861522,2072.576638,-10658.965565,1608.800546
2498.861850,740.205942,-11177.109724,229.828649
2498.862177,0.000000,-9992.780217,-1455.581446
2498.862505,-888.247130,-10658.965565,-2987.772442
2498.862832,-962.267725,-10140.821405,-2374.896044
2498.863160,888.247130,-8586.388927,-919.314598
2498.863487,3330.926739,-9400.615463,1149.143247
2498.863815,4441.235652,-11251.130318,1532.190996
2498.864142,3108.864956,-11473.192101,1762.019645
2498.864470,1258.350101,-11103.089130,1378.971896
2498.864797,0.000000,-10658.965565,-536.266849
2498.865125,-1184.329507,-9844.739029,-2451.505594
2498.865452,-1850.514855,-9178.553681,-2221.676944
2498.865780,-296.082377,-8142.265362,153.219100
2498.866107,1332.370696,-8216.285956,1302.362347
2498.866435,2738.761985,-9844.739029,1455.581446
2498.866762,1258.350101,-10510.924376,1455.581446
2498.867090,148.041188,-10732.986159,0.000000
2498.867417,-1036.288319,-10436.903782,-2145.067394
2498.867745,-1628.453072,-9844.739029,-3370.820191
2498.868072,-1628.453072,-8956.491898,-2145.067394
2498.868400,0.000000,-8808.450710,459.657299
2498.868727,1924.535449,-8882.471304,1378.971896
2498.869054,3701.029710,-9844.739029,1532.190996
2498.869382,3034.844362,-10881.027347,2145.067394
2498.869709,1702.473667,-11769.274478,1378.971896
2498.870037,0.000000,-10732.986159,0.000000
2498.870364,-1554.432478,-8808.450710,-995.924147
2498.870692,-2960.823768,-7698.141797,-1072.533697
2498.871019,-2146.597232,-6217.729913,919.314598
2498.871347,296.082377,-6513.812290,766.095498
2498.871674,888.247130,-8290.306550,1302.362347
2498.872002,296.082377,-10584.944971,689.485948
2498.872329,-296.082377,-11251.130318,-919.314598
2498.872657,-1110.308913,-10955.047942,-2145.067394
2498.872984,-2220.617826,-10658.965565,-3753.867940
2498.873312,-2072.576638,-10732.986159,-3983.696590
2498.873639,-296.082377,-9252.574275,-1762.019645
2498.873967,2294.638420,-9400.615463,0.000000
2498.874294,3552.988522,-10658.965565,1302.362347
2498.874622,3552.988522,-11473.192101,1991.848295
2498.874949,1406.391290,-11473.192101,2068.457845
2498.875277,-740.205942,-9770.718434,383.047749
2498.875604,-2294.638420,-9770.718434,-2221.676944
2498.875932,-2664.741391,-9178.553681,-2528.115143
2498.876259,-1850.514855,-8142.265362,-919.314598
2498.876587,444.123565,-7920.203579,459.657299
2498.876914,2442.679609,-9252.574275,919.314598
2498.877242,2294.638420,-11029.068536,1455.581446
2498.877569,296.082377,-10881.027347,919.314598
2498.877897,-888.247130,-10510.924376,-536.266849
2498.878224,-1628.453072,-9474.636058,-2451.505594
2498.878552,-1184.329507,-9548.656652,-2681.334243
2498.878879,-518.144159,-8660.409521,-1149.143247
2498.879207,1480.411884,-8586.388927,689.485948
2498.879534,3182.885551,-9844.739029,1762.019645
2498.879862,3701.029710,-11399.171507,1532.190996
2498.880189,2294.638420,-11547.212695,1378.971896
2498.880517,296.082377,-10214.842000,153.219100
2498.880844,-888.247130,-8734.430116,-842.705048
2498.881172,-1776.494261,-8142.265362,-842.705048
2498.881499,-888.247130,-6957.935855,306.438199
2498.881827,666.185348,-6291.750507,2145.067394
2498.882154,1702.473667,-7179.997637,1838.629195
2498.882482,1406.391290,-9474.636058,1225.752797
2498.882809,0.000000,-11325.150913,-689.485948
2498.883137,-1480.411884,-10881.027347,-2451.505594
2498.883464,-2146.597232,-10732.986159,-4136.915689
2498.883792,-1924.535449,-11177.109724,-3447.429741
2498.884119,222.061783,-9770.718434,-1838.629195
2498.884447,3182.885551,-9548.656652,-459.657299
2498.884774,4589.276840,-10584.944971,1302.362347
2498.885102,4589.276840,-11547.212695,1838.629195
2498.885429,3478.967927,-11843.295072,2298.286494
2498.885757,814.226536,-10362.883188,919.314598
2498.886084,-1258.350101,-9104.533087,-1072.533697
2498.886412,-2294.638420,-8290.306550,-1991.848295
2498.886739,-2516.700203,-8142.265362,-919.314598
2498.887067,-1480.411884,-7772.162391,0.000000
2498.887394,1184.329507,-8882.471304,459.657299
2498.887722,1924.535449,-11251.130318,306.438199
2498.888049,1406.391290,-12361.439231,229.828649
2498.888377,-222.061783,-11399.171507,0.000000
2498.888704,-1110.308913,-10807.006753,-2068.457845
2498.889032,-1332.370696,-9474.636058,-2604.724693
2498.889359,-1554.432478,-8290.306550,-1608.800546
2498.889687,148.041188,-7994.224174,536.266849
2498.890014,2294.638420,-9252.574275,1685.410096
2498.890342,2590.720797,-9992.780217,2145.067394
2498.890669,1776.494261,-11177.109724,1685.410096
2498.890996,-370.102971,-10436.903782,995.924147
2498.891324,-1628.453072,-8660.409521,-536.266849
2498.891651,-2516.700203,-8290.306550,-1225.752797
2498.891979,-1702.473667,-7698.141797,-306.438199
2498.892306,296.082377,-6883.915261,1149.143247
2498.892634,1998.556043,-7624.121203,2451.505594
2498.892961,1924.535449,-9770.718434,2681.334243
2498.893289,0.000000,-11251.130318,1302.362347
2498.893616,-1332.370696,-11251.130318,-1302.362347
2498.893944,-3034.844362,-10510.924376,-3753.867940
2498.894271,-2960.823768,-10510.924376,-4519.963438
2498.894599,-1776.494261,-9030.512492,-2604.724693
2498.894926,1258.350101,-8882.471304,-536.266849
2498.895254,3552.988522,-10436.903782,1225.752797
2498.895581,4293.194464,-11177.109724,2374.896044
2498.895909,2664.741391,-10658.965565,2298.286494
2498.896236,962.267725,-10362.883188,842.705048
2498.896564,222.061783,-9548.656652,-919.314598
2498.896891,-1702.473667,-8512.368333,-1608.800546
2498.897219,-2072.576638,-7772.162391,-919.314598
2498.897546,-518.144159,-7994.224174,0.000000
2498.897874,1702.473667,-9474.636058,0.000000
2498.898201,2368.659014,-10955.047942,459.657299
2498.898529,1258.350101,-12583.501014,153.219100
2498.898856,0.000000,-11325.150913,-689.485948
2498.899184,-740.205942,-11325.150913,-2604.724693
2498.899511,-1554.432478,-10288.862594,-2757.943793
2498.899839,-1110.308913,-8586.388927,-1608.800546
2498.900166,666.185348,-8142.265362,153.219100
2498.900494,2368.659014,-8586.388927,1225.752797
2498.900821,3478.967927,-9474.636058,2068.457845
2498.901149,2442.679609,-9992.780217,2298.286494
2498.901476,0.000000,-9992.780217,1302.362347
2498.901804,-1702.473667,-9474.636058,-842.705048
2498.902131,-2738.761985,-8586.388927,-2757.943793
2498.902459,-2738.761985,-7698.141797,-1378.971896
2498.902786,222.061783,-7846.182985,383.047749
2498.903114,1850.514855,-9030.512492,1378.971896
2498.903441,2516.700203,-10436.903782,2145.067394
2498.903769,1184.329507,-11473.192101,1838.629195
2498.904096,0.000000,-11103.089130,-919.314598
2498.904424,-1332.370696,-10288.862594,-3064.381992
2498.904751,-2442.679609,-9918.759623,-3370.820191
2498.905079,-1406.391290,-8438.347739,-1991.848295
2498.905406,1628.453072,-8068.244768,-689.485948
2498.905734,3256.906145,-9030.512492,919.314598
2498.906061,4145.153275,-9844.739029,2374.896044
2498.906388,3478.967927,-10955.047942,2221.676944
2498.906716,2220.617826,-11843.295072,1149.143247
2498.907043,592.164754,-10362.883188,-383.047749
2498.907371,-740.205942,-8734.430116,-1838.629195
2498.907698,-1628.453072,-8142.265362,-1072.533697
2498.908026,-222.061783,-7624.121203,536.266849
2498.908353,1628.453072,-8364.327145,842.705048
2498.908681,1480.411884,-9844.739029,919.314598
2498.909008,666.185348,-11917.315666,306.438199
2498.909336,0.000000,-11547.212695,-1072.533697
2498.909663,-1702.473667,-10362.883188,-2298.286494
2498.909991,-2368.659014,-10807.006753,-1915.238745
2498.910318,-1702.473667,-9326.594869,-995.924147
2498.910646,-444.123565,-8290.306550,0.000000
2498.910973,1776.494261,-9178.553681,1225.752797
2498.911301,2812.782580,-9622.677246,2068.457845
2498.911628,1998.556043,-10288.862594,2298.286494
2498.911956,222.061783,-11029.068536,2145.067394
2498.912283,-1702.473667,-9770.718434,-612.876398
2498.912611,-2664.741391,-8882.471304,-2145.067394
2498.912938,-2368.659014,-8364.327145,-1455.581446
2498.913266,-518.144159,-7920.203579,0.000000
2498.913593,1998.556043,-8438.347739,842.705048
2498.913921,2590.720797,-10214.842000,1685.410096
2498.914248,1480.411884,-11843.295072,1072.533697
2498.914576,74.020594,-11325.150913,-919.314598
2498.914903,-1702.473667,-9622.677246,-2221.676944
2498.915231,-2886.803174,-9326.594869,-2987.772442
2498.915558,-1480.411884,-8882.471304,-2374.896044
2498.915886,814.226536,-8364.327145,-766.095498
2498.916213,3108.864956,-9474.636058,995.924147
2498.916541,4367.215058,-10140.821405,2451.505594
2498.916868,3108.864956,-10955.047942,1685.410096
2498.917196,1406.391290,-11177.109724,306.438199
2498.917523,0.000000,-10881.027347,-1685.410096
2498.917851,-1406.391290,-9548.656652,-2757.943793
2498.918178,-1554.432478,-8438.347739,-1532.190996
2498.918506,296.082377,-8512.368333,-306.438199
2498.918833,2368.659014,-9252.574275,536.266849
2498.919161,2220.617826,-9696.697840,2068.457845
2498.919488,1258.350101,-10658.965565,1378.971896
2498.919816,0.000000,-10955.047942,-1149.143247
2498.920143,-1776.494261,-10436.903782,-2145.067394
2498.920471,-2368.659014,-9474.636058,-2681.334243
2498.920798,-1850.514855,-8734.430116,-1608.800546
2498.921125,-296.082377,-8142.265362,919.314598
2498.921453,1480.411884,-8660.409521,1915.238745
2498.921780,3256.906145,-10066.800811,2451.505594
2498.922108,2516.700203,-11029.068536,1608.800546
2498.922435,888.247130,-10955.047942,919.314598
2498.922763,-666.185348,-9844.739029,-536.266849
2498.923090,-2294.638420,-8290.306550,-1455.581446
2498.923418,-2220.617826,-7476.080014,-689.485948
2498.923745,-888.247130,-7476.080014,612.876398
2498.924073,888.247130,-8142.265362,1378.971896
2498.924400,2146.597232,-10362.883188,842.705048
2498.924728,1258.350101,-11769.274478,153.219100
2498.925055,-962.267725,-11325.150913,-766.095498
2498.925383,-1924.535449,-10362.883188,-1608.800546
2498.925710,-2368.659014,-9696.697840,-2221.676944
2498.926038,-1036.288319,-8956.491898,-1685.410096
2498.926365,1110.308913,-8068.244768,229.828649
2498.926693,3182.885551,-8808.450710,1072.533697
2498.927020,4071.132681,-10807.006753,1685.410096
2498.927348,2960.823768,-11843.295072,1608.800546
2498.927675,1110.308913,-11621.233289,383.047749
2498.928003,-592.164754,-11029.068536,-1915.238745
2498.928330,-1258.350101,-10584.944971,-2528.115143
2498.928658,-1628.453072,-9548.656652,-2451.505594
2498.928985,-666.185348,-8290.306550,-1302.362347
2498.929313,1554.432478,-9030.512492,229.828649
2498.929640,2146.597232,-10510.924376,995.924147
2498.929968,1480.411884,-11325.150913,1378.971896
2498.930295,0.000000,-9844.739029,0.000000
2498.930623,-1924.535449,-9252.574275,-1378.971896
2498.930950,-2516.700203,-9030.512492,-2681.334243
2498.931278,-1998.556043,-8512.368333,-1608.800546
2498.931605,-592.164754,-7920.203579,306.438199
2498.931933,1554.432478,-8882.471304,919.314598
2498.932260,3404.947333,-10584.944971,1149.143247
2498.932588,3108.864956,-11177.109724,1685.410096
2498.932915,1332.370696,-10436.903782,842.705048
2498.933243,0.000000,-9844.739029,0.000000
2498.933570,-1702.473667,-7994.224174,-995.924147
2498.933898,-1924.535449,-7846.182985,-766.095498
2498.934225,-222.061783,-7402.059420,612.876398
2498.934553,1924.535449,-7772.162391,1225.752797
2498.934880,2368.659014,-9770.718434,1302.362347
2498.935208,1850.514855,-11769.274478,689.485948
2498.935535,-148.041188,-11251.130318,-766.095498
2498.935863,-1480.411884,-10214.842000,-1838.629195
2498.936190,-1998.556043,-9622.677246,-2681.334243
2498.936517,-1628.453072,-9178.553681,-2145.067394
2498.936845,592.164754,-8586.388927,-689.485948
2498.937172,2960.823768,-9104.533087,689.485948
2498.937500,3108.864956,-9918.759623,1991.848295
2498.937827,2960.823768,-11547.212695,1608.800546
2498.938155,1110.308913,-11325.150913,689.485948
2498.938482,-814.226536,-10955.047942,-1378.971896
2498.938810,-1924.535449,-10066.800811,-3217.601092
2498.939137,-2220.617826,-9548.656652,-2681.334243
2498.939465,-962.267725,-9622.677246,-612.876398
2498.939792,1332.370696,-8956.491898,-153.219100
2498.940120,2146.597232,-9548.656652,1149.143247
2498.940447,1776.494261,-11177.109724,1225.752797
2498.940775,-148.041188,-11103.089130,842.705048
2498.941102,-1036.288319,-9622.677246,-1302.362347
2498.941430,-2146.597232,-8956.491898,-2221.676944
2498.941757,-2220.617826,-8216.285956,-995.924147
2498.942085,-888.247130,-7328.038826,76.609550
2498.942412,74.020594,-7698.141797,1149.143247
2498.942740,1998.556043,-8956.491898,1225.752797
2498.943067,2812.782580,-11103.089130,536.266849
2498.943395,1628.453072,-11843.295072,383.047749
2498.943722,148.041188,-10510.924376,0.000000
2498.944050,0.000000,-9400.615463,-1378.971896
2498.944377,-740.205942,-8438.347739,-919.314598
2498.944705,0.000000,-7994.224174,536.266849
2498.945032,1850.514855,-7994.224174,1149.143247
2498.945360,2516.700203,-8882.471304,1455.581446
2498.945687,2294.638420,-10288.862594,1302.362347
2498.946015,962.267725,-11251.130318,76.609550
2498.946342,-888.247130,-10288.862594,-1378.971896
2498.946670,-1998.556043,-10140.821405,-2681.334243
2498.946997,-1924.535449,-9178.553681,-2451.505594
2498.947325,-888.247130,-7772.162391,-2221.676944
2498.947652,1406.391290,-8586.388927,-153.219100
2498.947980,2886.803174,-9918.759623,1378.971896
2498.948307,2886.803174,-10955.047942,1762.019645
2498.948635,1628.453072,-11695.253884,995.924147
2498.948962,0.000000,-10955.047942,0.000000
2498.949290,-1628.453072,-10436.903782,-2145.067394
2498.949617,-2664.741391,-10066.800811,-2604.724693
2498.949945,-1850.514855,-8808.450710,-1608.800546
2498.950272,814.226536,-9252.574275,-842.705048
2498.950600,2368.659014,-10140.821405,689.485948
2498.950927,2442.679609,-11325.150913,1685.410096
2498.951254,1184.329507,-10732.986159,2221.676944
2498.951582,-296.082377,-10214.842000,229.828649
2498.951909,-2146.597232,-8364.327145,-1532.190996
2498.952237,-2812.782580,-7846.182985,-2068.457845
2498.952564,-1850.514855,-7105.977043,-612.876398
2498.952892,296.082377,-7624.121203,459.657299
2498.953219,2146.597232,-9770.718434,1455.581446
2498.953547,2590.720797,-10807.006753,1532.190996
2498.953874,1406.391290,-11991.336260,229.828649
2498.954202,-370.102971,-11029.068536,-383.047749
2498.954529,-1702.473667,-10362.883188,-2451.505594
2498.954857,-2294.638420,-9474.636058,-2681.334243
2498.955184,-1110.308913,-8068.244768,-1149.143247
2498.955512,1554.432478,-7550.100608,766.095498
2498.955839,2886.803174,-8660.409521,1915.238745
2498.956167,2738.761985,-10510.924376,2374.896044
2498.956494,888.247130,-10584.944971,1072.533697
2498.956822,-1110.308913,-9548.656652,-1149.143247
2498.957149,-2146.597232,-9400.615463,-3140.991542
2498.957477,-2368.659014,-9400.615463,-2911.162892
2498.957804,-1036.288319,-8290.306550,-1225.752797
2498.958132,1702.473667,-8956.491898,306.438199
2498.958459,3997.112087,-10807.006753,1378.971896
2498.958787,4219.173869,-12509.480420,1149.143247
2498.959114,2294.638420,-12583.501014,1302.362347
2498.959442,518.144159,-11843.295072,-612.876398
2498.959769,-1258.350101,-10436.903782,-2374.896044
2498.960097,-2664.741391,-9178.553681,-2374.896044
2498.960424,-1850.514855,-8364.327145,-1915.238745
2498.960752,666.185348,-7994.224174,153.219100
2498.961079,2072.576638,-8586.388927,766.095498
2498.961407,2294.638420,-10510.924376,1608.800546
2498.961734,1258.350101,-11399.171507,1225.752797
2498.962062,0.000000,-10140.821405,0.000000
2498.962389,-1036.288319,-8882.471304,-1608.800546
2498.962717,-888.247130,-8438.347739,-1378.971896
2498.963044,-518.144159,-7179.997637,-153.219100
2498.963372,1258.350101,-7772.162391,1072.533697
2498.963699,2886.803174,-9474.636058,1762.019645
2498.964027,2960.823768,-10510.924376,1685.410096
2498.964354,1776.494261,-11547.212695,766.095498
2498.964682,0.000000,-11769.274478,229.828649
2498.965009,-1258.350101,-9770.718434,-1915.238745
2498.965337,-2294.638420,-7846.182985,-2145.067394
2498.965664,-1628.453072,-7698.141797,-995.924147
2498.965991,444.123565,-7550.100608,536.266849
2498.966319,2146.597232,-8586.388927,1685.410096
2498.966646,2294.638420,-10288.862594,2145.067394
2498.966974,962.267725,-10140.821405,1455.581446
2498.967301,-1332.370696,-9474.636058,-306.438199
2498.967629,-2368.659014,-9918.759623,-2374.896044
2498.967956,-2886.803174,-9474.636058,-2681.334243
2498.968284,-1480.411884,-9030.512492,-2528.115143
2498.968611,592.164754,-8808.450710,-1455.581446
2498.968939,2812.782580,-10807.006753,229.828649
2498.969266,4145.153275,-12953.603985,1378.971896
2498.969594,2590.720797,-12435.459826,919.314598
2498.969921,1702.473667,-11991.336260,-306.438199
2498.970249,-370.102971,-10510.924376,-1685.410096
2498.970576,-1776.494261,-9326.594869,-2451.505594
2498.970904,-1702.473667,-7920.203579,-995.924147
2498.971231,-296.082377,-7550.100608,306.438199
2498.971559,1332.370696,-7846.182985,1225.752797
2498.971886,1850.514855,-9400.615463,2145.067394
2498.972214,1184.329507,-10807.006753,1378.971896
2498.972541,148.041188,-10436.903782,229.828649
2498.972869,-1184.329507,-10140.821405,-1915.238745
2498.973196,-1924.535449,-9844.739029,-1991.848295
2498.973524,-962.267725,-8290.306550,-995.924147
2498.973851,1036.288319,-7179.997637,919.314598
2498.974179,3182.885551,-9104.533087,2374.896044
2498.974506,4293.194464,-11029.068536,2451.505594
2498.974834,2516.700203,-11103.089130,2374.896044
2498.975161,0.000000,-9992.780217,995.924147
2498.975489,-1850.514855,-9326.594869,-919.314598
2498.975816,-3182.885551,-8438.347739,-2221.676944
2498.976144,-2886.803174,-7550.100608,-1302.362347
2498.976471,-740.205942,-6661.853478,-536.266849
2498.976799,1702.473667,-8142.265362,1685.410096
2498.977126,2220.617826,-10658.965565,1915.238745
2498.977454,1184.329507,-11177.109724,1762.019645
2498.977781,-888.247130,-10214.842000,0.000000
2498.978109,-1776.494261,-9696.697840,-2451.505594
2498.978436,-1554.432478,-9622.677246,-3447.429741
2498.978764,-962.267725,-8882.471304,-2681.334243
2498.979091,1702.473667,-8882.471304,-612.876398
2498.979419,3182.885551,-10510.924376,766.095498
2498.979746,3997.112087,-12287.418637,1149.143247
2498.980074,2516.700203,-12583.501014,919.314598
2498.980401,592.164754,-11843.295072,-229.828649
2498.980729,-962.267725,-11473.192101,-2451.505594
2498.981056,-1702.473667,-9992.780217,-2374.896044
2498.981383,-1036.288319,-8660.409521,-1378.971896
2498.981711,296.082377,-7772.162391,153.219100
2498.982038,1332.370696,-8290.306550,1455.581446
2498.982366,1776.494261,-9770.718434,1532.190996
2498.982693,888.247130,-10658.965565,766.095498
2498.983021,-444.123565,-10288.862594,0.000000
2498.983348,-1554.432478,-9548.656652,-2145.067394
2498.983676,-1924.535449,-9326.594869,-2604.724693
2498.984003,-1702.473667,-9104.533087,-1225.752797
2498.984331,444.123565,-8956.491898,306.438199
2498.984658,2886.803174,-9622.677246,1378.971896
2498.984986,3701.029710,-10288.862594,1838.629195
2498.985313,2442.679609,-10881.027347,1532.190996
2498.985641,888.247130,-10436.903782,1608.800546
2498.985968,-1110.308913,-8956.491898,0.000000
2498.986296,-2960.823768,-7402.059420,-1685.410096
2498.986623,-2664.741391,-7105.977043,-612.876398
2498.986951,-1110.308913,-6587.832884,383.047749
2498.987278,814.226536,-7550.100608,919.314598
2498.987606,1480.411884,-9622.677246,1455.581446
2498.987933,1110.308913,-10732.986159,766.095498
2498.988261,-148.041188,-10140.821405,-995.924147
2498.988588,-592.164754,-10066.800811,-2145.067394
2498.988916,-962.267725,-10140.821405,-2757.943793
2498.989243,0.000000,-9326.594869,-1455.581446
2498.989571,1850.514855,-9252.574275,0.000000
2498.989899,3923.091493,-10214.842000,919.314598
2498.990226,3775.050304,-11473.192101,1838.629195
2498.990554,2516.700203,-11769.274478,536.266849
2498.990881,296.082377,-11695.253884,-612.876398
2498.991209,-1110.308913,-10807.006753,-2298.286494
2498.991536,-2368.659014,-9992.780217,-3140.991542
2498.991864,-1776.494261,-9178.553681,-1838.629195
2498.992191,0.000000,-8142.265362,229.828649
2498.992519,1702.473667,-8364.327145,1149.143247
2498.992846,2368.659014,-10288.862594,536.266849
2498.993174,1554.432478,-10807.006753,612.876398
2498.993501,0.000000,-10436.903782,-383.047749
2498.993829,-1184.329507,-10288.862594,-1991.848295
2498.994156,-1628.453072,-9844.739029,-2298.286494
2498.994484,-1480.411884,-8882.471304,-1838.629195
2498.994811,-74.020594,-8142.265362,0.000000
2498.995139,1776.494261,-9548.656652,842.705048
2498.995467,2812.782580,-10066.800811,1532.190996
2498.995794,2442.679609,-11029.068536,1455.581446
2498.996122,962.267725,-10881.027347,1302.362347
2498.996449,-814.226536,-9844.739029,229.828649
2498.996777,-2368.659014,-8068.244768,-919.314598
2498.997104,-2960.823768,-7254.018232,-383.047749
2498.997432,-2146.597232,-6735.874072,306.438199
2498.997759,1110.308913,-7920.203579,459.657299
2498.998087,1702.473667,-9400.615463,995.924147
2498.998414,1184.329507,-10807.006753,536.266849
2498.998742,0.000000,-10658.965565,-459.657299
2498.999069,-1036.288319,-9992.780217,-1608.800546
2498.999397,-1258.350101,-9918.759623,-2451.505594
2498.999724,-222.061783,-9770.718434,-1838.629195
2499.000052,1850.514855,-9104.533087,-842.705048
2499.000379,4293.194464,-9400.615463,919.314598
2499.000707,4515.256246,-11251.130318,1991.848295
2499.001035,2960.823768,-11843.295072,2145.067394
2499.001362,1036.288319,-11843.295072,689.485948
2499.001690,-962.267725,-10510.924376,-1225.752797
2499.002017,-2738.761985,-8734.430116,-2757.943793
2499.002345,-2368.659014,-8956.491898,-2451.505594
2499.002672,-888.247130,-8512.368333,-766.095498
2499.003000,740.205942,-8882.471304,919.314598
2499.003327,1628.453072,-9992.780217,1149.143247
2499.003655,1036.288319,-11103.089130,1072.533697
2499.003982,0.000000,-10658.965565,0.000000
2499.004310,-1110.308913,-9622.677246,-1225.752797
2499.004637,-1850.514855,-9178.553681,-2911.162892
2499.004965,-1554.432478,-9474.636058,-1685.410096
2499.005292,0.000000,-9178.553681,153.219100
2499.005620,1628.453072,-9030.512492,919.314598
2499.005947,2516.700203,-10288.862594,1378.971896
2499.006275,2368.659014,-11325.150913,995.924147
2499.006602,1258.350101,-11177.109724,919.314598
2499.006930,-888.247130,-9918.759623,-153.219100
2499.007258,-1480.411884,-8808.450710,-689.485948
2499.007585,-2294.638420,-7698.141797,-229.828649
2499.007913,-1406.391290,-7254.018232,689.485948
2499.008240,518.144159,-7328.038826,1225.752797
2499.008568,666.185348,-8364.327145,1072.533697
2499.008895,1110.308913,-10436.903782,153.219100
2499.009223,296.082377,-10436.903782,-153.219100
2499.009550,-814.226536,-10510.924376,-1915.238745
2499.009878,-814.226536,-10658.965565,-2681.334243
2499.010205,0.000000,-10732.986159,-2298.286494
2499.010533,1850.514855,-9474.636058,-842.705048
2499.010860,4367.215058,-9622.677246,842.705048
2499.011188,4959.379811,-11177.109724,1608.800546
2499.011515,4663.297435,-12361.439231,1991.848295
2499.011843,2738.761985,-12065.356855,995.924147
2499.012170,222.061783,-10288.862594,-306.438199
2499.012498,-2072.576638,-8808.450710,-1915.238745
2499.012826,-3182.885551,-8290.306550,-2298.286494
2499.013153,-1924.535449,-7846.182985,-1302.362347
2499.013481,-666.185348,-7624.121203,-1532.190996
2499.013808,814.226536,-8808.450710,919.314598
2499.014136,1110.308913,-10807.006753,919.314598
2499.014463,0.000000,-11325.150913,76.609550
2499.014791,-1332.370696,-10510.924376,-1225.752797
2499.015118,-2146.597232,-10066.800811,-2374.896044
2499.015446,-2368.659014,-9030.512492,-1915.238745
2499.015773,0.000000,-8438.347739,-1302.362347
2499.016101,2294.638420,-9178.553681,459.657299
2499.016428,2960.823768,-10510.924376,2298.286494
2499.016756,2590.720797,-10955.047942,2145.067394
2499.017083,888.247130,-10436.903782,1072.533697
2499.017411,-1258.350101,-9918.759623,-383.047749
2499.017738,-2516.700203,-7846.182985,-1072.533697
2499.018066,-2960.823768,-7254.018232,-842.705048
2499.018394,-1850.514855,-6513.812290,612.876398
2499.018721,444.123565,-7179.997637,1455.581446
2499.019049,1776.494261,-8882.471304,1685.410096
2499.019376,1776.494261,-10584.944971,1378.971896
2499.019704,222.061783,-10955.047942,0.000000
2499.020031,0.000000,-10955.047942,-2145.067394
2499.020359,-1258.350101,-11325.150913,-3524.039291
2499.020686,-1036.288319,-10584.944971,-3370.820191
2499.021014,888.247130,-9474.636058,-1378.971896
2499.021341,2960.823768,-9622.677246,229.828649
2499.021669,3997.112087,-11103.089130,1685.410096
2499.021996,3775.050304,-11547.212695,1532.190996
2499.022324,2072.576638,-11029.068536,459.657299
2499.022651,444.123565,-10436.903782,-459.657299
2499.022979,-1702.473667,-8882.471304,-1149.143247
2499.023306,-2442.679609,-8142.265362,-995.924147
2499.023634,-1480.411884,-8068.244768,-153.219100
2499.023961,370.102971,-8068.244768,0.000000
2499.024289,1480.411884,-9252.574275,153.219100
2499.024617,1554.432478,-11251.130318,1225.752797
2499.024944,666.185348,-11843.295072,689.485948
2499.025272,-518.144159,-11547.212695,-1225.752797
2499.025599,-1110.308913,-10807.006753,-2757.943793
2499.025927,-1850.514855,-9844.739029,-2374.896044
2499.026254,-592.164754,-8586.388927,-536.266849
2499.026582,1628.453072,-8216.285956,995.924147
2499.026909,3108.864956,-8808.450710,1915.238745
2499.027237,2516.700203,-9696.697840,2987.772442
2499.027564,1406.391290,-10214.842000,1762.019645
2499.027892,-222.061783,-9622.677246,76.609550
2499.028219,-2294.638420,-8438.347739,-1302.362347
2499.028547,-2368.659014,-8290.306550,-1455.581446
2499.028874,-1554.432478,-7476.080014,0.000000
2499.029202,962.267725,-7772.162391,995.924147
2499.029529,2590.720797,-9918.759623,1685.410096
2499.029857,2812.782580,-11621.233289,919.314598
2499.030185,962.267725,-11547.212695,306.438199
2499.030512,-888.247130,-10436.903782,-1225.752797
2499.030840,-1702.473667,-9992.780217,-2757.943793
2499.031167,-2146.597232,-9400.615463,-3140.991542
2499.031495,148.041188,-8956.491898,-1915.238745
2499.031822,1702.473667,-8956.491898,0.000000
2499.032150,3849.070898,-10584.944971,689.485948
2499.032477,3775.050304,-11177.109724,1838.629195
2499.032805,1406.391290,-11029.068536,1608.800546
2499.033132,-666.185348,-10881.027347,-383.047749
2499.033460,-1998.556043,-10214.842000,-2374.896044
2499.033787,-2516.700203,-8956.491898,-2298.286494
2499.034115,-1998.556043,-8364.327145,-1378.971896
2499.034442,-222.061783,-8438.347739,76.609550
2499.034770,1258.350101,-9548.656652,383.047749
2499.035097,1628.453072,-11325.150913,306.438199
2499.035425,148.041188,-11695.253884,-229.828649
2499.035752,-814.226536,-11177.109724,-1608.800546
2499.036080,-962.267725,-9844.739029,-2757.943793
2499.036408,-1480.411884,-9474.636058,-2374.896044
2499.036735,-518.144159,-8142.265362,229.828649
2499.037063,1258.350101,-7920.203579,1762.019645
2499.037390,2886.803174,-8956.491898,2757.943793
2499.037718,2590.720797,-9030.512492,2834.553343
2499.038045,2072.576638,-9992.780217,1685.410096
2499.038373,148.041188,-9622.677246,76.609550
2499.038700,-1110.308913,-8364.327145,-306.438199
2499.039028,-2368.659014,-7846.182985,-995.924147
2499.039355,-1554.432478,-7772.162391,-536.266849
2499.039683,518.144159,-8068.244768,842.705048
2499.040010,2220.617826,-8956.491898,1378.971896
2499.040338,2368.659014,-11103.089130,1532.190996
2499.040665,1332.370696,-11769.274478,1149.143247
2499.040993,-370.102971,-10436.903782,-995.924147
2499.041320,-2072.576638,-9770.718434,-1915.238745
2499.041648,-2664.741391,-9474.636058,-2451.505594
2499.041976,-1406.391290,-8216.285956,-1915.238745
2499.042303,296.082377,-8438.347739,-689.485948
2499.042631,2146.597232,-9474.636058,612.876398
2499.042958,2886.803174,-10732.986159,1302.362347
2499.043286,2368.659014,-12435.459826,1302.362347
2499.043613,888.247130,-11621.233289,-229.828649
2499.043941,-296.082377,-10881.027347,-1991.848295
2499.044268,-1110.308913,-9696.697840,-2451.505594
2499.044596,-888.247130,-8512.368333,-1225.752797
2499.044923,1036.288319,-8586.388927,0.000000
2499.045251,2368.659014,-9770.718434,1608.800546
2499.045578,1998.556043,-10214.842000,1302.362347
2499.045906,1110.308913,-11251.130318,536.266849
2499.046233,-740.205942,-11029.068536,-1532.190996
2499.046561,-1924.535449,-10362.883188,-2834.553343
2499.046888,-2146.597232,-9326.594869,-2681.334243
2499.047216,-962.267725,-8586.388927,-1225.752797
2499.047544,1702.473667,-8808.450710,1455.581446
2499.047871,3552.988522,-8882.471304,2911.162892
2499.048199,3849.070898,-9474.636058,2987.772442
2499.048526,2442.679609,-10584.944971,2604.724693
2499.048854,888.247130,-10436.903782,459.657299
2499.049181,-1258.350101,-8808.450710,-1532.190996
2499.049509,-2590.720797,-7698.141797,-1991.848295
2499.049836,-1554.432478,-8068.244768,-1225.752797
2499.050164,444.123565,-7402.059420,612.876398
2499.050491,2072.576638,-8734.430116,1608.800546
2499.050819,1924.535449,-11103.089130,1302.362347
2499.051146,962.267725,-11473.192101,536.266849
2499.051474,0.000000,-10362.883188,-1072.533697
2499.051801,-1406.391290,-9622.677246,-1991.848295
2499.052129,-2146.597232,-9178.553681,-1991.848295
2499.052456,-444.123565,-7846.182985,-842.705048
2499.052784,1406.391290,-7254.018232,-383.047749
2499.053111,2368.659014,-9178.553681,919.314598
2499.053439,2664.741391,-11473.192101,1149.143247
2499.053767,1998.556043,-11399.171507,459.657299
2499.054094,148.041188,-11177.109724,-766.095498
2499.054422,-370.102971,-11251.130318,-2451.505594
2499.054749,-592.164754,-9844.739029,-1915.238745
2499.055077,-444.123565,-9178.553681,0.000000
2499.055404,148.041188,-8956.491898,919.314598
2499.055732,1850.514855,-9474.636058,1149.143247
2499.056059,1924.535449,-10436.903782,919.314598
2499.056387,444.123565,-10584.944971,76.609550
2499.056714,-1776.494261,-10066.800811,-766.095498
2499.057042,-2294.638420,-9696.697840,-2145.067394
2499.057369,-2146.597232,-9252.574275,-3140.991542
2499.057697,-1776.494261,-8512.368333,-1608.800546
2499.058024,222.061783,-8586.388927,-383.047749
2499.058352,2368.659014,-10066.800811,1225.752797
2499.058679,3404.947333,-11325.150913,1991.848295
2499.059007,3108.864956,-10955.047942,1302.362347
2499.059335,1406.391290,-10955.047942,1072.533697
2499.059662,-222.061783,-9696.697840,-612.876398
2499.059990,-1850.514855,-8586.388927,-1378.971896
2499.060317,-2294.638420,-7846.182985,-689.485948
2499.060645,-518.144159,-7846.182985,76.609550
2499.060972,222.061783,-8142.265362,306.438199
2499.061300,814.226536,-10066.800811,1225.752797
2499.061627,888.247130,-11251.130318,229.828649
2499.061955,-740.205942,-10140.821405,-842.705048
2499.062282,-1258.350101,-10362.883188,-1991.848295
2499.062610,-2146.597232,-9696.697840,-2374.896044
2499.062937,-888.247130,-8512.368333,-1532.190996
2499.063265,814.226536,-7920.203579,-306.438199
2499.063592,2368.659014,-9030.512492,1455.581446
2499.063920,3627.009116,-10732.986159,2374.896044
2499.064247,2442.679609,-10955.047942,766.095498
2499.064575,666.185348,-11251.130318,-153.219100
2499.064902,-666.185348,-10288.862594,-1608.800546
2499.065230,-1258.350101,-9770.718434,-2911.162892
2499.065558,-1184.329507,-9918.759623,-1608.800546
2499.065885,592.164754,-8956.491898,0.000000
2499.066213,2738.761985,-8956.491898,689.485948
2499.066540,3108.864956,-9844.739029,1455.581446
2499.066868,2072.576638,-11547.212695,1608.800546
2499.067195,296.082377,-10288.862594,76.609550
2499.067523,-1036.288319,-9770.718434,-1685.410096
2499.067850,-2368.659014,-8882.471304,-2451.505594
2499.068178,-2368.659014,-7994.224174,-1685.410096
2499.068505,-518.144159,-8068.244768,-306.438199
2499.068833,1258.350101,-9696.697840,153.219100
2499.069160,2960.823768,-10955.047942,1225.752797
2499.069488,2294.638420,-11399.171507,1302.362347
2499.069815,666.185348,-10881.027347,229.828649
2499.070143,-296.082377,-10066.800811,-919.314598
2499.070470,-1110.308913,-9474.636058,-1378.971896
2499.070798,-1776.494261,-8290.306550,-995.924147
2499.071126,-296.082377,-8068.244768,689.485948
2499.071453,1332.370696,-8068.244768,1455.581446
2499.071781,2072.576638,-9770.718434,1455.581446
2499.072108,1332.370696,-10881.027347,1302.362347
2499.072436,-370.102971,-10955.047942,0.000000
2499.072763,-1628.453072,-9770.718434,-1762.019645
2499.073091,-2146.597232,-9548.656652,-2604.724693
2499.073418,-1850.514855,-8586.388927,-1991.848295
2499.073746,0.000000,-7994.224174,0.000000
2499.074073,2442.679609,-9030.512492,1225.752797
2499.074401,3478.967927,-10584.944971,2068.457845
2499.074728,3034.844362,-11251.130318,1685.410096
2499.075056,1554.432478,-11177.109724,536.266849
2499.075383,0.000000,-10288.862594,-689.485948
2499.075711,-888.247130,-10436.903782,-1685.410096
2499.076038,-1628.453072,-9400.615463,-2068.457845
2499.076366,-666.185348,-8142.265362,-536.266849
2499.076694,1776.494261,-9252.574275,0.000000
2499.077021,2960.823768,-10955.047942,919.314598
2499.077349,2368.659014,-11621.233289,1532.190996
2499.077676,888.247130,-11325.150913,536.266849
2499.078004,-666.185348,-9992.780217,-1149.143247
2499.078331,-2590.720797,-9400.615463,-2451.505594
2499.078659,-3108.864956,-8512.368333,-1608.800546
2499.078986,-1998.556043,-7105.977043,-459.657299
2499.079314,0.000000,-7994.224174,459.657299
2499.079641,962.267725,-10288.862594,1608.800546
2499.079969,666.185348,-11029.068536,1302.362347
2499.080296,-1036.288319,-10955.047942,76.609550
2499.080624,-2294.638420,-10584.944971,-1608.800546
2499.080951,-2590.720797,-9992.780217,-2834.553343
2499.081279,-2368.659014,-9178.553681,-2145.067394
2499.081606,-296.082377,-8142.265362,76.609550
2499.081934,2220.617826,-8438.347739,2374.896044
2499.082261,2442.679609,-8956.491898,3524.039291
2499.082589,1554.432478,-10214.842000,2451.505594
2499.082917,-518.144159,-10288.862594,536.266849
2499.083244,-1850.514855,-9252.574275,-1838.629195
2499.083572,-2442.679609,-9104.533087,-3294.210641
2499.083899,-1998.556043,-9252.574275,-2451.505594
2499.084227,148.041188,-8290.306550,0.000000
2499.084554,2368.659014,-8512.368333,689.485948
2499.084882,4663.297435,-10732.986159,2221.676944
2499.085209,3997.112087,-11695.253884,1838.629195
2499.085537,2368.659014,-11547.212695,995.924147
2499.085864,888.247130,-11103.089130,-842.705048
2499.086192,-592.164754,-10066.800811,-2145.067394
2499.086519,-1554.432478,-8956.491898,-995.924147
2499.086847,-740.205942,-7920.203579,-229.828649
2499.087175,1702.473667,-8364.327145,-995.924147
2499.087502,2294.638420,-10510.924376,0.000000
2499.087830,2368.659014,-11843.295072,229.828649
2499.088157,1184.329507,-10881.027347,306.438199
2499.088485,0.000000,-9400.615463,-1149.143247
2499.088812,-1480.411884,-8882.471304,-1608.800546
2499.089140,-1776.494261,-7920.203579,-1225.752797
2499.089467,0.000000,-6883.915261,383.047749
2499.089795,2368.659014,-8216.285956,766.095498
2499.090122,3627.009116,-9770.718434,1838.629195
2499.090450,2812.782580,-11325.150913,1838.629195
2499.090778,1184.329507,-11991.336260,536.266849
2499.091105,-370.102971,-12139.377449,-1991.848295
2499.091433,-2368.659014,-9696.697840,-3677.258390
2499.091760,-2516.700203,-8956.491898,-2298.286494
2499.092088,-1184.329507,-8068.244768,-766.095498
2499.092415,1480.411884,-7994.224174,919.314598
2499.092743,2738.761985,-9252.574275,2911.162892
2499.093070,2072.576638,-10288.862594,2987.772442
2499.093398,592.164754,-9770.718434,1685.410096
2499.093725,-1184.329507,-8586.388927,-1072.533697
2499.094053,-2146.597232,-9178.553681,-3064.381992
2499.094381,-2146.597232,-9474.636058,-2911.162892
2499.094708,-740.205942,-9030.512492,-995.924147
2499.095036,1850.514855,-9622.677246,536.266849
2499.095363,3552.988522,-10955.047942,1455.581446
2499.095691,3256.906145,-12213.398043,1149.143247
2499.096018,1184.329507,-12287.418637,383.047749
2499.096346,222.061783,-11325.150913,-1302.362347
2499.096673,-1924.535449,-9622.677246,-2374.896044
2499.097001,-2368.659014,-8438.347739,-1608.800546
2499.097328,-1628.453072,-7624.121203,0.000000
2499.097656,0.000000,-7476.080014,1302.362347
2499.097984,370.102971,-8734.430116,1685.410096
2499.098311,0.000000,-9696.697840,1072.533697
2499.098639,-740.205942,-10584.944971,-842.705048
2499.098966,-1702.473667,-10584.944971,-2374.896044
2499.099294,-2590.720797,-9918.759623,-2604.724693
2499.099621,-2220.617826,-9696.697840,-1225.752797
2499.099949,0.000000,-9104.533087,76.609550
2499.100276,2368.659014,-9030.512492,306.438199
2499.100604,3182.885551,-9844.739029,1532.190996
2499.100931,2738.761985,-10510.924376,2145.067394
2499.101259,1480.411884,-11029.068536,919.314598
2499.101587,-222.061783,-10510.924376,-1149.143247
2499.101914,-1776.494261,-9252.574275,-2298.286494
2499.102242,-2442.679609,-8290.306550,-1532.190996
2499.102569,-740.205942,-8142.265362,306.438199
2499.102897,1184.329507,-8068.244768,689.485948
2499.103224,3034.844362,-8956.491898,1991.848295
2499.103552,2886.803174,-10066.800811,1608.800546
2499.103879,1406.391290,-10658.965565,842.705048
2499.104207,74.020594,-9400.615463,-766.095498
2499.104534,-592.164754,-9474.636058,-2221.676944
2499.104862,-962.267725,-9474.636058,-1838.629195
2499.105190,370.102971,-8068.244768,-1149.143247
2499.105517,3108.864956,-8956.491898,153.219100
2499.105845,4219.173869,-10955.047942,536.266849
2499.106172,4737.318029,-12213.398043,1149.143247
2499.106500,2590.720797,-12583.501014,459.657299
2499.106827,74.020594,-11103.089130,-229.828649
2499.107155,-1036.288319,-10214.842000,-1608.800546
2499.107482,-1332.370696,-9178.553681,-1378.971896
2499.107810,-962.267725,-7994.224174,-1225.752797
2499.108137,666.185348,-8438.347739,153.219100
2499.108465,1184.329507,-9252.574275,1302.362347
2499.108793,888.247130,-10362.883188,1838.629195
2499.109120,0.000000,-10584.944971,0.000000
2499.109448,-1332.370696,-9622.677246,-1532.190996
2499.109775,-2368.659014,-9770.718434,-2757.943793
2499.110103,-1850.514855,-9474.636058,-2221.676944
2499.110430,-222.061783,-9030.512492,-306.438199
2499.110758,1776.494261,-9030.512492,1149.143247
2499.111085,2960.823768,-10140.821405,2145.067394
2499.111413,2590.720797,-11103.089130,2068.457845
2499.111741,518.144159,-11325.150913,1455.581446
2499.112068,-1110.308913,-10214.842000,-995.924147
2499.112396,-2516.700203,-8734.430116,-2221.676944
2499.112723,-3034.844362,-7772.162391,-689.485948
2499.113051,-2146.597232,-7402.059420,0.000000
2499.113378,0.000000,-7402.059420,919.314598
2499.113706,1480.411884,-9104.533087,1378.971896
2499.114033,1480.411884,-10807.006753,1149.143247
2499.114361,592.164754,-10807.006753,383.047749
2499.114688,-1110.308913,-9992.780217,-995.924147
2499.115016,-1702.473667,-9474.636058,-2757.943793
2499.115344,-1554.432478,-9696.697840,-2298.286494
2499.115671,0.000000,-8882.471304,-995.924147
2499.115999,1924.535449,-8586.388927,0.000000
2499.116326,3108.864956,-9992.780217,766.095498
2499.116654,3330.926739,-11399.171507,919.314598
2499.116981,1406.391290,-11621.233289,1149.143247
2499.117309,592.164754,-10807.006753,-919.314598
2499.117636,-592.164754,-11177.109724,-1915.238745
2499.117964,-1406.391290,-10066.800811,-1455.581446
2499.118291,-962.267725,-8660.409521,-229.828649
2499.118619,518.144159,-8142.265362,229.828649
2499.118947,1702.473667,-8808.450710,1225.752797
2499.119274,1850.514855,-10288.862594,842.705048
2499.119602,592.164754,-10436.903782,229.828649
2499.119929,-666.185348,-9474.636058,-1072.533697
2499.120257,-962.267725,-9696.697840,-2528.115143
2499.120584,-1036.288319,-9770.718434,-2298.286494
2499.120912,0.000000,-8808.450710,-459.657299
2499.121239,1998.556043,-8660.409521,1149.143247
2499.121567,4219.173869,-9770.718434,2298.286494
2499.121894,3849.070898,-10881.027347,2221.676944
2499.122222,2368.659014,-11325.150913,1532.190996
2499.122550,518.144159,-10140.821405,153.219100
2499.122877,-1036.288319,-9474.636058,-995.924147
2499.123205,-2294.638420,-8142.265362,-1225.752797
2499.123532,-1998.556043,-7402.059420,-536.266849
2499.123860,-296.082377,-7624.121203,919.314598
2499.124187,2516.700203,-8808.450710,1378.971896
2499.124515,2590.720797,-10362.883188,1455.581446
2499.124842,1406.391290,-10955.047942,842.705048
2499.125170,444.123565,-10510.924376,-1455.581446
2499.125497,-592.164754,-10066.800811,-2987.772442
2499.125825,-888.247130,-9918.759623,-2451.505594
2499.126153,-592.164754,-8734.430116,-1225.752797
2499.126480,1110.308913,-8438.347739,0.000000
2499.126808,3997.112087,-10584.944971,689.485948
2499.127135,3775.050304,-11843.295072,1608.800546
2499.127463,1628.453072,-11473.192101,995.924147
2499.127790,0.000000,-11473.192101,-153.219100
2499.128118,-1702.473667,-10436.903782,-2068.457845
2499.128445,-3108.864956,-9474.636058,-2298.286494
2499.128773,-3034.844362,-8512.368333,-1072.533697
2499.129100,-1480.411884,-7920.203579,153.219100
2499.129428,592.164754,-8438.347739,1072.533697
2499.129756,1406.391290,-9992.780217,995.924147
2499.130083,148.041188,-10732.986159,766.095498
2499.130411,-962.267725,-10288.862594,-306.438199
2499.130738,-1924.535449,-9252.574275,-2451.505594
2499.131066,-2812.782580,-8734.430116,-2757.943793
2499.131393,-1480.411884,-8734.430116,-919.314598
2499.131721,1036.288319,-8290.306550,766.095498
2499.132048,2812.782580,-9622.677246,1991.848295
2499.132376,3330.926739,-11399.171507,1838.629195
2499.132703,1850.514855,-11325.150913,1149.143247
2499.133031,-370.102971,-10436.903782,-536.266849
2499.133359,-2146.597232,-8882.471304,-766.095498
2499.133686,-2812.782580,-7846.182985,-1915.238745
2499.134014,-2664.741391,-7698.141797,-459.657299
2499.134341,-740.205942,-7476.080014,919.314598
2499.134669,1258.350101,-8364.327145,1302.362347
2499.134996,1480.411884,-10066.800811,1608.800546
2499.135324,888.247130,-10807.006753,-536.266849
2499.135651,-1110.308913,-10362.883188,-1608.800546
2499.135979,-1776.494261,-10436.903782,-3600.648841
2499.136306,-1480.411884,-10732.986159,-3677.258390
2499.136634,222.061783,-9918.759623,-1915.238745
2499.136962,2516.700203,-9474.636058,229.828649
2499.137289,4367.215058,-10362.883188,2068.457845
2499.137617,5181.441594,-11399.171507,2145.067394
2499.137944,3182.885551,-11843.295072,1608.800546
2499.138272,592.164754,-11029.068536,76.609550
2499.138599,-740.205942,-9770.718434,-1532.190996
2499.138927,-1776.494261,-8882.471304,-2145.067394
2499.139254,-2368.659014,-7698.141797,-919.314598
2499.139582,-666.185348,-7994.224174,0.000000
2499.139910,1998.556043,-8734.430116,459.657299
2499.140237,2516.700203,-9696.697840,1149.143247
2499.140565,2072.576638,-10955.047942,689.485948
2499.140892,1258.350101,-10955.047942,-153.219100
2499.141220,222.061783,-10066.800811,-1685.410096
2499.141547,-148.041188,-9696.697840,-1608.800546
2499.141875,-296.082377,-8734.430116,-612.876398
2499.142202,1406.391290,-7994.224174,1072.533697
2499.142530,3627.009116,-9474.636058,1072.533697
2499.142857,3997.112087,-11325.150913,1378.971896
2499.143185,2590.720797,-11325.150913,766.095498
2499.143513,740.205942,-11029.068536,0.000000
2499.143840,-1332.370696,-9104.533087,-919.314598
2499.144168,-2590.720797,-8512.368333,-2145.067394
2499.144495,-2664.741391,-7105.977043,-842.705048
2499.144823,-1406.391290,-6365.771101,1532.190996
2499.145150,370.102971,-7698.141797,1455.581446
2499.145478,1036.288319,-9622.677246,1532.190996
2499.145805,0.000000,-10658.965565,612.876398
2499.146133,-1702.473667,-10658.965565,-995.924147
2499.146460,-2294.638420,-10510.924376,-3140.991542
2499.146788,-2220.617826,-10955.047942,-3983.696590
2499.147116,-1110.308913,-10362.883188,-2451.505594
2499.147443,1406.391290,-9844.739029,-536.266849
2499.147771,3256.906145,-10362.883188,1302.362347
2499.148098,4071.132681,-11251.130318,2451.505594
2499.148426,2368.659014,-10955.047942,1685.410096
2499.148753,518.144159,-10140.821405,919.314598
2499.149081,-1184.329507,-9326.594869,-766.095498
2499.149408,-2368.659014,-8734.430116,-1838.629195
2499.149736,-3478.967927,-8216.285956,-995.924147
2499.150063,-2072.576638,-8068.244768,-229.828649
2499.150391,0.000000,-8364.327145,-306.438199
2499.150719,888.247130,-9844.739029,153.219100
2499.151046,888.247130,-11473.192101,76.609550
2499.151374,0.000000,-11695.253884,-229.828649
2499.151701,0.000000,-10362.883188,-1838.629195
2499.152029,-888.247130,-10066.800811,-2145.067394
2499.152356,-740.205942,-9474.636058,-842.705048
2499.152684,888.247130,-8142.265362,536.266849
2499.153011,2516.700203,-9030.512492,1378.971896
2499.153339,3478.967927,-10362.883188,1072.533697
2499.153666,2368.659014,-10658.965565,766.095498
2499.153994,592.164754,-9474.636058,995.924147
2499.154322,-1332.370696,-9474.636058,-919.314598
2499.154649,-1850.514855,-9178.553681,-1762.019645
2499.154977,-1850.514855,-8364.327145,-612.876398
2499.155304,-148.041188,-7920.203579,383.047749
2499.155632,2442.679609,-8512.368333,1762.019645
2499.155959,3404.947333,-9992.780217,1072.533697
2499.156287,1628.453072,-10362.883188,1149.143247
2499.156614,0.000000,-11325.150913,-383.047749
2499.156942,-740.205942,-10955.047942,-2834.553343
2499.157269,-1480.411884,-10436.903782,-3830.477490
2499.157597,-1332.370696,-9918.759623,-2528.115143
2499.157925,1332.370696,-9252.574275,-612.876398
2499.158252,3627.009116,-8956.491898,536.266849
2499.158580,4737.318029,-10881.027347,2145.067394
2499.158907,3552.988522,-11325.150913,2374.896044
2499.159235,2368.659014,-11177.109724,1378.971896
2499.159562,666.185348,-10288.862594,0.000000
2499.159890,-1184.329507,-8808.450710,-1149.143247
2499.160217,-1924.535449,-7920.203579,-1072.533697
2499.160545,-1110.308913,-7994.224174,229.828649
2499.160872,296.082377,-8290.306550,0.000000
2499.161200,1184.329507,-9992.780217,536.266849
2499.161528,814.226536,-11399.171507,0.000000
2499.161855,-296.082377,-11251.130318,-1149.143247
2499.162183,-1332.370696,-10066.800811,-1838.629195
2499.162510,-1776.494261,-10066.800811,-2221.676944
2499.162838,-1998.556043,-8734.430116,-536.266849
2499.163165,-592.164754,-8290.306550,1685.410096
2499.163493,962.267725,-8512.368333,1225.752797
2499.163820,2220.617826,-9992.780217,1378.971896
2499.164148,1628.453072,-10658.965565,995.924147
2499.164476,-518.144159,-10288.862594,459.657299
2499.164803,-2368.659014,-9548.656652,-766.095498
2499.165131,-2812.782580,-8734.430116,-2068.457845
2499.165458,-2368.659014,-8290.306550,-1838.629195
2499.165786,-1110.308913,-8068.244768,-689.485948
2499.166113,1036.288319,-8734.430116,612.876398
2499.166441,2072.576638,-9918.759623,1225.752797
2499.166768,1110.308913,-11399.171507,919.314598
2499.167096,0.000000,-11399.171507,153.219100
2499.167423,-962.267725,-9770.718434,-1608.800546
2499.167751,-814.226536,-10214.842000,-2987.772442
2499.168079,-1036.288319,-10436.903782,-2451.505594
2499.168406,296.082377,-9104.533087,-919.314598
2499.168734,2294.638420,-9178.553681,306.438199
2499.169061,3256.906145,-10214.842000,1455.581446
2499.169389,2812.782580,-11177.109724,1915.238745
2499.169716,1332.370696,-10955.047942,1072.533697
2499.170044,962.267725,-10955.047942,-306.438199
2499.170371,-370.102971,-10066.800811,-1302.362347
2499.170699,-1036.288319,-8512.368333,-919.314598
2499.171026,0.000000,-8364.327145,0.000000
2499.171354,1406.391290,-8734.430116,689.485948
2499.171682,1924.535449,-8956.491898,1225.752797
2499.172009,1110.308913,-9844.739029,689.485948
2499.172337,0.000000,-9844.739029,383.047749
2499.172664,-1258.350101,-9548.656652,-1149.143247
2499.172992,-1628.453072,-9400.615463,-2451.505594
2499.173319,-1924.535449,-9104.533087,-1149.143247
2499.173647,0.000000,-9178.553681,0.000000
2499.173974,2220.617826,-8956.491898,1149.143247
2499.174302,2960.823768,-9918.759623,1838.629195
2499.174629,2886.803174,-10436.903782,2145.067394
2499.174957,962.267725,-9992.780217,842.705048
2499.175285,-592.164754,-9474.636058,-229.828649
2499.175612,-1998.556043,-8734.430116,-1302.362347
2499.175940,-2146.597232,-8438.347739,-1149.143247
2499.176267,-962.267725,-8586.388927,0.000000
2499.176595,1554.432478,-8882.471304,76.609550
2499.176922,2294.638420,-9770.718434,766.095498
2499.177250,2072.576638,-11621.233289,229.828649
2499.177577,592.164754,-11843.295072,-306.438199
2499.177905,-518.144159,-10955.047942,-1915.238745
2499.178232,-1184.329507,-9918.759623,-2834.553343
2499.178560,-1184.329507,-9030.512492,-2221.676944
2499.178888,222.061783,-8290.306550,0.000000
2499.179215,2072.576638,-8956.491898,842.705048
2499.179543,3404.947333,-10214.842000,1455.581446
2499.179870,2516.700203,-10584.944971,1608.800546
2499.180198,814.226536,-10881.027347,536.266849
2499.180525,-222.061783,-11029.068536,-1455.581446
2499.180853,-888.247130,-10066.800811,-2374.896044
2499.181180,-1776.494261,-9770.718434,-2145.067394
2499.181508,-740.205942,-9030.512492,0.000000
2499.181835,962.267725,-8660.409521,766.095498
2499.182163,1924.535449,-9030.512492,1378.971896
2499.182491,1110.308913,-10362.883188,1378.971896
2499.182818,-222.061783,-10362.883188,459.657299
2499.183146,-1628.453072,-9252.574275,-995.924147
2499.183473,-2146.597232,-9400.615463,-2911.162892
2499.183801,-2886.803174,-8438.347739,-2374.896044
2499.184128,-1406.391290,-8142.265362,0.000000
2499.184456,1036.288319,-8660.409521,1378.971896
2499.184783,2294.638420,-9844.739029,1532.190996
2499.185111,2368.659014,-10436.903782,1302.362347
2499.185438,1332.370696,-10807.006753,153.219100
2499.185766,0.000000,-10140.821405,-459.657299
2499.186094,-1184.329507,-9178.553681,-995.924147
2499.186421,-1258.350101,-7698.141797,-459.657299
2499.186749,-296.082377,-7772.162391,612.876398
2499.187076,1628.453072,-8586.388927,1225.752797
2499.187404,2516.700203,-9696.697840,1149.143247
2499.187731,1850.514855,-11103.089130,766.095498
2499.188059,148.041188,-11399.171507,-995.924147
2499.188387,-1184.329507,-10436.903782,-1762.019645
2499.188714,-2072.576638,-10214.842000,-2987.772442
2499.189042,-1924.535449,-9992.780217,-2528.115143
2499.189369,222.061783,-9178.553681,-919.314598
2499.189697,2960.823768,-9104.533087,459.657299
2499.190025,4145.153275,-10066.800811,1608.800546
2499.190352,3256.906145,-10436.903782,1532.190996
2499.190680,2220.617826,-10807.006753,842.705048
2499.191007,-296.082377,-10658.965565,-766.095498
2499.191335,-1332.370696,-10584.944971,-2298.286494
2499.191662,-1554.432478,-10066.800811,-2604.724693
2499.191990,-1258.350101,-9474.636058,-1149.143247
2499.192318,666.185348,-9178.553681,-153.219100
2499.192645,2738.761985,-10140.821405,1225.752797
2499.192973,2368.659014,-11103.089130,1608.800546
2499.193300,888.247130,-10510.924376,689.485948
2499.193628,-1036.288319,-9474.636058,-383.047749
2499.193956,-2368.659014,-8068.244768,-1302.362347
2499.194283,-2738.761985,-7624.121203,-1378.971896
2499.194611,-1998.556043,-7476.080014,0.000000
2499.194938,-222.061783,-7105.977043,1532.190996
2499.195266,1998.556043,-8956.491898,1685.410096
2499.195594,3182.885551,-11399.171507,459.657299
2499.195921,1776.494261,-11325.150913,459.657299
2499.196249,0.000000,-10214.842000,-689.485948
2499.196576,-1110.308913,-9622.677246,-1532.190996
2499.196904,-1406.391290,-8438.347739,-1072.533697
2499.197231,0.000000,-7698.141797,-459.657299
2499.197559,1554.432478,-8216.285956,612.876398
2499.197887,2516.700203,-8364.327145,1762.019645
2499.198214,2072.576638,-10955.047942,1302.362347
2499.198542,222.061783,-11621.233289,-229.828649
2499.198869,-1850.514855,-10436.903782,-2068.457845
2499.199197,-2442.679609,-9992.780217,-3524.039291
2499.199525,-2146.597232,-9918.759623,-2987.772442
2499.199852,-814.226536,-9104.533087,-1072.533697
2499.200180,2368.659014,-9030.512492,459.657299
2499.200507,3478.967927,-10214.842000,1685.410096
2499.200835,2738.761985,-11325.150913,1762.019645
2499.201163,1406.391290,-11473.192101,536.266849
2499.201490,-888.247130,-10807.006753,-1225.752797
2499.201818,-1554.432478,-10288.862594,-1608.800546
2499.202145,-2146.597232,-9992.780217,-2987.772442
2499.202473,-1406.391290,-9696.697840,-995.924147
2499.202800,370.102971,-9326.594869,306.438199
2499.203128,1776.494261,-9548.656652,1072.533697
2499.203456,1850.514855,-10881.027347,1302.362347
2499.203783,962.267725,-10658.965565,1225.752797
2499.204111,-518.144159,-9474.636058,-306.438199
2499.204438,-1924.535449,-7920.203579,-995.924147
2499.204766,-1850.514855,-7698.141797,-153.219100
2499.205094,-666.185348,-7846.182985,766.095498
2499.205421,518.144159,-7476.080014,1915.238745
2499.205749,2146.597232,-9400.615463,2068.457845
2499.206076,3108.864956,-10436.903782,689.485948
2499.206404,1776.494261,-10436.903782,612.876398
2499.206732,518.144159,-10436.903782,-612.876398
2499.207059,-222.061783,-9844.739029,-1225.752797
2499.207387,-888.247130,-8956.491898,-1225.752797
2499.207714,0.000000,-8660.409521,76.609550
2499.208042,1776.494261,-8660.409521,1302.362347
2499.208369,3256.906145,-8734.430116,995.924147
2499.208697,3552.988522,-10214.842000,1685.410096
2499.209025,1480.411884,-10955.047942,383.047749
2499.209352,-740.205942,-10066.800811,-1608.800546
2499.209680,-1702.473667,-9622.677246,-3064.381992
2499.210007,-1998.556043,-9992.780217,-3217.601092
2499.210335,-1184.329507,-9400.615463,-1991.848295
2499.210663,1258.350101,-8364.327145,-536.266849
2499.210990,3478.967927,-9548.656652,919.314598
2499.211318,2960.823768,-11399.171507,1302.362347
2499.211645,2146.597232,-11843.295072,995.924147
2499.211973,740.205942,-11029.068536,-306.438199
2499.212301,-518.144159,-11103.089130,-1838.629195
2499.212628,-1480.411884,-10214.842000,-2604.724693
2499.212956,-1480.411884,-9252.574275,-1302.362347
2499.213283,0.000000,-8808.450710,0.000000
2499.213611,1110.308913,-9622.677246,153.219100
2499.213939,1258.350101,-10066.800811,766.095498
2499.214266,296.082377,-10436.903782,689.485948
2499.214594,-1184.329507,-9474.636058,76.609550
2499.214921,-2072.576638,-8586.388927,-1072.533697
2499.215249,-2442.679609,-8512.368333,-919.314598
2499.215576,-2072.576638,-7772.162391,-919.314598
2499.215904,-370.102971,-7328.038826,766.095498
2499.216232,1258.350101,-8216.285956,2145.067394
2499.216559,2072.576638,-10214.842000,1532.190996
2499.216887,962.267725,-11251.130318,842.705048
2499.217214,-222.061783,-10732.986159,-306.438199
2499.217542,-1406.391290,-9918.759623,-1762.019645
2499.217870,-1850.514855,-9474.636058,-1762.019645
2499.218197,-1480.411884,-9030.512492,-919.314598
2499.218525,0.000000,-7772.162391,229.828649
2499.218852,2072.576638,-8586.388927,995.924147
2499.219180,2294.638420,-9844.739029,1762.019645
2499.219508,1110.308913,-10066.800811,1608.800546
2499.219835,-444.123565,-9474.636058,-153.219100
2499.220163,-1480.411884,-8734.430116,-2374.896044
2499.220490,-2220.617826,-9770.718434,-2987.772442
2499.220818,-1184.329507,-9400.615463,-2145.067394
2499.221145,1036.288319,-9252.574275,-689.485948
2499.221473,2886.803174,-10510.924376,306.438199
2499.221801,3701.029710,-11991.336260,1072.533697
2499.222128,2516.700203,-12435.459826,0.000000
2499.222456,1480.411884,-11843.295072,-229.828649
2499.222783,74.020594,-11103.089130,-2451.505594
2499.223111,-1258.350101,-10066.800811,-1915.238745
2499.223439,-1258.350101,-9030.512492,-1225.752797
2499.223766,-148.041188,-8142.265362,153.219100
2499.224094,1184.329507,-8216.285956,995.924147
2499.224421,1924.535449,-9474.636058,1762.019645
2499.224749,1110.308913,-10288.862594,1378.971896
2499.225077,74.020594,-9474.636058,-306.438199
2499.225404,-592.164754,-9474.636058,-1302.362347
2499.225732,-1554.432478,-9178.553681,-1685.410096
2499.226059,-1258.350101,-8438.347739,-383.047749
2499.226387,814.226536,-7920.203579,919.314598
2499.226714,2664.741391,-8882.471304,1838.629195
2499.227042,2812.782580,-10288.862594,2451.505594
2499.227370,2812.782580,-11251.130318,1225.752797
2499.227697,444.123565,-10066.800811,842.705048
2499.228025,-1480.411884,-10140.821405,-612.876398
2499.228352,-2664.741391,-9104.533087,-1378.971896
2499.228680,-2590.720797,-7846.182985,-1378.971896
2499.229008,-1110.308913,-7550.100608,-995.924147
2499.229335,1258.350101,-8586.388927,459.657299
2499.229663,2220.617826,-10214.842000,1378.971896
2499.229990,1702.473667,-10658.965565,1455.581446
2499.230318,148.041188,-9992.780217,-153.219100
2499.230646,-1184.329507,-9622.677246,-2451.505594
2499.230973,-1924.535449,-10140.821405,-2911.162892
2499.231301,-1702.473667,-9770.718434,-1838.629195
2499.231628,1110.308913,-8956.491898,-919.314598
2499.231956,2960.823768,-10140.821405,536.266849
2499.232283,3627.009116,-11399.171507,1225.752797
2499.232611,2368.659014,-12213.398043,919.314598
2499.232939,1110.308913,-12213.398043,-306.438199
2499.233266,0.000000,-11621.233289,-1838.629195
2499.233594,-1480.411884,-10140.821405,-2451.505594
2499.233921,-1850.514855,-8364.327145,-229.828649
2499.234249,-222.061783,-8216.285956,612.876398
2499.234577,740.205942,-7772.162391,1991.848295
2499.234904,1628.453072,-9178.553681,2451.505594
2499.235232,1110.308913,-9548.656652,1532.190996
2499.235559,-518.144159,-10140.821405,-229.828649
2499.235887,-1850.514855,-9548.656652,-1685.410096
2499.236215,-2220.617826,-9252.574275,-2451.505594
2499.236542,-2072.576638,-8660.409521,-1072.533697
2499.236870,740.205942,-8586.388927,306.438199
2499.237197,2590.720797,-9178.553681,1991.848295
2499.237525,3627.009116,-10214.842000,2221.676944
2499.237852,2590.720797,-10362.883188,1991.848295
2499.238180,666.185348,-9992.780217,842.705048
2499.238508,-1480.411884,-9178.553681,229.828649
2499.238835,-2294.638420,-8734.430116,-1608.800546
2499.239163,-2442.679609,-7698.141797,-995.924147
2499.239490,-592.164754,-7994.224174,0.000000
2499.239818,1258.350101,-8956.491898,842.705048
2499.240146,2294.638420,-10658.965565,919.314598
2499.240473,1332.370696,-11251.130318,842.705048
2499.240801,-444.123565,-10362.883188,-383.047749
2499.241128,-1110.308913,-9770.718434,-1991.848295
2499.241456,-1332.370696,-10288.862594,-3064.381992
2499.241784,-1184.329507,-9474.636058,-1915.238745
2499.242111,1184.329507,-9252.574275,-766.095498
2499.242439,3034.844362,-10140.821405,383.047749
2499.242766,3775.050304,-11695.253884,842.705048
2499.243094,2590.720797,-11843.295072,612.876398
2499.243421,370.102971,-11473.192101,-459.657299
2499.243749,-296.082377,-11843.295072,-1991.848295
2499.244077,-1110.308913,-10658.965565,-2681.334243
2499.244404,-1036.288319,-9696.697840,-1838.629195
2499.244732,-370.102971,-9252.574275,689.485948
2499.245059,1036.288319,-8216.285956,1685.410096
2499.245387,2294.638420,-8660.409521,1991.848295
2499.245715,1110.308913,-9918.759623,1225.752797
2499.246042,-814.226536,-9844.739029,383.047749
2499.246370,-1850.514855,-9104.533087,-1915.238745
2499.246697,-2368.659014,-8882.471304,-2451.505594
2499.247025,-2146.597232,-8438.347739,-1455.581446
2499.247353,0.000000,-7994.224174,153.219100
2499.247680,1850.514855,-8882.471304,1685.410096
2499.248008,3034.844362,-10214.842000,2068.457845
2499.248335,3849.070898,-11399.171507,1149.143247
2499.248663,1480.411884,-11029.068536,229.828649
2499.248990,-1110.308913,-9770.718434,0.000000
2499.249318,-2220.617826,-8586.388927,-459.657299
2499.249646,-3034.844362,-7254.018232,-383.047749
2499.249973,-1998.556043,-6957.935855,306.438199
2499.250301,370.102971,-7994.224174,1378.971896
2499.250628,1406.391290,-9326.594869,1072.533697
2499.250956,592.164754,-10584.944971,306.438199
2499.251284,-222.061783,-10584.944971,-995.924147
2499.251611,-1036.288319,-10140.821405,-2374.896044
2499.251939,-962.267725,-10140.821405,-2681.334243
2499.252266,148.041188,-9844.739029,-1991.848295
2499.252594,1924.535449,-9696.697840,459.657299
2499.252922,3701.029710,-9770.718434,612.876398
2499.253249,4589.276840,-11251.130318,1072.533697
2499.253577,3034.844362,-11917.315666,842.705048
2499.253904,962.267725,-11769.274478,0.000000
2499.254232,-666.185348,-11029.068536,-1915.238745
2499.254559,-2072.576638,-10510.924376,-3064.381992
2499.254887,-1998.556043,-10881.027347,-3064.381992
2499.255215,-1036.288319,-8586.388927,-919.314598
2499.255542,888.247130,-8882.471304,1072.533697
2499.255870,2738.761985,-9918.759623,1532.190996
2499.256197,2516.700203,-10510.924376,995.924147
2499.256525,592.164754,-10214.842000,536.266849
2499.256853,-592.164754,-9178.553681,-1225.752797
2499.257180,-962.267725,-8956.491898,-2068.457845
2499.257508,-1702.473667,-8956.491898,-1915.238745
2499.257835,-666.185348,-8660.409521,-306.438199
2499.258163,1776.494261,-9104.533087,919.314598
2499.258491,3627.009116,-10584.944971,1149.143247
2499.258818,3256.906145,-11399.171507,1302.362347
2499.259146,1332.370696,-10881.027347,1149.143247
2499.259473,-296.082377,-9474.636058,0.000000
2499.259801,-1776.494261,-8142.265362,-1225.752797
2499.260128,-2442.679609,-7105.977043,-919.314598
2499.260456,-1850.514855,-6217.729913,1072.533697
2499.260784,0.000000,-6513.812290,2068.457845
2499.261111,1406.391290,-8882.471304,1762.019645
2499.261439,1332.370696,-10955.047942,919.314598
2499.261766,-296.082377,-10288.862594,-306.438199
2499.262094,-814.226536,-9770.718434,-2451.505594
2499.262422,-1406.391290,-10658.965565,-3600.648841
2499.262749,-888.247130,-10436.903782,-2834.553343
2499.263077,740.205942,-9548.656652,-536.266849
2499.263404,3182.885551,-9770.718434,1149.143247
2499.263732,4811.338623,-10732.986159,1838.629195
2499.264060,4071.132681,-11547.212695,1915.238745
2499.264387,1628.453072,-11177.109724,536.266849
2499.264715,-666.185348,-11103.089130,-995.924147
2499.265042,-2516.700203,-9844.739029,-2834.553343
2499.265370,-2664.741391,-9474.636058,-2757.943793
2499.265697,-2516.700203,-8734.430116,-1149.143247
2499.266025,-1036.288319,-8512.368333,0.000000
2499.266353,1036.288319,-10288.862594,995.924147
2499.266680,1406.391290,-11917.315666,612.876398
2499.267008,-296.082377,-11103.089130,0.000000
2499.267335,-1332.370696,-10288.862594,-766.095498
2499.267663,-1406.391290,-9696.697840,-1991.848295
2499.267991,-1628.453072,-9696.697840,-2298.286494
2499.268318,-444.123565,-8734.430116,-306.438199
2499.268646,444.123565,-8364.327145,2068.457845
2499.268973,1702.473667,-9252.574275,2298.286494
2499.269301,3108.864956,-11103.089130,1378.971896
2499.269629,1184.329507,-10362.883188,919.314598
2499.269956,-814.226536,-9548.656652,0.000000
2499.270284,-1258.350101,-9030.512492,-995.924147
2499.270611,-1850.514855,-7476.080014,-919.314598
2499.270939,-1480.411884,-6735.874072,1225.752797
2499.271266,1110.308913,-7772.162391,612.876398
2499.271594,2368.659014,-8808.450710,1302.362347
2499.271922,2368.659014,-9770.718434,1302.362347
2499.272249,814.226536,-10066.800811,76.609550
2499.272577,-592.164754,-10140.821405,-1378.971896
2499.272904,-962.267725,-10066.800811,-2298.286494
2499.273232,-296.082377,-10288.862594,-3600.648841
2499.273560,888.247130,-9918.759623,-1378.971896
2499.273887,3997.112087,-10066.800811,842.705048
2499.274215,5847.626942,-11251.130318,1762.019645
2499.274542,5181.441594,-12287.418637,2298.286494
2499.274870,3034.844362,-11769.274478,1455.581446
2499.275198,1110.308913,-9844.739029,-1149.143247
2499.275525,-1258.350101,-8734.430116,-1915.238745
2499.275853,-2442.679609,-7772.162391,-1608.800546
2499.276180,-2220.617826,-7920.203579,-766.095498
2499.276508,-814.226536,-8290.306550,306.438199
2499.276835,518.144159,-9178.553681,459.657299
2499.277163,1332.370696,-11029.068536,229.828649
2499.277491,518.144159,-11695.253884,0.000000
2499.277818,-740.205942,-10658.965565,76.609550
2499.278146,-740.205942,-10881.027347,-2068.457845
2499.278473,-1258.350101,-10436.903782,-1991.848295
2499.278801,-740.205942,-9178.553681,-306.438199
2499.279129,962.267725,-8808.450710,1455.581446
2499.279456,2368.659014,-9622.677246,2604.724693
2499.279784,2442.679609,-10066.800811,2298.286494
2499.280111,1332.370696,-10436.903782,1378.971896
2499.280439,-888.247130,-10140.821405,-766.095498
2499.280767,-2146.597232,-9252.574275,-1762.019645
2499.281094,-3182.885551,-7994.224174,-1302.362347
2499.281422,-3108.864956,-7031.956449,229.828649
2499.281749,-666.185348,-7550.100608,1225.752797
2499.282077,1850.514855,-9326.594869,1532.190996
2499.282404,2072.576638,-10658.965565,1225.752797
2499.282732,518.144159,-10362.883188,919.314598
2499.283060,-814.226536,-9622.677246,-306.438199
2499.283387,-1184.329507,-10066.800811,-2604.724693
2499.283715,-1850.514855,-10140.821405,-3217.601092
2499.284042,-666.185348,-9548.656652,-1915.238745
2499.284370,1776.494261,-8956.491898,-306.438199
2499.284698,4367.215058,-11029.068536,995.924147
2499.285025,3923.091493,-12139.377449,1915.238745
2499.285353,2812.782580,-11843.295072,1378.971896
2499.285680,740.205942,-10732.986159,229.828649
2499.286008,-666.185348,-10214.842000,-1455.581446
2499.286336,-2220.617826,-8734.430116,-1762.019645
2499.286663,-1998.556043,-7846.182985,-612.876398
2499.286991,-814.226536,-7476.080014,689.485948
2499.287318,1184.329507,-8734.430116,306.438199
2499.287646,1702.473667,-10436.903782,0.000000
2499.287973,148.041188,-11547.212695,0.000000
2499.288301,-666.185348,-11547.212695,-1225.752797
2499.288629,-962.267725,-10955.047942,-3140.991542
2499.288956,-1406.391290,-9770.718434,-2604.724693
2499.289284,-666.185348,-8808.450710,-2145.067394
2499.289611,814.226536,-8364.327145,1149.143247
2499.289939,3775.050304,-9178.553681,2681.334243
2499.290266,3775.050304,-9918.759623,3140.991542
2499.290594,2368.659014,-10436.903782,2298.286494
2499.290921,814.226536,-10140.821405,383.047749
2499.291249,-1258.350101,-9030.512492,-842.705048
2499.291576,-3330.926739,-7698.141797,-1762.019645
2499.291904,-1924.535449,-8808.450710,-1225.752797
2499.292232,0.000000,-8734.430116,612.876398
2499.292559,2294.638420,-8882.471304,1149.143247
2499.292887,3404.947333,-10955.047942,919.314598
2499.293214,1850.514855,-11843.295072,919.314598
2499.293542,148.041188,-10436.903782,-919.314598
2499.293869,-740.205942,-9696.697840,-2451.505594
2499.294197,-1776.494261,-9178.553681,-3370.820191
2499.294524,-1258.350101,-8364.327145,-1991.848295
2499.294852,1480.411884,-9400.615463,-229.828649
2499.295179,3108.864956,-10140.821405,1225.752797
2499.295507,2590.720797,-10955.047942,1838.629195
2499.295835,1480.411884,-11769.274478,1302.362347
2499.296162,0.000000,-11769.274478,-153.219100
2499.296490,-1702.473667,-10140.821405,-2374.896044
2499.296817,-2220.617826,-9770.718434,-2528.115143
2499.297145,-1480.411884,-9474.636058,-766.095498
2499.297472,444.123565,-8882.471304,919.314598
2499.297800,1998.556043,-9252.574275,1225.752797
2499.298127,1702.473667,-10436.903782,1608.800546
2499.298455,0.000000,-10214.842000,229.828649
2499.298782,-1184.329507,-10066.800811,-1915.238745
2499.299110,-2442.679609,-9474.636058,-2834.553343
2499.299437,-2516.700203,-9104.533087,-2757.943793
2499.299765,-1628.453072,-8364.327145,-842.705048
2499.300093,74.020594,-7920.203579,1608.800546
2499.300420,2368.659014,-8808.450710,2911.162892
2499.300748,4145.153275,-9696.697840,2451.505594
2499.301075,2072.576638,-10066.800811,1608.800546
2499.301403,296.082377,-9918.759623,229.828649
2499.301730,-444.123565,-9696.697840,-766.095498
2499.302058,-2072.576638,-8290.306550,-1149.143247
2499.302385,-1850.514855,-8290.306550,0.000000
2499.302713,0.000000,-8068.244768,766.095498
2499.303040,1554.432478,-9252.574275,383.047749
2499.303368,2442.679609,-10436.903782,229.828649
2499.303696,1850.514855,-11103.089130,306.438199
2499.304023,0.000000,-10584.944971,-766.095498
2499.304351,-1184.329507,-9696.697840,-2068.457845
2499.304678,-1332.370696,-9622.677246,-2834.553343
2499.305006,-1036.288319,-9400.615463,-1762.019645
2499.305333,1110.308913,-8882.471304,76.609550
2499.305661,3404.947333,-9474.636058,76.609550
2499.305988,3404.947333,-11251.130318,1149.143247
2499.306316,2368.659014,-11917.315666,536.266849
2499.306643,814.226536,-11399.171507,-689.485948
2499.306971,-518.144159,-11103.089130,-1915.238745
2499.307298,-1480.411884,-10881.027347,-2221.676944
2499.307626,-814.226536,-9104.533087,-1455.581446
2499.307954,222.061783,-9104.533087,306.438199
2499.308281,1702.473667,-9474.636058,1225.752797
2499.308609,2442.679609,-9918.759623,1608.800546
2499.308936,1110.308913,-10436.903782,689.485948
2499.309264,-740.205942,-10584.944971,-383.047749
2499.309591,-1628.453072,-9992.780217,-2298.286494
2499.309919,-2146.597232,-8808.450710,-1991.848295
2499.310246,-2516.700203,-7846.182985,-919.314598
2499.310574,-222.061783,-7846.182985,1225.752797
2499.310901,2812.782580,-9178.553681,1991.848295
2499.311229,3330.926739,-10140.821405,2374.896044
2499.311557,2220.617826,-10584.944971,1455.581446
2499.311884,370.102971,-10436.903782,0.000000
2499.312212,-888.247130,-9252.574275,-995.924147
2499.312539,-2368.659014,-7920.203579,-1378.971896
2499.312867,-1998.556043,-6809.894666,459.657299
2499.313194,-592.164754,-7550.100608,919.314598
2499.313522,1554.432478,-8660.409521,1685.410096
2499.313849,2220.617826,-9918.759623,1072.533697
2499.314177,1110.308913,-10807.006753,0.000000
2499.314504,-148.041188,-10140.821405,-459.657299
2499.314832,-1184.329507,-10362.883188,-2451.505594
2499.315159,-1924.535449,-10362.883188,-2528.115143
2499.315487,-814.226536,-9918.759623,-1608.800546
2499.315815,1258.350101,-8956.491898,0.000000
2499.316142,2886.803174,-9696.697840,995.924147
2499.316470,3552.988522,-11029.068536,1532.190996
2499.316797,2220.617826,-10658.965565,153.219100
2499.317125,0.000000,-10214.842000,-689.485948
2499.317452,-1480.411884,-10140.821405,-1608.800546
2499.317780,-1480.411884,-9992.780217,-2451.505594
2499.318107,-1332.370696,-9548.656652,-1378.971896
2499.318435,148.041188,-8956.491898,229.828649
2499.318762,1850.514855,-9770.718434,1225.752797
2499.319090,3034.844362,-10436.903782,842.705048
2499.319418,1480.411884,-10362.883188,1378.971896
2499.319745,-444.123565,-10658.965565,-153.219100
2499.320073,-2146.597232,-9622.677246,-1378.971896
2499.320400,-2738.761985,-9252.574275,-2451.505594
2499.320728,-2738.761985,-8438.347739,-1608.800546
2499.321055,-740.205942,-7772.162391,229.828649
2499.321383,1628.453072,-8882.471304,1685.410096
2499.321710,2368.659014,-9622.677246,2068.457845
2499.322038,2146.597232,-10732.986159,1532.190996
2499.322365,814.226536,-9992.780217,229.828649
2499.322693,-666.185348,-9252.574275,-612.876398
2499.323020,-1702.473667,-8882.471304,-1302.362347
2499.323348,-1406.391290,-8068.244768,-306.438199
2499.323676,222.061783,-7772.162391,383.047749
2499.324003,1776.494261,-8808.450710,1455.581446
2499.324331,3108.864956,-10732.986159,1378.971896
2499.324658,2072.576638,-11843.295072,689.485948
2499.324986,296.082377,-11029.068536,-842.705048
2499.325313,-1258.350101,-9918.759623,-2757.943793
2499.325641,-2590.720797,-9474.636058,-3064.381992
2499.325968,-1480.411884,-9104.533087,-1991.848295
2499.326296,1406.391290,-9030.512492,-306.438199
2499.326623,3182.885551,-9474.636058,1991.848295
2499.326951,4071.132681,-10658.965565,1838.629195
2499.327279,3256.906145,-11547.212695,919.314598
2499.327606,1258.350101,-10955.047942,-153.219100
2499.327934,-296.082377,-10658.965565,-2145.067394
2499.328261,-1258.350101,-9918.759623,-2221.676944
2499.328589,-1036.288319,-9622.677246,-1302.362347
2499.328916,0.000000,-8956.491898,-383.047749
2499.329244,1554.432478,-9844.739029,459.657299
2499.329571,2516.700203,-10732.986159,995.924147
2499.329899,1554.432478,-11251.130318,536.266849
2499.330226,0.000000,-10658.965565,0.000000
2499.330554,-1628.453072,-9548.656652,-919.314598
2499.330882,-1924.535449,-8364.327145,-1685.410096
2499.331209,-1776.494261,-8142.265362,-1302.362347
2499.331537,-1554.432478,-7624.121203,995.924147
2499.331864,888.247130,-8364.327145,1915.238745
2499.332192,2368.659014,-9844.739029,1532.190996
2499.332519,1036.288319,-10214.842000,919.314598
2499.332847,0.000000,-10807.006753,-459.657299
2499.333174,-1184.329507,-10362.883188,-1608.800546
2499.333502,-2220.617826,-9474.636058,-1915.238745
2499.333829,-1776.494261,-8808.450710,-1302.362347
2499.334157,-370.102971,-8290.306550,306.438199
2499.334484,1332.370696,-8216.285956,1915.238745
2499.334812,2294.638420,-9030.512492,2298.286494
2499.335140,1554.432478,-9548.656652,1608.800546
2499.335467,0.000000,-10066.800811,-459.657299
2499.335795,-1110.308913,-9770.718434,-2911.162892
2499.336122,-2146.597232,-9548.656652,-3140.991542
2499.336450,-1776.494261,-9474.636058,-2374.896044
2499.336777,148.041188,-9474.636058,-459.657299
2499.337105,2294.638420,-9844.739029,1302.362347
2499.337432,4219.173869,-10436.903782,995.924147
2499.337760,4145.153275,-11843.295072,536.266849
2499.338087,2294.638420,-11843.295072,306.438199
2499.338415,592.164754,-11399.171507,-612.876398
2499.338743,-740.205942,-10066.800811,-1838.629195
2499.339070,-1554.432478,-9474.636058,-1762.019645
2499.339398,-888.247130,-9030.512492,-383.047749
2499.339725,666.185348,-8808.450710,306.438199
2499.340053,2146.597232,-9474.636058,153.219100
2499.340380,1998.556043,-11251.130318,383.047749
2499.340708,592.164754,-11177.109724,-229.828649
2499.341035,-296.082377,-9844.739029,-766.095498
2499.341363,-1036.288319,-9400.615463,-1225.752797
2499.341690,-1480.411884,-8660.409521,-612.876398
2499.342018,-592.164754,-7994.224174,689.485948
2499.342345,1110.308913,-8068.244768,766.095498
2499.342673,2294.638420,-8660.409521,1838.629195
2499.343001,1702.473667,-10288.862594,1455.581446
2499.343328,222.061783,-10658.965565,459.657299
2499.343656,-1702.473667,-9992.780217,-766.095498
2499.343983,-1850.514855,-9992.780217,-1915.238745
2499.344311,-2146.597232,-9400.615463,-1915.238745
2499.344638,-296.082377,-8290.306550,0.000000
2499.344966,2294.638420,-8290.306550,1072.533697
2499.345293,2738.761985,-9178.553681,2528.115143
2499.345621,2220.617826,-10362.883188,2068.457845
2499.345948,296.082377,-10214.842000,689.485948
2499.346276,-1406.391290,-8956.491898,-1378.971896
2499.346604,-2072.576638,-9252.574275,-3140.991542
2499.346931,-2368.659014,-9326.594869,-2987.772442
2499.347259,-444.123565,-9252.574275,-2068.457845
2499.347586,1554.432478,-9252.574275,0.000000
2499.347914,3478.967927,-10955.047942,842.705048
2499.348241,3627.009116,-12287.418637,1225.752797
2499.348569,2146.597232,-11843.295072,612.876398
2499.348896,962.267725,-11177.109724,-995.924147
2499.349224,-370.102971,-11029.068536,-1915.238745
2499.349551,-1554.432478,-9622.677246,-1685.410096
2499.349879,-1036.288319,-8660.409521,-536.266849
2499.350206,666.185348,-9474.636058,459.657299
2499.350534,1924.535449,-10140.821405,459.657299
2499.350862,1036.288319,-10288.862594,76.609550
2499.351189,-666.185348,-9844.739029,76.609550
2499.351517,-1184.329507,-9844.739029,-1378.971896
2499.351844,-1480.411884,-9030.512492,-2068.457845
2499.352172,-1628.453072,-8586.388927,-1532.190996
2499.352499,-666.185348,-8290.306550,536.266849
2499.352827,1184.329507,-8142.265362,2145.067394
2499.353154,2886.803174,-8956.491898,2145.067394
2499.353482,2886.803174,-10584.944971,1072.533697
2499.353809,1258.350101,-10436.903782,229.828649
2499.354137,-592.164754,-10362.883188,-383.047749
2499.354465,-2146.597232,-9992.780217,-1991.848295
2499.354792,-2516.700203,-9030.512492,-1762.019645
2499.355120,-1480.411884,-8364.327145,-689.485948
2499.355447,222.061783,-7772.162391,842.705048
2499.355775,1850.514855,-8142.265362,2681.334243
2499.356102,3034.844362,-10066.800811,1915.238745
2499.356430,1036.288319,-9992.780217,1455.581446
2499.356757,-370.102971,-9178.553681,-306.438199
2499.357085,-1406.391290,-8586.388927,-2068.457845
2499.357412,-1850.514855,-9252.574275,-2681.334243
2499.357740,-296.082377,-9030.512492,-842.705048
2499.358067,1258.350101,-9400.615463,0.000000
2499.358395,3849.070898,-10510.924376,766.095498
2499.358723,4737.318029,-11991.336260,1225.752797
2499.359050,3182.885551,-12657.521608,229.828649
2499.359378,1184.329507,-11991.336260,-459.657299
2499.359705,-740.205942,-11103.089130,-1532.190996
2499.360033,-2072.576638,-10066.800811,-1532.190996
2499.360360,-1776.494261,-9326.594869,0.000000
2499.360688,0.000000,-7994.224174,0.000000
2499.361015,1110.308913,-8586.388927,459.657299
2499.361343,1110.308913,-9992.780217,1378.971896
2499.361670,444.123565,-10658.965565,766.095498
2499.361998,-592.164754,-10066.800811,-919.314598
2499.362326,-1702.473667,-9178.553681,-2374.896044
2499.362653,-1850.514855,-8364.327145,-1915.238745
2499.362981,-592.164754,-8290.306550,-919.314598
2499.363308,1628.453072,-8808.450710,689.485948
2499.363636,3108.864956,-10140.821405,2145.067394
2499.363963,3330.926739,-11103.089130,2145.067394
2499.364291,1702.473667,-11103.089130,1149.143247
2499.364618,-370.102971,-10658.965565,-229.828649
2499.364946,-1332.370696,-9474.636058,-1378.971896
2499.365273,-2368.659014,-7994.224174,-1225.752797
2499.365601,-2072.576638,-7402.059420,689.485948
2499.365928,0.000000,-7179.997637,1225.752797
2499.366256,1998.556043,-8216.285956,1762.019645
2499.366584,2294.638420,-9770.718434,2068.457845
2499.366911,1258.350101,-10288.862594,1149.143247
2499.367239,-148.041188,-9696.697840,-842.705048
2499.367566,-962.267725,-9844.739029,-2451.505594
2499.367894,-592.164754,-9844.739029,-3064.381992
2499.368221,0.000000,-9030.512492,-1302.362347
2499.368549,1776.494261,-8882.471304,459.657299
2499.368876,3923.091493,-10066.800811,689.485948
2499.369204,3849.070898,-11769.274478,766.095498
2499.369531,1924.535449,-11769.274478,0.000000
2499.369859,-370.102971,-10584.944971,-919.314598
2499.370187,-740.205942,-10510.924376,-1838.629195
2499.370514,-1850.514855,-10510.924376,-2145.067394
2499.370842,-1258.350101,-9622.677246,-842.705048
2499.371169,-222.061783,-9104.533087,536.266849
2499.371497,1184.329507,-8586.388927,919.314598
2499.371824,2146.597232,-10436.903782,1302.362347
2499.372152,592.164754,-11103.089130,612.876398
2499.372479,-1480.411884,-9474.636058,-383.047749
2499.372807,-1776.494261,-9178.553681,-1991.848295
2499.373134,-1702.473667,-9474.636058,-2451.505594
2499.373462,-1406.391290,-9252.574275,-1149.143247
2499.373789,444.123565,-8882.471304,689.485948
2499.374117,2294.638420,-9474.636058,2145.067394
2499.374445,2664.741391,-10807.006753,919.314598
2499.374772,2072.576638,-11399.171507,612.876398
2499.375100,0.000000,-10288.862594,-536.266849
2499.375427,-1332.370696,-9326.594869,-459.657299
2499.375755,-1850.514855,-8364.327145,-842.705048
2499.376082,-1628.453072,-7920.203579,306.438199
2499.376410,-518.144159,-7179.997637,536.266849
2499.376737,888.247130,-8142.265362,1838.629195
2499.377065,1628.453072,-10288.862594,459.657299
2499.377392,740.205942,-10436.903782,0.000000
2499.377720,-740.205942,-9918.759623,-1302.362347
2499.378048,-1554.432478,-9770.718434,-2298.286494
2499.378375,-1110.308913,-9918.759623,-2604.724693
2499.378703,222.061783,-9622.677246,-1455.581446
2499.379030,1184.329507,-9178.553681,612.876398
2499.379358,4071.132681,-9474.636058,1685.410096
2499.379685,4663.297435,-10955.047942,995.924147
2499.380013,2442.679609,-10807.006753,919.314598
2499.380340,888.247130,-10807.006753,0.000000
2499.380668,-148.041188,-10955.047942,-1072.533697
2499.380995,-1702.473667,-10140.821405,-2068.457845
2499.381323,-1406.391290,-9474.636058,-1838.629195
2499.381650,-518.144159,-8956.491898,306.438199
2499.381978,444.123565,-8068.244768,612.876398
2499.382306,2072.576638,-9918.759623,306.438199
2499.382633,1258.350101,-10955.047942,76.609550
2499.382961,-592.164754,-9474.636058,0.000000
2499.383288,-814.226536,-8882.471304,-536.266849
2499.383616,-666.185348,-8956.491898,-1685.410096
2499.383943,-1036.288319,-8956.491898,-766.095498
2499.384271,444.123565,-8734.430116,612.876398
2499.384598,2146.597232,-9104.533087,1455.581446
2499.384926,3404.947333,-11399.171507,919.314598
2499.385253,2812.782580,-11917.315666,229.828649
2499.385581,370.102971,-10066.800811,229.828649
2499.385909,-1258.350101,-10214.842000,-153.219100
2499.386236,-1776.494261,-9622.677246,-766.095498
2499.386564,-2146.597232,-7698.141797,-306.438199
2499.386891,-1036.288319,-7031.956449,1149.143247
2499.387219,592.164754,-7920.203579,1608.800546
2499.387546,1406.391290,-9474.636058,1532.190996
2499.387874,148.041188,-10436.903782,229.828649
2499.388201,-1628.453072,-9474.636058,-1302.362347
2499.388529,-2516.700203,-9474.636058,-2604.724693
2499.388856,-2146.597232,-10436.903782,-3753.867940
2499.389184,-888.247130,-10436.903782,-2451.505594
2499.389511,1406.391290,-9992.780217,76.609550
2499.389839,4145.153275,-10288.862594,1455.581446
2499.390167,5033.400406,-11621.233289,1225.752797
2499.390494,3256.906145,-11399.171507,1915.238745
2499.390822,1332.370696,-10658.965565,229.828649
2499.391150,-888.247130,-9622.677246,-842.705048
2499.391477,-2516.700203,-9400.615463,-1762.019645
2499.391805,-2072.576638,-9030.512492,-1532.190996
2499.392133,-1406.391290,-8364.327145,153.219100
2499.392460,-296.082377,-8290.306550,1072.533697
2499.392788,1480.411884,-9696.697840,229.828649
2499.393115,1480.411884,-11547.212695,-1225.752797
2499.393443,-518.144159,-9474.636058,-689.485948
2499.393771,-962.267725,-9030.512492,-1762.019645
2499.394098,-1332.370696,-9326.594869,-1608.800546
2499.394426,-666.185348,-9474.636058,-536.266849
2499.394754,1554.432478,-8586.388927,536.266849
2499.395081,2738.761985,-8956.491898,1455.581446
2499.395409,3701.029710,-10881.027347,1302.362347
2499.395737,2812.782580,-11843.295072,229.828649
2499.396064,148.041188,-10658.965565,-612.876398
2499.396392,-1850.514855,-9548.656652,-842.705048
2499.396719,-2072.576638,-8734.430116,-1608.800546
2499.397047,-1998.556043,-7105.977043,153.219100
2499.397375,-1998.556043,-6735.874072,1532.190996
2499.397702,0.000000,-7105.977043,1608.800546
2499.398030,1776.494261,-8882.471304,1072.533697
2499.398358,888.247130,-10584.944971,153.219100
2499.398685,-592.164754,-10288.862594,-689.485948
2499.399013,-888.247130,-10436.903782,-2451.505594
2499.399341,-888.247130,-10955.047942,-3677.258390
2499.399668,74.020594,-10362.883188,-2681.334243
2499.399996,1702.473667,-10732.986159,-612.876398
2499.400323,3923.091493,-10436.903782,919.314598
2499.400651,4737.318029,-11029.068536,1532.190996
2499.400979,3701.029710,-11029.068536,1685.410096
2499.401306,1554.432478,-9992.780217,919.314598
2499.401634,-370.102971,-9326.594869,0.000000
2499.401962,-1480.411884,-9030.512492,-1532.190996
2499.402289,-2146.597232,-7994.224174,-1072.533697
2499.402617,-1998.556043,-7328.038826,0.000000
2499.402945,0.000000,-8882.471304,229.828649
2499.403272,1332.370696,-10288.862594,0.000000
2499.403600,1184.329507,-11177.109724,-459.657299
2499.403928,148.041188,-11177.109724,0.000000
2499.404255,-518.144159,-10807.006753,-995.924147
2499.404583,-592.164754,-9992.780217,-1455.581446
2499.404910,-814.226536,-9178.553681,-1149.143247
2499.405238,0.000000,-8660.409521,766.095498
2499.405566,1776.494261,-8808.450710,1685.410096
2499.405893,2664.741391,-9844.739029,1915.238745
2499.406221,2072.576638,-10066.800811,1455.581446
2499.406549,222.061783,-9770.718434,306.438199
2499.406876,-2072.576638,-8882.471304,-306.438199
2499.407204,-2146.597232,-8956.491898,-2221.676944
2499.407532,-2442.679609,-8364.327145,-689.485948
2499.407859,-2072.576638,-7105.977043,459.657299
2499.408187,592.164754,-8586.388927,1072.533697
2499.408514,2516.700203,-10807.006753,612.876398
2499.408842,962.267725,-10214.842000,612.876398
2499.409170,-518.144159,-11399.171507,0.000000
2499.409497,-1258.350101,-10510.924376,-2145.067394
2499.409825,-1554.432478,-10436.903782,-3753.867940
2499.410153,-1406.391290,-10732.986159,-3064.381992
2499.410480,0.000000,-9252.574275,-842.705048
2499.410808,2886.803174,-9104.533087,459.657299
2499.411136,4515.256246,-10955.047942,1838.629195
2499.411463,3627.009116,-11325.150913,1532.190996
2499.411791,1776.494261,-10658.965565,1072.533697
2499.412119,592.164754,-9918.759623,76.609550
2499.412446,-518.144159,-9252.574275,-1072.533697
2499.412774,-1554.432478,-8808.450710,-1149.143247
2499.413101,-1110.308913,-9030.512492,229.828649
2499.413429,0.000000,-7920.203579,919.314598
2499.413757,1258.350101,-8808.450710,153.219100
2499.414084,1110.308913,-10732.986159,-612.876398
2499.414412,-222.061783,-11177.109724,-766.095498
2499.414740,-740.205942,-10288.862594,-1455.581446
2499.415067,-962.267725,-9918.759623,-1915.238745
2499.415395,-814.226536,-9400.615463,-1378.971896
2499.415723,518.144159,-8216.285956,919.314598
2499.416050,2590.720797,-8808.450710,1762.019645
2499.416378,3552.988522,-9474.636058,2604.724693
2499.416705,3552.988522,-10732.986159,1302.362347
2499.417033,2072.576638,-10362.883188,229.828649
2499.417361,-296.082377,-9696.697840,0.000000
2499.417688,-1406.391290,-8586.388927,-1378.971896
2499.418016,-2442.679609,-8142.265362,-1072.533697
2499.418344,-1258.350101,-8956.491898,-766.095498
2499.418671,0.000000,-8660.409521,459.657299
2499.418999,1332.370696,-9474.636058,229.828649
2499.419327,1332.370696,-10510.924376,536.266849
2499.419654,-222.061783,-10807.006753,76.609550
2499.419982,-1184.329507,-10066.800811,-1378.971896
2499.420309,-1406.391290,-9992.780217,-2451.505594
2499.420637,-1480.411884,-9622.677246,-2451.505594
2499.420965,0.000000,-9548.656652,-459.657299
2499.421292,2072.576638,-9474.636058,536.266849
2499.421620,3552.988522,-10362.883188,1072.533697
2499.421948,2738.761985,-11399.171507,1378.971896
2499.422275,1110.308913,-10881.027347,995.924147
2499.422603,444.123565,-10362.883188,0.000000
2499.422931,-740.205942,-10881.027347,-1915.238745
2499.423258,-1850.514855,-9622.677246,-1378.971896
2499.423586,-1258.350101,-8216.285956,0.000000
2499.423914,0.000000,-8364.327145,459.657299
2499.424241,1036.288319,-9326.594869,612.876398
2499.424569,1184.329507,-10288.862594,306.438199
2499.424896,0.000000,-10140.821405,0.000000
2499.425224,-1480.411884,-10658.965565,-919.314598
2499.425552,-1554.432478,-9474.636058,-1991.848295
2499.425879,-1702.473667,-9474.636058,-2221.676944
2499.426207,-1258.350101,-9252.574275,229.828649
2499.426535,592.164754,-9474.636058,1378.971896
2499.426862,2072.576638,-9696.697840,1225.752797
2499.427190,1628.453072,-10214.842000,689.485948
2499.427518,0.000000,-9622.677246,-383.047749
2499.427845,-740.205942,-9474.636058,-459.657299
2499.428173,-2516.700203,-9030.512492,-459.657299
2499.428500,-2368.659014,-8290.306550,-306.438199
2499.428828,-1332.370696,-8068.244768,-229.828649
2499.429156,444.123565,-8586.388927,612.876398
2499.429483,1776.494261,-9252.574275,689.485948
2499.429811,2220.617826,-10584.944971,-306.438199
2499.430139,1184.329507,-11399.171507,-689.485948
2499.430466,222.061783,-10807.006753,-1225.752797
2499.430794,222.061783,-10436.903782,-2528.115143
2499.431122,-148.041188,-10066.800811,-1991.848295
2499.431449,814.226536,-9104.533087,76.609550
2499.431777,3108.864956,-8660.409521,919.314598
2499.432104,4367.215058,-9548.656652,1072.533697
2499.432432,4145.153275,-10362.883188,1608.800546
2499.432760,3108.864956,-10436.903782,1072.533697
2499.433087,1258.350101,-10140.821405,229.828649
2499.433415,74.020594,-10881.027347,-995.924147
2499.433743,-518.144159,-10140.821405,-1762.019645
2499.434070,-592.164754,-8364.327145,-842.705048
2499.434398,814.226536,-9326.594869,459.657299
2499.434726,2294.638420,-9178.553681,766.095498
2499.435053,2368.659014,-10732.986159,459.657299
2499.435381,666.185348,-10807.006753,0.000000
2499.435709,-1110.308913,-9474.636058,-536.266849
2499.436036,-1628.453072,-8586.388927,-1225.752797
2499.436364,-1554.432478,-9104.533087,-1532.190996
2499.436691,-1406.391290,-8512.368333,0.000000
2499.437019,0.000000,-8216.285956,1378.971896
2499.437347,2220.617826,-10140.821405,1302.362347
2499.437674,2590.720797,-10955.047942,1225.752797
2499.438002,962.267725,-10584.944971,536.266849
2499.438330,-370.102971,-10362.883188,0.000000
2499.438657,-1332.370696,-8734.430116,-1378.971896
2499.438985,-1850.514855,-8216.285956,-229.828649
2499.439313,-1776.494261,-7920.203579,383.047749
2499.439640,-518.144159,-7994.224174,1225.752797
2499.439968,888.247130,-9326.594869,995.924147
2499.440295,666.185348,-10955.047942,0.000000
2499.440623,-222.061783,-11473.192101,-1302.362347
2499.440951,-1110.308913,-11325.150913,-2451.505594
2499.441278,-1406.391290,-10066.800811,-3064.381992
2499.441606,-1850.514855,-10066.800811,-2068.457845
2499.441934,148.041188,-9178.553681,-306.438199
2499.442261,2072.576638,-8882.471304,1302.362347
2499.442589,2812.782580,-9548.656652,2145.067394
2499.442917,2812.782580,-10288.862594,1762.019645
2499.443244,1554.432478,-9770.718434,842.705048
2499.443572,148.041188,-10658.965565,-153.219100
2499.443900,-1480.411884,-10584.944971,-1838.629195
2499.444227,-1776.494261,-9992.780217,-2221.676944
2499.444555,-1258.350101,-9252.574275,-919.314598
2499.444882,222.061783,-9474.636058,0.000000
2499.445210,1998.556043,-9548.656652,0.000000
2499.445538,2368.659014,-10584.944971,0.000000
2499.445865,740.205942,-10140.821405,612.876398
2499.446193,-296.082377,-10066.800811,76.609550
2499.446521,-1406.391290,-9252.574275,-459.657299
2499.446848,-1924.535449,-8734.430116,-842.705048
2499.447176,-1702.473667,-8142.265362,-153.219100
2499.447504,0.000000,-8882.471304,766.095498
2499.447831,1850.514855,-9326.594869,995.924147
2499.448159,2664.741391,-10066.800811,766.095498
2499.448486,1184.329507,-9622.677246,612.876398
2499.448814,370.102971,-10066.800811,-536.266849
2499.449142,148.041188,-10066.800811,-1072.533697
2499.449469,-296.082377,-8956.491898,-766.095498
2499.449797,148.041188,-8216.285956,919.314598
2499.450125,1702.473667,-8808.450710,2145.067394
2499.450452,2516.700203,-9696.697840,1838.629195
2499.450780,2664.741391,-10510.924376,766.095498
2499.451108,962.267725,-10732.986159,-536.266849
2499.451435,-1110.308913,-10658.965565,-2221.676944
2499.451763,-1628.453072,-10288.862594,-3140.991542
2499.452090,-1850.514855,-9474.636058,-2911.162892
2499.452418,-518.144159,-9474.636058,-919.314598
2499.452746,1998.556043,-8956.491898,919.314598
2499.453073,3849.070898,-9474.636058,2068.457845
2499.453401,3404.947333,-10510.924376,1915.238745
2499.453729,2294.638420,-10510.924376,1225.752797
2499.454056,222.061783,-10362.883188,0.000000
2499.454384,-1258.350101,-10510.924376,-1149.143247
2499.454712,-1628.453072,-9770.718434,-2298.286494
2499.455039,-1776.494261,-9474.636058,-919.314598
2499.455367,-148.041188,-9474.636058,-306.438199
2499.455695,1184.329507,-10436.903782,-153.219100
2499.456022,1850.514855,-11029.068536,0.000000
2499.456350,1110.308913,-10955.047942,76.609550
2499.456677,74.020594,-9770.718434,306.438199
2499.457005,-1702.473667,-8512.368333,-612.876398
2499.457333,-2516.700203,-7698.141797,-383.047749
2499.457660,-2072.576638,-7254.018232,0.000000
2499.457988,-666.185348,-7698.141797,689.485948
2499.458316,1184.329507,-8956.491898,995.924147
2499.458643,1998.556043,-10732.986159,689.485948
2499.458971,1184.329507,-10732.986159,-383.047749
2499.459299,-592.164754,-9844.739029,-1225.752797
2499.459626,-1110.308913,-10436.903782,-1302.362347
2499.459954,-1406.391290,-9770.718434,-1378.971896
2499.460281,-740.205942,-8808.450710,-459.657299
2499.460609,888.247130,-8586.388927,1072.533697
2499.460937,2220.617826,-9030.512492,2145.067394
2499.461264,2072.576638,-9992.780217,2145.067394
2499.461592,74.020594,-9918.759623,536.266849
2499.461920,-1184.329507,-9770.718434,-1149.143247
2499.462247,-2664.741391,-9474.636058,-2987.772442
2499.462575,-2738.761985,-9400.615463,-3370.820191
2499.462903,-1850.514855,-8808.450710,-2221.676944
2499.463230,888.247130,-9252.574275,0.000000
2499.463558,2886.803174,-9844.739029,1685.410096
2499.463886,4219.173869,-10807.006753,1608.800546
2499.464213,3478.967927,-11843.295072,-153.219100
2499.464541,1776.494261,-11621.233289,-306.438199
2499.464868,222.061783,-11325.150913,-1762.019645
2499.465196,-592.164754,-10288.862594,-1762.019645
2499.465524,-740.205942,-9178.553681,-919.314598
2499.465851,0.000000,-9178.553681,76.609550
2499.466179,1554.432478,-9030.512492,459.657299
2499.466507,2072.576638,-9992.780217,306.438199
2499.466834,1480.411884,-10732.986159,-536.266849
2499.467162,74.020594,-9474.636058,-689.485948
2499.467490,-962.267725,-9178.553681,-459.657299
2499.467817,-1184.329507,-9030.512492,-306.438199
2499.468145,-962.267725,-8290.306550,0.000000
2499.468472,222.061783,-8142.265362,1378.971896
2499.468800,2146.597232,-9178.553681,1915.238745
2499.469128,3182.885551,-9992.780217,1225.752797
2499.469455,2738.761985,-11547.212695,153.219100
2499.469783,148.041188,-10436.903782,-229.828649
2499.470111,-1480.411884,-9992.780217,-995.924147
2499.470438,-1554.432478,-9252.574275,-1991.848295
2499.470766,-1332.370696,-8216.285956,-612.876398
2499.471094,370.102971,-8216.285956,842.705048
2499.471421,1776.494261,-8438.347739,2298.286494
2499.471749,2146.597232,-10214.842000,2145.067394
2499.472076,1776.494261,-10807.006753,1072.533697
2499.472404,-666.185348,-9622.677246,-459.657299
2499.472732,-1998.556043,-9178.553681,-2451.505594
2499.473059,-2368.659014,-9252.574275,-2757.943793
2499.473387,-1924.535449,-9474.636058,-2221.676944
2499.473715,444.123565,-9030.512492,-306.438199
2499.474042,2072.576638,-9770.718434,766.095498
2499.474370,2960.823768,-11325.150913,1149.143247
2499.474698,2146.597232,-11843.295072,459.657299
2499.475025,518.144159,-11621.233289,-306.438199
2499.475353,-740.205942,-11251.130318,-1302.362347
2499.475681,-1184.329507,-10362.883188,-1915.238745
2499.476008,-1480.411884,-9030.512492,-1302.362347
2499.476336,-518.144159,-8956.491898,612.876398
2499.476663,518.144159,-8882.471304,1302.362347
2499.476991,962.267725,-9326.594869,536.266849
2499.477319,148.041188,-10732.986159,-459.657299
2499.477646,-1406.391290,-9918.759623,-1072.533697
2499.477974,-2072.576638,-8956.491898,-1378.971896
2499.478302,-1776.494261,-8956.491898,-1149.143247
2499.478629,-1258.350101,-9326.594869,0.000000
2499.478957,0.000000,-8808.450710,1072.533697
2499.479285,1850.514855,-8882.471304,1455.581446
2499.479612,2590.720797,-9696.697840,1072.533697
2499.479940,2294.638420,-10288.862594,306.438199
2499.480267,-444.123565,-9548.656652,-383.047749
2499.480595,-1110.308913,-9252.574275,0.000000
2499.480923,-1628.453072,-8956.491898,-766.095498
2499.481250,-1036.288319,-9030.512492,-612.876398
2499.481578,148.041188,-8512.368333,229.828649
2499.481906,1480.411884,-8808.450710,766.095498
2499.482233,2442.679609,-9770.718434,612.876398
2499.482561,2368.659014,-11103.089130,0.000000
2499.482889,1184.329507,-10584.944971,-383.047749
2499.483216,-296.082377,-9548.656652,-1455.581446
2499.483544,-962.267725,-9548.656652,-1685.410096
2499.483872,-222.061783,-8956.491898,-1302.362347
2499.484199,1184.329507,-8808.450710,-383.047749
2499.484527,2368.659014,-9400.615463,689.485948
2499.484854,3182.885551,-10881.027347,842.705048
2499.485182,3330.926739,-11917.315666,76.609550
2499.485510,1184.329507,-11695.253884,-766.095498
2499.485837,0.000000,-11029.068536,-1838.629195
2499.486165,-370.102971,-10955.047942,-1838.629195
2499.486493,-370.102971,-10362.883188,-1302.362347
2499.486820,222.061783,-9326.594869,306.438199
2499.487148,1480.411884,-8364.327145,842.705048
2499.487476,1480.411884,-9178.553681,919.314598
2499.487803,1110.308913,-10362.883188,459.657299
2499.488131,-370.102971,-9474.636058,-383.047749
2499.488458,-1776.494261,-9030.512492,-919.314598
2499.488786,-2146.597232,-9178.553681,-1532.190996
2499.489114,-1554.432478,-8734.430116,-766.095498
2499.489441,-592.164754,-8512.368333,229.828649
2499.489769,666.185348,-8216.285956,919.314598
2499.490097,1998.556043,-10066.800811,1608.800546
2499.490424,2072.576638,-11251.130318,689.485948
2499.490752,1036.288319,-10362.883188,0.000000
2499.491080,-592.164754,-9622.677246,0.000000
2499.491407,-1924.535449,-9104.533087,-229.828649
2499.491735,-3552.988522,-8660.409521,0.000000
2499.492062,-2516.700203,-8068.244768,0.000000
2499.492390,-1036.288319,-8142.265362,-383.047749
2499.492717,222.061783,-10066.800811,0.000000
2499.493045,814.226536,-11325.150913,0.000000
2499.493373,0.000000,-10955.047942,-689.485948
2499.493700,-888.247130,-9474.636058,-1608.800546
2499.494028,-740.205942,-9918.759623,-2221.676944
2499.494355,-1480.411884,-9252.574275,-1838.629195
2499.494683,74.020594,-8956.491898,-383.047749
2499.495010,2294.638420,-8808.450710,766.095498
2499.495338,3182.885551,-10436.903782,842.705048
2499.495665,2738.761985,-11769.274478,766.095498
2499.495993,1628.453072,-11103.089130,-306.438199
2499.496321,518.144159,-10955.047942,-1762.019645
2499.496648,-296.082377,-11547.212695,-1762.019645
2499.496976,-1258.350101,-10066.800811,-1838.629195
2499.497303,0.000000,-9178.553681,-459.657299
2499.497631,1258.350101,-8586.388927,995.924147
2499.497958,2294.638420,-8956.491898,2068.457845
2499.498286,2368.659014,-9474.636058,2068.457845
2499.498613,740.205942,-9548.656652,919.314598
2499.498941,-740.205942,-8808.450710,-612.876398
2499.499269,-740.205942,-9326.594869,-2374.896044
2499.499596,-1332.370696,-9104.533087,-1915.238745
2499.499924,0.000000,-8660.409521,-383.047749
2499.500251,1924.535449,-9104.533087,995.924147
2499.500579,3256.906145,-10436.903782,1302.362347
2499.500906,3627.009116,-11251.130318,919.314598
2499.501234,2516.700203,-11103.089130,766.095498
2499.501561,814.226536,-9770.718434,76.609550
2499.501889,-592.164754,-9326.594869,0.000000
2499.502216,-1776.494261,-8216.285956,153.219100
2499.502544,-1184.329507,-7772.162391,995.924147
2499.502872,0.000000,-7772.162391,1072.533697
2499.503199,666.185348,-9474.636058,229.828649
2499.503527,814.226536,-10584.944971,-842.705048
2499.503854,-444.123565,-10436.903782,-1149.143247
2499.504182,-1480.411884,-10066.800811,-1762.019645
2499.504509,-1924.535449,-10066.800811,-2221.676944
2499.504837,-1258.350101,-9844.739029,-1991.848295
2499.505164,296.082377,-9326.594869,-766.095498
2499.505492,2442.679609,-9992.780217,919.314598
2499.505820,3552.988522,-10807.006753,1455.581446
2499.506147,2664.741391,-11177.109724,1302.362347
2499.506475,1110.308913,-10881.027347,306.438199
2499.506802,-148.041188,-10732.986159,-995.924147
2499.507130,-1850.514855,-10584.944971,-2068.457845
2499.507457,-2294.638420,-10066.800811,-1532.190996
2499.507785,-2368.659014,-9178.553681,-459.657299
2499.508112,-1036.288319,-7920.203579,536.266849
2499.508440,666.185348,-9030.512492,766.095498
2499.508768,518.144159,-10362.883188,766.095498
2499.509095,-592.164754,-9474.636058,153.219100
2499.509423,-1628.453072,-8956.491898,-919.314598
2499.509750,-1702.473667,-9030.512492,-1608.800546
2499.510078,-1776.494261,-8364.327145,-2451.505594
2499.510405,-1184.329507,-8142.265362,0.000000
2499.510733,888.247130,-8956.491898,766.095498
2499.511060,2368.659014,-10214.842000,612.876398
2499.511388,2812.782580,-11177.109724,0.000000
2499.511716,1332.370696,-10584.944971,-229.828649
2499.512043,74.020594,-9844.739029,-306.438199
2499.512371,-666.185348,-9696.697840,-536.266849
2499.512698,-740.205942,-9178.553681,0.000000
2499.513026,-1184.329507,-8068.244768,612.876398
2499.513353,-296.082377,-8068.244768,919.314598
2499.513681,814.226536,-8438.347739,536.266849
2499.514008,1036.288319,-9474.636058,0.000000
2499.514336,148.041188,-9770.718434,-1149.143247
2499.514664,-444.123565,-9474.636058,-1685.410096
2499.514991,-1184.329507,-9474.636058,-1915.238745
2499.515319,296.082377,-10658.965565,-1762.019645
2499.515646,1184.329507,-9992.780217,-612.876398
2499.515974,3256.906145,-9548.656652,919.314598
2499.516301,4737.318029,-10658.965565,1455.581446
2499.516629,4737.318029,-11325.150913,1225.752797
2499.516956,3182.885551,-10881.027347,842.705048
2499.517284,1332.370696,-10584.944971,0.000000
2499.517612,-370.102971,-10807.006753,-995.924147
2499.517939,-1480.411884,-10214.842000,-1455.581446
