#time,accel_x,accel_y,accel_z
2839.891107,370.102971,-9770.718434,-383.047749
2839.891435,222.061783,-9622.677246,0.000000
2839.891762,0.000000,-9474.636058,-383.047749
2839.892090,0.000000,-9622.677246,-689.485948
2839.892417,148.041188,-9770.718434,0.000000
2839.892745,0.000000,-9844.739029,-229.828649
2839.893072,0.000000,-9992.780217,-229.828649
2839.893400,444.123565,-10214.842000,0.000000
2839.893727,444.123565,-10288.862594,0.000000
2839.894055,444.123565,-9992.780217,0.000000
2839.894382,518.144159,-9474.636058,0.000000
2839.894710,296.082377,-9104.533087,459.657299
2839.895037,518.144159,-9252.574275,689.485948
2839.895364,444.123565,-9104.533087,0.000000
2839.895692,148.041188,-9104.533087,-153.219100
2839.896019,0.000000,-9326.594869,-383.047749
2839.896347,0.000000,-9178.553681,-383.047749
2839.896674,370.102971,-9548.656652,-536.266849
2839.897002,370.102971,-9400.615463,-383.047749
2839.897329,740.205942,-9548.656652,536.266849
2839.897657,814.226536,-9696.697840,536.266849
2839.897984,740.205942,-9548.656652,153.219100
2839.898312,592.164754,-9326.594869,229.828649
2839.898639,444.123565,-9474.636058,0.000000
2839.898967,222.061783,-9252.574275,76.609550
2839.899294,0.000000,-8956.491898,0.000000
2839.899621,-222.061783,-9400.615463,-536.266849
2839.899949,0.000000,-9844.739029,-766.095498
2839.900276,370.102971,-10510.924376,-919.314598
2839.900604,148.041188,-10214.842000,-612.876398
2839.900931,296.082377,-10658.965565,-459.657299
2839.901259,370.102971,-10658.965565,-306.438199
2839.901586,814.226536,-10288.862594,-153.219100
2839.901914,888.247130,-10140.821405,0.000000
2839.902241,666.185348,-10066.800811,0.000000
2839.902569,222.061783,-9918.759623,-306.438199
2839.902896,74.020594,-9474.636058,-383.047749
2839.903223,0.000000,-9474.636058,-383.047749
2839.903551,0.000000,-9770.718434,-459.657299
2839.903878,74.020594,-9474.636058,-383.047749
2839.904206,370.102971,-9844.739029,-459.657299
2839.904533,444.123565,-9844.739029,0.000000
2839.904861,1110.308913,-9622.677246,0.000000
2839.905188,1332.370696,-9474.636058,153.219100
2839.905516,1924.535449,-9474.636058,306.438199
2839.905843,2368.659014,-9030.512492,459.657299
2839.906171,2812.782580,-8438.347739,153.219100
2839.906498,2886.803174,-7624.121203,76.609550
2839.906826,3701.029710,-9400.615463,-459.657299
2839.907153,4737.318029,-9030.512492,-612.876398
2839.907480,5477.523971,-8882.471304,-766.095498
2839.907808,6513.812290,-9918.759623,-383.047749
2839.908135,7550.100608,-10510.924376,0.000000
2839.908463,8512.368333,-10510.924376,0.000000
2839.908790,8068.244768,-10510.924376,0.000000
2839.909118,8660.409521,-9326.594869,0.000000
2839.909445,9030.512492,-8586.388927,0.000000
2839.909773,9622.677246,-8956.491898,153.219100
2839.910100,10510.924376,-8512.368333,306.438199
2839.910428,11769.274478,-9030.512492,76.609550
2839.910755,12139.377449,-9844.739029,153.219100
2839.911083,11621.233289,-9770.718434,306.438199
2839.911410,10658.965565,-9844.739029,0.000000
2839.911737,10732.986159,-10288.862594,-459.657299
2839.912065,12879.583391,-10658.965565,-995.924147
2839.912392,14063.912898,-9992.780217,-383.047749
2839.912720,15396.283594,-11103.089130,536.266849
2839.913047,14878.139434,-10362.883188,1915.238745
2839.913375,15840.407159,-9326.594869,1838.629195
2839.913702,14952.160028,-8290.306550,459.657299
2839.914030,13175.665768,-8956.491898,459.657299
2839.914357,12805.562797,-9770.718434,229.828649
2839.914685,13397.727550,-10436.903782,0.000000
2839.915012,13027.624579,-10214.842000,0.000000
2839.915340,13397.727550,-11029.068536,766.095498
2839.915667,11843.295072,-9696.697840,1455.581446
2839.915994,11473.192101,-9474.636058,1685.410096
2839.916322,10140.821405,-9844.739029,995.924147
2839.916649,8956.491898,-10510.924376,0.000000
2839.916977,6883.915261,-10140.821405,383.047749
2839.917304,5255.462188,-9178.553681,306.438199
2839.917632,3627.009116,-7402.059420,689.485948
2839.917959,2516.700203,-7402.059420,383.047749
2839.918287,3330.926739,-8808.450710,-306.438199
2839.918614,4515.256246,-10066.800811,0.000000
2839.918942,4959.379811,-10658.965565,-459.657299
2839.919269,3849.070898,-11029.068536,229.828649
2839.919596,2442.679609,-9918.759623,612.876398
2839.919924,1332.370696,-8734.430116,306.438199
2839.920251,1628.453072,-7698.141797,0.000000
2839.920579,4071.132681,-9400.615463,-383.047749
2839.920906,4737.318029,-11695.253884,153.219100
2839.921234,3034.844362,-11991.336260,1455.581446
2839.921561,740.205942,-9770.718434,689.485948
2839.921889,-1776.494261,-8586.388927,-1378.971896
2839.922216,-3256.906145,-9104.533087,-2451.505594
2839.922544,-2738.761985,-10214.842000,-2834.553343
2839.922871,-1406.391290,-10288.862594,-2221.676944
2839.923199,-222.061783,-10066.800811,-766.095498
2839.923526,1702.473667,-8956.491898,536.266849
2839.923853,888.247130,-7846.182985,1225.752797
2839.924181,-1036.288319,-8734.430116,1838.629195
2839.924508,-1554.432478,-10362.883188,689.485948
2839.924836,-888.247130,-10807.006753,-1532.190996
2839.925163,74.020594,-10066.800811,-3294.210641
2839.925491,222.061783,-8734.430116,-2374.896044
2839.925818,-1258.350101,-9474.636058,306.438199
2839.926146,-2368.659014,-10807.006753,1838.629195
2839.926473,-2516.700203,-11843.295072,459.657299
2839.926801,-1036.288319,-9770.718434,-2221.676944
2839.927128,148.041188,-8290.306550,-2987.772442
2839.927456,0.000000,-7772.162391,-306.438199
2839.927783,-962.267725,-8956.491898,1762.019645
2839.928110,-1184.329507,-9030.512492,2374.896044
2839.928438,0.000000,-7402.059420,383.047749
2839.928765,1332.370696,-6439.791695,-1149.143247
2839.929093,2812.782580,-7994.224174,-1072.533697
2839.929420,3404.947333,-10732.986159,0.000000
2839.929748,4071.132681,-12953.603985,536.266849
2839.930075,4811.338623,-11251.130318,-612.876398
2839.930403,4885.359217,-10658.965565,-1225.752797
2839.930730,4071.132681,-11325.150913,-689.485948
2839.931058,3034.844362,-11547.212695,536.266849
2839.931385,4663.297435,-11399.171507,229.828649
2839.931713,4589.276840,-9474.636058,-459.657299
2839.932040,4293.194464,-9474.636058,766.095498
2839.932367,1850.514855,-8660.409521,1915.238745
2839.932695,-962.267725,-8068.244768,1991.848295
2839.933022,-666.185348,-8734.430116,-459.657299
2839.933350,1702.473667,-8364.327145,-3294.210641
2839.933677,1628.453072,-8142.265362,-2834.553343
2839.934005,370.102971,-10066.800811,306.438199
2839.934332,1110.308913,-11991.336260,1608.800546
2839.934660,2812.782580,-12065.356855,766.095498
2839.934987,3478.967927,-12065.356855,-1378.971896
2839.935315,2368.659014,-13175.665768,-1378.971896
2839.935642,74.020594,-12435.459826,-612.876398
2839.935970,-518.144159,-10732.986159,383.047749
2839.936297,0.000000,-9918.759623,-536.266849
2839.936624,-296.082377,-9474.636058,306.438199
2839.936952,-1924.535449,-7846.182985,1685.410096
2839.937279,-3997.112087,-7254.018232,2068.457845
2839.937607,-3478.967927,-8586.388927,842.705048
2839.937934,-1258.350101,-7994.224174,-1302.362347
2839.938262,-666.185348,-7476.080014,-919.314598
2839.938589,-2516.700203,-7179.997637,1762.019645
2839.938917,-1332.370696,-8364.327145,2145.067394
2839.939244,-444.123565,-10362.883188,1072.533697
2839.939572,0.000000,-11251.130318,-459.657299
2839.939899,-1480.411884,-10658.965565,-1072.533697
2839.940226,-2590.720797,-10140.821405,0.000000
2839.940554,-3404.947333,-10807.006753,-536.266849
2839.940881,-2220.617826,-10436.903782,-1608.800546
2839.941209,-962.267725,-8734.430116,-1149.143247
2839.941536,-2368.659014,-8290.306550,-689.485948
2839.941864,-2516.700203,-8586.388927,689.485948
2839.942191,-1776.494261,-8364.327145,766.095498
2839.942519,0.000000,-7624.121203,-229.828649
2839.942846,1036.288319,-7254.018232,-459.657299
2839.943174,1406.391290,-9326.594869,0.000000
2839.943501,444.123565,-10584.944971,689.485948
2839.943829,222.061783,-11103.089130,612.876398
2839.944156,1998.556043,-11695.253884,-2145.067394
2839.944483,1332.370696,-12213.398043,-3370.820191
2839.944811,-962.267725,-12657.521608,-2528.115143
2839.945138,-1776.494261,-12139.377449,-1991.848295
2839.945466,-370.102971,-11177.109724,-1991.848295
2839.945793,1258.350101,-10214.842000,-1762.019645
2839.946121,1258.350101,-8512.368333,-459.657299
2839.946448,740.205942,-8364.327145,1302.362347
2839.946776,0.000000,-7550.100608,1685.410096
2839.947103,1924.535449,-8734.430116,536.266849
2839.947431,2664.741391,-8216.285956,-689.485948
2839.947758,1332.370696,-8364.327145,459.657299
2839.948086,888.247130,-9844.739029,1915.238745
2839.948413,1776.494261,-11251.130318,0.000000
2839.948740,2960.823768,-11843.295072,-1685.410096
2839.949068,3997.112087,-11769.274478,-1915.238745
2839.949395,2368.659014,-10807.006753,-536.266849
2839.949723,1036.288319,-11103.089130,306.438199
2839.950050,1036.288319,-10584.944971,766.095498
2839.950378,1702.473667,-8808.450710,153.219100
2839.950705,1480.411884,-7179.997637,612.876398
2839.951033,74.020594,-6957.935855,1685.410096
2839.951360,-1036.288319,-7328.038826,2145.067394
2839.951688,0.000000,-8364.327145,689.485948
2839.952015,1406.391290,-7772.162391,-1225.752797
2839.952343,1924.535449,-8660.409521,-995.924147
2839.952670,1110.308913,-10584.944971,1072.533697
2839.952997,222.061783,-11695.253884,1378.971896
2839.953325,1036.288319,-12139.377449,0.000000
2839.953652,1702.473667,-11251.130318,-2068.457845
2839.953980,518.144159,-10881.027347,-2298.286494
2839.954307,-1480.411884,-10288.862594,-306.438199
2839.954635,-2368.659014,-10362.883188,536.266849
2839.954963,296.082377,-9474.636058,-1302.362347
2839.955290,1924.535449,-8660.409521,-2451.505594
2839.955618,814.226536,-8956.491898,-612.876398
2839.955945,-1332.370696,-8734.430116,1762.019645
2839.956273,-814.226536,-8882.471304,1225.752797
2839.956601,962.267725,-8808.450710,-306.438199
2839.956928,1184.329507,-9030.512492,-1762.019645
2839.957256,0.000000,-9548.656652,306.438199
2839.957583,-740.205942,-11251.130318,1302.362347
2839.957911,-666.185348,-12065.356855,689.485948
2839.958239,222.061783,-11547.212695,-1455.581446
2839.958566,-518.144159,-10658.965565,-2374.896044
2839.958894,-2812.782580,-10066.800811,-842.705048
2839.959222,-3478.967927,-9770.718434,-229.828649
2839.959549,-2516.700203,-9104.533087,-995.924147
2839.959877,-1110.308913,-8290.306550,-1378.971896
2839.960204,-592.164754,-7772.162391,-842.705048
2839.960532,-1258.350101,-7846.182985,842.705048
2839.960860,-1480.411884,-8586.388927,2068.457845
2839.961187,814.226536,-8364.327145,1608.800546
2839.961515,2072.576638,-8660.409521,-1072.533697
2839.961842,1554.432478,-9252.574275,-842.705048
2839.962170,-444.123565,-9548.656652,689.485948
2839.962498,-666.185348,-10658.965565,536.266849
2839.962825,1110.308913,-11251.130318,-842.705048
2839.963153,2220.617826,-10881.027347,-1915.238745
2839.963481,666.185348,-9918.759623,-689.485948
2839.963808,-740.205942,-9770.718434,842.705048
2839.964136,0.000000,-9918.759623,689.485948
2839.964463,1776.494261,-9548.656652,-1072.533697
2839.964791,1184.329507,-8438.347739,-842.705048
2839.965119,-518.144159,-8142.265362,1072.533697
2839.965446,-740.205942,-8956.491898,1838.629195
2839.965774,592.164754,-10066.800811,383.047749
2839.966101,2294.638420,-9326.594869,-1225.752797
2839.966429,2294.638420,-10732.986159,-1685.410096
2839.966757,0.000000,-11991.336260,76.609550
2839.967084,-370.102971,-11621.233289,306.438199
2839.967412,1776.494261,-10955.047942,-1838.629195
2839.967740,3256.906145,-10732.986159,-2911.162892
2839.968067,2294.638420,-9696.697840,-1072.533697
2839.968395,962.267725,-9474.636058,1302.362347
2839.968722,888.247130,-9918.759623,1762.019645
2839.969050,1776.494261,-9252.574275,1608.800546
2839.969378,2368.659014,-8438.347739,-536.266849
2839.969705,814.226536,-8364.327145,153.219100
2839.970033,-1110.308913,-9252.574275,1302.362347
2839.970360,-296.082377,-9918.759623,1378.971896
2839.970688,814.226536,-9474.636058,-459.657299
2839.971016,592.164754,-9622.677246,-1072.533697
2839.971343,148.041188,-9400.615463,-383.047749
2839.971671,-1110.308913,-9770.718434,1225.752797
2839.971999,-370.102971,-10436.903782,612.876398
2839.972326,888.247130,-9622.677246,-1378.971896
2839.972654,518.144159,-8290.306550,-1915.238745
2839.972981,-592.164754,-8438.347739,459.657299
2839.973309,-296.082377,-9104.533087,1225.752797
2839.973637,1036.288319,-8364.327145,842.705048
2839.973964,2294.638420,-8512.368333,-229.828649
2839.974292,1184.329507,-9104.533087,-689.485948
2839.974619,-740.205942,-9474.636058,0.000000
2839.974947,-2220.617826,-10362.883188,383.047749
2839.975275,-1406.391290,-10584.944971,0.000000
2839.975602,-222.061783,-9622.677246,-1532.190996
2839.975930,-1184.329507,-10362.883188,-995.924147
2839.976257,-2072.576638,-10807.006753,0.000000
2839.976585,-1554.432478,-11103.089130,76.609550
2839.976913,-222.061783,-10807.006753,-1225.752797
2839.977240,-814.226536,-9548.656652,-1149.143247
2839.977568,-2146.597232,-7920.203579,-229.828649
2839.977896,-2960.823768,-9030.512492,766.095498
2839.978223,-1998.556043,-10436.903782,-306.438199
2839.978551,0.000000,-9992.780217,-1762.019645
2839.978878,814.226536,-9548.656652,-1915.238745
2839.979206,0.000000,-10066.800811,0.000000
2839.979534,296.082377,-10584.944971,1685.410096
2839.979861,1776.494261,-10140.821405,689.485948
2839.980189,3034.844362,-9918.759623,-536.266849
2839.980516,1406.391290,-9548.656652,-612.876398
2839.980844,74.020594,-9474.636058,306.438199
2839.981172,-1332.370696,-9326.594869,1149.143247
2839.981499,-962.267725,-9622.677246,842.705048
2839.981827,962.267725,-7994.224174,0.000000
2839.982155,1184.329507,-8438.347739,-383.047749
2839.982482,0.000000,-9400.615463,689.485948
2839.982810,0.000000,-10436.903782,612.876398
2839.983137,1480.411884,-9770.718434,-306.438199
2839.983465,1480.411884,-8808.450710,-1149.143247
2839.983793,666.185348,-7772.162391,-306.438199
2839.984120,222.061783,-8364.327145,1072.533697
2839.984448,1258.350101,-10584.944971,1608.800546
2839.984775,3404.947333,-11103.089130,306.438199
2839.985103,4071.132681,-10288.862594,-1378.971896
2839.985431,814.226536,-8882.471304,0.000000
2839.985758,-296.082377,-9844.739029,612.876398
2839.986086,1184.329507,-10658.965565,-383.047749
2839.986414,2664.741391,-9252.574275,-2068.457845
2839.986741,2368.659014,-8364.327145,-1149.143247
2839.987069,962.267725,-9326.594869,536.266849
2839.987396,-296.082377,-10214.842000,1762.019645
2839.987724,148.041188,-9844.739029,995.924147
2839.988052,1036.288319,-9252.574275,-1608.800546
2839.988379,888.247130,-9918.759623,-2221.676944
2839.988707,296.082377,-10807.006753,-612.876398
2839.989034,592.164754,-11029.068536,76.609550
2839.989362,1110.308913,-11325.150913,0.000000
2839.989690,1480.411884,-10510.924376,-1225.752797
2839.990017,-518.144159,-10288.862594,-919.314598
2839.990345,-2146.597232,-9918.759623,-612.876398
2839.990673,-1776.494261,-9696.697840,-1225.752797
2839.991000,888.247130,-9178.553681,-2145.067394
2839.991328,1332.370696,-8808.450710,-919.314598
2839.991655,222.061783,-9474.636058,2145.067394
2839.991983,-666.185348,-9474.636058,2911.162892
2839.992311,0.000000,-9622.677246,919.314598
2839.992638,666.185348,-8808.450710,-1685.410096
2839.992966,0.000000,-8808.450710,-2068.457845
2839.993293,-1776.494261,-8956.491898,0.000000
2839.993621,-2294.638420,-9992.780217,1608.800546
2839.993949,-1628.453072,-10807.006753,536.266849
2839.994276,222.061783,-9252.574275,0.000000
2839.994604,666.185348,-9104.533087,-842.705048
2839.994931,-444.123565,-9474.636058,536.266849
2839.995259,-1110.308913,-9770.718434,766.095498
2839.995587,0.000000,-9474.636058,0.000000
2839.995914,888.247130,-7920.203579,-459.657299
2839.996242,296.082377,-7402.059420,919.314598
2839.996570,-1184.329507,-8808.450710,2681.334243
2839.996897,-814.226536,-9992.780217,1838.629195
2839.997225,888.247130,-10732.986159,-1302.362347
2839.997552,1702.473667,-10658.965565,-2911.162892
2839.997880,74.020594,-10881.027347,-995.924147
2839.998208,-740.205942,-11695.253884,842.705048
2839.998535,740.205942,-10955.047942,536.266849
2839.998863,2812.782580,-10436.903782,-1302.362347
2839.999190,2146.597232,-10066.800811,-1762.019645
2839.999518,0.000000,-9474.636058,-459.657299
2839.999846,-1628.453072,-9252.574275,459.657299
2840.000173,-962.267725,-9326.594869,459.657299
2840.000501,444.123565,-8216.285956,-1225.752797
2840.000829,888.247130,-8364.327145,-2068.457845
2840.001156,222.061783,-9474.636058,-306.438199
2840.001484,444.123565,-9918.759623,383.047749
2840.001811,2368.659014,-10510.924376,0.000000
2840.002139,3701.029710,-10288.862594,-536.266849
2840.002467,2368.659014,-9696.697840,76.609550
2840.002794,444.123565,-8956.491898,1608.800546
2840.003122,0.000000,-9770.718434,1225.752797
2840.003449,592.164754,-9252.574275,-919.314598
2840.003777,1110.308913,-9104.533087,-2298.286494
2840.004105,-1110.308913,-9992.780217,-995.924147
2840.004432,-1554.432478,-10066.800811,689.485948
2840.004760,592.164754,-9252.574275,-536.266849
2840.005088,2590.720797,-9474.636058,-1225.752797
2840.005415,2516.700203,-10214.842000,0.000000
2840.005743,1554.432478,-9918.759623,1225.752797
2840.006070,0.000000,-9030.512492,1532.190996
2840.006398,-148.041188,-9992.780217,766.095498
2840.006726,296.082377,-8956.491898,-766.095498
2840.007053,740.205942,-8068.244768,-919.314598
2840.007381,-296.082377,-8956.491898,0.000000
2840.007708,-962.267725,-10214.842000,1378.971896
2840.008036,0.000000,-10436.903782,-536.266849
2840.008364,444.123565,-10214.842000,-1838.629195
2840.008691,74.020594,-9918.759623,-1455.581446
2840.009019,-1184.329507,-9992.780217,76.609550
2840.009347,-1480.411884,-10362.883188,76.609550
2840.009674,222.061783,-10362.883188,0.000000
2840.010002,1258.350101,-9252.574275,-1225.752797
2840.010329,0.000000,-9178.553681,229.828649
2840.010657,-1184.329507,-10288.862594,1991.848295
2840.010985,-592.164754,-9400.615463,1072.533697
2840.011312,296.082377,-9326.594869,-1685.410096
2840.011640,518.144159,-10066.800811,-2068.457845
2840.011967,222.061783,-9918.759623,-689.485948
2840.012295,-1184.329507,-9696.697840,459.657299
2840.012623,-296.082377,-10066.800811,919.314598
2840.012950,1628.453072,-9400.615463,-306.438199
2840.013278,1998.556043,-8882.471304,-689.485948
2840.013605,0.000000,-9474.636058,689.485948
2840.013933,-740.205942,-10066.800811,1915.238745
2840.014261,-666.185348,-9030.512492,842.705048
2840.014588,-148.041188,-8512.368333,-306.438199
2840.014916,-962.267725,-8364.327145,-766.095498
2840.015244,-1406.391290,-9326.594869,-383.047749
2840.015571,-1702.473667,-10658.965565,229.828649
2840.015899,-222.061783,-10807.006753,-995.924147
2840.016226,1110.308913,-9548.656652,-2374.896044
2840.016554,370.102971,-9696.697840,0.000000
2840.016882,0.000000,-9770.718434,1302.362347
2840.017209,1406.391290,-9918.759623,766.095498
2840.017537,3256.906145,-9844.739029,-842.705048
2840.017864,3775.050304,-9770.718434,-1149.143247
2840.018192,2516.700203,-9622.677246,229.828649
2840.018520,222.061783,-9474.636058,1762.019645
2840.018847,-888.247130,-9696.697840,842.705048
2840.019175,1036.288319,-9474.636058,-1608.800546
2840.019503,1776.494261,-9992.780217,-2451.505594
2840.019830,518.144159,-10584.944971,-689.485948
2840.020158,-296.082377,-9622.677246,995.924147
2840.020485,0.000000,-9474.636058,459.657299
2840.020813,740.205942,-10140.821405,-766.095498
2840.021141,1110.308913,-9474.636058,-1455.581446
2840.021468,-444.123565,-9178.553681,0.000000
2840.021796,-222.061783,-10288.862594,383.047749
2840.022123,518.144159,-10436.903782,153.219100
2840.022451,1110.308913,-9252.574275,-995.924147
2840.022779,0.000000,-9400.615463,-689.485948
2840.023106,-888.247130,-10584.944971,536.266849
2840.023434,0.000000,-11177.109724,0.000000
2840.023762,1850.514855,-9474.636058,-1532.190996
2840.024089,2960.823768,-9400.615463,-1225.752797
2840.024417,1850.514855,-10066.800811,919.314598
2840.024744,0.000000,-9844.739029,2681.334243
2840.025072,-962.267725,-8142.265362,2145.067394
2840.025400,222.061783,-7402.059420,-306.438199
2840.025727,888.247130,-8438.347739,-1149.143247
2840.026055,-814.226536,-9474.636058,76.609550
2840.026382,-2146.597232,-9474.636058,1378.971896
2840.026710,-2516.700203,-8734.430116,-459.657299
2840.027038,-1332.370696,-9770.718434,-2298.286494
2840.027365,-962.267725,-10214.842000,-2681.334243
2840.027693,-888.247130,-10584.944971,-1149.143247
2840.028021,-296.082377,-10658.965565,76.609550
2840.028348,1628.453072,-11103.089130,-153.219100
2840.028676,2294.638420,-10955.047942,0.000000
2840.029003,592.164754,-10066.800811,689.485948
2840.029331,-1110.308913,-9844.739029,1072.533697
2840.029659,-592.164754,-9918.759623,-536.266849
2840.029986,888.247130,-9770.718434,-2604.724693
2840.030314,1850.514855,-10066.800811,-2298.286494
2840.030641,888.247130,-10140.821405,536.266849
2840.030969,0.000000,-9770.718434,1915.238745
2840.031297,-1406.391290,-10362.883188,1378.971896
2840.031624,444.123565,-9474.636058,-1762.019645
2840.031952,1110.308913,-9178.553681,-2451.505594
2840.032279,0.000000,-9326.594869,-842.705048
2840.032607,-1480.411884,-9400.615463,919.314598
2840.032935,-370.102971,-9474.636058,1455.581446
2840.033262,1406.391290,-9770.718434,229.828649
2840.033590,1110.308913,-9622.677246,-306.438199
2840.033918,-370.102971,-9844.739029,0.000000
2840.034245,-1036.288319,-9770.718434,-306.438199
2840.034573,0.000000,-9992.780217,-1532.190996
2840.034900,1998.556043,-9326.594869,-1532.190996
2840.035228,1406.391290,-8364.327145,383.047749
2840.035556,814.226536,-9178.553681,3753.867940
2840.035883,1184.329507,-9474.636058,2451.505594
2840.036211,2368.659014,-10214.842000,-306.438199
2840.036538,2960.823768,-9992.780217,-1532.190996
2840.036866,1332.370696,-9622.677246,-459.657299
2840.037194,-518.144159,-9104.533087,1149.143247
2840.037521,-814.226536,-10288.862594,919.314598
2840.037849,1110.308913,-10732.986159,-842.705048
2840.038177,1850.514855,-10288.862594,-2298.286494
2840.038504,1036.288319,-11251.130318,-1378.971896
2840.038832,-296.082377,-10584.944971,0.000000
2840.039159,-1258.350101,-9548.656652,536.266849
2840.039487,-666.185348,-9104.533087,-689.485948
2840.039815,-222.061783,-8364.327145,-919.314598
2840.040142,-296.082377,-9178.553681,-536.266849
2840.040470,-740.205942,-9252.574275,-306.438199
2840.040797,0.000000,-10214.842000,0.000000
2840.041125,1332.370696,-10288.862594,-536.266849
2840.041453,1184.329507,-9474.636058,0.000000
2840.041780,370.102971,-10510.924376,1149.143247
2840.042108,222.061783,-10436.903782,612.876398
2840.042436,2072.576638,-10362.883188,-995.924147
2840.042763,1554.432478,-10140.821405,-1915.238745
2840.043091,444.123565,-10436.903782,0.000000
2840.043418,-1110.308913,-10066.800811,1532.190996
2840.043746,-1776.494261,-8734.430116,1225.752797
2840.044074,-148.041188,-8734.430116,0.000000
2840.044401,888.247130,-8956.491898,-1149.143247
2840.044729,222.061783,-9178.553681,0.000000
2840.045056,-1480.411884,-8438.347739,1225.752797
2840.045384,-1924.535449,-8364.327145,612.876398
2840.045712,-444.123565,-8956.491898,-459.657299
2840.046039,592.164754,-9696.697840,-1149.143247
2840.046367,74.020594,-9992.780217,0.000000
2840.046695,-148.041188,-10658.965565,0.000000
2840.047022,444.123565,-11177.109724,306.438199
2840.047350,1480.411884,-11029.068536,-1608.800546
2840.047677,222.061783,-10288.862594,-995.924147
2840.048005,-1110.308913,-9400.615463,459.657299
2840.048333,-666.185348,-9400.615463,0.000000
2840.048660,1184.329507,-10362.883188,-1762.019645
2840.048988,1776.494261,-9844.739029,-2145.067394
2840.049315,1110.308913,-9474.636058,-689.485948
2840.049643,0.000000,-9178.553681,1455.581446
2840.049971,-518.144159,-9400.615463,1225.752797
2840.050298,592.164754,-9474.636058,-459.657299
2840.050626,1850.514855,-9696.697840,-1762.019645
2840.050953,1850.514855,-10584.944971,-1532.190996
2840.051281,222.061783,-10214.842000,76.609550
2840.051609,-222.061783,-9844.739029,459.657299
2840.051936,962.267725,-9474.636058,-306.438199
2840.052264,2220.617826,-9474.636058,-612.876398
2840.052592,666.185348,-10066.800811,153.219100
2840.052919,-370.102971,-10510.924376,536.266849
2840.053247,-222.061783,-10436.903782,-459.657299
2840.053574,444.123565,-9548.656652,-1072.533697
2840.053902,0.000000,-8142.265362,0.000000
2840.054230,0.000000,-8438.347739,1302.362347
2840.054557,592.164754,-9326.594869,1532.190996
2840.054885,1776.494261,-10510.924376,153.219100
2840.055212,2442.679609,-9918.759623,-1225.752797
2840.055540,1406.391290,-9178.553681,76.609550
2840.055867,-962.267725,-9104.533087,1149.143247
2840.056194,-1998.556043,-9622.677246,766.095498
2840.056522,0.000000,-9622.677246,-1762.019645
2840.056849,2294.638420,-10584.944971,-2451.505594
2840.057177,2220.617826,-10732.986159,-766.095498
2840.057504,740.205942,-9548.656652,1608.800546
2840.057831,-518.144159,-9030.512492,2451.505594
2840.058159,0.000000,-8660.409521,536.266849
2840.058486,592.164754,-9178.553681,-1685.410096
2840.058814,148.041188,-8808.450710,-995.924147
2840.059141,-1258.350101,-8512.368333,383.047749
2840.059468,-1036.288319,-9400.615463,536.266849
2840.059796,0.000000,-10584.944971,-306.438199
2840.060123,0.000000,-10436.903782,-1302.362347
2840.060451,-666.185348,-11103.089130,-919.314598
2840.060778,-592.164754,-11621.233289,-1838.629195
2840.061106,1184.329507,-11473.192101,-2451.505594
2840.061433,2368.659014,-10807.006753,-2451.505594
2840.061760,1702.473667,-10214.842000,0.000000
2840.062088,-296.082377,-10066.800811,1915.238745
2840.062415,-1554.432478,-9030.512492,1762.019645
2840.062743,0.000000,-9104.533087,-536.266849
2840.063070,1110.308913,-8734.430116,-1915.238745
2840.063397,1776.494261,-9400.615463,-383.047749
2840.063725,222.061783,-9178.553681,1532.190996
2840.064052,-962.267725,-8956.491898,1762.019645
2840.064380,0.000000,-8882.471304,306.438199
2840.064707,740.205942,-8808.450710,-919.314598
2840.065034,-296.082377,-9326.594869,-153.219100
2840.065362,-2072.576638,-9548.656652,0.000000
2840.065689,-1702.473667,-10066.800811,-229.828649
2840.066017,-370.102971,-9622.677246,-1532.190996
2840.066344,0.000000,-8808.450710,-842.705048
2840.066671,74.020594,-9474.636058,842.705048
2840.066999,814.226536,-10066.800811,1455.581446
2840.067326,1776.494261,-10584.944971,0.000000
2840.067654,2812.782580,-10362.883188,-1915.238745
2840.067981,1480.411884,-10214.842000,-612.876398
2840.068308,148.041188,-9178.553681,612.876398
2840.068636,-592.164754,-8586.388927,1378.971896
2840.068963,74.020594,-9770.718434,689.485948
2840.069291,2368.659014,-10066.800811,-612.876398
2840.069618,3256.906145,-10510.924376,-1685.410096
2840.069945,740.205942,-9770.718434,153.219100
2840.070273,-962.267725,-9252.574275,995.924147
2840.070600,-518.144159,-8882.471304,-383.047749
2840.070928,-222.061783,-8956.491898,-2298.286494
2840.071255,-1110.308913,-9400.615463,-1915.238745
2840.071582,-1628.453072,-10066.800811,-689.485948
2840.071910,0.000000,-11325.150913,-612.876398
2840.072237,1702.473667,-11325.150913,-383.047749
2840.072565,1702.473667,-10140.821405,-459.657299
2840.072892,74.020594,-9770.718434,612.876398
2840.073219,-222.061783,-10288.862594,842.705048
2840.073547,1554.432478,-9770.718434,-1225.752797
2840.073874,3108.864956,-9622.677246,-1685.410096
2840.074202,2368.659014,-9252.574275,0.000000
2840.074529,-222.061783,-8586.388927,2681.334243
2840.074856,-1184.329507,-9178.553681,2298.286494
2840.075184,-666.185348,-9770.718434,0.000000
2840.075511,740.205942,-10066.800811,-2451.505594
2840.075839,888.247130,-9770.718434,-1991.848295
2840.076166,-444.123565,-9918.759623,0.000000
2840.076493,-666.185348,-9474.636058,1072.533697
2840.076821,0.000000,-9030.512492,459.657299
2840.077148,148.041188,-9326.594869,-919.314598
2840.077476,148.041188,-9770.718434,-306.438199
2840.077803,-666.185348,-9474.636058,229.828649
2840.078130,-888.247130,-10658.965565,0.000000
2840.078458,-592.164754,-10510.924376,-1225.752797
2840.078785,-370.102971,-8290.306550,-1608.800546
2840.079113,-962.267725,-8364.327145,-919.314598
2840.079440,-888.247130,-10436.903782,229.828649
2840.079767,444.123565,-10362.883188,-306.438199
2840.080095,2590.720797,-9252.574275,-1149.143247
2840.080422,2664.741391,-8808.450710,-536.266849
2840.080750,1406.391290,-9622.677246,1915.238745
2840.081077,-222.061783,-9252.574275,2681.334243
2840.081404,0.000000,-8438.347739,842.705048
2840.081732,518.144159,-9474.636058,-1378.971896
2840.082059,518.144159,-10881.027347,-2221.676944
2840.082387,-814.226536,-10584.944971,-766.095498
2840.082714,-962.267725,-10214.842000,153.219100
2840.083041,444.123565,-9992.780217,229.828649
2840.083369,1036.288319,-10288.862594,-383.047749
2840.083696,0.000000,-9474.636058,0.000000
2840.084024,-888.247130,-8660.409521,76.609550
2840.084351,-1258.350101,-8438.347739,0.000000
2840.084678,-666.185348,-8956.491898,0.000000
2840.085006,592.164754,-9030.512492,0.000000
2840.085333,740.205942,-9178.553681,919.314598
2840.085661,296.082377,-9992.780217,1072.533697
2840.085988,370.102971,-11029.068536,-459.657299
2840.086316,1702.473667,-11177.109724,-2145.067394
2840.086643,2294.638420,-11029.068536,-2298.286494
2840.086970,74.020594,-10066.800811,-383.047749
2840.087298,-1480.411884,-9326.594869,1072.533697
2840.087625,-592.164754,-9548.656652,1072.533697
2840.087953,740.205942,-9474.636058,-536.266849
2840.088280,1406.391290,-8956.491898,-459.657299
2840.088607,0.000000,-8660.409521,1608.800546
2840.088935,-1332.370696,-8438.347739,995.924147
2840.089262,-444.123565,-9104.533087,-612.876398
2840.089590,518.144159,-9474.636058,-2221.676944
2840.089917,592.164754,-8882.471304,-1225.752797
2840.090244,0.000000,-9696.697840,229.828649
2840.090572,-222.061783,-10658.965565,459.657299
2840.090899,1110.308913,-10732.986159,-383.047749
2840.091227,2146.597232,-10658.965565,-1532.190996
2840.091554,1850.514855,-10807.006753,-153.219100
2840.091881,592.164754,-10510.924376,1378.971896
2840.092209,518.144159,-9474.636058,459.657299
2840.092536,74.020594,-9030.512492,-689.485948
2840.092864,0.000000,-8586.388927,-1302.362347
2840.093191,222.061783,-8142.265362,153.219100
2840.093518,-962.267725,-8142.265362,689.485948
2840.093846,-518.144159,-9992.780217,383.047749
2840.094173,1184.329507,-10436.903782,-995.924147
2840.094501,2072.576638,-9770.718434,-1302.362347
2840.094828,888.247130,-10066.800811,0.000000
2840.095155,222.061783,-10214.842000,153.219100
2840.095483,1184.329507,-10362.883188,76.609550
2840.095810,2664.741391,-10066.800811,-1149.143247
2840.096138,2072.576638,-9992.780217,-459.657299
2840.096465,814.226536,-9844.739029,919.314598
2840.096792,-814.226536,-9474.636058,1608.800546
2840.097120,-1184.329507,-9104.533087,1302.362347
2840.097447,814.226536,-9326.594869,-1608.800546
2840.097775,666.185348,-9548.656652,-2298.286494
2840.098102,-666.185348,-9844.739029,536.266849
2840.098429,-444.123565,-9326.594869,919.314598
2840.098757,814.226536,-9252.574275,0.000000
2840.099084,2072.576638,-9844.739029,-536.266849
2840.099412,888.247130,-10214.842000,229.828649
2840.099739,-1036.288319,-9918.759623,536.266849
2840.100066,-1110.308913,-9622.677246,-536.266849
2840.100394,0.000000,-9474.636058,-1838.629195
2840.100721,518.144159,-10140.821405,-1455.581446
2840.101049,-222.061783,-10066.800811,0.000000
2840.101376,-1036.288319,-9622.677246,536.266849
2840.101703,-370.102971,-10140.821405,-612.876398
2840.102031,888.247130,-9992.780217,-766.095498
2840.102358,962.267725,-9696.697840,-766.095498
2840.102686,-592.164754,-8068.244768,459.657299
2840.103013,-1702.473667,-8956.491898,1378.971896
2840.103340,0.000000,-10436.903782,536.266849
2840.103668,1776.494261,-9548.656652,-995.924147
2840.103995,814.226536,-9178.553681,-229.828649
2840.104323,-1110.308913,-9548.656652,536.266849
2840.104650,-1184.329507,-11029.068536,0.000000
2840.104977,-740.205942,-10732.986159,-1915.238745
2840.105305,74.020594,-10066.800811,-3064.381992
2840.105632,0.000000,-10066.800811,-1455.581446
2840.105960,-888.247130,-9844.739029,306.438199
2840.106287,-962.267725,-9474.636058,919.314598
2840.106614,888.247130,-9474.636058,-689.485948
2840.106942,1258.350101,-8956.491898,-1225.752797
2840.107269,1184.329507,-9252.574275,-459.657299
2840.107597,0.000000,-9400.615463,612.876398
2840.107924,0.000000,-9474.636058,306.438199
2840.108251,1776.494261,-9696.697840,-306.438199
2840.108579,2294.638420,-9770.718434,-689.485948
2840.108906,296.082377,-9696.697840,-153.219100
2840.109234,-592.164754,-9844.739029,459.657299
2840.109561,222.061783,-10584.944971,-766.095498
2840.109888,1258.350101,-9770.718434,-1302.362347
2840.110216,962.267725,-9474.636058,-995.924147
2840.110543,0.000000,-9326.594869,995.924147
2840.110871,370.102971,-9252.574275,1762.019645
2840.111198,1554.432478,-9400.615463,536.266849
2840.111525,2590.720797,-9326.594869,-842.705048
2840.111853,2220.617826,-9474.636058,-612.876398
2840.112180,814.226536,-9474.636058,0.000000
2840.112508,-296.082377,-9622.677246,229.828649
2840.112835,518.144159,-9844.739029,-229.828649
2840.113163,2072.576638,-9770.718434,0.000000
2840.113490,2072.576638,-9844.739029,0.000000
2840.113817,592.164754,-10288.862594,536.266849
2840.114145,0.000000,-9844.739029,229.828649
2840.114472,1184.329507,-9622.677246,0.000000
2840.114800,1258.350101,-9474.636058,0.000000
2840.115127,-518.144159,-9252.574275,459.657299
2840.115454,-2072.576638,-9030.512492,612.876398
2840.115782,-1184.329507,-9474.636058,0.000000
2840.116109,1036.288319,-9918.759623,-1532.190996
2840.116437,1924.535449,-10362.883188,-1302.362347
2840.116764,666.185348,-10955.047942,766.095498
2840.117091,444.123565,-11843.295072,842.705048
2840.117419,962.267725,-11547.212695,-536.266849
2840.117746,1628.453072,-9992.780217,-1762.019645
2840.118074,296.082377,-8808.450710,-1608.800546
2840.118401,-1998.556043,-8586.388927,689.485948
2840.118728,-2738.761985,-8290.306550,1378.971896
2840.119056,-1480.411884,-8142.265362,76.609550
2840.119383,0.000000,-8512.368333,-995.924147
2840.119711,-518.144159,-8290.306550,-536.266849
2840.120038,-1110.308913,-7772.162391,612.876398
2840.120365,-1554.432478,-8734.430116,306.438199
2840.120693,74.020594,-10955.047942,-1072.533697
2840.121020,1258.350101,-11103.089130,-1762.019645
2840.121348,814.226536,-10362.883188,-612.876398
2840.121675,-370.102971,-10066.800811,1149.143247
2840.122002,-370.102971,-10584.944971,1302.362347
2840.122330,740.205942,-10881.027347,-306.438199
2840.122657,-148.041188,-9770.718434,-1455.581446
2840.122985,-1628.453072,-8512.368333,-1225.752797
2840.123312,-2812.782580,-7772.162391,-766.095498
2840.123639,-1406.391290,-8734.430116,-612.876398
2840.123967,1110.308913,-9622.677246,-1149.143247
2840.124294,1480.411884,-9918.759623,-612.876398
2840.124622,296.082377,-9770.718434,842.705048
2840.124949,814.226536,-10881.027347,1302.362347
2840.125276,1850.514855,-10288.862594,229.828649
2840.125604,2072.576638,-10214.842000,-919.314598
2840.125931,1110.308913,-10140.821405,-995.924147
2840.126259,-888.247130,-9918.759623,-383.047749
2840.126586,-444.123565,-10362.883188,-306.438199
2840.126913,1406.391290,-10436.903782,-306.438199
2840.127241,1998.556043,-10140.821405,-229.828649
2840.127568,296.082377,-8882.471304,459.657299
2840.127896,-962.267725,-9474.636058,229.828649
2840.128223,-370.102971,-10066.800811,-612.876398
2840.128550,1184.329507,-9178.553681,-1149.143247
2840.128878,2368.659014,-8512.368333,-306.438199
2840.129205,1924.535449,-9104.533087,1378.971896
2840.129533,1258.350101,-9622.677246,2451.505594
2840.129860,1998.556043,-9992.780217,536.266849
2840.130187,3034.844362,-9844.739029,-842.705048
2840.130515,2368.659014,-10807.006753,-1072.533697
2840.130842,222.061783,-10658.965565,0.000000
2840.131170,-1776.494261,-9326.594869,76.609550
2840.131497,-1702.473667,-9104.533087,0.000000
2840.131824,518.144159,-9400.615463,-919.314598
2840.132152,1406.391290,-9104.533087,766.095498
2840.132479,0.000000,-8956.491898,1302.362347
2840.132807,-814.226536,-8734.430116,1532.190996
2840.133134,296.082377,-9178.553681,-383.047749
2840.133461,888.247130,-8956.491898,-1532.190996
2840.133789,-740.205942,-8142.265362,-306.438199
2840.134116,-1554.432478,-8586.388927,383.047749
2840.134444,-222.061783,-10732.986159,-919.314598
2840.134771,1628.453072,-11917.315666,-1991.848295
2840.135098,1628.453072,-11843.295072,-1838.629195
2840.135426,148.041188,-11251.130318,-306.438199
2840.135753,-888.247130,-10658.965565,0.000000
2840.136081,0.000000,-10658.965565,-383.047749
2840.136408,1036.288319,-9844.739029,-1915.238745
2840.136735,1258.350101,-9548.656652,-459.657299
2840.137063,0.000000,-8216.285956,1302.362347
2840.137390,-1332.370696,-7624.121203,1532.190996
2840.137718,-1332.370696,-8364.327145,1149.143247
2840.138045,-518.144159,-9474.636058,-919.314598
2840.138373,-444.123565,-10066.800811,-1072.533697
2840.138700,-962.267725,-10140.821405,-306.438199
2840.139027,-888.247130,-10214.842000,-1532.190996
2840.139355,740.205942,-10807.006753,-842.705048
2840.139682,1406.391290,-10732.986159,-766.095498
2840.140010,370.102971,-10584.944971,459.657299
2840.140337,-962.267725,-9918.759623,842.705048
2840.140664,-666.185348,-9918.759623,-76.609550
2840.140992,148.041188,-9030.512492,-1225.752797
2840.141319,444.123565,-8068.244768,-689.485948
2840.141647,0.000000,-8586.388927,612.876398
2840.141974,0.000000,-9326.594869,1378.971896
2840.142301,1036.288319,-9918.759623,229.828649
2840.142629,2146.597232,-9400.615463,-995.924147
2840.142956,2886.803174,-9326.594869,-766.095498
2840.143284,962.267725,-9992.780217,612.876398
2840.143611,-1036.288319,-9474.636058,1838.629195
2840.143938,-592.164754,-9918.759623,689.485948
2840.144266,888.247130,-9918.759623,-766.095498
2840.144593,666.185348,-9918.759623,-919.314598
2840.144921,-888.247130,-9252.574275,-306.438199
2840.145248,-1480.411884,-8956.491898,-612.876398
2840.145575,0.000000,-9770.718434,-919.314598
2840.145903,1628.453072,-9622.677246,-2145.067394
2840.146230,1480.411884,-9474.636058,-689.485948
2840.146558,0.000000,-10140.821405,919.314598
2840.146885,592.164754,-11177.109724,612.876398
2840.147212,2220.617826,-11399.171507,-536.266849
2840.147540,2886.803174,-10807.006753,-536.266849
2840.147867,888.247130,-9992.780217,0.000000
2840.148195,0.000000,-9548.656652,689.485948
2840.148522,0.000000,-9252.574275,76.609550
2840.148849,0.000000,-9400.615463,-1072.533697
2840.149177,370.102971,-9326.594869,-1149.143247
2840.149504,-740.205942,-9178.553681,-153.219100
2840.149832,-1776.494261,-9252.574275,612.876398
2840.150159,-1110.308913,-10066.800811,76.609550
2840.150486,888.247130,-9844.739029,-995.924147
2840.150814,1406.391290,-9178.553681,-1225.752797
2840.151141,0.000000,-9474.636058,0.000000
2840.151469,-666.185348,-9474.636058,766.095498
2840.151796,592.164754,-9770.718434,536.266849
2840.152123,2294.638420,-9326.594869,-766.095498
2840.152451,1184.329507,-8956.491898,612.876398
2840.152778,-296.082377,-9104.533087,1225.752797
2840.153106,-296.082377,-9696.697840,459.657299
2840.153433,518.144159,-10732.986159,-995.924147
2840.153760,1184.329507,-10732.986159,-1762.019645
2840.154088,1184.329507,-9696.697840,-842.705048
2840.154415,370.102971,-9474.636058,689.485948
2840.154743,518.144159,-9844.739029,1149.143247
2840.155070,2368.659014,-9400.615463,0.000000
2840.155397,3256.906145,-10140.821405,-536.266849
2840.155725,1332.370696,-10066.800811,536.266849
2840.156052,-518.144159,-9104.533087,306.438199
2840.156380,-888.247130,-9696.697840,-229.828649
2840.156707,370.102971,-10066.800811,-1608.800546
2840.157035,740.205942,-9548.656652,-1838.629195
2840.157362,148.041188,-10510.924376,-306.438199
2840.157690,-666.185348,-9622.677246,306.438199
2840.158017,666.185348,-9474.636058,0.000000
2840.158345,1850.514855,-8808.450710,-1378.971896
2840.158673,962.267725,-8216.285956,-536.266849
2840.159000,-888.247130,-9326.594869,995.924147
2840.159328,-740.205942,-10140.821405,766.095498
2840.159655,1776.494261,-11103.089130,0.000000
2840.159983,3330.926739,-10584.944971,-919.314598
2840.160310,1998.556043,-10362.883188,383.047749
2840.160638,-370.102971,-11029.068536,1532.190996
2840.160965,-518.144159,-10658.965565,76.609550
2840.161293,222.061783,-10362.883188,-1762.019645
2840.161621,-296.082377,-9622.677246,-2451.505594
2840.161948,-962.267725,-8586.388927,-459.657299
2840.162276,-2590.720797,-7772.162391,1302.362347
2840.162603,-1776.494261,-8586.388927,1302.362347
2840.162931,0.000000,-9474.636058,766.095498
2840.163258,1258.350101,-9326.594869,76.609550
2840.163586,666.185348,-9178.553681,76.609550
2840.163913,-1110.308913,-9178.553681,-383.047749
2840.164241,-962.267725,-9474.636058,-689.485948
2840.164569,222.061783,-9770.718434,-1378.971896
2840.164896,0.000000,-10288.862594,-995.924147
2840.165224,-1036.288319,-10584.944971,229.828649
2840.165551,-592.164754,-11103.089130,229.828649
2840.165879,296.082377,-11029.068536,-536.266849
2840.166206,1110.308913,-10584.944971,-1762.019645
2840.166534,-370.102971,-9400.615463,-229.828649
2840.166862,-2072.576638,-8438.347739,919.314598
2840.167189,-1184.329507,-8364.327145,-229.828649
2840.167517,1110.308913,-9252.574275,-1302.362347
2840.167844,2294.638420,-9622.677246,-689.485948
2840.168172,1480.411884,-9474.636058,306.438199
2840.168499,-666.185348,-8956.491898,766.095498
2840.168827,-1184.329507,-10214.842000,-229.828649
2840.169154,0.000000,-10955.047942,-2221.676944
2840.169482,1332.370696,-10732.986159,-2528.115143
2840.169810,888.247130,-10214.842000,-1149.143247
2840.170137,370.102971,-9474.636058,383.047749
2840.170465,740.205942,-8882.471304,1072.533697
2840.170792,1258.350101,-8956.491898,919.314598
2840.171120,-296.082377,-8438.347739,383.047749
2840.171447,-1998.556043,-8290.306550,0.000000
2840.171775,-1628.453072,-9104.533087,-919.314598
2840.172102,-296.082377,-9770.718434,-1532.190996
2840.172430,1110.308913,-9548.656652,-995.924147
2840.172758,1036.288319,-9252.574275,229.828649
2840.173085,1406.391290,-11029.068536,1455.581446
2840.173413,1628.453072,-11473.192101,306.438199
2840.173740,3775.050304,-11695.253884,-1455.581446
2840.174068,3775.050304,-10140.821405,-1302.362347
2840.174395,1924.535449,-9770.718434,536.266849
2840.174723,-296.082377,-8734.430116,1532.190996
2840.175050,-518.144159,-8364.327145,1532.190996
2840.175378,-296.082377,-8512.368333,229.828649
2840.175706,1480.411884,-9548.656652,-1149.143247
2840.176033,1036.288319,-9548.656652,-459.657299
2840.176361,-518.144159,-8660.409521,306.438199
2840.176688,-666.185348,-9030.512492,612.876398
2840.177016,592.164754,-10140.821405,229.828649
2840.177343,814.226536,-9844.739029,-612.876398
2840.177671,518.144159,-10066.800811,0.000000
2840.177999,-518.144159,-9844.739029,0.000000
2840.178326,0.000000,-11325.150913,-306.438199
2840.178654,1258.350101,-10807.006753,-842.705048
2840.178981,518.144159,-10362.883188,-229.828649
2840.179309,-962.267725,-10436.903782,229.828649
2840.179636,-740.205942,-9770.718434,-459.657299
2840.179964,1110.308913,-10436.903782,-2068.457845
2840.180291,1850.514855,-9696.697840,-1378.971896
2840.180619,888.247130,-9622.677246,1072.533697
2840.180947,-666.185348,-8068.244768,1991.848295
2840.181274,-1184.329507,-8290.306550,1608.800546
2840.181602,0.000000,-9548.656652,229.828649
2840.181929,962.267725,-9474.636058,-383.047749
2840.182257,-518.144159,-8216.285956,-229.828649
2840.182584,-1480.411884,-9400.615463,153.219100
2840.182912,-2220.617826,-9548.656652,0.000000
2840.183239,-1998.556043,-10436.903782,-919.314598
2840.183567,-1406.391290,-10510.924376,-1915.238745
2840.183895,-1628.453072,-10066.800811,-2221.676944
2840.184222,-1332.370696,-9696.697840,-1532.190996
2840.184550,0.000000,-10658.965565,-1149.143247
2840.184877,2220.617826,-10658.965565,-766.095498
2840.185205,2294.638420,-10362.883188,612.876398
2840.185532,1184.329507,-10066.800811,842.705048
2840.185860,1184.329507,-9696.697840,0.000000
2840.186187,1776.494261,-9622.677246,-1225.752797
2840.186515,1850.514855,-9696.697840,-1149.143247
2840.186843,1184.329507,-9696.697840,-689.485948
2840.187170,-1184.329507,-9104.533087,153.219100
2840.187498,-2072.576638,-8660.409521,459.657299
2840.187825,370.102971,-10140.821405,-842.705048
2840.188153,2368.659014,-10510.924376,-1225.752797
2840.188480,1184.329507,-9918.759623,-229.828649
2840.188808,-370.102971,-9030.512492,229.828649
2840.189136,-592.164754,-9030.512492,0.000000
2840.189463,518.144159,-9252.574275,0.000000
2840.189791,1554.432478,-9030.512492,-842.705048
2840.190118,592.164754,-8808.450710,459.657299
2840.190446,222.061783,-10140.821405,612.876398
2840.190773,1554.432478,-11695.253884,0.000000
2840.191101,2368.659014,-10807.006753,-229.828649
2840.191428,1554.432478,-9030.512492,229.828649
2840.191756,666.185348,-9252.574275,689.485948
2840.192084,740.205942,-9992.780217,612.876398
2840.192411,2072.576638,-9770.718434,76.609550
2840.192739,3330.926739,-9474.636058,383.047749
2840.193066,2146.597232,-9326.594869,1838.629195
2840.193394,-370.102971,-8364.327145,2374.896044
2840.193721,-1332.370696,-7846.182985,766.095498
2840.194049,-1184.329507,-9104.533087,0.000000
2840.194376,444.123565,-10362.883188,-1991.848295
2840.194704,1036.288319,-10214.842000,-1608.800546
2840.195032,-148.041188,-9918.759623,-229.828649
2840.195359,-592.164754,-9770.718434,153.219100
2840.195687,370.102971,-9918.759623,229.828649
2840.196014,222.061783,-9326.594869,-612.876398
2840.196342,-962.267725,-9474.636058,-229.828649
2840.196669,-1332.370696,-9104.533087,-306.438199
2840.196997,-444.123565,-8956.491898,-919.314598
2840.197324,370.102971,-9326.594869,-459.657299
2840.197652,296.082377,-8956.491898,153.219100
2840.197980,-1110.308913,-9622.677246,612.876398
2840.198307,-1332.370696,-11029.068536,-612.876398
2840.198635,1184.329507,-12287.418637,-2604.724693
2840.198962,2516.700203,-11991.336260,-3064.381992
2840.199290,1258.350101,-11325.150913,-612.876398
2840.199617,-962.267725,-9844.739029,1302.362347
2840.199945,-2368.659014,-9252.574275,766.095498
2840.200273,-1776.494261,-9548.656652,-995.924147
2840.200600,-814.226536,-9252.574275,-2221.676944
2840.200928,-1480.411884,-8142.265362,-1072.533697
2840.201255,-2886.803174,-7624.121203,0.000000
2840.201583,-2072.576638,-8290.306550,0.000000
2840.201910,-888.247130,-9992.780217,-229.828649
2840.202238,0.000000,-10214.842000,0.000000
2840.202565,1258.350101,-10066.800811,0.000000
2840.202893,814.226536,-10066.800811,-306.438199
2840.203221,888.247130,-11177.109724,-229.828649
2840.203548,1924.535449,-11029.068536,-612.876398
2840.203876,2146.597232,-9400.615463,919.314598
2840.204203,666.185348,-8882.471304,1685.410096
2840.204531,222.061783,-9474.636058,766.095498
2840.204858,1184.329507,-9622.677246,-766.095498
2840.205186,2590.720797,-8882.471304,-766.095498
2840.205513,1850.514855,-8734.430116,-1532.190996
2840.205841,-222.061783,-8364.327145,689.485948
2840.206169,-1258.350101,-8438.347739,919.314598
2840.206496,74.020594,-9030.512492,0.000000
2840.206824,2146.597232,-9622.677246,-536.266849
2840.207151,2886.803174,-9770.718434,76.609550
2840.207479,1480.411884,-9400.615463,612.876398
2840.207806,666.185348,-9252.574275,689.485948
2840.208134,962.267725,-10066.800811,0.000000
2840.208461,1998.556043,-11325.150913,-689.485948
2840.208789,1036.288319,-11029.068536,-995.924147
2840.209117,-370.102971,-9770.718434,-1225.752797
2840.209444,-740.205942,-9844.739029,-919.314598
2840.209772,518.144159,-10955.047942,-153.219100
2840.210099,1332.370696,-10436.903782,459.657299
2840.210427,1036.288319,-9844.739029,536.266849
2840.210754,370.102971,-10066.800811,153.219100
2840.211082,962.267725,-9918.759623,-1149.143247
2840.211410,1406.391290,-9548.656652,-1608.800546
2840.211737,1036.288319,-9400.615463,383.047749
2840.212065,-296.082377,-8956.491898,1378.971896
2840.212392,-592.164754,-9548.656652,689.485948
2840.212720,74.020594,-11177.109724,153.219100
2840.213047,1332.370696,-11621.233289,-1762.019645
2840.213375,1184.329507,-10362.883188,-1455.581446
2840.213702,-888.247130,-8956.491898,-459.657299
2840.214030,-1998.556043,-8438.347739,842.705048
2840.214358,-962.267725,-8882.471304,0.000000
2840.214685,888.247130,-8586.388927,306.438199
2840.215013,1258.350101,-8512.368333,1455.581446
2840.215340,-370.102971,-8364.327145,1302.362347
2840.215668,-1924.535449,-8882.471304,1149.143247
2840.215995,-1554.432478,-9252.574275,-153.219100
2840.216323,-370.102971,-9622.677246,-1838.629195
2840.216650,-1258.350101,-10140.821405,-1685.410096
2840.216978,-296.082377,-10066.800811,-1455.581446
2840.217306,814.226536,-10658.965565,-1991.848295
2840.217633,2368.659014,-11473.192101,-766.095498
2840.217961,1998.556043,-10584.944971,306.438199
2840.218288,-518.144159,-9474.636058,1149.143247
2840.218616,-1998.556043,-8290.306550,76.609550
2840.218943,-888.247130,-9474.636058,-1532.190996
2840.219271,370.102971,-9696.697840,-1302.362347
2840.219598,592.164754,-8660.409521,459.657299
2840.219926,-222.061783,-8660.409521,1149.143247
2840.220254,-888.247130,-9770.718434,842.705048
2840.220581,-222.061783,-10140.821405,-459.657299
2840.220909,1184.329507,-9400.615463,-995.924147
2840.221236,962.267725,-9474.636058,-1378.971896
2840.221564,-740.205942,-10066.800811,0.000000
2840.221891,-1480.411884,-10807.006753,766.095498
2840.222219,-962.267725,-10584.944971,229.828649
2840.222547,0.000000,-9992.780217,-1149.143247
2840.222874,888.247130,-9992.780217,-1685.410096
2840.223202,74.020594,-10140.821405,-1072.533697
2840.223529,962.267725,-10436.903782,0.000000
2840.223857,3552.988522,-10362.883188,76.609550
2840.224184,4145.153275,-10362.883188,153.219100
2840.224512,2072.576638,-9474.636058,1685.410096
2840.224839,222.061783,-9252.574275,1302.362347
2840.225167,814.226536,-9400.615463,-229.828649
2840.225495,2294.638420,-9400.615463,-1072.533697
2840.225822,2220.617826,-9030.512492,-306.438199
2840.226150,666.185348,-8808.450710,1685.410096
2840.226477,0.000000,-7920.203579,2451.505594
2840.226805,444.123565,-8956.491898,383.047749
2840.227132,1110.308913,-9622.677246,-1378.971896
2840.227460,962.267725,-9474.636058,-1762.019645
2840.227787,-888.247130,-8734.430116,-536.266849
2840.228115,-1776.494261,-9474.636058,612.876398
2840.228443,518.144159,-10362.883188,-536.266849
2840.228770,2442.679609,-10658.965565,-383.047749
2840.229098,1702.473667,-10288.862594,-229.828649
2840.229425,666.185348,-10658.965565,0.000000
2840.229753,1332.370696,-10732.986159,-459.657299
2840.230080,2516.700203,-9696.697840,-919.314598
2840.230408,1628.453072,-9400.615463,-153.219100
2840.230735,-592.164754,-8364.327145,1302.362347
2840.231063,-1702.473667,-7920.203579,1838.629195
2840.231391,-1184.329507,-9770.718434,0.000000
2840.231718,296.082377,-10881.027347,-1608.800546
2840.232046,518.144159,-10140.821405,-1225.752797
2840.232373,-1184.329507,-9104.533087,153.219100
2840.232701,-2294.638420,-8734.430116,0.000000
2840.233028,-370.102971,-9992.780217,-383.047749
2840.233356,1184.329507,-10288.862594,-1608.800546
2840.233683,962.267725,-10362.883188,-842.705048
2840.234011,-370.102971,-10288.862594,689.485948
2840.234339,-1258.350101,-9622.677246,766.095498
2840.234666,-888.247130,-9474.636058,-229.828649
2840.234994,-444.123565,-9326.594869,-995.924147
2840.235321,-666.185348,-9104.533087,-1149.143247
2840.235649,0.000000,-9474.636058,-459.657299
2840.235976,814.226536,-9474.636058,-459.657299
2840.236304,2146.597232,-9770.718434,-306.438199
2840.236632,2146.597232,-9326.594869,919.314598
2840.236959,296.082377,-8808.450710,2068.457845
2840.237287,-1036.288319,-8956.491898,1149.143247
2840.237614,-888.247130,-8956.491898,0.000000
2840.237942,1036.288319,-10584.944971,-1378.971896
2840.238269,1480.411884,-11029.068536,-612.876398
2840.238597,-296.082377,-9844.739029,766.095498
2840.238924,-1776.494261,-9474.636058,459.657299
2840.239252,-1998.556043,-9030.512492,-842.705048
2840.239580,-888.247130,-9252.574275,-1991.848295
2840.239907,-444.123565,-8808.450710,-2068.457845
2840.240235,-296.082377,-9326.594869,76.609550
2840.240562,-814.226536,-9104.533087,766.095498
2840.240890,962.267725,-9918.759623,1225.752797
2840.241217,2146.597232,-10066.800811,383.047749
2840.241545,1776.494261,-10362.883188,-76.609550
2840.241872,1258.350101,-10214.842000,-612.876398
2840.242200,1628.453072,-10510.924376,-1149.143247
2840.242528,2072.576638,-11103.089130,-1149.143247
2840.242855,2442.679609,-9770.718434,-306.438199
2840.243183,888.247130,-9622.677246,766.095498
2840.243510,-592.164754,-10066.800811,1225.752797
2840.243838,-666.185348,-10066.800811,-306.438199
2840.244165,1406.391290,-10214.842000,-1915.238745
2840.244493,1554.432478,-9252.574275,-995.924147
2840.244820,0.000000,-8438.347739,1072.533697
2840.245148,-666.185348,-8660.409521,1608.800546
2840.245476,-222.061783,-8438.347739,766.095498
2840.245803,814.226536,-9030.512492,-689.485948
2840.246131,1628.453072,-9918.759623,-1378.971896
2840.246458,0.000000,-9474.636058,-1302.362347
2840.246786,-740.205942,-8808.450710,0.000000
2840.247113,74.020594,-10658.965565,0.000000
2840.247441,1702.473667,-11399.171507,-1072.533697
2840.247769,1406.391290,-9770.718434,-536.266849
2840.248096,592.164754,-9992.780217,0.000000
2840.248424,518.144159,-10436.903782,383.047749
2840.248751,1924.535449,-10288.862594,0.000000
2840.249079,1776.494261,-9252.574275,306.438199
2840.249406,-370.102971,-8512.368333,1378.971896
2840.249734,-2146.597232,-8364.327145,1149.143247
2840.250061,-1850.514855,-9030.512492,-995.924147
2840.250389,-814.226536,-9770.718434,-2145.067394
2840.250717,444.123565,-10584.944971,-1608.800546
2840.251044,-296.082377,-9844.739029,306.438199
2840.251372,-296.082377,-10066.800811,1378.971896
2840.251699,0.000000,-10362.883188,-383.047749
2840.252027,962.267725,-10510.924376,-919.314598
2840.252354,1110.308913,-9770.718434,-919.314598
2840.252682,0.000000,-9030.512492,0.000000
2840.253009,-1332.370696,-9474.636058,612.876398
2840.253337,-814.226536,-9770.718434,536.266849
2840.253665,1258.350101,-9622.677246,229.828649
2840.253992,1184.329507,-9252.574275,0.000000
2840.254320,0.000000,-9548.656652,689.485948
2840.254647,-444.123565,-9622.677246,0.000000
2840.254975,962.267725,-9548.656652,-1302.362347
2840.255302,1628.453072,-10362.883188,-1149.143247
2840.255630,962.267725,-10140.821405,1149.143247
2840.255957,0.000000,-8586.388927,1532.190996
2840.256285,0.000000,-9474.636058,153.219100
2840.256612,740.205942,-10510.924376,-612.876398
2840.256940,1110.308913,-9918.759623,-1149.143247
2840.257267,0.000000,-9326.594869,-306.438199
2840.257595,-1628.453072,-9252.574275,459.657299
2840.257922,-1184.329507,-9178.553681,-612.876398
2840.258250,222.061783,-9326.594869,-1455.581446
2840.258577,888.247130,-9104.533087,-919.314598
2840.258905,592.164754,-8956.491898,229.828649
2840.259232,0.000000,-9474.636058,995.924147
2840.259560,296.082377,-9918.759623,1149.143247
2840.259887,1776.494261,-9770.718434,0.000000
2840.260215,1702.473667,-9326.594869,-153.219100
2840.260542,148.041188,-9474.636058,383.047749
2840.260870,-962.267725,-9474.636058,76.609550
2840.261197,-222.061783,-9992.780217,-1149.143247
2840.261525,0.000000,-10584.944971,-1838.629195
2840.261852,0.000000,-10362.883188,-1685.410096
2840.262180,-296.082377,-9918.759623,-1302.362347
2840.262507,0.000000,-10658.965565,-1302.362347
2840.262835,1332.370696,-10807.006753,-689.485948
2840.263162,3182.885551,-10436.903782,-229.828649
2840.263490,1628.453072,-9992.780217,153.219100
2840.263818,296.082377,-9474.636058,919.314598
2840.264145,-296.082377,-8660.409521,229.828649
2840.264473,296.082377,-8882.471304,-612.876398
2840.264800,814.226536,-9326.594869,-1378.971896
2840.265128,-814.226536,-8956.491898,-689.485948
2840.265455,-2368.659014,-8734.430116,229.828649
2840.265783,-592.164754,-10955.047942,76.609550
2840.266110,1258.350101,-10807.006753,-766.095498
2840.266438,1776.494261,-9918.759623,-536.266849
2840.266765,148.041188,-9474.636058,459.657299
2840.267093,0.000000,-9474.636058,842.705048
2840.267420,888.247130,-9770.718434,0.000000
2840.267748,2072.576638,-9326.594869,-536.266849
2840.268075,1554.432478,-9030.512492,766.095498
2840.268403,296.082377,-9104.533087,1225.752797
2840.268730,-592.164754,-9326.594869,766.095498
2840.269058,-148.041188,-9844.739029,-612.876398
2840.269385,592.164754,-10066.800811,-1149.143247
2840.269713,0.000000,-9474.636058,-459.657299
2840.270040,-962.267725,-8882.471304,153.219100
2840.270368,-1036.288319,-9474.636058,306.438199
2840.270695,370.102971,-9992.780217,153.219100
2840.271023,1258.350101,-9844.739029,229.828649
2840.271350,0.000000,-9548.656652,842.705048
2840.271678,-1850.514855,-8512.368333,766.095498
2840.272005,-962.267725,-9992.780217,-1608.800546
2840.272333,-518.144159,-9992.780217,-1915.238745
2840.272660,370.102971,-10732.986159,-1608.800546
2840.272988,74.020594,-10732.986159,-383.047749
2840.273315,592.164754,-10510.924376,153.219100
2840.273643,1702.473667,-11029.068536,-612.876398
2840.273970,2590.720797,-11029.068536,-842.705048
2840.274298,1850.514855,-9992.780217,-306.438199
2840.274625,592.164754,-9474.636058,919.314598
2840.274953,-592.164754,-7698.141797,153.219100
2840.275280,0.000000,-8364.327145,-229.828649
2840.275608,740.205942,-8512.368333,-229.828649
2840.275935,222.061783,-8438.347739,229.828649
2840.276263,-1036.288319,-8956.491898,153.219100
2840.276590,-1110.308913,-10436.903782,-1149.143247
2840.276918,666.185348,-11843.295072,-2451.505594
2840.277245,1332.370696,-11251.130318,-2068.457845
2840.277573,666.185348,-10436.903782,-1149.143247
2840.277900,-1184.329507,-9992.780217,689.485948
2840.278228,-740.205942,-9770.718434,459.657299
2840.278555,444.123565,-8364.327145,-459.657299
2840.278883,222.061783,-8364.327145,-919.314598
2840.279210,-370.102971,-8882.471304,306.438199
2840.279538,-888.247130,-8290.306550,153.219100
2840.279865,296.082377,-8438.347739,-612.876398
2840.280193,1406.391290,-9844.739029,-1225.752797
2840.280520,1850.514855,-10732.986159,-459.657299
2840.280848,1628.453072,-10288.862594,76.609550
2840.281175,1332.370696,-9474.636058,-995.924147
2840.281503,666.185348,-10288.862594,-229.828649
2840.281831,1554.432478,-11177.109724,-306.438199
2840.282158,962.267725,-10732.986159,766.095498
2840.282486,-592.164754,-9326.594869,919.314598
2840.282813,-1184.329507,-8364.327145,-153.219100
2840.283141,-518.144159,-9326.594869,-919.314598
2840.283468,518.144159,-10066.800811,-995.924147
2840.283796,222.061783,-8956.491898,383.047749
2840.284123,-1480.411884,-9178.553681,229.828649
2840.284451,-1184.329507,-9770.718434,0.000000
2840.284778,666.185348,-10066.800811,-766.095498
2840.285106,1998.556043,-9474.636058,-766.095498
2840.285433,1776.494261,-9326.594869,1149.143247
2840.285761,1258.350101,-9548.656652,1302.362347
2840.286088,1776.494261,-10362.883188,76.609550
2840.286416,2664.741391,-10881.027347,-536.266849
2840.286743,2220.617826,-10362.883188,0.000000
2840.287071,0.000000,-9770.718434,459.657299
2840.287398,-1850.514855,-9326.594869,0.000000
2840.287726,-1480.411884,-9178.553681,-1302.362347
2840.288053,0.000000,-9770.718434,-1532.190996
2840.288381,148.041188,-10510.924376,0.000000
2840.288708,-1110.308913,-8956.491898,1225.752797
2840.289036,-1850.514855,-8290.306550,612.876398
2840.289363,-518.144159,-8956.491898,-689.485948
2840.289691,518.144159,-9030.512492,-995.924147
2840.290018,148.041188,-9030.512492,229.828649
2840.290346,-592.164754,-9474.636058,842.705048
2840.290673,0.000000,-10658.965565,0.000000
2840.291001,962.267725,-10955.047942,-612.876398
2840.291328,1702.473667,-10436.903782,-1455.581446
2840.291656,814.226536,-10584.944971,-612.876398
2840.291983,-370.102971,-10436.903782,0.000000
2840.292311,444.123565,-9326.594869,-919.314598
2840.292638,2146.597232,-9252.574275,-1072.533697
2840.292966,2442.679609,-9326.594869,76.609550
2840.293293,1036.288319,-8956.491898,2145.067394
2840.293621,-1332.370696,-7994.224174,2068.457845
2840.293948,-1628.453072,-9178.553681,0.000000
2840.294276,0.000000,-9474.636058,-2298.286494
2840.294603,0.000000,-9918.759623,-1762.019645
2840.294931,-666.185348,-10140.821405,-153.219100
2840.295258,-518.144159,-10362.883188,229.828649
2840.295586,888.247130,-11177.109724,-689.485948
2840.295913,1776.494261,-11251.130318,-1302.362347
2840.296241,962.267725,-10510.924376,-995.924147
2840.296568,-814.226536,-9474.636058,766.095498
2840.296896,-814.226536,-8956.491898,536.266849
2840.297223,592.164754,-9474.636058,-536.266849
2840.297551,740.205942,-9252.574275,0.000000
2840.297878,518.144159,-9326.594869,1378.971896
2840.298206,148.041188,-9104.533087,1072.533697
2840.298533,444.123565,-9474.636058,-153.219100
2840.298861,1850.514855,-10140.821405,-1378.971896
2840.299188,2886.803174,-10214.842000,-689.485948
2840.299516,1332.370696,-9474.636058,995.924147
2840.299844,-1036.288319,-9400.615463,1762.019645
2840.300171,-1110.308913,-9178.553681,536.266849
2840.300499,-666.185348,-10066.800811,-995.924147
2840.300826,0.000000,-10510.924376,-1915.238745
2840.301154,-444.123565,-9474.636058,-1302.362347
2840.301481,-888.247130,-9178.553681,229.828649
2840.301809,518.144159,-9844.739029,1149.143247
2840.302136,2072.576638,-9622.677246,-306.438199
2840.302464,1406.391290,-9548.656652,229.828649
2840.302791,-444.123565,-9474.636058,383.047749
2840.303119,-962.267725,-9474.636058,-536.266849
2840.303446,370.102971,-10066.800811,-1685.410096
2840.303774,1776.494261,-9992.780217,-919.314598
2840.304101,1258.350101,-9918.759623,995.924147
2840.304429,74.020594,-9844.739029,1838.629195
2840.304756,962.267725,-9622.677246,689.485948
2840.305084,2072.576638,-10362.883188,-1532.190996
2840.305411,1480.411884,-10140.821405,-1608.800546
2840.305739,-370.102971,-9400.615463,0.000000
2840.306066,-1998.556043,-8438.347739,766.095498
2840.306394,-1776.494261,-8660.409521,-306.438199
2840.306721,222.061783,-10732.986159,-1378.971896
2840.307049,1776.494261,-11029.068536,0.000000
2840.307376,1406.391290,-10510.924376,153.219100
2840.307704,518.144159,-10066.800811,229.828649
2840.308031,592.164754,-9696.697840,-766.095498
2840.308359,888.247130,-9178.553681,-995.924147
2840.308686,0.000000,-7920.203579,459.657299
2840.309014,-1036.288319,-8438.347739,842.705048
2840.309341,-888.247130,-9474.636058,612.876398
2840.309669,222.061783,-10362.883188,-689.485948
2840.309996,962.267725,-10140.821405,-689.485948
2840.310324,592.164754,-9844.739029,229.828649
2840.310651,-740.205942,-10140.821405,1225.752797
2840.310979,-222.061783,-10288.862594,0.000000
2840.311306,1110.308913,-9030.512492,-1762.019645
2840.311634,2590.720797,-8956.491898,-1302.362347
2840.311961,1776.494261,-9548.656652,842.705048
2840.312289,148.041188,-9474.636058,2374.896044
2840.312616,0.000000,-9400.615463,995.924147
2840.312944,814.226536,-9844.739029,-1072.533697
2840.313271,1258.350101,-10066.800811,-1302.362347
2840.313599,814.226536,-9770.718434,-766.095498
2840.313926,-222.061783,-9252.574275,76.609550
2840.314254,-222.061783,-8956.491898,-153.219100
2840.314581,1258.350101,-9178.553681,-766.095498
2840.314909,888.247130,-9400.615463,0.000000
2840.315236,-1332.370696,-9696.697840,1378.971896
2840.315564,-888.247130,-9992.780217,1225.752797
2840.315891,962.267725,-11177.109724,-1915.238745
2840.316219,2368.659014,-11769.274478,-2451.505594
2840.316546,814.226536,-10807.006753,-612.876398
2840.316874,-518.144159,-9474.636058,842.705048
2840.317201,-888.247130,-9696.697840,536.266849
2840.317529,518.144159,-10288.862594,-1378.971896
2840.317857,888.247130,-10807.006753,-1072.533697
2840.318184,74.020594,-9548.656652,76.609550
2840.318512,-1406.391290,-7994.224174,1455.581446
2840.318839,-1480.411884,-8068.244768,536.266849
2840.319167,-222.061783,-9770.718434,306.438199
2840.319494,1036.288319,-9918.759623,0.000000
2840.319822,1332.370696,-9252.574275,306.438199
2840.320149,666.185348,-8956.491898,1455.581446
2840.320477,74.020594,-9474.636058,-383.047749
2840.320804,0.000000,-8734.430116,-766.095498
2840.321132,-370.102971,-9622.677246,-766.095498
2840.321459,-1776.494261,-10881.027347,612.876398
2840.321787,-1776.494261,-9844.739029,0.000000
2840.322114,370.102971,-10658.965565,-1378.971896
2840.322442,1776.494261,-10955.047942,-995.924147
2840.322769,2072.576638,-10066.800811,612.876398
2840.323097,0.000000,-8290.306550,2451.505594
2840.323424,-222.061783,-8586.388927,842.705048
2840.323752,666.185348,-8734.430116,-1225.752797
2840.324079,1850.514855,-9178.553681,-1302.362347
2840.324407,1110.308913,-9548.656652,689.485948
2840.324734,222.061783,-9326.594869,1991.848295
2840.325062,0.000000,-9178.553681,0.000000
2840.325389,1036.288319,-10510.924376,-1302.362347
2840.325717,1776.494261,-11843.295072,-1762.019645
2840.326044,1184.329507,-11251.130318,-1149.143247
2840.326372,-148.041188,-9474.636058,76.609550
2840.326699,-296.082377,-8882.471304,0.000000
2840.327027,740.205942,-10066.800811,-383.047749
2840.327354,222.061783,-9474.636058,76.609550
2840.327682,-1184.329507,-8586.388927,1072.533697
2840.328009,-1258.350101,-9770.718434,-306.438199
2840.328337,-1036.288319,-10362.883188,-1838.629195
2840.328664,0.000000,-9696.697840,-2068.457845
2840.328992,148.041188,-9326.594869,-536.266849
2840.329319,148.041188,-10584.944971,1072.533697
2840.329647,888.247130,-10658.965565,689.485948
2840.329974,2664.741391,-10510.924376,-1072.533697
2840.330302,2738.761985,-10214.842000,-995.924147
2840.330629,1998.556043,-10066.800811,842.705048
2840.330957,148.041188,-9178.553681,1991.848295
2840.331284,-666.185348,-7402.059420,689.485948
2840.331612,0.000000,-8216.285956,-689.485948
2840.331939,592.164754,-9548.656652,-689.485948
2840.332267,370.102971,-9252.574275,536.266849
2840.332594,-666.185348,-8660.409521,919.314598
2840.332922,-1184.329507,-8438.347739,-229.828649
2840.333249,0.000000,-8882.471304,-1378.971896
2840.333577,370.102971,-9918.759623,-612.876398
2840.333904,-222.061783,-10436.903782,612.876398
2840.334232,-444.123565,-9992.780217,306.438199
2840.334559,666.185348,-10214.842000,-689.485948
2840.334887,1850.514855,-10436.903782,-1455.581446
2840.335214,1184.329507,-10288.862594,-459.657299
2840.335542,-444.123565,-10288.862594,1149.143247
2840.335869,-370.102971,-9844.739029,766.095498
2840.336197,962.267725,-9622.677246,-1915.238745
2840.336525,1998.556043,-10066.800811,-1608.800546
2840.336852,296.082377,-9622.677246,536.266849
2840.337180,-444.123565,-8586.388927,1685.410096
2840.337507,-1406.391290,-9030.512492,842.705048
2840.337835,0.000000,-9844.739029,-1072.533697
2840.338162,888.247130,-9770.718434,-1608.800546
2840.338490,814.226536,-9622.677246,0.000000
2840.338817,-444.123565,-8586.388927,1455.581446
2840.339145,-1258.350101,-8734.430116,1072.533697
2840.339472,-1480.411884,-9178.553681,-919.314598
2840.339800,-1776.494261,-10066.800811,-2221.676944
2840.340127,-1258.350101,-10807.006753,-1838.629195
2840.340455,0.000000,-10510.924376,-1762.019645
2840.340782,814.226536,-10955.047942,-459.657299
2840.341110,1776.494261,-10807.006753,-459.657299
2840.341437,1628.453072,-9474.636058,766.095498
2840.341765,0.000000,-9178.553681,1991.848295
2840.342092,-1036.288319,-8586.388927,612.876398
2840.342420,74.020594,-7846.182985,-1915.238745
2840.342747,1554.432478,-8068.244768,-2451.505594
2840.343075,1184.329507,-9252.574275,0.000000
2840.343402,592.164754,-9474.636058,1455.581446
2840.343730,-148.041188,-8956.491898,2528.115143
2840.344057,1184.329507,-10214.842000,-306.438199
2840.344385,1924.535449,-11251.130318,-1762.019645
2840.344712,1628.453072,-10807.006753,-1302.362347
2840.345040,666.185348,-9844.739029,0.000000
2840.345367,444.123565,-8438.347739,229.828649
2840.345695,1702.473667,-9474.636058,-459.657299
2840.346022,1776.494261,-9474.636058,153.219100
2840.346350,518.144159,-9474.636058,689.485948
2840.346677,-296.082377,-9474.636058,0.000000
2840.347005,-370.102971,-10362.883188,-1608.800546
2840.347332,444.123565,-10658.965565,-2604.724693
2840.347660,666.185348,-10362.883188,-1302.362347
2840.347987,444.123565,-10214.842000,612.876398
2840.348315,222.061783,-10436.903782,766.095498
2840.348642,2072.576638,-11251.130318,-612.876398
2840.348970,2590.720797,-11251.130318,-1302.362347
2840.349297,1776.494261,-10658.965565,0.000000
2840.349625,0.000000,-9178.553681,1915.238745
2840.349952,-1776.494261,-7698.141797,1302.362347
2840.350280,-1850.514855,-8216.285956,-306.438199
2840.350607,-444.123565,-9178.553681,-1915.238745
2840.350935,0.000000,-9844.739029,-842.705048
2840.351262,-444.123565,-9992.780217,459.657299
2840.351590,-888.247130,-8808.450710,689.485948
2840.351917,222.061783,-8512.368333,-306.438199
2840.352245,1110.308913,-9548.656652,-306.438199
2840.352572,0.000000,-9622.677246,919.314598
2840.352900,-1036.288319,-8882.471304,1302.362347
2840.353227,148.041188,-8808.450710,0.000000
2840.353555,1702.473667,-9252.574275,-689.485948
2840.353882,1184.329507,-9030.512492,536.266849
2840.354210,0.000000,-9400.615463,1608.800546
2840.354538,-888.247130,-10288.862594,995.924147
2840.354865,0.000000,-10584.944971,-1302.362347
2840.355193,1406.391290,-10955.047942,-3217.601092
2840.355520,962.267725,-10584.944971,-1378.971896
2840.355848,-444.123565,-10140.821405,1302.362347
2840.356175,-1850.514855,-9178.553681,1685.410096
2840.356503,-1184.329507,-9178.553681,153.219100
2840.356830,444.123565,-9400.615463,-1455.581446
2840.357158,0.000000,-9918.759623,-919.314598
2840.357485,-1480.411884,-9326.594869,0.000000
2840.357813,-1628.453072,-8734.430116,-306.438199
2840.358140,-592.164754,-9622.677246,-1378.971896
2840.358468,222.061783,-10288.862594,-1762.019645
2840.358795,296.082377,-11029.068536,-919.314598
2840.359123,740.205942,-11547.212695,-306.438199
2840.359450,740.205942,-10510.924376,-995.924147
2840.359778,1258.350101,-10362.883188,-919.314598
2840.360105,1258.350101,-9770.718434,-306.438199
2840.360433,-370.102971,-9548.656652,1302.362347
2840.360760,-518.144159,-9400.615463,1072.533697
2840.361088,518.144159,-9474.636058,-306.438199
2840.361416,2146.597232,-9622.677246,-1762.019645
2840.361743,1406.391290,-9474.636058,153.219100
2840.362071,518.144159,-9400.615463,1302.362347
2840.362398,-592.164754,-8956.491898,766.095498
2840.362726,-370.102971,-9252.574275,-689.485948
2840.363053,1406.391290,-9622.677246,-1915.238745
2840.363381,2220.617826,-10436.903782,-306.438199
2840.363708,1554.432478,-8364.327145,1149.143247
2840.364036,1184.329507,-7402.059420,1302.362347
2840.364363,1480.411884,-9030.512492,766.095498
2840.364691,2220.617826,-9770.718434,-153.219100
2840.365018,1110.308913,-9770.718434,612.876398
2840.365346,-740.205942,-9622.677246,612.876398
2840.365673,-1258.350101,-9400.615463,-995.924147
2840.366001,222.061783,-9770.718434,-1455.581446
2840.366328,592.164754,-10807.006753,-612.876398
2840.366656,0.000000,-9770.718434,1378.971896
2840.366984,222.061783,-10510.924376,766.095498
2840.367311,740.205942,-10066.800811,-1225.752797
2840.367639,1332.370696,-10436.903782,-2221.676944
2840.367966,888.247130,-10066.800811,-766.095498
2840.368294,222.061783,-9474.636058,1149.143247
2840.368621,-814.226536,-8956.491898,1225.752797
2840.368949,-592.164754,-10288.862594,-306.438199
2840.369276,962.267725,-10436.903782,-2221.676944
2840.369604,1332.370696,-10436.903782,-1225.752797
2840.369931,74.020594,-10658.965565,0.000000
2840.370259,-1480.411884,-9400.615463,76.609550
2840.370586,-1036.288319,-8512.368333,-1225.752797
2840.370914,740.205942,-9252.574275,-1302.362347
2840.371241,962.267725,-10510.924376,229.828649
2840.371569,-888.247130,-9622.677246,1838.629195
2840.371896,-1628.453072,-8808.450710,1455.581446
2840.372224,-1184.329507,-9400.615463,-612.876398
2840.372552,-518.144159,-9992.780217,-1685.410096
2840.372879,-666.185348,-9548.656652,-919.314598
2840.373207,-370.102971,-9770.718434,459.657299
2840.373534,-592.164754,-9178.553681,-383.047749
2840.373862,1702.473667,-10510.924376,-1685.410096
2840.374189,2220.617826,-10584.944971,-383.047749
2840.374517,1036.288319,-9844.739029,1378.971896
2840.374844,-666.185348,-9548.656652,1762.019645
2840.375172,-592.164754,-8512.368333,229.828649
2840.375499,518.144159,-8882.471304,-995.924147
2840.375827,1110.308913,-9252.574275,76.609550
2840.376154,296.082377,-9178.553681,1072.533697
2840.376482,-1184.329507,-7624.121203,459.657299
2840.376809,-1184.329507,-8660.409521,-383.047749
2840.377137,222.061783,-10214.842000,-1762.019645
2840.377464,148.041188,-10066.800811,-919.314598
2840.377792,-962.267725,-9474.636058,76.609550
2840.378120,-962.267725,-9548.656652,0.000000
2840.378447,370.102971,-10214.842000,-766.095498
2840.378775,1702.473667,-11177.109724,0.000000
2840.379102,370.102971,-11029.068536,689.485948
2840.379430,-518.144159,-11399.171507,306.438199
2840.379757,666.185348,-10066.800811,-2221.676944
2840.380085,1850.514855,-9400.615463,-3753.867940
2840.380412,1850.514855,-10732.986159,-1378.971896
2840.380740,1110.308913,-10288.862594,2221.676944
2840.381067,740.205942,-9030.512492,1915.238745
2840.381395,666.185348,-9178.553681,-153.219100
2840.381722,1924.535449,-10214.842000,-1455.581446
2840.382050,2960.823768,-9770.718434,-383.047749
2840.382377,1924.535449,-9030.512492,2451.505594
2840.382705,-222.061783,-7698.141797,1915.238745
2840.383032,0.000000,-7920.203579,536.266849
2840.383360,740.205942,-7920.203579,-612.876398
2840.383688,296.082377,-10066.800811,76.609550
2840.384015,-1776.494261,-10436.903782,1302.362347
2840.384343,-2072.576638,-9548.656652,0.000000
2840.384670,-444.123565,-8660.409521,-2757.943793
2840.384998,814.226536,-9474.636058,-2757.943793
2840.385325,1332.370696,-9770.718434,459.657299
2840.385653,1628.453072,-9844.739029,2374.896044
2840.385980,2442.679609,-9918.759623,1378.971896
2840.386308,3404.947333,-10658.965565,-919.314598
2840.386635,3256.906145,-9992.780217,-1072.533697
2840.386963,1036.288319,-9178.553681,689.485948
2840.387290,-1184.329507,-8808.450710,2068.457845
2840.387618,-1258.350101,-8142.265362,-459.657299
2840.387945,0.000000,-9696.697840,-2757.943793
2840.388273,148.041188,-10436.903782,-2068.457845
2840.388600,-518.144159,-10510.924376,0.000000
2840.388928,-1554.432478,-9918.759623,459.657299
2840.389256,-1332.370696,-9252.574275,-1532.190996
2840.389583,-1406.391290,-8956.491898,-1378.971896
2840.389911,-444.123565,-10214.842000,-1149.143247
2840.390238,-888.247130,-9696.697840,153.219100
2840.390566,-1110.308913,-10288.862594,-153.219100
2840.390893,-222.061783,-11251.130318,-1225.752797
2840.391221,814.226536,-10658.965565,-1378.971896
2840.391548,370.102971,-10288.862594,153.219100
2840.391876,-962.267725,-9326.594869,1302.362347
2840.392203,518.144159,-9474.636058,-766.095498
2840.392531,1628.453072,-9918.759623,-1455.581446
2840.392858,2294.638420,-9770.718434,-536.266849
2840.393186,740.205942,-8438.347739,2145.067394
2840.393513,-962.267725,-7476.080014,3217.601092
2840.393841,-962.267725,-9178.553681,153.219100
2840.394168,296.082377,-9844.739029,-1608.800546
2840.394496,1036.288319,-9770.718434,-842.705048
2840.394824,962.267725,-9770.718434,1149.143247
2840.395151,0.000000,-9474.636058,1532.190996
2840.395479,-592.164754,-8808.450710,-306.438199
2840.395806,0.000000,-9474.636058,-2298.286494
2840.396134,148.041188,-10214.842000,-689.485948
2840.396461,-370.102971,-9770.718434,766.095498
2840.396789,-888.247130,-9474.636058,306.438199
2840.397116,74.020594,-9400.615463,-689.485948
2840.397444,1110.308913,-10288.862594,-919.314598
2840.397771,1850.514855,-10807.006753,459.657299
2840.398099,1036.288319,-9770.718434,1149.143247
2840.398426,1184.329507,-9400.615463,-919.314598
2840.398754,1776.494261,-9474.636058,-2528.115143
2840.399081,1554.432478,-9770.718434,-1532.190996
2840.399409,666.185348,-10658.965565,459.657299
2840.399736,-370.102971,-10214.842000,1072.533697
2840.400064,-962.267725,-10066.800811,-306.438199
2840.400392,888.247130,-11029.068536,-2451.505594
2840.400719,1628.453072,-11029.068536,-1608.800546
2840.401047,518.144159,-10436.903782,76.609550
2840.401374,-814.226536,-8216.285956,919.314598
2840.401702,-370.102971,-8364.327145,-153.219100
2840.402029,0.000000,-9178.553681,-1225.752797
2840.402357,370.102971,-8882.471304,-459.657299
2840.402684,0.000000,-8142.265362,919.314598
2840.403012,74.020594,-9992.780217,383.047749
2840.403339,370.102971,-10066.800811,-1149.143247
2840.403667,1776.494261,-10436.903782,-1608.800546
2840.403994,1110.308913,-10881.027347,0.000000
2840.404322,296.082377,-11029.068536,842.705048
2840.404649,370.102971,-9918.759623,-383.047749
2840.404977,1406.391290,-9474.636058,-995.924147
2840.405304,888.247130,-9030.512492,0.000000
2840.405632,666.185348,-9252.574275,1762.019645
2840.405960,-1110.308913,-9030.512492,2451.505594
2840.406287,-1776.494261,-8660.409521,459.657299
2840.406615,-1184.329507,-8660.409521,-2221.676944
2840.406942,0.000000,-8956.491898,-2068.457845
2840.407270,0.000000,-9104.533087,0.000000
2840.407597,-296.082377,-9400.615463,1149.143247
2840.407925,-740.205942,-9548.656652,76.609550
2840.408252,888.247130,-9474.636058,-995.924147
2840.408580,1628.453072,-10584.944971,-919.314598
2840.408907,444.123565,-10807.006753,229.828649
2840.409235,-1036.288319,-10066.800811,995.924147
2840.409562,-592.164754,-9252.574275,-842.705048
2840.409890,518.144159,-10807.006753,-1608.800546
2840.410217,1480.411884,-11251.130318,-612.876398
2840.410545,148.041188,-9326.594869,995.924147
2840.410872,-1036.288319,-8586.388927,689.485948
2840.411200,-592.164754,-9918.759623,-1302.362347
2840.411528,592.164754,-10436.903782,-1838.629195
2840.411855,592.164754,-9252.574275,0.000000
2840.412183,0.000000,-9104.533087,1455.581446
2840.412510,296.082377,-8956.491898,842.705048
2840.412838,1702.473667,-10140.821405,-919.314598
2840.413165,2072.576638,-10955.047942,-689.485948
2840.413493,666.185348,-10510.924376,459.657299
2840.413820,-740.205942,-9474.636058,842.705048
2840.414148,-592.164754,-8734.430116,-536.266849
2840.414475,666.185348,-9104.533087,-2298.286494
2840.414803,1480.411884,-9918.759623,-1072.533697
2840.415130,814.226536,-10732.986159,842.705048
2840.415458,-592.164754,-9178.553681,1532.190996
2840.415785,-592.164754,-9030.512492,0.000000
2840.416113,888.247130,-8956.491898,-1532.190996
2840.416440,1110.308913,-8438.347739,-306.438199
2840.416768,444.123565,-9104.533087,1149.143247
2840.417096,222.061783,-9030.512492,995.924147
2840.417423,962.267725,-9844.739029,-612.876398
2840.417751,1850.514855,-10658.965565,-1762.019645
2840.418078,1776.494261,-11029.068536,-1072.533697
2840.418406,370.102971,-10510.924376,459.657299
2840.418733,-370.102971,-10510.924376,842.705048
2840.419061,0.000000,-9622.677246,-1608.800546
2840.419388,222.061783,-9844.739029,-1532.190996
2840.419716,370.102971,-9474.636058,-689.485948
2840.420043,-962.267725,-8808.450710,306.438199
2840.420371,-1258.350101,-8438.347739,153.219100
2840.420698,518.144159,-9400.615463,-1072.533697
2840.421026,1776.494261,-9844.739029,-1225.752797
2840.421353,1776.494261,-10066.800811,229.828649
2840.421681,-296.082377,-9918.759623,766.095498
2840.422008,-518.144159,-10510.924376,0.000000
2840.422336,518.144159,-10214.842000,-1762.019645
2840.422664,444.123565,-8956.491898,-1225.752797
2840.422991,148.041188,-9548.656652,689.485948
2840.423319,370.102971,-10584.944971,1532.190996
2840.423646,1036.288319,-10732.986159,995.924147
2840.423974,2146.597232,-9770.718434,-612.876398
2840.424301,296.082377,-9400.615463,0.000000
2840.424629,-1110.308913,-8586.388927,229.828649
2840.424956,-1554.432478,-7254.018232,-689.485948
2840.425284,-444.123565,-8364.327145,-1532.190996
2840.425611,1554.432478,-9622.677246,-459.657299
2840.425939,1406.391290,-9992.780217,1685.410096
2840.426266,0.000000,-9992.780217,2681.334243
2840.426594,222.061783,-10362.883188,689.485948
2840.426921,740.205942,-10436.903782,-2221.676944
2840.427249,666.185348,-10288.862594,-2221.676944
2840.427576,0.000000,-9770.718434,0.000000
2840.427904,-1184.329507,-9252.574275,1225.752797
2840.428232,-962.267725,-8734.430116,766.095498
2840.428559,0.000000,-9252.574275,-459.657299
2840.428887,296.082377,-10288.862594,-919.314598
2840.429214,-518.144159,-10066.800811,76.609550
2840.429542,-888.247130,-9770.718434,-459.657299
2840.429869,-222.061783,-9770.718434,-1991.848295
2840.430197,1480.411884,-10436.903782,-2221.676944
2840.430524,1776.494261,-10214.842000,-842.705048
2840.430852,1110.308913,-10214.842000,1991.848295
2840.431179,370.102971,-9622.677246,1149.143247
2840.431507,888.247130,-9178.553681,-919.314598
2840.431834,1258.350101,-9770.718434,-1991.848295
2840.432162,74.020594,-10140.821405,0.000000
2840.432489,-740.205942,-9474.636058,919.314598
2840.432817,0.000000,-8438.347739,-306.438199
2840.433144,1332.370696,-8734.430116,-1838.629195
2840.433472,1554.432478,-9844.739029,-1225.752797
2840.433800,74.020594,-10510.924376,1302.362347
2840.434127,-592.164754,-9178.553681,1685.410096
2840.434455,-370.102971,-9178.553681,-306.438199
2840.434782,-370.102971,-10732.986159,-1302.362347
2840.435110,148.041188,-10510.924376,-766.095498
2840.435437,1406.391290,-10584.944971,459.657299
2840.435765,814.226536,-9992.780217,919.314598
2840.436092,814.226536,-9992.780217,-229.828649
2840.436420,814.226536,-10066.800811,-1149.143247
2840.436747,0.000000,-9104.533087,-919.314598
2840.437075,-962.267725,-8438.347739,0.000000
2840.437402,-1554.432478,-8364.327145,-306.438199
2840.437730,-1776.494261,-7846.182985,-919.314598
2840.438057,592.164754,-9252.574275,-383.047749
2840.438385,1924.535449,-10436.903782,612.876398
2840.438712,1184.329507,-10881.027347,2068.457845
2840.439040,962.267725,-10066.800811,689.485948
2840.439368,666.185348,-9252.574275,-1608.800546
2840.439695,740.205942,-9474.636058,-1915.238745
2840.440023,-1110.308913,-9178.553681,-306.438199
2840.440350,-2294.638420,-9548.656652,766.095498
2840.440678,-2072.576638,-9622.677246,-229.828649
2840.441005,74.020594,-10436.903782,-1915.238745
2840.441333,1406.391290,-11177.109724,-1608.800546
2840.441660,1332.370696,-10881.027347,689.485948
2840.441988,592.164754,-9474.636058,76.609550
2840.442315,1406.391290,-9178.553681,-919.314598
2840.442643,1998.556043,-8956.491898,-2757.943793
2840.442970,1776.494261,-9474.636058,-153.219100
2840.443298,592.164754,-9918.759623,2604.724693
2840.443625,0.000000,-9252.574275,2374.896044
2840.443953,-444.123565,-9252.574275,-306.438199
2840.444280,740.205942,-10288.862594,-2145.067394
2840.444608,0.000000,-11029.068536,-842.705048
2840.444936,-962.267725,-10807.006753,153.219100
2840.445263,-1628.453072,-8438.347739,0.000000
2840.445591,444.123565,-8364.327145,-1991.848295
2840.445918,1406.391290,-9696.697840,-1149.143247
2840.446246,666.185348,-9104.533087,2068.457845
2840.446573,-592.164754,-9030.512492,3064.381992
2840.446901,0.000000,-9696.697840,842.705048
2840.447228,592.164754,-9770.718434,-2834.553343
2840.447556,1036.288319,-9770.718434,-2528.115143
2840.447883,148.041188,-9770.718434,459.657299
2840.448211,0.000000,-9844.739029,1762.019645
2840.448538,740.205942,-9992.780217,229.828649
2840.448866,2146.597232,-11029.068536,-1991.848295
2840.449193,1776.494261,-10214.842000,-229.828649
2840.449521,1184.329507,-8364.327145,2298.286494
2840.449848,-518.144159,-8068.244768,2145.067394
2840.450176,-1332.370696,-7994.224174,76.609550
2840.450504,-888.247130,-8216.285956,-1532.190996
2840.450831,296.082377,-9400.615463,-766.095498
2840.451159,0.000000,-10214.842000,459.657299
2840.451486,-444.123565,-10066.800811,306.438199
2840.451814,148.041188,-9104.533087,-1608.800546
2840.452141,1258.350101,-10807.006753,-2451.505594
2840.452469,222.061783,-11621.233289,-919.314598
2840.452796,-666.185348,-10510.924376,689.485948
2840.453124,0.000000,-9548.656652,-306.438199
2840.453451,1998.556043,-9992.780217,-1685.410096
2840.453779,2812.782580,-10288.862594,-1532.190996
2840.454106,1776.494261,-9992.780217,1455.581446
2840.454434,666.185348,-9474.636058,2604.724693
2840.454761,1036.288319,-9252.574275,0.000000
2840.455089,1406.391290,-9844.739029,-2298.286494
2840.455416,1110.308913,-9992.780217,-1762.019645
2840.455744,296.082377,-8882.471304,306.438199
2840.456072,0.000000,-9622.677246,995.924147
2840.456399,-370.102971,-9474.636058,-536.266849
2840.456727,518.144159,-10214.842000,-1608.800546
2840.457054,814.226536,-10807.006753,0.000000
2840.457382,74.020594,-10362.883188,1608.800546
2840.457709,-222.061783,-8808.450710,842.705048
2840.458037,370.102971,-8364.327145,-306.438199
2840.458364,962.267725,-9030.512492,-1072.533697
2840.458692,0.000000,-10066.800811,1072.533697
2840.459019,-1480.411884,-9918.759623,1838.629195
2840.459347,-2072.576638,-8734.430116,306.438199
2840.459674,-962.267725,-9178.553681,-1991.848295
2840.460002,148.041188,-10140.821405,-1608.800546
2840.460329,0.000000,-9844.739029,842.705048
2840.460657,222.061783,-9696.697840,1838.629195
2840.460984,962.267725,-9474.636058,383.047749
2840.461312,1406.391290,-9844.739029,-1378.971896
2840.461639,1406.391290,-9696.697840,-842.705048
2840.461967,-518.144159,-9178.553681,2068.457845
2840.462294,-2146.597232,-8290.306550,2528.115143
2840.462622,-1776.494261,-8586.388927,-1302.362347
2840.462949,-1924.535449,-8956.491898,-3677.258390
2840.463277,-666.185348,-10510.924376,-2757.943793
2840.463604,0.000000,-10584.944971,-459.657299
2840.463932,518.144159,-9992.780217,76.609550
2840.464259,1480.411884,-9770.718434,-1302.362347
2840.464587,2516.700203,-10066.800811,-1302.362347
2840.464914,2294.638420,-11029.068536,153.219100
2840.465242,296.082377,-11177.109724,2145.067394
2840.465569,-518.144159,-10436.903782,842.705048
2840.465897,0.000000,-9548.656652,-2451.505594
2840.466224,518.144159,-9770.718434,-2987.772442
2840.466552,222.061783,-10288.862594,0.000000
2840.466879,-370.102971,-9548.656652,1455.581446
2840.467207,592.164754,-9844.739029,-229.828649
2840.467534,1406.391290,-10584.944971,-2068.457845
2840.467862,1554.432478,-10510.924376,-1608.800546
2840.468189,222.061783,-9474.636058,919.314598
2840.468517,-444.123565,-7846.182985,1762.019645
2840.468844,-222.061783,-8364.327145,612.876398
2840.469172,814.226536,-9548.656652,-995.924147
2840.469499,1776.494261,-9918.759623,-306.438199
2840.469827,1480.411884,-10066.800811,2068.457845
2840.470154,148.041188,-9252.574275,1991.848295
2840.470482,370.102971,-7698.141797,-1378.971896
2840.470809,592.164754,-7920.203579,-2451.505594
2840.471137,370.102971,-9918.759623,-383.047749
2840.471464,-148.041188,-10362.883188,2451.505594
2840.471792,444.123565,-9770.718434,1532.190996
2840.472120,1554.432478,-9326.594869,-612.876398
2840.472447,2220.617826,-9474.636058,-919.314598
2840.472775,1554.432478,-9844.739029,995.924147
2840.473102,296.082377,-9474.636058,2145.067394
2840.473430,444.123565,-9622.677246,0.000000
2840.473757,1998.556043,-10732.986159,-2145.067394
2840.474085,1924.535449,-10658.965565,-1072.533697
2840.474412,1036.288319,-10362.883188,1685.410096
2840.474740,-370.102971,-9622.677246,1378.971896
2840.475067,-1184.329507,-9400.615463,-919.314598
2840.475395,-888.247130,-9474.636058,-2528.115143
2840.475722,370.102971,-9844.739029,-1915.238745
2840.476050,1036.288319,-9326.594869,919.314598
2840.476377,296.082377,-8660.409521,1532.190996
2840.476705,0.000000,-7328.038826,153.219100
2840.477032,518.144159,-8438.347739,-1072.533697
2840.477360,0.000000,-9918.759623,-1302.362347
2840.477687,-1480.411884,-11547.212695,0.000000
2840.478015,-2368.659014,-11473.192101,-612.876398
2840.478342,-222.061783,-11843.295072,-2757.943793
2840.478670,1628.453072,-12139.377449,-2145.067394
2840.478997,1628.453072,-11029.068536,-153.219100
2840.479325,-592.164754,-9992.780217,2451.505594
2840.479652,0.000000,-9844.739029,1072.533697
2840.479980,666.185348,-8808.450710,-2145.067394
2840.480307,444.123565,-9104.533087,-1378.971896
2840.480635,-1258.350101,-7846.182985,1455.581446
2840.480962,-2220.617826,-7328.038826,2911.162892
2840.481290,-1628.453072,-8438.347739,536.266849
2840.481617,0.000000,-9622.677246,-1838.629195
2840.481945,296.082377,-11399.171507,-1838.629195
2840.482272,148.041188,-11103.089130,153.219100
2840.482600,-296.082377,-9252.574275,306.438199
2840.482927,-888.247130,-8290.306550,-689.485948
2840.483255,-888.247130,-8808.450710,-919.314598
2840.483582,-962.267725,-9326.594869,0.000000
2840.483910,-1258.350101,-10214.842000,1302.362347
2840.484237,-1554.432478,-9918.759623,459.657299
2840.484565,74.020594,-10214.842000,-1455.581446
2840.484892,888.247130,-9622.677246,-2298.286494
2840.485220,740.205942,-9474.636058,-995.924147
2840.485547,370.102971,-10140.821405,536.266849
2840.485875,1332.370696,-10658.965565,-383.047749
2840.486202,2738.761985,-9770.718434,-1685.410096
2840.486530,4071.132681,-10658.965565,-1532.190996
2840.486857,3034.844362,-10732.986159,1608.800546
2840.487185,1332.370696,-9918.759623,2604.724693
2840.487512,370.102971,-9474.636058,919.314598
2840.487840,518.144159,-10140.821405,-2145.067394
2840.488167,1110.308913,-10362.883188,-2681.334243
2840.488495,518.144159,-9030.512492,-306.438199
2840.488822,-888.247130,-8290.306550,1532.190996
2840.489150,-592.164754,-7550.100608,459.657299
2840.489477,0.000000,-8956.491898,-1225.752797
2840.489805,296.082377,-11177.109724,-1149.143247
2840.490132,0.000000,-10807.006753,229.828649
2840.490460,222.061783,-9844.739029,536.266849
2840.490787,962.267725,-10140.821405,-842.705048
2840.491115,1776.494261,-9770.718434,-919.314598
2840.491442,2294.638420,-9696.697840,689.485948
2840.491770,1184.329507,-10584.944971,2145.067394
2840.492097,296.082377,-10140.821405,1302.362347
2840.492425,1258.350101,-9696.697840,-1762.019645
2840.492752,1554.432478,-9992.780217,-1685.410096
2840.493080,740.205942,-9178.553681,842.705048
2840.493407,-888.247130,-8586.388927,1991.848295
2840.493735,-1110.308913,-8438.347739,1302.362347
2840.494062,-222.061783,-9104.533087,-1149.143247
2840.494390,1480.411884,-9696.697840,-1838.629195
2840.494718,1480.411884,-9474.636058,766.095498
2840.495045,-296.082377,-8512.368333,1915.238745
2840.495373,-222.061783,-7994.224174,766.095498
2840.495700,222.061783,-8808.450710,-1838.629195
2840.496028,0.000000,-11103.089130,-1915.238745
2840.496355,-592.164754,-11843.295072,-766.095498
2840.496683,-962.267725,-11177.109724,-383.047749
2840.497010,0.000000,-10658.965565,-1532.190996
2840.497338,1036.288319,-11251.130318,-2834.553343
2840.497665,740.205942,-10362.883188,-536.266849
2840.497993,-222.061783,-9844.739029,1378.971896
2840.498320,-592.164754,-9918.759623,919.314598
2840.498648,592.164754,-9326.594869,-1608.800546
2840.498975,1480.411884,-9400.615463,-1685.410096
2840.499303,74.020594,-9178.553681,689.485948
2840.499630,-888.247130,-9252.574275,1072.533697
2840.499958,-2146.597232,-8882.471304,1302.362347
2840.500285,-1702.473667,-8956.491898,-1838.629195
2840.500613,0.000000,-9696.697840,-2834.553343
2840.500940,-518.144159,-10066.800811,0.000000
2840.501268,-1998.556043,-9030.512492,2221.676944
2840.501595,-2368.659014,-8142.265362,842.705048
2840.501923,-1406.391290,-8512.368333,-1378.971896
2840.502250,-962.267725,-8438.347739,-1838.629195
2840.502578,-148.041188,-9992.780217,-459.657299
2840.502905,-222.061783,-10436.903782,1149.143247
2840.503233,1036.288319,-9992.780217,306.438199
2840.503560,2886.803174,-9622.677246,-995.924147
2840.503888,2664.741391,-10658.965565,306.438199
2840.504215,0.000000,-10362.883188,2221.676944
2840.504543,592.164754,-9400.615463,459.657299
2840.504870,1776.494261,-9992.780217,-2528.115143
2840.505198,2368.659014,-10584.944971,-2374.896044
2840.505525,2220.617826,-10288.862594,536.266849
2840.505853,1036.288319,-8808.450710,3294.210641
2840.506180,74.020594,-7772.162391,1991.848295
2840.506508,666.185348,-8956.491898,-1072.533697
2840.506835,1258.350101,-10066.800811,-2681.334243
2840.507163,296.082377,-9696.697840,-1225.752797
2840.507490,0.000000,-8882.471304,76.609550
2840.507818,-222.061783,-8956.491898,0.000000
2840.508145,1036.288319,-10362.883188,-1149.143247
2840.508473,2220.617826,-11103.089130,-766.095498
2840.508800,1628.453072,-11843.295072,-1149.143247
2840.509128,1036.288319,-11325.150913,306.438199
2840.509455,1480.411884,-10288.862594,-1532.190996
2840.509783,1702.473667,-9030.512492,-1762.019645
2840.510110,1036.288319,-8438.347739,76.609550
2840.510438,444.123565,-9474.636058,2298.286494
2840.510765,888.247130,-9696.697840,2145.067394
2840.511093,1480.411884,-9104.533087,-612.876398
2840.511420,2442.679609,-10362.883188,-2681.334243
2840.511748,888.247130,-10436.903782,-306.438199
2840.512075,-666.185348,-9178.553681,1608.800546
2840.512403,-1702.473667,-8290.306550,995.924147
2840.512730,-592.164754,-8438.347739,-1455.581446
2840.513058,962.267725,-9548.656652,-1915.238745
2840.513385,1628.453072,-11103.089130,536.266849
2840.513713,296.082377,-9770.718434,2757.943793
2840.514040,-1036.288319,-7476.080014,1838.629195
2840.514368,-1628.453072,-7402.059420,-995.924147
2840.514695,-1480.411884,-8512.368333,-2221.676944
2840.515023,-962.267725,-9844.739029,-766.095498
2840.515350,-1184.329507,-9252.574275,766.095498
2840.515678,0.000000,-9030.512492,229.828649
2840.516005,1258.350101,-9326.594869,-612.876398
2840.516333,1258.350101,-10436.903782,-536.266849
2840.516660,-370.102971,-11843.295072,1685.410096
2840.516988,-888.247130,-11103.089130,689.485948
2840.517316,518.144159,-10436.903782,-2145.067394
2840.517643,1702.473667,-11251.130318,-3064.381992
2840.517971,1110.308913,-11621.233289,0.000000
2840.518298,-1036.288319,-10140.821405,2374.896044
2840.518626,-2516.700203,-8586.388927,1302.362347
2840.518953,-1924.535449,-8216.285956,-2068.457845
2840.519281,-1406.391290,-9548.656652,-3370.820191
2840.519608,-814.226536,-10140.821405,-1225.752797
2840.519936,-888.247130,-9252.574275,1685.410096
2840.520263,-962.267725,-8808.450710,919.314598
2840.520591,518.144159,-9844.739029,-536.266849
2840.520918,1554.432478,-10881.027347,-842.705048
2840.521246,1036.288319,-10436.903782,0.000000
2840.521573,0.000000,-10066.800811,1149.143247
2840.521901,-592.164754,-10288.862594,459.657299
2840.522228,0.000000,-9474.636058,-1225.752797
2840.522556,-296.082377,-9622.677246,-1455.581446
2840.522883,-814.226536,-9474.636058,1455.581446
2840.523211,-1110.308913,-9918.759623,1072.533697
2840.523538,0.000000,-10140.821405,-919.314598
2840.523866,1258.350101,-9030.512492,-2528.115143
2840.524193,2294.638420,-8660.409521,-1072.533697
2840.524521,1776.494261,-8734.430116,2221.676944
2840.524848,0.000000,-7994.224174,3217.601092
2840.525176,666.185348,-8438.347739,0.000000
2840.525503,1850.514855,-8882.471304,-1532.190996
2840.525831,2146.597232,-10288.862594,-842.705048
2840.526158,1184.329507,-10288.862594,1225.752797
2840.526486,518.144159,-9178.553681,842.705048
2840.526813,1184.329507,-9252.574275,-1302.362347
2840.527141,1110.308913,-10881.027347,-2145.067394
2840.527468,888.247130,-11029.068536,-536.266849
2840.527796,-518.144159,-9400.615463,919.314598
2840.528123,-518.144159,-8438.347739,766.095498
2840.528451,888.247130,-9104.533087,-919.314598
2840.528778,1776.494261,-10288.862594,-842.705048
2840.529106,1110.308913,-10658.965565,229.828649
2840.529433,518.144159,-10288.862594,995.924147
2840.529761,518.144159,-10510.924376,-1225.752797
2840.530088,1850.514855,-11103.089130,-2911.162892
2840.530416,1480.411884,-10881.027347,-1762.019645
2840.530743,740.205942,-10584.944971,1149.143247
2840.531071,0.000000,-10732.986159,1608.800546
2840.531398,74.020594,-10510.924376,-153.219100
2840.531726,666.185348,-9844.739029,-1378.971896
2840.532053,962.267725,-9326.594869,-229.828649
2840.532381,-370.102971,-8512.368333,1685.410096
2840.532708,-1850.514855,-7772.162391,1915.238745
2840.533036,-1406.391290,-7105.977043,229.828649
2840.533363,148.041188,-8068.244768,-1302.362347
2840.533691,148.041188,-9252.574275,-153.219100
2840.534018,-888.247130,-10140.821405,1838.629195
2840.534346,-1998.556043,-9474.636058,1532.190996
2840.534673,-148.041188,-9696.697840,-1608.800546
2840.535001,1480.411884,-10881.027347,-2451.505594
2840.535328,1258.350101,-11177.109724,76.609550
2840.535656,296.082377,-10066.800811,1762.019645
2840.535983,592.164754,-9992.780217,1072.533697
2840.536311,1702.473667,-9548.656652,-995.924147
2840.536638,1480.411884,-9918.759623,-766.095498
2840.536966,-666.185348,-8364.327145,1838.629195
2840.537293,-2368.659014,-7624.121203,1915.238745
2840.537621,-1628.453072,-8290.306550,-842.705048
2840.537948,74.020594,-9918.759623,-2834.553343
2840.538276,518.144159,-11177.109724,-1225.752797
2840.538603,-148.041188,-9992.780217,919.314598
2840.538931,-370.102971,-9474.636058,1149.143247
2840.539259,0.000000,-9474.636058,-459.657299
2840.539586,740.205942,-10066.800811,-1915.238745
2840.539914,-518.144159,-10658.965565,0.000000
2840.540241,-1998.556043,-10066.800811,919.314598
2840.540569,-2516.700203,-9326.594869,-1378.971896
2840.540896,-814.226536,-10066.800811,-3064.381992
2840.541224,740.205942,-10658.965565,-3524.039291
2840.541551,1332.370696,-11177.109724,-1302.362347
2840.541879,1554.432478,-10955.047942,842.705048
2840.542206,2516.700203,-10807.006753,0.000000
2840.542534,3701.029710,-10584.944971,-1302.362347
2840.542861,3034.844362,-10140.821405,153.219100
2840.543189,1406.391290,-9104.533087,2298.286494
2840.543516,-370.102971,-8068.244768,2757.943793
2840.543844,-296.082377,-8142.265362,-153.219100
2840.544171,888.247130,-8734.430116,-1532.190996
2840.544499,1184.329507,-9326.594869,-383.047749
2840.544826,296.082377,-9696.697840,1915.238745
2840.545154,-1258.350101,-8512.368333,1762.019645
2840.545481,-962.267725,-7846.182985,-612.876398
2840.545809,0.000000,-9178.553681,-2911.162892
2840.546136,0.000000,-9400.615463,-1455.581446
2840.546464,0.000000,-9400.615463,1225.752797
2840.546791,296.082377,-9104.533087,1991.848295
2840.547119,1332.370696,-10140.821405,383.047749
2840.547446,2738.761985,-9992.780217,-842.705048
2840.547774,1702.473667,-9770.718434,-229.828649
2840.548101,518.144159,-9770.718434,536.266849
2840.548429,296.082377,-9474.636058,0.000000
2840.548756,1554.432478,-9622.677246,-2145.067394
2840.549084,1702.473667,-10436.903782,-1608.800546
2840.549411,1184.329507,-11177.109724,1072.533697
2840.549739,296.082377,-10436.903782,1532.190996
2840.550066,0.000000,-9474.636058,153.219100
2840.550394,814.226536,-10066.800811,-2451.505594
2840.550721,1110.308913,-11103.089130,-1685.410096
2840.551049,74.020594,-10066.800811,842.705048
2840.551376,-1258.350101,-8660.409521,1762.019645
2840.551704,-1480.411884,-8216.285956,153.219100
2840.552031,-296.082377,-9400.615463,-1532.190996
2840.552359,-740.205942,-10140.821405,-689.485948
2840.552686,-1258.350101,-11473.192101,229.828649
2840.553014,-2294.638420,-9474.636058,0.000000
2840.553341,-962.267725,-9326.594869,-1685.410096
2840.553669,814.226536,-9696.697840,-1838.629195
2840.553996,1258.350101,-9326.594869,536.266849
2840.554324,222.061783,-8364.327145,2451.505594
2840.554651,0.000000,-8808.450710,1225.752797
2840.554979,1184.329507,-10140.821405,-689.485948
2840.555306,2072.576638,-10807.006753,-1149.143247
2840.555634,1258.350101,-10066.800811,536.266849
2840.555961,-1110.308913,-9178.553681,2298.286494
2840.556289,-1554.432478,-9474.636058,459.657299
2840.556617,74.020594,-10288.862594,-1991.848295
2840.556944,518.144159,-9622.677246,-2451.505594
2840.557272,-962.267725,-8512.368333,536.266849
2840.557599,-2516.700203,-7698.141797,1915.238745
2840.557927,-1628.453072,-8660.409521,459.657299
2840.558254,444.123565,-8808.450710,-1149.143247
2840.558582,888.247130,-9178.553681,-919.314598
2840.558910,370.102971,-10214.842000,536.266849
2840.559237,444.123565,-11029.068536,766.095498
2840.559565,1554.432478,-10214.842000,-1685.410096
2840.559892,1998.556043,-10436.903782,-2604.724693
2840.560220,1406.391290,-10881.027347,-1072.533697
2840.560548,370.102971,-11325.150913,1072.533697
2840.560875,370.102971,-11103.089130,536.266849
2840.561203,1702.473667,-10362.883188,-1532.190996
2840.561530,1554.432478,-10807.006753,-1991.848295
2840.561858,888.247130,-10436.903782,536.266849
2840.562186,-740.205942,-9252.574275,1762.019645
2840.562513,-666.185348,-8290.306550,536.266849
2840.562841,444.123565,-8438.347739,-1685.410096
2840.563168,1036.288319,-9474.636058,-1378.971896
2840.563496,0.000000,-9252.574275,1302.362347
2840.563824,-888.247130,-8808.450710,1225.752797
2840.564151,-296.082377,-9474.636058,153.219100
2840.564479,1184.329507,-9918.759623,-2221.676944
2840.564806,1776.494261,-10807.006753,-1455.581446
2840.565134,1110.308913,-10510.924376,842.705048
2840.565461,296.082377,-9770.718434,1455.581446
2840.565789,1184.329507,-8808.450710,383.047749
2840.566117,1850.514855,-9030.512492,-919.314598
2840.566444,1184.329507,-8882.471304,766.095498
2840.566772,0.000000,-9104.533087,2374.896044
2840.567099,-814.226536,-8142.265362,1378.971896
2840.567427,444.123565,-8438.347739,-1149.143247
2840.567755,1184.329507,-10066.800811,-2451.505594
2840.568082,666.185348,-11103.089130,-459.657299
2840.568410,0.000000,-9844.739029,1378.971896
2840.568737,0.000000,-9252.574275,306.438199
2840.569065,962.267725,-10288.862594,-1608.800546
2840.569393,1480.411884,-10955.047942,-1225.752797
2840.569720,296.082377,-10510.924376,919.314598
2840.570048,-666.185348,-9400.615463,1762.019645
2840.570375,-1258.350101,-7994.224174,306.438199
2840.570703,-518.144159,-8586.388927,-2145.067394
2840.571030,-444.123565,-9178.553681,-1378.971896
2840.571358,-962.267725,-9844.739029,0.000000
2840.571686,-1554.432478,-9622.677246,919.314598
2840.572013,-666.185348,-9844.739029,-766.095498
2840.572341,740.205942,-10214.842000,-2221.676944
2840.572668,1554.432478,-10955.047942,-689.485948
2840.572996,518.144159,-10584.944971,1455.581446
2840.573324,296.082377,-10140.821405,2068.457845
2840.573651,1406.391290,-9844.739029,-1072.533697
2840.573979,1776.494261,-9844.739029,-1685.410096
2840.574306,1258.350101,-10584.944971,153.219100
2840.574634,0.000000,-10288.862594,1838.629195
2840.574962,-1332.370696,-8882.471304,995.924147
2840.575289,-296.082377,-8660.409521,-1608.800546
2840.575617,-222.061783,-9326.594869,-2221.676944
2840.575944,-222.061783,-9992.780217,919.314598
2840.576272,-666.185348,-8734.430116,2068.457845
2840.576599,0.000000,-8438.347739,536.266849
2840.576927,1036.288319,-8956.491898,-1149.143247
2840.577255,222.061783,-9326.594869,-919.314598
2840.577582,296.082377,-9400.615463,689.485948
2840.577910,-666.185348,-8882.471304,1455.581446
2840.578237,-888.247130,-9326.594869,0.000000
2840.578565,-444.123565,-9844.739029,-1225.752797
2840.578893,-370.102971,-10658.965565,-1378.971896
2840.579220,-518.144159,-10362.883188,-536.266849
2840.579548,222.061783,-10584.944971,-766.095498
2840.579875,962.267725,-10214.842000,-2374.896044
2840.580203,3182.885551,-10955.047942,-1915.238745
2840.580531,3404.947333,-10362.883188,0.000000
2840.580858,2368.659014,-9770.718434,2451.505594
2840.581186,1332.370696,-9474.636058,1915.238745
2840.581513,1480.411884,-9474.636058,-842.705048
2840.581841,1850.514855,-10510.924376,-2834.553343
2840.582168,222.061783,-9918.759623,-919.314598
2840.582496,-962.267725,-9252.574275,1149.143247
2840.582824,-666.185348,-9104.533087,0.000000
2840.583151,962.267725,-9992.780217,-1762.019645
2840.583479,1332.370696,-10658.965565,-1149.143247
2840.583806,148.041188,-10510.924376,1072.533697
2840.584134,-592.164754,-9400.615463,1685.410096
2840.584462,-518.144159,-9178.553681,-383.047749
2840.584789,296.082377,-8364.327145,-1915.238745
2840.585117,814.226536,-8808.450710,-383.047749
2840.585444,740.205942,-9548.656652,1991.848295
2840.585772,370.102971,-10732.986159,1685.410096
2840.586100,962.267725,-10510.924376,-689.485948
2840.586427,1406.391290,-9474.636058,-2911.162892
2840.586755,888.247130,-9474.636058,-919.314598
2840.587082,148.041188,-9178.553681,1762.019645
2840.587410,-962.267725,-8216.285956,1762.019645
2840.587737,0.000000,-8364.327145,-536.266849
2840.588065,1184.329507,-9474.636058,-689.485948
2840.588393,888.247130,-10066.800811,383.047749
2840.588720,-666.185348,-9252.574275,2298.286494
2840.589048,-1628.453072,-8216.285956,1455.581446
2840.589375,-222.061783,-8216.285956,-1991.848295
2840.589703,0.000000,-10140.821405,-2911.162892
2840.590031,-666.185348,-10955.047942,-536.266849
2840.590358,-1628.453072,-10362.883188,995.924147
2840.590686,-1184.329507,-10732.986159,-383.047749
2840.591013,370.102971,-11029.068536,-2298.286494
2840.591341,296.082377,-10658.965565,-1072.533697
2840.591669,740.205942,-10362.883188,612.876398
2840.591996,-370.102971,-8586.388927,1378.971896
2840.592324,518.144159,-8364.327145,-766.095498
2840.592651,1480.411884,-8660.409521,-1762.019645
2840.592979,666.185348,-9696.697840,0.000000
2840.593306,-296.082377,-9548.656652,1378.971896
2840.593634,-518.144159,-9844.739029,229.828649
2840.593962,518.144159,-10288.862594,-2068.457845
2840.594289,2220.617826,-11325.150913,-2298.286494
2840.594617,1628.453072,-11547.212695,-153.219100
2840.594944,0.000000,-10658.965565,2068.457845
2840.595272,-222.061783,-9252.574275,689.485948
2840.595600,370.102971,-8068.244768,-1149.143247
2840.595927,-592.164754,-8364.327145,-766.095498
2840.596255,-1776.494261,-8660.409521,919.314598
2840.596582,-2146.597232,-8586.388927,2221.676944
2840.596910,-1628.453072,-8660.409521,995.924147
2840.597238,1110.308913,-9918.759623,-1455.581446
2840.597565,2072.576638,-10807.006753,-1455.581446
2840.597893,1702.473667,-10584.944971,612.876398
2840.598220,592.164754,-10140.821405,1378.971896
2840.598548,1184.329507,-8956.491898,-383.047749
2840.598875,2368.659014,-9474.636058,-1685.410096
2840.599203,2368.659014,-10140.821405,459.657299
2840.599531,1406.391290,-9918.759623,2911.162892
2840.599858,74.020594,-9474.636058,2451.505594
2840.600186,-370.102971,-8882.471304,-1149.143247
2840.600513,0.000000,-9474.636058,-2987.772442
2840.600841,-814.226536,-10066.800811,-1149.143247
2840.601169,-1332.370696,-9030.512492,612.876398
2840.601496,-1406.391290,-8438.347739,229.828649
2840.601824,370.102971,-9104.533087,-1762.019645
2840.602151,740.205942,-10214.842000,-1532.190996
2840.602479,444.123565,-10732.986159,689.485948
2840.602807,0.000000,-10510.924376,1455.581446
2840.603134,0.000000,-10288.862594,-383.047749
2840.603462,1258.350101,-10140.821405,-2298.286494
2840.603789,2072.576638,-10288.862594,-1991.848295
2840.604117,1184.329507,-10288.862594,1149.143247
2840.604445,740.205942,-10140.821405,1915.238745
2840.604772,1110.308913,-10140.821405,0.000000
2840.605100,888.247130,-9548.656652,-1608.800546
2840.605427,1406.391290,-10140.821405,-1378.971896
2840.605755,370.102971,-9474.636058,689.485948
2840.606082,-1406.391290,-8216.285956,1915.238745
2840.606410,-1184.329507,-8290.306550,0.000000
2840.606738,296.082377,-9474.636058,-1685.410096
2840.607065,518.144159,-10214.842000,76.609550
2840.607393,-222.061783,-9918.759623,1608.800546
2840.607720,-740.205942,-8734.430116,1149.143247
2840.608048,148.041188,-8808.450710,-1915.238745
2840.608376,444.123565,-9622.677246,-2451.505594
2840.608703,-592.164754,-9474.636058,-612.876398
2840.609031,-1998.556043,-10066.800811,1608.800546
2840.609358,-814.226536,-10436.903782,919.314598
2840.609686,1036.288319,-8808.450710,-1608.800546
2840.610014,1184.329507,-9030.512492,-1302.362347
2840.610341,888.247130,-9178.553681,1455.581446
2840.610669,370.102971,-8956.491898,2451.505594
2840.610996,518.144159,-9104.533087,536.266849
2840.611324,1184.329507,-9474.636058,-1915.238745
2840.611651,1332.370696,-9844.739029,-2221.676944
2840.611979,814.226536,-10214.842000,459.657299
2840.612307,-740.205942,-10066.800811,1762.019645
2840.612634,-296.082377,-10436.903782,-383.047749
2840.612962,1184.329507,-10955.047942,-2681.334243
2840.613289,1184.329507,-11621.233289,-1838.629195
2840.613617,666.185348,-10732.986159,612.876398
2840.613945,148.041188,-8956.491898,612.876398
2840.614272,296.082377,-9104.533087,-306.438199
2840.614600,888.247130,-9992.780217,-1762.019645
2840.614927,0.000000,-9548.656652,-229.828649
2840.615255,-518.144159,-9622.677246,1302.362347
2840.615583,-1184.329507,-9178.553681,76.609550
2840.615910,518.144159,-10066.800811,-1991.848295
2840.616238,1554.432478,-10732.986159,-1838.629195
2840.616565,1406.391290,-10214.842000,306.438199
2840.616893,74.020594,-9622.677246,2145.067394
2840.617220,-1036.288319,-9252.574275,1302.362347
2840.617548,444.123565,-10436.903782,-1149.143247
2840.617876,222.061783,-10066.800811,-1302.362347
2840.618203,0.000000,-9400.615463,0.000000
2840.618531,-814.226536,-9326.594869,1225.752797
2840.618858,0.000000,-9400.615463,383.047749
2840.619186,1258.350101,-9400.615463,-1072.533697
2840.619514,1628.453072,-9770.718434,-383.047749
2840.619841,740.205942,-9770.718434,1149.143247
2840.620169,0.000000,-9252.574275,689.485948
2840.620496,148.041188,-7846.182985,-1302.362347
2840.620824,888.247130,-8586.388927,-1991.848295
2840.621152,814.226536,-9548.656652,536.266849
2840.621479,-370.102971,-10362.883188,2604.724693
2840.621807,-666.185348,-9918.759623,2068.457845
2840.622134,740.205942,-9696.697840,-1072.533697
2840.622462,1776.494261,-10288.862594,-2528.115143
2840.622789,814.226536,-10066.800811,-383.047749
2840.623117,-888.247130,-9104.533087,842.705048
2840.623445,-1258.350101,-9252.574275,153.219100
2840.623772,740.205942,-10436.903782,-2604.724693
2840.624100,1554.432478,-10881.027347,-2145.067394
2840.624427,1332.370696,-10881.027347,229.828649
2840.624755,222.061783,-10362.883188,1072.533697
2840.625083,148.041188,-9918.759623,0.000000
2840.625410,1184.329507,-9770.718434,-1762.019645
2840.625738,1702.473667,-9474.636058,-1302.362347
2840.626065,518.144159,-8882.471304,1225.752797
2840.626393,-592.164754,-8586.388927,2068.457845
2840.626721,74.020594,-8586.388927,-229.828649
2840.627048,666.185348,-9474.636058,-2068.457845
2840.627376,296.082377,-10658.965565,-842.705048
2840.627703,-740.205942,-10658.965565,766.095498
2840.628031,-1406.391290,-9918.759623,919.314598
2840.628358,0.000000,-9474.636058,-1991.848295
2840.628686,1406.391290,-9400.615463,-2451.505594
2840.629014,2072.576638,-10140.821405,-459.657299
2840.629341,444.123565,-9622.677246,2528.115143
2840.629669,74.020594,-9548.656652,2145.067394
2840.629996,1110.308913,-9474.636058,0.000000
2840.630324,1554.432478,-9844.739029,-842.705048
2840.630652,0.000000,-9474.636058,612.876398
2840.630979,-814.226536,-8808.450710,689.485948
2840.631307,-1258.350101,-7402.059420,0.000000
2840.631634,296.082377,-8956.491898,-1532.190996
2840.631962,1184.329507,-10066.800811,-842.705048
2840.632290,592.164754,-9474.636058,1608.800546
2840.632617,0.000000,-8808.450710,2068.457845
2840.632945,296.082377,-9252.574275,-306.438199
2840.633272,1110.308913,-10288.862594,-2451.505594
2840.633600,74.020594,-10436.903782,-1455.581446
2840.633927,-592.164754,-10807.006753,689.485948
2840.634255,-1258.350101,-10807.006753,766.095498
2840.634583,0.000000,-10584.944971,-995.924147
2840.634910,814.226536,-9770.718434,-1991.848295
2840.635238,-148.041188,-9548.656652,-995.924147
2840.635565,-1628.453072,-9252.574275,1149.143247
2840.635893,-1554.432478,-9548.656652,459.657299
2840.636221,740.205942,-10288.862594,-1762.019645
2840.636548,2072.576638,-10658.965565,-1838.629195
2840.636876,1924.535449,-10584.944971,459.657299
2840.637203,666.185348,-9844.739029,2681.334243
2840.637531,814.226536,-9178.553681,76.609550
2840.637859,1184.329507,-9326.594869,-2528.115143
2840.638186,1036.288319,-10140.821405,-1532.190996
2840.638514,0.000000,-10288.862594,459.657299
2840.638841,-1036.288319,-9252.574275,1608.800546
2840.639169,-518.144159,-7994.224174,-229.828649
2840.639497,-296.082377,-8956.491898,-2374.896044
2840.639824,-814.226536,-10214.842000,-1378.971896
2840.640152,-666.185348,-10362.883188,0.000000
2840.640479,-814.226536,-9992.780217,842.705048
2840.640807,148.041188,-8956.491898,-689.485948
2840.641134,1110.308913,-8956.491898,-1225.752797
2840.641462,888.247130,-9030.512492,459.657299
2840.641790,222.061783,-9252.574275,2068.457845
2840.642117,518.144159,-10214.842000,1149.143247
2840.642445,1628.453072,-10436.903782,-1838.629195
2840.642772,2738.761985,-11029.068536,-2681.334243
2840.643100,2146.597232,-11177.109724,0.000000
2840.643428,814.226536,-9992.780217,2068.457845
2840.643755,74.020594,-8956.491898,1225.752797
2840.644083,1036.288319,-8808.450710,-536.266849
2840.644410,2146.597232,-9178.553681,-1455.581446
2840.644738,888.247130,-9474.636058,842.705048
2840.645066,-1184.329507,-8216.285956,2298.286494
2840.645393,-1332.370696,-7402.059420,229.828649
2840.645721,-222.061783,-8882.471304,-2374.896044
2840.646048,-666.185348,-10955.047942,-1915.238745
2840.646376,-666.185348,-11547.212695,-229.828649
2840.646703,0.000000,-11251.130318,0.000000
2840.647031,1036.288319,-11103.089130,-1378.971896
2840.647359,1850.514855,-10807.006753,-1532.190996
2840.647686,1258.350101,-10510.924376,-306.438199
2840.648014,296.082377,-10140.821405,1532.190996
2840.648341,-296.082377,-9844.739029,1149.143247
2840.648669,1110.308913,-9474.636058,-689.485948
2840.648997,1036.288319,-9178.553681,-919.314598
2840.649324,1110.308913,-9474.636058,1455.581446
2840.649652,-148.041188,-8660.409521,2451.505594
2840.649979,-1480.411884,-8068.244768,1455.581446
2840.650307,-518.144159,-8438.347739,-1608.800546
2840.650635,444.123565,-9992.780217,-2451.505594
2840.650962,888.247130,-10807.006753,0.000000
2840.651290,148.041188,-9992.780217,1608.800546
2840.651617,296.082377,-9252.574275,1302.362347
2840.651945,444.123565,-9252.574275,-1225.752797
2840.652272,0.000000,-10066.800811,-1378.971896
2840.652600,-814.226536,-9992.780217,229.828649
2840.652928,-1554.432478,-9400.615463,612.876398
2840.653255,-370.102971,-9548.656652,-536.266849
2840.653583,1406.391290,-9622.677246,-1685.410096
2840.653910,888.247130,-9474.636058,-995.924147
2840.654238,444.123565,-9622.677246,1149.143247
2840.654566,-296.082377,-9844.739029,1532.190996
2840.654893,814.226536,-9548.656652,-995.924147
2840.655221,2294.638420,-9844.739029,-2221.676944
2840.655548,2368.659014,-9326.594869,0.000000
2840.655876,1110.308913,-9400.615463,3294.210641
2840.656204,-666.185348,-8882.471304,2451.505594
2840.656531,-1332.370696,-8882.471304,-536.266849
2840.656859,-1036.288319,-10288.862594,-2528.115143
2840.657186,-814.226536,-10510.924376,-2221.676944
2840.657514,-1776.494261,-10510.924376,-306.438199
2840.657842,-962.267725,-9696.697840,-995.924147
2840.658169,592.164754,-9252.574275,-2145.067394
2840.658497,1406.391290,-10436.903782,-1532.190996
2840.658824,222.061783,-11177.109724,842.705048
2840.659152,148.041188,-10066.800811,1225.752797
2840.659480,1184.329507,-9400.615463,-689.485948
2840.659807,1924.535449,-9252.574275,-1762.019645
2840.660135,1406.391290,-9622.677246,0.000000
2840.660463,666.185348,-9622.677246,2451.505594
2840.660790,222.061783,-10066.800811,1455.581446
2840.661118,1924.535449,-10362.883188,-1378.971896
2840.661446,2590.720797,-10732.986159,-2528.115143
2840.661773,1406.391290,-10510.924376,-459.657299
2840.662101,-296.082377,-8586.388927,1991.848295
2840.662429,-1036.288319,-8068.244768,1532.190996
2840.662756,-370.102971,-8364.327145,-612.876398
2840.663084,666.185348,-9548.656652,-1149.143247
2840.663411,814.226536,-10288.862594,306.438199
2840.663739,-296.082377,-10140.821405,1532.190996
2840.664067,-518.144159,-9474.636058,-383.047749
2840.664394,74.020594,-8808.450710,-2221.676944
2840.664722,0.000000,-9178.553681,-1838.629195
2840.665050,-518.144159,-9992.780217,459.657299
2840.665377,-296.082377,-9474.636058,689.485948
2840.665705,666.185348,-9622.677246,0.000000
2840.666033,2368.659014,-10066.800811,-1378.971896
2840.666360,2368.659014,-10658.965565,-229.828649
2840.666688,666.185348,-10362.883188,2298.286494
2840.667016,0.000000,-9918.759623,1532.190996
2840.667343,444.123565,-9104.533087,-1532.190996
2840.667671,1702.473667,-8734.430116,-2987.772442
2840.667999,1554.432478,-10807.006753,-1149.143247
2840.668326,-296.082377,-10881.027347,2145.067394
2840.668654,-1258.350101,-9770.718434,1838.629195
2840.668981,-370.102971,-9992.780217,-1302.362347
2840.669309,666.185348,-10066.800811,-2987.772442
2840.669637,0.000000,-9770.718434,-689.485948
2840.669964,-222.061783,-9104.533087,1762.019645
2840.670292,-592.164754,-7846.182985,536.266849
2840.670620,-370.102971,-7254.018232,-1225.752797
2840.670947,-370.102971,-9252.574275,-1685.410096
2840.671275,-1110.308913,-10140.821405,612.876398
2840.671603,-518.144159,-10140.821405,1302.362347
2840.671930,74.020594,-10214.842000,-153.219100
2840.672258,1184.329507,-10436.903782,-2221.676944
2840.672586,666.185348,-10436.903782,-1838.629195
2840.672913,0.000000,-10510.924376,612.876398
2840.673241,-962.267725,-9696.697840,1149.143247
2840.673568,0.000000,-9622.677246,-766.095498
2840.673896,740.205942,-9474.636058,-1762.019645
2840.674224,222.061783,-9252.574275,153.219100
2840.674551,-518.144159,-9178.553681,2374.896044
2840.674879,-888.247130,-9326.594869,1762.019645
2840.675207,-148.041188,-9252.574275,-842.705048
2840.675534,1036.288319,-9844.739029,-2528.115143
2840.675862,888.247130,-10584.944971,-995.924147
2840.676190,666.185348,-9844.739029,842.705048
2840.676517,592.164754,-9104.533087,689.485948
2840.676845,1036.288319,-9104.533087,-2221.676944
2840.677173,740.205942,-10066.800811,-842.705048
2840.677500,370.102971,-11251.130318,689.485948
2840.677828,0.000000,-10658.965565,1378.971896
2840.678156,-518.144159,-9548.656652,-306.438199
2840.678483,0.000000,-9030.512492,-1762.019645
2840.678811,370.102971,-8882.471304,-1149.143247
2840.679138,0.000000,-10288.862594,1302.362347
2840.679466,-814.226536,-9992.780217,1915.238745
2840.679794,0.000000,-9178.553681,-153.219100
2840.680121,1776.494261,-9548.656652,-2451.505594
2840.680449,1702.473667,-10362.883188,-1378.971896
2840.680777,888.247130,-10436.903782,1378.971896
2840.681104,370.102971,-9770.718434,1762.019645
2840.681432,1850.514855,-10658.965565,-306.438199
2840.681760,2368.659014,-9844.739029,-1991.848295
2840.682087,1850.514855,-9918.759623,153.219100
2840.682415,666.185348,-9400.615463,2298.286494
2840.682743,-370.102971,-7920.203579,1532.190996
2840.683070,0.000000,-8290.306550,-1225.752797
2840.683398,-222.061783,-8734.430116,-2221.676944
2840.683725,-518.144159,-9400.615463,-306.438199
2840.684053,-1184.329507,-9770.718434,1455.581446
2840.684381,-962.267725,-9474.636058,306.438199
2840.684708,296.082377,-9474.636058,-1608.800546
2840.685036,1036.288319,-10510.924376,-1302.362347
2840.685364,814.226536,-11029.068536,689.485948
2840.685691,444.123565,-10362.883188,1608.800546
2840.686019,1554.432478,-9844.739029,-1149.143247
2840.686347,2368.659014,-9992.780217,-3370.820191
2840.686674,1406.391290,-10658.965565,-1991.848295
2840.687002,0.000000,-10955.047942,1149.143247
2840.687330,-1184.329507,-9992.780217,1378.971896
2840.687657,0.000000,-9474.636058,-689.485948
2840.687985,1702.473667,-9548.656652,-2374.896044
2840.688312,1110.308913,-9770.718434,-612.876398
2840.688640,0.000000,-9474.636058,2757.943793
2840.688968,-962.267725,-7846.182985,1608.800546
2840.689295,-518.144159,-7920.203579,-1762.019645
2840.689623,74.020594,-9400.615463,-2681.334243
2840.689951,-592.164754,-10066.800811,-229.828649
2840.690278,-962.267725,-10362.883188,1532.190996
2840.690606,-962.267725,-10881.027347,536.266849
2840.690934,666.185348,-11103.089130,-2451.505594
2840.691261,296.082377,-10066.800811,-2604.724693
2840.691589,0.000000,-10214.842000,76.609550
2840.691917,0.000000,-10288.862594,1838.629195
2840.692244,1184.329507,-9918.759623,153.219100
2840.692572,1628.453072,-9400.615463,-995.924147
2840.692900,1850.514855,-9474.636058,306.438199
2840.693227,592.164754,-9400.615463,1915.238745
2840.693555,-518.144159,-8734.430116,1991.848295
2840.693882,-518.144159,-8290.306550,-842.705048
2840.694210,148.041188,-8956.491898,-2221.676944
2840.694538,296.082377,-9622.677246,-612.876398
2840.694865,-1036.288319,-10066.800811,1838.629195
2840.695193,-1850.514855,-9030.512492,1378.971896
2840.695521,-1332.370696,-7846.182985,-2221.676944
2840.695848,-518.144159,-9474.636058,-3524.039291
2840.696176,-296.082377,-11621.233289,-1225.752797
2840.696504,74.020594,-11325.150913,1149.143247
2840.696831,296.082377,-10066.800811,689.485948
2840.697159,1110.308913,-8808.450710,-919.314598
2840.697487,2220.617826,-10214.842000,-1072.533697
2840.697814,1554.432478,-10362.883188,612.876398
