#time,accel_x,accel_y,accel_z
3263.350628,222.061783,-9918.759623,-612.876398
3263.350955,0.000000,-9918.759623,-766.095498
3263.351283,-222.061783,-9992.780217,-919.314598
3263.351611,-222.061783,-9844.739029,-612.876398
3263.351938,74.020594,-9770.718434,-459.657299
3263.352266,296.082377,-10288.862594,-536.266849
3263.352593,518.144159,-10214.842000,459.657299
3263.352921,444.123565,-9696.697840,153.219100
3263.353248,740.205942,-9844.739029,229.828649
3263.353576,592.164754,-9400.615463,229.828649
3263.353903,666.185348,-9326.594869,76.609550
3263.354231,222.061783,-8956.491898,76.609550
3263.354558,-148.041188,-8586.388927,383.047749
3263.354886,-592.164754,-9030.512492,0.000000
3263.355213,-148.041188,-8660.409521,0.000000
3263.355541,0.000000,-9252.574275,-306.438199
3263.355868,222.061783,-9548.656652,-306.438199
3263.356196,296.082377,-9844.739029,76.609550
3263.356524,814.226536,-9622.677246,-229.828649
3263.356851,666.185348,-9770.718434,153.219100
3263.357179,888.247130,-9474.636058,459.657299
3263.357506,518.144159,-9474.636058,229.828649
3263.357834,148.041188,-9400.615463,229.828649
3263.358161,148.041188,-9474.636058,0.000000
3263.358489,74.020594,-9548.656652,-306.438199
3263.358816,0.000000,-9548.656652,-306.438199
3263.359144,-148.041188,-10066.800811,-612.876398
3263.359471,0.000000,-10362.883188,-306.438199
3263.359799,518.144159,-10658.965565,-306.438199
3263.360126,444.123565,-10584.944971,-689.485948
3263.360454,518.144159,-10584.944971,-536.266849
3263.360782,666.185348,-10436.903782,-536.266849
3263.361109,518.144159,-10140.821405,-459.657299
3263.361437,296.082377,-9474.636058,-612.876398
3263.361764,370.102971,-9474.636058,-612.876398
3263.362092,222.061783,-9474.636058,-459.657299
3263.362419,74.020594,-9696.697840,-766.095498
3263.362747,0.000000,-9844.739029,-536.266849
3263.363074,74.020594,-9770.718434,-229.828649
3263.363402,222.061783,-9548.656652,0.000000
3263.363729,1110.308913,-9548.656652,0.000000
3263.364057,1628.453072,-9474.636058,0.000000
3263.364384,1998.556043,-9844.739029,383.047749
3263.364712,3108.864956,-9030.512492,459.657299
3263.365040,3627.009116,-8364.327145,229.828649
3263.365367,4219.173869,-8438.347739,0.000000
3263.365695,4589.276840,-8956.491898,383.047749
3263.366022,5403.503377,-9030.512492,536.266849
3263.366350,6513.812290,-9252.574275,-306.438199
3263.366677,7105.977043,-9474.636058,-459.657299
3263.367005,8438.347739,-9992.780217,-459.657299
3263.367332,8586.388927,-10436.903782,229.828649
3263.367660,8290.306550,-10658.965565,766.095498
3263.367987,9178.553681,-9992.780217,995.924147
3263.368315,9844.739029,-8882.471304,76.609550
3263.368642,9918.759623,-8512.368333,76.609550
3263.368970,10066.800811,-8586.388927,229.828649
3263.369298,10362.883188,-8956.491898,229.828649
3263.369625,10881.027347,-9770.718434,0.000000
3263.369953,10807.006753,-10584.944971,-306.438199
3263.370280,10288.862594,-10140.821405,-766.095498
3263.370608,11177.109724,-9474.636058,-2298.286494
3263.370935,11843.295072,-9770.718434,-612.876398
3263.371263,13027.624579,-10955.047942,-766.095498
3263.371590,14211.954086,-11325.150913,459.657299
3263.371918,14878.139434,-9696.697840,995.924147
3263.372245,14804.118840,-8956.491898,995.924147
3263.372573,13915.871710,-8882.471304,919.314598
3263.372900,13249.686362,-8882.471304,229.828649
3263.373228,12435.459826,-9474.636058,306.438199
3263.373556,12583.501014,-10066.800811,0.000000
3263.373883,12805.562797,-10362.883188,0.000000
3263.374211,13027.624579,-9770.718434,306.438199
3263.374538,12435.459826,-9770.718434,1072.533697
3263.374866,11843.295072,-9326.594869,919.314598
3263.375193,11769.274478,-8660.409521,689.485948
3263.375521,11029.068536,-9696.697840,612.876398
3263.375848,10288.862594,-9770.718434,1072.533697
3263.376176,9474.636058,-9104.533087,766.095498
3263.376503,7772.162391,-7994.224174,536.266849
3263.376831,7920.203579,-7994.224174,0.000000
3263.377158,9178.553681,-8512.368333,-459.657299
3263.377486,9844.739029,-9992.780217,229.828649
3263.377814,9770.718434,-11325.150913,919.314598
3263.378141,9474.636058,-10732.986159,76.609550
3263.378469,8808.450710,-9104.533087,153.219100
3263.378796,8216.285956,-8216.285956,0.000000
3263.379124,8364.327145,-8364.327145,0.000000
3263.379451,8808.450710,-9622.677246,1072.533697
3263.379779,9696.697840,-10584.944971,76.609550
3263.380106,9696.697840,-9400.615463,-536.266849
3263.380434,8512.368333,-7698.141797,536.266849
3263.380761,6439.791695,-10362.883188,306.438199
3263.381089,5107.421000,-11473.192101,-842.705048
3263.381416,5773.606348,-10658.965565,-3064.381992
3263.381744,8586.388927,-9992.780217,-4519.963438
3263.382072,10066.800811,-10584.944971,-1915.238745
3263.382399,9178.553681,-9992.780217,1608.800546
3263.382727,7179.997637,-8364.327145,3140.991542
3263.383054,9252.574275,-9252.574275,1608.800546
3263.383382,11325.150913,-10584.944971,-1225.752797
3263.383709,11991.336260,-9992.780217,-1838.629195
3263.384037,10140.821405,-7698.141797,-689.485948
3263.384364,9400.615463,-8956.491898,612.876398
3263.384692,8512.368333,-10955.047942,612.876398
3263.385019,7846.182985,-9252.574275,0.000000
3263.385347,7254.018232,-7772.162391,-306.438199
3263.385674,8438.347739,-9844.739029,-612.876398
3263.386002,10140.821405,-10732.986159,-536.266849
3263.386330,10288.862594,-9548.656652,383.047749
3263.386657,8290.306550,-8438.347739,2604.724693
3263.386985,7550.100608,-7179.997637,2068.457845
3263.387312,6439.791695,-5773.606348,536.266849
3263.387640,5773.606348,-8142.265362,612.876398
3263.387967,7994.224174,-9474.636058,-1072.533697
3263.388295,10140.821405,-9474.636058,-2528.115143
3263.388622,7994.224174,-10955.047942,-459.657299
3263.388950,6365.771101,-11917.315666,1149.143247
3263.389277,6735.874072,-10436.903782,1762.019645
3263.389605,7328.038826,-9326.594869,-995.924147
3263.389932,6587.832884,-11029.068536,-1378.971896
3263.390260,6809.894666,-10955.047942,-536.266849
3263.390588,6587.832884,-9252.574275,1302.362347
3263.390915,5329.482782,-8290.306550,2681.334243
3263.391243,3182.885551,-8142.265362,2068.457845
3263.391570,1184.329507,-8956.491898,153.219100
3263.391898,-296.082377,-8660.409521,0.000000
3263.392225,2664.741391,-9252.574275,-2374.896044
3263.392553,3701.029710,-9844.739029,-3294.210641
3263.392880,3923.091493,-12213.398043,-689.485948
3263.393208,5477.523971,-12435.459826,1149.143247
3263.393535,5181.441594,-12139.377449,536.266849
3263.393863,2368.659014,-13693.809927,1149.143247
3263.394190,2072.576638,-11769.274478,-459.657299
3263.394518,0.000000,-10436.903782,-2145.067394
3263.394846,-1776.494261,-9844.739029,-612.876398
3263.395173,-2664.741391,-7624.121203,536.266849
3263.395501,-4737.318029,-6735.874072,2221.676944
3263.395828,-6291.750507,-7550.100608,2681.334243
3263.396156,-5995.668130,-8660.409521,229.828649
3263.396483,-4737.318029,-7179.997637,-1378.971896
3263.396811,-3775.050304,-7105.977043,-2145.067394
3263.397138,-4071.132681,-8956.491898,-689.485948
3263.397466,-2516.700203,-8512.368333,229.828649
3263.397793,-666.185348,-9252.574275,459.657299
3263.398121,0.000000,-11399.171507,1455.581446
3263.398448,1258.350101,-11695.253884,612.876398
3263.398776,-222.061783,-10807.006753,-766.095498
3263.399104,-1184.329507,-11325.150913,-153.219100
3263.399431,-1702.473667,-9400.615463,-766.095498
3263.399759,-1998.556043,-9622.677246,-766.095498
3263.400086,-2368.659014,-8438.347739,0.000000
3263.400414,-1406.391290,-7179.997637,-306.438199
3263.400741,-666.185348,-7105.977043,0.000000
3263.401069,-888.247130,-9400.615463,536.266849
3263.401396,-296.082377,-9030.512492,0.000000
3263.401724,1258.350101,-6735.874072,-1532.190996
3263.402051,888.247130,-9326.594869,-1378.971896
3263.402379,1998.556043,-13101.645173,0.000000
3263.402706,3404.947333,-12657.521608,-766.095498
3263.403034,2664.741391,-12879.583391,-1762.019645
3263.403362,1702.473667,-12435.459826,-1838.629195
3263.403689,1628.453072,-11547.212695,-2068.457845
3263.404017,592.164754,-11029.068536,-1072.533697
3263.404344,0.000000,-9770.718434,383.047749
3263.404672,518.144159,-8216.285956,612.876398
3263.404999,-740.205942,-8068.244768,0.000000
3263.405327,-370.102971,-7994.224174,-1378.971896
3263.405654,888.247130,-7994.224174,-1378.971896
3263.405982,1702.473667,-8216.285956,-306.438199
3263.406309,1776.494261,-10436.903782,1762.019645
3263.406637,3701.029710,-12139.377449,1455.581446
3263.406964,6143.709319,-10510.924376,-536.266849
3263.407292,4811.338623,-11473.192101,229.828649
3263.407619,3552.988522,-11399.171507,1149.143247
3263.407947,1924.535449,-10658.965565,1225.752797
3263.408275,74.020594,-10807.006753,842.705048
3263.408602,-592.164754,-7550.100608,306.438199
3263.408930,-1110.308913,-7105.977043,229.828649
3263.409257,-814.226536,-6957.935855,2145.067394
3263.409585,0.000000,-7994.224174,1378.971896
3263.409912,0.000000,-8216.285956,1072.533697
3263.410240,296.082377,-5403.503377,0.000000
3263.410567,888.247130,-7031.956449,229.828649
3263.410895,1850.514855,-9770.718434,842.705048
3263.411222,2886.803174,-11103.089130,1608.800546
3263.411550,3182.885551,-12139.377449,1762.019645
3263.411877,3701.029710,-11843.295072,-306.438199
3263.412205,1184.329507,-12139.377449,-1685.410096
3263.412533,-2220.617826,-12509.480420,-919.314598
3263.412860,-2220.617826,-11251.130318,-2221.676944
3263.413188,-3034.844362,-11029.068536,-2374.896044
3263.413516,-2886.803174,-7624.121203,-2298.286494
3263.413843,-1480.411884,-5181.441594,-1762.019645
3263.414171,-740.205942,-9104.533087,536.266849
3263.414499,-592.164754,-9474.636058,2221.676944
3263.414826,-296.082377,-9030.512492,842.705048
3263.415154,-1998.556043,-7402.059420,-689.485948
3263.415482,-1110.308913,-9030.512492,-2987.772442
3263.415809,-1480.411884,-11769.274478,-2374.896044
3263.416137,-740.205942,-12139.377449,-1532.190996
3263.416465,-296.082377,-13397.727550,-1608.800546
3263.416793,74.020594,-12953.603985,-2221.676944
3263.417120,-888.247130,-10436.903782,-2298.286494
3263.417448,-1628.453072,-10732.986159,-383.047749
3263.417776,-1776.494261,-9400.615463,0.000000
3263.418103,-1258.350101,-8290.306550,-612.876398
3263.418431,-1036.288319,-7179.997637,-383.047749
3263.418759,148.041188,-4737.318029,306.438199
3263.419086,1332.370696,-6291.750507,2145.067394
3263.419414,1036.288319,-8660.409521,4136.915689
3263.419742,1924.535449,-9178.553681,919.314598
3263.420069,1480.411884,-10436.903782,-919.314598
3263.420397,1406.391290,-9474.636058,-2145.067394
3263.420725,1036.288319,-10510.924376,-1072.533697
3263.421052,-148.041188,-11399.171507,612.876398
3263.421380,148.041188,-10362.883188,-842.705048
3263.421708,0.000000,-12139.377449,-1302.362347
3263.422036,296.082377,-11621.233289,-842.705048
3263.422363,222.061783,-9030.512492,0.000000
3263.422691,518.144159,-8660.409521,459.657299
3263.423019,1554.432478,-8586.388927,0.000000
3263.423346,814.226536,-9326.594869,766.095498
3263.423674,1036.288319,-6143.709319,459.657299
3263.424002,2442.679609,-6143.709319,536.266849
3263.424329,2442.679609,-10066.800811,1762.019645
3263.424657,2812.782580,-11251.130318,689.485948
3263.424985,2516.700203,-12065.356855,0.000000
3263.425312,2664.741391,-12731.542202,-1455.581446
3263.425640,2146.597232,-10658.965565,-2145.067394
3263.425968,74.020594,-12435.459826,-612.876398
3263.426295,-1332.370696,-12953.603985,-1455.581446
3263.426623,-962.267725,-11547.212695,-2528.115143
3263.426951,-148.041188,-9252.574275,-3064.381992
3263.427279,1184.329507,-7624.121203,-1915.238745
3263.427606,814.226536,-8956.491898,2834.553343
3263.427934,1110.308913,-8734.430116,4596.572988
3263.428262,3330.926739,-8290.306550,2451.505594
3263.428589,2220.617826,-9178.553681,1225.752797
3263.428917,1998.556043,-6957.935855,-766.095498
3263.429245,0.000000,-8290.306550,229.828649
3263.429572,-2516.700203,-9548.656652,1225.752797
3263.429900,-3182.885551,-9548.656652,-1072.533697
3263.430228,-1850.514855,-11843.295072,-2604.724693
3263.430555,-740.205942,-9400.615463,-2145.067394
3263.430883,-222.061783,-9178.553681,-306.438199
3263.431211,-1258.350101,-10140.821405,1149.143247
3263.431538,0.000000,-9178.553681,383.047749
3263.431866,0.000000,-8438.347739,0.000000
3263.432194,-740.205942,-6735.874072,1149.143247
3263.432522,-296.082377,-6587.832884,1072.533697
3263.432849,1258.350101,-8512.368333,2451.505594
3263.433177,1258.350101,-9252.574275,1072.533697
3263.433505,-2220.617826,-12139.377449,0.000000
3263.433832,-2368.659014,-11547.212695,-2068.457845
3263.434160,-1036.288319,-9770.718434,-4903.011187
3263.434488,-1702.473667,-11177.109724,-3524.039291
3263.434815,-1406.391290,-10584.944971,-689.485948
3263.435143,1036.288319,-11399.171507,459.657299
3263.435471,1184.329507,-10584.944971,459.657299
3263.435798,2220.617826,-8660.409521,0.000000
3263.436126,0.000000,-10288.862594,1302.362347
3263.436454,-1702.473667,-10510.924376,1685.410096
3263.436781,-518.144159,-9696.697840,-919.314598
3263.437109,-1110.308913,-9696.697840,-3370.820191
3263.437437,-2220.617826,-8808.450710,-2298.286494
3263.437765,-1480.411884,-10362.883188,153.219100
3263.438092,0.000000,-9104.533087,536.266849
3263.438420,592.164754,-9770.718434,0.000000
3263.438748,0.000000,-12139.377449,0.000000
3263.439075,814.226536,-9548.656652,-1225.752797
3263.439403,1110.308913,-8364.327145,-536.266849
3263.439731,740.205942,-9030.512492,766.095498
3263.440058,444.123565,-8882.471304,1838.629195
3263.440386,814.226536,-9178.553681,2221.676944
3263.440714,2220.617826,-8216.285956,383.047749
3263.441041,2072.576638,-8808.450710,-306.438199
3263.441369,444.123565,-9104.533087,919.314598
3263.441697,1110.308913,-8142.265362,1225.752797
3263.442025,0.000000,-9622.677246,76.609550
3263.442352,666.185348,-8808.450710,0.000000
3263.442680,2072.576638,-7846.182985,-459.657299
3263.443008,2146.597232,-10288.862594,995.924147
3263.443335,2368.659014,-11325.150913,1149.143247
3263.443663,1554.432478,-10807.006753,0.000000
3263.443991,1258.350101,-9400.615463,-1072.533697
3263.444318,518.144159,-9474.636058,-1378.971896
3263.444646,222.061783,-11103.089130,-1685.410096
3263.444974,148.041188,-8808.450710,-689.485948
3263.445301,666.185348,-9252.574275,-383.047749
3263.445629,1184.329507,-10658.965565,-306.438199
3263.445957,1702.473667,-10214.842000,76.609550
3263.446284,1924.535449,-10214.842000,229.828649
3263.446612,1110.308913,-10066.800811,0.000000
3263.446940,1036.288319,-10436.903782,-612.876398
3263.447268,1036.288319,-9844.739029,-1532.190996
3263.447595,-740.205942,-9252.574275,-995.924147
3263.447923,-1776.494261,-10362.883188,76.609550
3263.448251,-1480.411884,-10288.862594,-1072.533697
3263.448578,-370.102971,-10362.883188,-2298.286494
3263.448906,444.123565,-11917.315666,-1838.629195
3263.449234,666.185348,-9400.615463,-995.924147
3263.449561,1036.288319,-9030.512492,1532.190996
3263.449889,962.267725,-10732.986159,2911.162892
3263.450217,1332.370696,-9770.718434,1455.581446
3263.450544,518.144159,-9030.512492,-383.047749
3263.450872,-1406.391290,-6957.935855,0.000000
3263.451200,-2886.803174,-6957.935855,306.438199
3263.451527,-3478.967927,-7550.100608,76.609550
3263.451855,-3034.844362,-7698.141797,-229.828649
3263.452183,-1406.391290,-10362.883188,-995.924147
3263.452511,222.061783,-9696.697840,-842.705048
3263.452838,1332.370696,-8142.265362,229.828649
3263.453166,1628.453072,-10362.883188,842.705048
3263.453494,740.205942,-10881.027347,919.314598
3263.453821,814.226536,-11325.150913,689.485948
3263.454149,962.267725,-10066.800811,0.000000
3263.454477,1110.308913,-8586.388927,0.000000
3263.454804,296.082377,-8586.388927,689.485948
3263.455132,-1702.473667,-9326.594869,689.485948
3263.455460,-3256.906145,-11103.089130,-919.314598
3263.455787,-1702.473667,-10510.924376,-3524.039291
3263.456115,1110.308913,-8808.450710,-3677.258390
3263.456443,962.267725,-10362.883188,0.000000
3263.456770,1850.514855,-11769.274478,2451.505594
3263.457098,3849.070898,-11695.253884,1072.533697
3263.457426,4145.153275,-11695.253884,153.219100
3263.457754,2590.720797,-10436.903782,-383.047749
3263.458081,1184.329507,-10658.965565,0.000000
3263.458409,-444.123565,-9326.594869,0.000000
3263.458737,-814.226536,-9030.512492,-1762.019645
3263.459064,-1332.370696,-11251.130318,-2221.676944
3263.459392,-1110.308913,-9474.636058,-1302.362347
3263.459720,370.102971,-7920.203579,-229.828649
3263.460047,666.185348,-9400.615463,766.095498
3263.460375,1406.391290,-10732.986159,0.000000
3263.460703,1628.453072,-10288.862594,-383.047749
3263.461030,2442.679609,-8216.285956,-842.705048
3263.461358,2368.659014,-7179.997637,-612.876398
3263.461686,2146.597232,-8734.430116,2451.505594
3263.462013,1036.288319,-8882.471304,3217.601092
3263.462341,1998.556043,-10140.821405,1455.581446
3263.462669,1406.391290,-8882.471304,-689.485948
3263.462997,148.041188,-7476.080014,-1608.800546
3263.463324,-518.144159,-10658.965565,-383.047749
3263.463652,-666.185348,-10955.047942,0.000000
3263.463980,-592.164754,-9474.636058,-842.705048
3263.464307,0.000000,-8660.409521,229.828649
3263.464635,1554.432478,-9030.512492,229.828649
3263.464963,592.164754,-9844.739029,1532.190996
3263.465290,0.000000,-8660.409521,2068.457845
3263.465618,888.247130,-9252.574275,536.266849
3263.465946,518.144159,-10955.047942,-919.314598
3263.466273,0.000000,-9474.636058,-2221.676944
3263.466601,-740.205942,-9104.533087,-459.657299
3263.466929,-740.205942,-10584.944971,229.828649
3263.467257,74.020594,-12509.480420,-383.047749
3263.467584,0.000000,-11843.295072,-1225.752797
3263.467912,-296.082377,-9474.636058,-1685.410096
3263.468240,444.123565,-10066.800811,-1685.410096
3263.468567,-1110.308913,-10658.965565,383.047749
3263.468895,-1998.556043,-9252.574275,689.485948
3263.469223,-1850.514855,-9030.512492,-1072.533697
3263.469550,0.000000,-7179.997637,-1838.629195
3263.469878,814.226536,-7550.100608,-1225.752797
3263.470206,296.082377,-10807.006753,1149.143247
3263.470533,222.061783,-12287.418637,2528.115143
3263.470861,1480.411884,-11325.150913,536.266849
3263.471189,1406.391290,-10066.800811,-1532.190996
3263.471516,592.164754,-10214.842000,-2221.676944
3263.471844,-444.123565,-9400.615463,0.000000
3263.472172,-888.247130,-8438.347739,1072.533697
3263.472500,-1628.453072,-7994.224174,1149.143247
3263.472827,-518.144159,-7772.162391,383.047749
3263.473155,222.061783,-7402.059420,153.219100
3263.473483,222.061783,-8660.409521,536.266849
3263.473810,592.164754,-8882.471304,153.219100
3263.474138,296.082377,-9918.759623,-612.876398
3263.474466,962.267725,-9770.718434,-1225.752797
3263.474793,2146.597232,-8660.409521,-2068.457845
3263.475121,2294.638420,-10510.924376,-229.828649
3263.475449,2368.659014,-11399.171507,1991.848295
3263.475776,3552.988522,-11103.089130,1991.848295
3263.476104,2294.638420,-8956.491898,383.047749
3263.476432,-1036.288319,-8734.430116,-229.828649
3263.476759,-2146.597232,-10214.842000,-995.924147
3263.477087,-888.247130,-10214.842000,-2145.067394
3263.477415,518.144159,-9622.677246,-1608.800546
3263.477743,1258.350101,-9474.636058,-919.314598
3263.478070,1110.308913,-10436.903782,536.266849
3263.478398,2590.720797,-10955.047942,459.657299
3263.478726,3775.050304,-10955.047942,0.000000
3263.479053,1924.535449,-10510.924376,153.219100
3263.479381,740.205942,-11843.295072,0.000000
3263.479709,296.082377,-9400.615463,-1378.971896
3263.480036,666.185348,-8586.388927,-2451.505594
3263.480364,-814.226536,-10658.965565,-919.314598
3263.480692,-1110.308913,-11251.130318,229.828649
3263.481019,-1110.308913,-10066.800811,153.219100
3263.481347,370.102971,-9326.594869,-2298.286494
3263.481675,-296.082377,-8364.327145,-1991.848295
3263.482002,-1850.514855,-8882.471304,-536.266849
3263.482330,-222.061783,-8364.327145,76.609550
3263.482658,1184.329507,-8734.430116,153.219100
3263.482986,1924.535449,-7920.203579,1915.238745
3263.483313,2368.659014,-7179.997637,2221.676944
3263.483641,2072.576638,-11399.171507,2604.724693
3263.483969,740.205942,-11769.274478,1072.533697
3263.484296,444.123565,-10066.800811,-1302.362347
3263.484624,-1332.370696,-9104.533087,-1762.019645
3263.484952,-1702.473667,-8956.491898,-1378.971896
3263.485279,-1702.473667,-9770.718434,-612.876398
3263.485607,-1258.350101,-8068.244768,-459.657299
3263.485935,-814.226536,-7920.203579,0.000000
3263.486262,-222.061783,-9622.677246,459.657299
3263.486590,592.164754,-8586.388927,842.705048
3263.486918,518.144159,-9474.636058,1455.581446
3263.487245,370.102971,-10362.883188,689.485948
3263.487573,370.102971,-10955.047942,-1378.971896
3263.487901,-962.267725,-11473.192101,-1302.362347
3263.488229,-1036.288319,-9400.615463,-689.485948
3263.488556,-888.247130,-9252.574275,-766.095498
3263.488884,-1258.350101,-10955.047942,-229.828649
3263.489212,666.185348,-11399.171507,-1378.971896
3263.489539,592.164754,-10807.006753,-842.705048
3263.489867,-1036.288319,-9400.615463,689.485948
3263.490195,-1332.370696,-9696.697840,-229.828649
3263.490522,-592.164754,-9252.574275,-1149.143247
3263.490850,0.000000,-8438.347739,-1991.848295
3263.491178,592.164754,-10066.800811,-536.266849
3263.491505,1480.411884,-10510.924376,1302.362347
3263.491833,2738.761985,-9918.759623,2451.505594
3263.492161,2220.617826,-9844.739029,1225.752797
3263.492488,962.267725,-9844.739029,-612.876398
3263.492816,-1554.432478,-10362.883188,-1455.581446
3263.493144,-740.205942,-9474.636058,-2068.457845
3263.493472,814.226536,-8734.430116,-1608.800546
3263.493799,1850.514855,-8956.491898,0.000000
3263.494127,2368.659014,-8142.265362,1608.800546
3263.494455,2442.679609,-10807.006753,3294.210641
3263.494782,1776.494261,-10066.800811,2604.724693
3263.495110,1480.411884,-7328.038826,-229.828649
3263.495438,-740.205942,-8586.388927,-1378.971896
3263.495765,-1776.494261,-8586.388927,-2145.067394
3263.496093,-1036.288319,-9104.533087,-842.705048
3263.496421,0.000000,-9474.636058,383.047749
3263.496748,2590.720797,-8956.491898,1072.533697
3263.497076,4219.173869,-10362.883188,766.095498
3263.497404,1406.391290,-10955.047942,612.876398
3263.497732,-148.041188,-12583.501014,-459.657299
3263.498059,-1184.329507,-12583.501014,-1532.190996
3263.498387,-444.123565,-8734.430116,-2987.772442
3263.498715,296.082377,-8660.409521,-1991.848295
3263.499042,1036.288319,-9770.718434,1762.019645
3263.499370,1110.308913,-9770.718434,2757.943793
3263.499698,1850.514855,-9992.780217,766.095498
3263.500025,1332.370696,-9326.594869,-306.438199
3263.500353,-888.247130,-9178.553681,-1378.971896
3263.500681,-2294.638420,-9548.656652,-1302.362347
3263.501008,-1480.411884,-9622.677246,-1378.971896
3263.501336,222.061783,-13027.624579,-1378.971896
3263.501664,1702.473667,-11843.295072,0.000000
3263.501991,1998.556043,-9770.718434,-229.828649
3263.502319,74.020594,-11177.109724,459.657299
3263.502647,-1332.370696,-10955.047942,229.828649
3263.502975,-3034.844362,-8734.430116,-689.485948
3263.503302,-3478.967927,-6291.750507,-2145.067394
3263.503630,-2812.782580,-5255.462188,-2451.505594
3263.503958,-1554.432478,-7550.100608,536.266849
3263.504285,0.000000,-9474.636058,2681.334243
3263.504613,2368.659014,-11177.109724,1378.971896
3263.504941,1702.473667,-11547.212695,612.876398
3263.505268,814.226536,-9474.636058,-459.657299
3263.505596,518.144159,-9622.677246,-612.876398
3263.505924,-296.082377,-9474.636058,459.657299
3263.506251,-148.041188,-8956.491898,-383.047749
3263.506579,-296.082377,-10066.800811,459.657299
3263.506907,-592.164754,-7846.182985,1149.143247
3263.507234,0.000000,-9030.512492,459.657299
3263.507562,-740.205942,-10066.800811,306.438199
3263.507890,-592.164754,-10732.986159,-766.095498
3263.508218,-962.267725,-10214.842000,-1762.019645
3263.508545,0.000000,-7476.080014,-2528.115143
3263.508873,1480.411884,-8808.450710,-1532.190996
3263.509201,666.185348,-10732.986159,1225.752797
3263.509528,814.226536,-10436.903782,2068.457845
3263.509856,1554.432478,-11547.212695,1149.143247
3263.510184,1554.432478,-10436.903782,-306.438199
3263.510511,962.267725,-8882.471304,-919.314598
3263.510839,1184.329507,-10362.883188,-766.095498
3263.511167,444.123565,-10584.944971,-766.095498
3263.511494,-444.123565,-10955.047942,-995.924147
3263.511822,-1036.288319,-9474.636058,-1532.190996
3263.512150,0.000000,-8364.327145,-1838.629195
3263.512477,592.164754,-8586.388927,-995.924147
3263.512805,1998.556043,-9548.656652,-536.266849
3263.513133,888.247130,-10955.047942,1225.752797
3263.513461,2072.576638,-10732.986159,1762.019645
3263.513788,2368.659014,-8586.388927,459.657299
3263.514116,962.267725,-9400.615463,0.000000
3263.514444,-888.247130,-11029.068536,-689.485948
3263.514771,-962.267725,-10658.965565,-1378.971896
3263.515099,0.000000,-8512.368333,-1915.238745
3263.515427,592.164754,-8068.244768,-1532.190996
3263.515755,2368.659014,-10066.800811,995.924147
3263.516082,1850.514855,-9400.615463,2374.896044
3263.516410,2294.638420,-9770.718434,1915.238745
3263.516738,666.185348,-9622.677246,766.095498
3263.517065,-444.123565,-7328.038826,-383.047749
3263.517393,-1110.308913,-6809.894666,-995.924147
3263.517721,-962.267725,-8586.388927,-459.657299
3263.518049,-592.164754,-9992.780217,-689.485948
3263.518376,222.061783,-10955.047942,919.314598
3263.518704,1554.432478,-8290.306550,-919.314598
3263.519032,518.144159,-9918.759623,-1915.238745
3263.519360,-1258.350101,-13693.809927,-1302.362347
3263.519687,-888.247130,-11399.171507,-1608.800546
3263.520015,370.102971,-10288.862594,-2451.505594
3263.520343,0.000000,-7994.224174,-1072.533697
3263.520670,814.226536,-8734.430116,1302.362347
3263.520998,1406.391290,-9474.636058,3294.210641
3263.521326,1258.350101,-9992.780217,2451.505594
3263.521654,148.041188,-10732.986159,306.438199
3263.521981,-592.164754,-9400.615463,-2221.676944
3263.522309,-962.267725,-8068.244768,-2528.115143
3263.522637,-1036.288319,-9696.697840,-1455.581446
3263.522965,370.102971,-10362.883188,-766.095498
3263.523292,370.102971,-12731.542202,612.876398
3263.523620,444.123565,-12065.356855,383.047749
3263.523948,666.185348,-9178.553681,-919.314598
3263.524275,-1184.329507,-9696.697840,383.047749
3263.524603,-2072.576638,-9622.677246,229.828649
3263.524931,-2072.576638,-8808.450710,-1302.362347
3263.525259,-1776.494261,-7179.997637,-1915.238745
3263.525586,-444.123565,-6587.832884,-919.314598
3263.525914,1110.308913,-9104.533087,689.485948
3263.526242,1776.494261,-9918.759623,1532.190996
3263.526570,1628.453072,-9696.697840,1225.752797
3263.526897,888.247130,-10584.944971,995.924147
3263.527225,740.205942,-9178.553681,-536.266849
3263.527553,1258.350101,-9178.553681,-612.876398
3263.527881,962.267725,-10140.821405,0.000000
3263.528208,888.247130,-10881.027347,383.047749
3263.528536,444.123565,-11251.130318,612.876398
3263.528864,370.102971,-8882.471304,-459.657299
3263.529191,-296.082377,-7328.038826,-766.095498
3263.529519,74.020594,-9696.697840,-1302.362347
3263.529847,-592.164754,-9992.780217,-995.924147
3263.530175,-370.102971,-10510.924376,-1302.362347
3263.530502,370.102971,-9252.574275,-1302.362347
3263.530830,1258.350101,-8586.388927,-536.266849
3263.531158,814.226536,-10362.883188,1149.143247
3263.531486,740.205942,-10955.047942,1455.581446
3263.531813,2442.679609,-12435.459826,306.438199
3263.532141,1776.494261,-10140.821405,-1225.752797
3263.532469,296.082377,-9992.780217,-1149.143247
3263.532796,-1702.473667,-10362.883188,-153.219100
3263.533124,-1850.514855,-8734.430116,-995.924147
3263.533452,-518.144159,-9844.739029,-689.485948
3263.533780,888.247130,-9992.780217,-1455.581446
3263.534107,814.226536,-7254.018232,0.000000
3263.534435,1332.370696,-9844.739029,1915.238745
3263.534763,1406.391290,-9696.697840,1532.190996
3263.535091,1184.329507,-10436.903782,306.438199
3263.535418,-740.205942,-10510.924376,0.000000
3263.535746,-1258.350101,-7994.224174,-1149.143247
3263.536074,-666.185348,-6661.853478,-1378.971896
3263.536401,-296.082377,-8142.265362,-1225.752797
3263.536729,444.123565,-10955.047942,919.314598
3263.537057,1924.535449,-11177.109724,1915.238745
3263.537385,2442.679609,-7550.100608,153.219100
3263.537712,888.247130,-9622.677246,0.000000
3263.538040,-370.102971,-11103.089130,0.000000
3263.538368,-1036.288319,-10140.821405,0.000000
3263.538696,-592.164754,-9548.656652,-766.095498
3263.539023,222.061783,-9104.533087,-1532.190996
3263.539351,962.267725,-9104.533087,842.705048
3263.539679,1924.535449,-9474.636058,1991.848295
3263.540006,2146.597232,-8734.430116,842.705048
3263.540334,-666.185348,-11325.150913,0.000000
3263.540662,-2146.597232,-10881.027347,-1608.800546
3263.540990,-518.144159,-9326.594869,-3294.210641
3263.541317,-148.041188,-9548.656652,-2221.676944
3263.541645,0.000000,-10732.986159,-229.828649
3263.541973,1110.308913,-12509.480420,1378.971896
3263.542301,2368.659014,-11029.068536,306.438199
3263.542628,2146.597232,-9622.677246,-383.047749
3263.542956,370.102971,-9992.780217,76.609550
3263.543284,-1110.308913,-8956.491898,-919.314598
3263.543611,-1480.411884,-8216.285956,-1532.190996
3263.543939,0.000000,-9104.533087,-995.924147
3263.544267,1702.473667,-8438.347739,-306.438199
3263.544595,1702.473667,-10658.965565,1915.238745
3263.544922,1776.494261,-11621.233289,1608.800546
3263.545250,518.144159,-12287.418637,-612.876398
3263.545578,0.000000,-12287.418637,-2451.505594
3263.545906,-1184.329507,-7402.059420,-3140.991542
3263.546233,-1480.411884,-7179.997637,-2451.505594
3263.546561,-1184.329507,-7994.224174,76.609550
3263.546889,0.000000,-8438.347739,1685.410096
3263.547216,1480.411884,-9178.553681,1838.629195
3263.547544,1776.494261,-8068.244768,536.266849
3263.547872,1776.494261,-9844.739029,1225.752797
3263.548200,592.164754,-10436.903782,612.876398
3263.548527,-222.061783,-9104.533087,-536.266849
3263.548855,296.082377,-10955.047942,-1762.019645
3263.549183,888.247130,-10658.965565,-1072.533697
3263.549511,1036.288319,-9400.615463,306.438199
3263.549838,222.061783,-8882.471304,1378.971896
3263.550166,592.164754,-10436.903782,76.609550
3263.550494,518.144159,-11695.253884,0.000000
3263.550821,-518.144159,-8438.347739,-919.314598
3263.551149,-592.164754,-6735.874072,-1072.533697
3263.551477,0.000000,-9104.533087,0.000000
3263.551805,0.000000,-10436.903782,306.438199
3263.552132,-148.041188,-11325.150913,-229.828649
3263.552460,-296.082377,-9918.759623,-612.876398
3263.552788,370.102971,-9918.759623,-1378.971896
3263.553116,444.123565,-11621.233289,-612.876398
3263.553443,592.164754,-11103.089130,-919.314598
3263.553771,0.000000,-9992.780217,-459.657299
3263.554099,0.000000,-9474.636058,306.438199
3263.554426,-888.247130,-7254.018232,0.000000
3263.554754,-1184.329507,-8660.409521,536.266849
3263.555082,-296.082377,-9178.553681,689.485948
3263.555410,1110.308913,-9918.759623,-612.876398
3263.555737,666.185348,-11769.274478,459.657299
3263.556065,222.061783,-10140.821405,459.657299
3263.556393,888.247130,-9474.636058,-612.876398
3263.556721,148.041188,-9770.718434,-612.876398
3263.557048,-888.247130,-9474.636058,-229.828649
3263.557376,-1184.329507,-9030.512492,-612.876398
3263.557704,370.102971,-6883.915261,-1072.533697
3263.558032,1628.453072,-8068.244768,1072.533697
3263.558359,1702.473667,-9770.718434,2757.943793
3263.558687,1776.494261,-9844.739029,2757.943793
3263.559015,1998.556043,-11325.150913,919.314598
3263.559342,592.164754,-9622.677246,-1225.752797
3263.559670,0.000000,-8364.327145,-2911.162892
3263.559998,-1702.473667,-9770.718434,-1455.581446
3263.560326,-592.164754,-9474.636058,-1225.752797
3263.560653,296.082377,-9770.718434,-306.438199
3263.560981,1480.411884,-9400.615463,842.705048
3263.561309,2960.823768,-8216.285956,919.314598
3263.561637,2368.659014,-9474.636058,612.876398
3263.561964,-296.082377,-10658.965565,0.000000
3263.562292,-888.247130,-11325.150913,-1072.533697
3263.562620,0.000000,-10584.944971,-2374.896044
3263.562947,1036.288319,-9400.615463,-2374.896044
3263.563275,740.205942,-10362.883188,-612.876398
3263.563603,1036.288319,-11473.192101,1302.362347
3263.563931,1480.411884,-11843.295072,842.705048
3263.564258,962.267725,-10288.862594,-842.705048
3263.564586,0.000000,-7698.141797,-1991.848295
3263.564914,-1110.308913,-7698.141797,-1378.971896
3263.565242,-592.164754,-8956.491898,0.000000
3263.565569,370.102971,-10140.821405,536.266849
3263.565897,962.267725,-12065.356855,1685.410096
3263.566225,1258.350101,-10214.842000,306.438199
3263.566552,1110.308913,-10214.842000,-536.266849
3263.566880,-296.082377,-10436.903782,-919.314598
3263.567208,-888.247130,-10140.821405,-995.924147
3263.567536,-1850.514855,-9326.594869,-1302.362347
3263.567863,-1480.411884,-7105.977043,-995.924147
3263.568191,-370.102971,-5921.647536,0.000000
3263.568519,666.185348,-8882.471304,2221.676944
3263.568847,1554.432478,-10510.924376,2834.553343
3263.569174,1480.411884,-11547.212695,1762.019645
3263.569502,888.247130,-9474.636058,-536.266849
3263.569830,370.102971,-9326.594869,-1915.238745
3263.570157,-740.205942,-9992.780217,0.000000
3263.570485,-1036.288319,-7772.162391,153.219100
3263.570813,0.000000,-9326.594869,383.047749
3263.571141,74.020594,-9548.656652,0.000000
3263.571468,148.041188,-8882.471304,-383.047749
3263.571796,592.164754,-10214.842000,76.609550
3263.572124,74.020594,-9696.697840,0.000000
3263.572452,-888.247130,-11547.212695,-229.828649
3263.572779,-814.226536,-10955.047942,-1225.752797
3263.573107,-148.041188,-9030.512492,-1608.800546
3263.573435,0.000000,-9918.759623,-689.485948
3263.573762,518.144159,-10066.800811,-229.828649
3263.574090,444.123565,-11251.130318,536.266849
3263.574418,0.000000,-10658.965565,766.095498
3263.574746,888.247130,-8290.306550,-1302.362347
3263.575073,888.247130,-9400.615463,-229.828649
3263.575401,-1036.288319,-9326.594869,536.266849
3263.575729,-1332.370696,-9400.615463,383.047749
3263.576057,-814.226536,-10288.862594,-766.095498
3263.576384,444.123565,-9326.594869,-995.924147
3263.576712,1850.514855,-9326.594869,-689.485948
3263.577040,1924.535449,-9548.656652,995.924147
3263.577367,1110.308913,-10584.944971,2911.162892
3263.577695,888.247130,-11251.130318,766.095498
3263.578023,1036.288319,-8364.327145,-1455.581446
3263.578351,-296.082377,-7772.162391,-1838.629195
3263.578678,-962.267725,-8216.285956,-612.876398
3263.579006,0.000000,-8586.388927,0.000000
3263.579334,814.226536,-9474.636058,919.314598
3263.579662,2664.741391,-9548.656652,689.485948
3263.579989,3701.029710,-9030.512492,689.485948
3263.580317,2368.659014,-10066.800811,1455.581446
3263.580645,1110.308913,-10362.883188,766.095498
3263.580972,0.000000,-10066.800811,-306.438199
3263.581300,-666.185348,-8808.450710,-1532.190996
3263.581628,-222.061783,-7179.997637,-1915.238745
3263.581956,296.082377,-9252.574275,0.000000
3263.582283,148.041188,-10214.842000,1762.019645
3263.582611,888.247130,-10288.862594,919.314598
3263.582939,1628.453072,-10066.800811,-1149.143247
3263.583267,-296.082377,-9770.718434,-1762.019645
3263.583594,-1554.432478,-10584.944971,-536.266849
3263.583922,148.041188,-10288.862594,-842.705048
3263.584250,740.205942,-10955.047942,-536.266849
3263.584577,888.247130,-10436.903782,536.266849
3263.584905,2442.679609,-8808.450710,612.876398
3263.585233,1702.473667,-9844.739029,995.924147
3263.585561,370.102971,-10658.965565,842.705048
3263.585888,-1332.370696,-10288.862594,-306.438199
3263.586216,-1850.514855,-9548.656652,-1838.629195
3263.586544,0.000000,-7846.182985,-2681.334243
3263.586872,592.164754,-9474.636058,-995.924147
3263.587199,740.205942,-11917.315666,1225.752797
3263.587527,0.000000,-11103.089130,2298.286494
3263.587855,296.082377,-11029.068536,153.219100
3263.588182,222.061783,-9252.574275,-1608.800546
3263.588510,0.000000,-7402.059420,-1072.533697
3263.588838,-1258.350101,-8290.306550,-153.219100
3263.589166,-2368.659014,-8956.491898,153.219100
3263.589493,-592.164754,-9992.780217,0.000000
3263.589821,0.000000,-8660.409521,-766.095498
3263.590149,814.226536,-9400.615463,0.000000
3263.590477,666.185348,-11547.212695,1378.971896
3263.590804,962.267725,-10510.924376,689.485948
3263.591132,296.082377,-10732.986159,-612.876398
3263.591460,222.061783,-9770.718434,76.609550
3263.591788,518.144159,-6587.832884,-306.438199
3263.592115,-148.041188,-7624.121203,1072.533697
3263.592443,-888.247130,-9326.594869,1762.019645
3263.592771,-370.102971,-10807.006753,0.000000
3263.593098,0.000000,-10510.924376,-2068.457845
3263.593426,148.041188,-8216.285956,-2451.505594
3263.593754,370.102971,-9548.656652,-1762.019645
3263.594082,222.061783,-10658.965565,0.000000
3263.594409,0.000000,-10732.986159,76.609550
3263.594737,148.041188,-11251.130318,-229.828649
3263.595065,1406.391290,-8734.430116,-1302.362347
3263.595393,1776.494261,-9178.553681,0.000000
3263.595720,814.226536,-10510.924376,2145.067394
3263.596048,1258.350101,-10584.944971,689.485948
3263.596376,1332.370696,-9770.718434,-1302.362347
3263.596703,518.144159,-9030.512492,-1762.019645
3263.597031,-1258.350101,-8956.491898,-766.095498
3263.597359,-2368.659014,-9622.677246,-612.876398
3263.597687,-1480.411884,-9252.574275,-919.314598
3263.598014,1406.391290,-10140.821405,-1685.410096
3263.598342,2368.659014,-10436.903782,-229.828649
3263.598670,1776.494261,-9474.636058,2068.457845
3263.598998,1628.453072,-10658.965565,2374.896044
3263.599325,2220.617826,-11325.150913,0.000000
3263.599653,518.144159,-10288.862594,-2145.067394
3263.599981,-1184.329507,-7846.182985,-2374.896044
3263.600308,-222.061783,-5995.668130,-919.314598
3263.600636,370.102971,-9104.533087,1149.143247
3263.600964,1406.391290,-10436.903782,2068.457845
3263.601292,2294.638420,-9622.677246,2145.067394
3263.601619,2146.597232,-9696.697840,1532.190996
3263.601947,1480.411884,-8882.471304,153.219100
3263.602275,-1036.288319,-8956.491898,-153.219100
3263.602603,-1702.473667,-9252.574275,-612.876398
3263.602930,-1184.329507,-8956.491898,-2221.676944
3263.603258,296.082377,-9400.615463,-1378.971896
3263.603586,1184.329507,-7624.121203,306.438199
3263.603913,1850.514855,-9622.677246,2681.334243
3263.604241,2220.617826,-10140.821405,1378.971896
3263.604569,518.144159,-9992.780217,-842.705048
3263.604897,-2516.700203,-11177.109724,-842.705048
3263.605224,-592.164754,-8808.450710,-2757.943793
3263.605552,666.185348,-9474.636058,-1838.629195
3263.605880,1258.350101,-10510.924376,0.000000
3263.606208,1184.329507,-11695.253884,2068.457845
3263.606535,2294.638420,-12953.603985,766.095498
3263.606863,1924.535449,-10214.842000,-1072.533697
3263.607191,-666.185348,-8512.368333,-1378.971896
3263.607518,-1406.391290,-9400.615463,-842.705048
3263.607846,-2368.659014,-7328.038826,-1915.238745
3263.608174,-1776.494261,-9400.615463,-995.924147
3263.608502,-444.123565,-10066.800811,-306.438199
3263.608829,814.226536,-10510.924376,459.657299
3263.609157,1184.329507,-11991.336260,1762.019645
3263.609485,1554.432478,-11769.274478,-306.438199
3263.609813,592.164754,-11473.192101,-995.924147
3263.610140,-592.164754,-9918.759623,-2298.286494
3263.610468,-1332.370696,-6883.915261,-1991.848295
3263.610796,-1776.494261,-6587.832884,-229.828649
3263.611123,-148.041188,-6957.935855,1915.238745
3263.611451,1036.288319,-8956.491898,2374.896044
3263.611779,888.247130,-11177.109724,2374.896044
3263.612107,962.267725,-8956.491898,1225.752797
3263.612434,1258.350101,-9326.594869,-1302.362347
3263.612762,296.082377,-10584.944971,-612.876398
3263.613090,-222.061783,-10584.944971,0.000000
3263.613417,518.144159,-9696.697840,-536.266849
3263.613745,296.082377,-7994.224174,76.609550
3263.614072,1110.308913,-9474.636058,536.266849
3263.614400,444.123565,-10436.903782,536.266849
3263.614728,740.205942,-9622.677246,1072.533697
3263.615055,370.102971,-9474.636058,459.657299
3263.615383,296.082377,-8660.409521,-1149.143247
3263.615711,-518.144159,-9400.615463,-1225.752797
3263.616038,-592.164754,-9770.718434,-383.047749
3263.616366,814.226536,-9548.656652,-306.438199
3263.616693,1628.453072,-12065.356855,-612.876398
3263.617021,1554.432478,-11473.192101,0.000000
3263.617349,2368.659014,-9844.739029,-306.438199
3263.617676,1480.411884,-9992.780217,0.000000
3263.618004,0.000000,-10140.821405,0.000000
3263.618332,-1924.535449,-10881.027347,-383.047749
3263.618659,-1924.535449,-7772.162391,-2068.457845
3263.618987,0.000000,-7179.997637,-2374.896044
3263.619314,1036.288319,-9844.739029,-1225.752797
3263.619642,1036.288319,-12287.418637,1838.629195
3263.619970,1480.411884,-13249.686362,1762.019645
3263.620297,2368.659014,-10658.965565,-1378.971896
3263.620625,2146.597232,-9104.533087,-3524.039291
3263.620952,-222.061783,-9178.553681,-1378.971896
3263.621280,-592.164754,-8142.265362,0.000000
3263.621608,0.000000,-7105.977043,536.266849
3263.621935,814.226536,-7920.203579,1072.533697
3263.622263,2072.576638,-8142.265362,2068.457845
3263.622591,2590.720797,-9474.636058,2757.943793
3263.622918,1776.494261,-10362.883188,2451.505594
3263.623246,-518.144159,-11621.233289,0.000000
3263.623573,-2516.700203,-10807.006753,-2911.162892
3263.623901,-1184.329507,-9104.533087,-3677.258390
3263.624229,-1406.391290,-8512.368333,-2221.676944
3263.624556,0.000000,-8660.409521,459.657299
3263.624884,740.205942,-8882.471304,2681.334243
3263.625212,2294.638420,-10140.821405,2757.943793
3263.625539,2294.638420,-8808.450710,0.000000
3263.625867,-296.082377,-8512.368333,-536.266849
3263.626194,-2146.597232,-9548.656652,0.000000
3263.626522,-1036.288319,-10140.821405,-2068.457845
3263.626850,148.041188,-11621.233289,-2221.676944
3263.627177,962.267725,-10955.047942,-1378.971896
3263.627505,1628.453072,-11029.068536,459.657299
3263.627832,2590.720797,-11843.295072,842.705048
3263.628160,1850.514855,-11177.109724,-229.828649
3263.628488,-962.267725,-10140.821405,0.000000
3263.628815,-2442.679609,-6439.791695,-536.266849
3263.629143,-1480.411884,-5699.585753,-1532.190996
3263.629471,-592.164754,-9030.512492,-536.266849
3263.629798,-296.082377,-11621.233289,919.314598
3263.630126,444.123565,-13471.748144,1455.581446
3263.630453,1480.411884,-11769.274478,-842.705048
3263.630781,1110.308913,-9696.697840,-4060.306139
3263.631109,0.000000,-11177.109724,-2911.162892
3263.631436,-1628.453072,-10140.821405,-1378.971896
3263.631764,-1332.370696,-8438.347739,-459.657299
3263.632091,-666.185348,-7402.059420,459.657299
3263.632419,1258.350101,-6809.894666,612.876398
3263.632747,1406.391290,-8734.430116,2528.115143
3263.633074,1258.350101,-11103.089130,3524.039291
3263.633402,1258.350101,-11547.212695,919.314598
3263.633730,592.164754,-10807.006753,-2068.457845
3263.634057,0.000000,-9326.594869,-3064.381992
3263.634385,0.000000,-8808.450710,-1915.238745
3263.634712,-518.144159,-8734.430116,689.485948
3263.635040,222.061783,-9474.636058,1455.581446
3263.635368,888.247130,-10807.006753,1302.362347
3263.635695,1850.514855,-9474.636058,229.828649
3263.636023,1110.308913,-7105.977043,306.438199
3263.636351,0.000000,-9770.718434,1378.971896
3263.636678,-1036.288319,-10807.006753,459.657299
3263.637006,-666.185348,-10362.883188,-995.924147
3263.637333,-148.041188,-8438.347739,-2681.334243
3263.637661,888.247130,-8882.471304,-1685.410096
3263.637989,888.247130,-10807.006753,0.000000
3263.638316,1702.473667,-11547.212695,919.314598
3263.638644,2368.659014,-10881.027347,306.438199
3263.638971,1480.411884,-8364.327145,0.000000
3263.639299,0.000000,-7698.141797,-306.438199
3263.639627,-1554.432478,-8956.491898,689.485948
3263.639954,-1406.391290,-9696.697840,0.000000
3263.640282,222.061783,-10214.842000,-1762.019645
3263.640610,1554.432478,-10584.944971,-1915.238745
3263.640937,1776.494261,-10140.821405,0.000000
3263.641265,1406.391290,-11917.315666,1762.019645
3263.641592,888.247130,-11473.192101,229.828649
3263.641920,740.205942,-10955.047942,-2757.943793
3263.642248,-518.144159,-9400.615463,-3294.210641
3263.642575,-740.205942,-6217.729913,-2221.676944
3263.642903,0.000000,-7031.956449,689.485948
3263.643231,962.267725,-9474.636058,2757.943793
3263.643558,1924.535449,-10955.047942,3140.991542
3263.643886,3478.967927,-10807.006753,1532.190996
3263.644213,2220.617826,-9326.594869,-1225.752797
3263.644541,-962.267725,-9622.677246,-1149.143247
3263.644869,-1850.514855,-10066.800811,-995.924147
3263.645196,-2294.638420,-9030.512492,-2068.457845
3263.645524,-2072.576638,-9326.594869,-1302.362347
3263.645851,74.020594,-7328.038826,-536.266849
3263.646179,888.247130,-7846.182985,2221.676944
3263.646507,1184.329507,-10510.924376,3370.820191
3263.646834,2146.597232,-9992.780217,1072.533697
3263.647162,-666.185348,-10140.821405,-1455.581446
3263.647490,-2590.720797,-9400.615463,-2298.286494
3263.647817,-1258.350101,-9252.574275,-2451.505594
3263.648145,370.102971,-10807.006753,-919.314598
3263.648472,1184.329507,-10658.965565,995.924147
3263.648800,1480.411884,-11029.068536,1991.848295
3263.649128,2442.679609,-11843.295072,689.485948
3263.649455,1110.308913,-9252.574275,-229.828649
3263.649783,-1184.329507,-8660.409521,-383.047749
3263.650111,-2146.597232,-8586.388927,-1149.143247
3263.650438,-1258.350101,-9548.656652,-1072.533697
3263.650766,370.102971,-10510.924376,-995.924147
3263.651093,1776.494261,-10214.842000,0.000000
3263.651421,518.144159,-11769.274478,2374.896044
3263.651749,1776.494261,-10881.027347,766.095498
3263.652076,740.205942,-10658.965565,-995.924147
3263.652404,-1258.350101,-10288.862594,-1991.848295
3263.652731,-1258.350101,-7105.977043,-2451.505594
3263.653059,-740.205942,-7179.997637,-1532.190996
3263.653387,-444.123565,-9178.553681,0.000000
3263.653714,518.144159,-9918.759623,1685.410096
3263.654042,1998.556043,-10807.006753,2145.067394
3263.654370,2368.659014,-10584.944971,689.485948
3263.654697,1554.432478,-10288.862594,-766.095498
3263.655025,370.102971,-9992.780217,-1378.971896
3263.655352,592.164754,-8956.491898,-1149.143247
3263.655680,0.000000,-7994.224174,0.000000
3263.656008,74.020594,-6809.894666,612.876398
3263.656335,0.000000,-8216.285956,1762.019645
3263.656663,0.000000,-9844.739029,1685.410096
3263.656991,74.020594,-9992.780217,-153.219100
3263.657318,370.102971,-11399.171507,-1532.190996
3263.657646,-518.144159,-11251.130318,-1455.581446
3263.657973,222.061783,-9548.656652,-1532.190996
3263.658301,0.000000,-9474.636058,-1072.533697
3263.658629,0.000000,-10066.800811,0.000000
3263.658956,74.020594,-10362.883188,1072.533697
3263.659284,962.267725,-9548.656652,1149.143247
3263.659611,0.000000,-8438.347739,919.314598
3263.659939,1110.308913,-9030.512492,76.609550
3263.660267,-518.144159,-9400.615463,-306.438199
3263.660594,-1850.514855,-10881.027347,612.876398
3263.660922,-1998.556043,-9474.636058,-919.314598
3263.661250,-666.185348,-9104.533087,-2221.676944
3263.661577,444.123565,-9918.759623,-1378.971896
3263.661905,888.247130,-10140.821405,0.000000
3263.662232,518.144159,-11177.109724,2068.457845
3263.662560,592.164754,-11103.089130,2451.505594
3263.662888,518.144159,-8586.388927,-612.876398
3263.663215,0.000000,-8586.388927,-919.314598
3263.663543,-2146.597232,-9030.512492,-766.095498
3263.663870,-962.267725,-9104.533087,-1072.533697
3263.664198,0.000000,-8512.368333,-1302.362347
3263.664526,1110.308913,-9474.636058,-306.438199
3263.664853,2146.597232,-10066.800811,1685.410096
3263.665181,1480.411884,-9474.636058,1838.629195
3263.665509,592.164754,-10288.862594,1685.410096
3263.665836,-518.144159,-11103.089130,-919.314598
3263.666164,-666.185348,-9400.615463,-1915.238745
3263.666491,-222.061783,-8068.244768,-1915.238745
3263.666819,0.000000,-9104.533087,-383.047749
3263.667147,0.000000,-9622.677246,689.485948
3263.667474,1554.432478,-10732.986159,1608.800546
3263.667802,3256.906145,-9326.594869,536.266849
3263.668130,1776.494261,-8068.244768,-919.314598
3263.668457,-962.267725,-10214.842000,-536.266849
3263.668785,-1480.411884,-11103.089130,-766.095498
3263.669112,518.144159,-10881.027347,-1991.848295
3263.669440,2664.741391,-9770.718434,-995.924147
3263.669768,3034.844362,-9178.553681,1149.143247
3263.670095,2294.638420,-9178.553681,2911.162892
3263.670423,3182.885551,-11177.109724,1838.629195
3263.670750,962.267725,-10214.842000,-459.657299
3263.671078,-518.144159,-9548.656652,-1685.410096
3263.671406,0.000000,-6735.874072,-2834.553343
3263.671733,370.102971,-8068.244768,-1149.143247
3263.672061,592.164754,-12435.459826,306.438199
3263.672389,888.247130,-11843.295072,1455.581446
3263.672716,1406.391290,-11769.274478,919.314598
3263.673044,1850.514855,-8956.491898,-1455.581446
3263.673371,0.000000,-9104.533087,-1378.971896
3263.673699,-1998.556043,-9770.718434,-383.047749
3263.674027,-1702.473667,-8808.450710,-1225.752797
3263.674354,-296.082377,-7624.121203,-1838.629195
3263.674682,222.061783,-7105.977043,-1149.143247
3263.675010,296.082377,-9622.677246,1378.971896
3263.675337,666.185348,-11177.109724,1838.629195
3263.675665,1628.453072,-11917.315666,0.000000
3263.675992,370.102971,-12509.480420,-995.924147
3263.676320,518.144159,-9992.780217,-1455.581446
3263.676648,74.020594,-7105.977043,-1915.238745
3263.676975,-296.082377,-8438.347739,919.314598
3263.677303,-888.247130,-10066.800811,1685.410096
3263.677630,-592.164754,-10510.924376,842.705048
3263.677958,-666.185348,-8068.244768,-995.924147
3263.678286,-592.164754,-7328.038826,-1608.800546
3263.678613,-1036.288319,-9992.780217,0.000000
3263.678941,-2368.659014,-10140.821405,689.485948
3263.679269,-1850.514855,-9918.759623,-229.828649
3263.679596,-740.205942,-8586.388927,-1838.629195
3263.679924,444.123565,-9104.533087,-995.924147
3263.680251,370.102971,-10288.862594,1072.533697
3263.680579,0.000000,-10881.027347,2374.896044
3263.680907,888.247130,-10362.883188,536.266849
3263.681234,1480.411884,-10584.944971,-1072.533697
3263.681562,-296.082377,-10140.821405,-1378.971896
3263.681890,-1258.350101,-8512.368333,-459.657299
3263.682217,-814.226536,-7772.162391,-383.047749
3263.682545,-1480.411884,-8956.491898,536.266849
3263.682872,-2072.576638,-10658.965565,536.266849
3263.683200,-1184.329507,-10140.821405,-995.924147
3263.683528,222.061783,-9400.615463,-1915.238745
3263.683855,1480.411884,-10955.047942,-1378.971896
3263.684183,1184.329507,-12583.501014,-612.876398
3263.684510,1480.411884,-11843.295072,689.485948
3263.684838,1998.556043,-8216.285956,0.000000
3263.685166,3108.864956,-8438.347739,-612.876398
3263.685493,666.185348,-10140.821405,1378.971896
3263.685821,740.205942,-9622.677246,1149.143247
3263.686149,1110.308913,-7994.224174,0.000000
3263.686476,888.247130,-7254.018232,-919.314598
3263.686804,0.000000,-8290.306550,-306.438199
3263.687131,-962.267725,-10510.924376,1455.581446
3263.687459,370.102971,-11325.150913,76.609550
3263.687787,1776.494261,-11251.130318,-2221.676944
3263.688114,1554.432478,-9252.574275,-1532.190996
3263.688442,1554.432478,-8142.265362,-536.266849
3263.688770,1258.350101,-9104.533087,1225.752797
3263.689097,2146.597232,-9474.636058,1685.410096
3263.689425,2368.659014,-10214.842000,1455.581446
3263.689752,2368.659014,-10140.821405,995.924147
3263.690080,1776.494261,-7550.100608,229.828649
3263.690408,-814.226536,-8734.430116,612.876398
3263.690735,-2664.741391,-12435.459826,-459.657299
3263.691063,-1332.370696,-11251.130318,-2221.676944
3263.691390,1628.453072,-9474.636058,-2681.334243
3263.691718,2516.700203,-9252.574275,-536.266849
3263.692046,1702.473667,-10807.006753,3140.991542
3263.692373,1998.556043,-9918.759623,2528.115143
3263.692701,1702.473667,-9178.553681,0.000000
3263.693029,370.102971,-10066.800811,-459.657299
3263.693356,-444.123565,-9178.553681,-919.314598
3263.693684,-1702.473667,-8142.265362,-306.438199
3263.694011,-1406.391290,-10214.842000,0.000000
3263.694339,-888.247130,-12213.398043,-1378.971896
3263.694667,-962.267725,-12509.480420,-1072.533697
3263.694994,0.000000,-10288.862594,-995.924147
3263.695322,0.000000,-8142.265362,-1685.410096
3263.695649,0.000000,-9178.553681,-995.924147
3263.695977,-814.226536,-8512.368333,-229.828649
3263.696305,-740.205942,-8216.285956,919.314598
3263.696632,148.041188,-7105.977043,1225.752797
3263.696960,740.205942,-8956.491898,1838.629195
3263.697288,-296.082377,-11843.295072,2451.505594
3263.697615,-222.061783,-11991.336260,306.438199
3263.697943,-888.247130,-11177.109724,-2987.772442
3263.698270,148.041188,-10288.862594,-3907.087040
3263.698598,0.000000,-9548.656652,-1991.848295
3263.698926,148.041188,-9622.677246,229.828649
3263.699253,-296.082377,-8882.471304,842.705048
3263.699581,592.164754,-9696.697840,153.219100
3263.699909,74.020594,-9326.594869,612.876398
3263.700236,-592.164754,-8364.327145,842.705048
3263.700564,-962.267725,-8216.285956,1072.533697
3263.700891,-148.041188,-10066.800811,0.000000
3263.701219,0.000000,-11843.295072,-1072.533697
3263.701547,370.102971,-11177.109724,-1915.238745
3263.701874,592.164754,-9252.574275,-1762.019645
3263.702202,2294.638420,-10214.842000,-383.047749
3263.702529,1480.411884,-11177.109724,536.266849
3263.702857,1258.350101,-9918.759623,1072.533697
3263.703185,814.226536,-8660.409521,995.924147
3263.703512,592.164754,-7920.203579,612.876398
3263.703840,-962.267725,-7624.121203,919.314598
3263.704168,-1924.535449,-8808.450710,229.828649
3263.704495,-1628.453072,-9030.512492,-919.314598
3263.704823,222.061783,-9992.780217,-2451.505594
3263.705150,1258.350101,-10584.944971,-2221.676944
3263.705478,1480.411884,-10881.027347,383.047749
3263.705806,2368.659014,-10658.965565,842.705048
3263.706133,1924.535449,-9844.739029,-229.828649
3263.706461,1036.288319,-11177.109724,-383.047749
3263.706789,1036.288319,-9474.636058,-1225.752797
3263.707116,1332.370696,-7105.977043,0.000000
3263.707444,74.020594,-8216.285956,1762.019645
3263.707771,0.000000,-9918.759623,1838.629195
3263.708099,444.123565,-10955.047942,766.095498
3263.708427,1036.288319,-10955.047942,-536.266849
3263.708754,222.061783,-9326.594869,-1685.410096
3263.709082,0.000000,-9326.594869,-1378.971896
3263.709409,-222.061783,-9326.594869,-1762.019645
3263.709737,-814.226536,-9770.718434,0.000000
3263.710065,666.185348,-8660.409521,919.314598
3263.710392,2812.782580,-8142.265362,1378.971896
3263.710720,1850.514855,-9030.512492,3753.867940
3263.711048,1184.329507,-10436.903782,2221.676944
3263.711375,-962.267725,-11473.192101,-1302.362347
3263.711703,-2664.741391,-10510.924376,-2221.676944
3263.712030,-1036.288319,-8660.409521,-3524.039291
3263.712358,0.000000,-9326.594869,-2451.505594
3263.712686,-370.102971,-10288.862594,919.314598
3263.713013,-148.041188,-10436.903782,2451.505594
3263.713341,1554.432478,-10066.800811,766.095498
3263.713669,1998.556043,-8290.306550,-153.219100
3263.713996,-444.123565,-8660.409521,842.705048
3263.714324,-2368.659014,-9548.656652,1608.800546
3263.714651,-1184.329507,-8586.388927,-383.047749
3263.714979,962.267725,-10584.944971,-2604.724693
3263.715307,-444.123565,-11251.130318,-1838.629195
3263.715634,-888.247130,-10510.924376,383.047749
3263.715962,-222.061783,-10140.821405,76.609550
3263.716290,0.000000,-10955.047942,-2145.067394
3263.716617,-1184.329507,-11029.068536,-2374.896044
3263.716945,-592.164754,-7698.141797,-1685.410096
3263.717273,222.061783,-6661.853478,-766.095498
3263.717600,740.205942,-9548.656652,2374.896044
3263.717928,444.123565,-11251.130318,2987.772442
3263.718256,1110.308913,-10955.047942,1991.848295
3263.718583,1702.473667,-10658.965565,-919.314598
3263.718911,1332.370696,-8956.491898,-2221.676944
3263.719239,-148.041188,-9474.636058,-1608.800546
3263.719566,0.000000,-10658.965565,0.000000
3263.719894,0.000000,-9104.533087,689.485948
3263.720222,592.164754,-7179.997637,-919.314598
3263.720549,666.185348,-8068.244768,-306.438199
3263.720877,592.164754,-10807.006753,1532.190996
3263.721205,148.041188,-10362.883188,995.924147
3263.721532,1036.288319,-10584.944971,0.000000
3263.721860,888.247130,-10214.842000,-1225.752797
3263.722188,666.185348,-8660.409521,-1072.533697
3263.722515,74.020594,-9622.677246,-306.438199
3263.722843,1258.350101,-9844.739029,-766.095498
3263.723171,592.164754,-10066.800811,459.657299
3263.723498,1036.288319,-10732.986159,0.000000
3263.723826,1184.329507,-9030.512492,-919.314598
3263.724154,1036.288319,-9178.553681,0.000000
3263.724481,592.164754,-10140.821405,1685.410096
3263.724809,148.041188,-10510.924376,536.266849
3263.725136,-444.123565,-9992.780217,459.657299
3263.725464,0.000000,-9474.636058,-2681.334243
3263.725792,-814.226536,-9474.636058,-2068.457845
3263.726119,1184.329507,-10510.924376,-766.095498
3263.726447,1406.391290,-10214.842000,0.000000
3263.726775,592.164754,-11325.150913,1455.581446
3263.727102,592.164754,-9326.594869,-459.657299
3263.727430,1332.370696,-8142.265362,-1149.143247
3263.727758,-370.102971,-10214.842000,153.219100
3263.728085,0.000000,-10214.842000,-229.828649
3263.728413,0.000000,-8734.430116,-229.828649
3263.728741,444.123565,-8068.244768,0.000000
3263.729068,0.000000,-8216.285956,536.266849
3263.729396,74.020594,-10214.842000,766.095498
3263.729724,222.061783,-10214.842000,76.609550
3263.730051,-222.061783,-10066.800811,-1455.581446
3263.730379,-740.205942,-9844.739029,-1762.019645
3263.730707,-962.267725,-7772.162391,-1608.800546
3263.731034,-1036.288319,-7994.224174,306.438199
3263.731362,0.000000,-9622.677246,1149.143247
3263.731690,814.226536,-10288.862594,1302.362347
3263.732017,2812.782580,-10658.965565,229.828649
3263.732345,1406.391290,-9992.780217,-919.314598
3263.732673,-1332.370696,-11621.233289,-459.657299
3263.733000,-1332.370696,-9992.780217,-1302.362347
3263.733328,148.041188,-8438.347739,-2145.067394
3263.733656,444.123565,-9178.553681,-995.924147
3263.733983,1184.329507,-9178.553681,1455.581446
3263.734311,1776.494261,-8956.491898,1378.971896
3263.734639,1628.453072,-9696.697840,1072.533697
3263.734966,518.144159,-11103.089130,-306.438199
3263.735294,-888.247130,-11251.130318,-459.657299
3263.735622,-592.164754,-8956.491898,-1532.190996
3263.735949,0.000000,-8068.244768,-1991.848295
3263.736277,296.082377,-10584.944971,-1455.581446
3263.736604,222.061783,-11843.295072,-383.047749
3263.736932,888.247130,-10658.965565,1608.800546
3263.737260,1406.391290,-9252.574275,229.828649
3263.737587,592.164754,-8290.306550,-612.876398
3263.737915,-148.041188,-8808.450710,-919.314598
3263.738243,222.061783,-9030.512492,-1072.533697
3263.738570,148.041188,-9252.574275,-306.438199
3263.738898,1036.288319,-9918.759623,76.609550
3263.739226,1332.370696,-9474.636058,459.657299
3263.739553,1628.453072,-11991.336260,689.485948
3263.739881,1332.370696,-11547.212695,0.000000
3263.740209,1110.308913,-10436.903782,-689.485948
3263.740536,370.102971,-8808.450710,-919.314598
3263.740864,592.164754,-7476.080014,-689.485948
3263.741192,-1036.288319,-8142.265362,612.876398
3263.741519,-1036.288319,-8734.430116,1838.629195
3263.741847,518.144159,-9844.739029,459.657299
3263.742175,1406.391290,-11177.109724,-1072.533697
3263.742502,296.082377,-10362.883188,-1072.533697
3263.742830,0.000000,-9696.697840,0.000000
3263.743158,592.164754,-10066.800811,-229.828649
3263.743485,518.144159,-10288.862594,76.609550
3263.743813,148.041188,-10288.862594,-383.047749
3263.744141,370.102971,-8438.347739,153.219100
3263.744468,740.205942,-8364.327145,612.876398
3263.744796,666.185348,-10066.800811,766.095498
3263.745124,444.123565,-9844.739029,612.876398
3263.745451,-518.144159,-9474.636058,306.438199
3263.745779,-1036.288319,-8216.285956,0.000000
3263.746107,-1480.411884,-8512.368333,-612.876398
3263.746434,-1776.494261,-10288.862594,-1072.533697
3263.746762,-1036.288319,-10807.006753,-1302.362347
3263.747090,370.102971,-10955.047942,-1149.143247
3263.747417,1406.391290,-10066.800811,0.000000
3263.747745,1554.432478,-9696.697840,1532.190996
3263.748072,1702.473667,-10066.800811,2068.457845
3263.748400,1258.350101,-9770.718434,0.000000
3263.748728,-740.205942,-11251.130318,-1072.533697
3263.749055,-1036.288319,-9770.718434,-1608.800546
3263.749383,148.041188,-7698.141797,-2221.676944
3263.749711,148.041188,-7772.162391,0.000000
3263.750038,-296.082377,-8734.430116,1532.190996
3263.750366,0.000000,-10955.047942,2145.067394
3263.750694,740.205942,-11029.068536,229.828649
3263.751021,1036.288319,-9474.636058,-1302.362347
3263.751349,0.000000,-9252.574275,-1149.143247
3263.751677,-518.144159,-9178.553681,-766.095498
3263.752004,0.000000,-9474.636058,76.609550
3263.752332,1110.308913,-9696.697840,-229.828649
3263.752660,1406.391290,-8882.471304,459.657299
3263.752987,2294.638420,-9104.533087,766.095498
3263.753315,1776.494261,-9400.615463,995.924147
3263.753643,-814.226536,-10955.047942,-153.219100
3263.753970,-2146.597232,-11769.274478,-1225.752797
3263.754298,740.205942,-8586.388927,-3294.210641
3263.754626,1776.494261,-7179.997637,-1915.238745
3263.754953,1554.432478,-9844.739029,2451.505594
3263.755281,1628.453072,-11251.130318,2987.772442
3263.755609,2368.659014,-10658.965565,842.705048
3263.755936,2442.679609,-9326.594869,-1532.190996
3263.756264,666.185348,-8956.491898,-842.705048
3263.756592,-740.205942,-9474.636058,995.924147
3263.756919,-814.226536,-10066.800811,0.000000
3263.757247,0.000000,-10066.800811,-1838.629195
3263.757575,296.082377,-10362.883188,-2451.505594
3263.757902,222.061783,-11621.233289,-383.047749
3263.758230,888.247130,-10881.027347,842.705048
3263.758558,296.082377,-9622.677246,153.219100
3263.758885,296.082377,-11177.109724,-536.266849
3263.759213,370.102971,-9326.594869,-2298.286494
3263.759540,962.267725,-6365.771101,-1455.581446
3263.759868,222.061783,-7402.059420,153.219100
3263.760196,0.000000,-10732.986159,2834.553343
3263.760523,666.185348,-11103.089130,1532.190996
3263.760851,740.205942,-9474.636058,-689.485948
3263.761179,0.000000,-9474.636058,-1225.752797
3263.761506,814.226536,-11103.089130,-842.705048
3263.761834,-222.061783,-8882.471304,76.609550
3263.762162,74.020594,-9622.677246,0.000000
3263.762489,-444.123565,-9474.636058,-1608.800546
3263.762817,-370.102971,-9178.553681,-1072.533697
3263.763145,-888.247130,-7476.080014,536.266849
3263.763472,-148.041188,-9622.677246,1149.143247
3263.763800,0.000000,-10732.986159,1072.533697
3263.764128,518.144159,-9548.656652,306.438199
3263.764455,-370.102971,-8586.388927,689.485948
3263.764783,0.000000,-8808.450710,-612.876398
3263.765111,0.000000,-9400.615463,-383.047749
3263.765438,-296.082377,-10584.944971,0.000000
3263.765766,-518.144159,-10807.006753,-383.047749
3263.766094,1110.308913,-9918.759623,-2681.334243
3263.766421,1036.288319,-8068.244768,-995.924147
3263.766749,962.267725,-10658.965565,1685.410096
3263.767077,888.247130,-10214.842000,1532.190996
3263.767404,370.102971,-8142.265362,1225.752797
3263.767732,-1406.391290,-7328.038826,383.047749
3263.768060,-2294.638420,-9104.533087,-919.314598
3263.768387,-2072.576638,-10436.903782,-766.095498
3263.768715,1036.288319,-10658.965565,-2298.286494
3263.769043,1258.350101,-11399.171507,-2374.896044
3263.769370,1554.432478,-12805.562797,-919.314598
3263.769698,2368.659014,-11251.130318,-766.095498
3263.770026,2368.659014,-10436.903782,0.000000
3263.770353,1628.453072,-9178.553681,0.000000
3263.770681,888.247130,-9622.677246,0.000000
3263.771008,-148.041188,-7328.038826,995.924147
3263.771336,296.082377,-7105.977043,536.266849
3263.771664,-518.144159,-8512.368333,1149.143247
3263.771991,74.020594,-10288.862594,1532.190996
3263.772319,0.000000,-10807.006753,229.828649
3263.772647,888.247130,-11843.295072,-1762.019645
3263.772974,0.000000,-10140.821405,-2528.115143
3263.773302,0.000000,-8438.347739,-1302.362347
3263.773630,888.247130,-8586.388927,0.000000
3263.773957,666.185348,-8882.471304,689.485948
3263.774285,0.000000,-9622.677246,2834.553343
3263.774613,740.205942,-8068.244768,2757.943793
3263.774940,1258.350101,-7846.182985,919.314598
3263.775268,0.000000,-10140.821405,76.609550
3263.775596,-1554.432478,-11177.109724,-1225.752797
3263.775923,-962.267725,-9918.759623,-1915.238745
3263.776251,962.267725,-8882.471304,-3447.429741
3263.776579,2146.597232,-9178.553681,-1762.019645
3263.776906,1480.411884,-10658.965565,1915.238745
3263.777234,2368.659014,-10288.862594,2451.505594
3263.777562,2368.659014,-10066.800811,1915.238745
3263.777889,740.205942,-8438.347739,229.828649
3263.778217,-1554.432478,-8142.265362,0.000000
3263.778545,-2738.761985,-8586.388927,-153.219100
3263.778872,-1702.473667,-8956.491898,-1302.362347
3263.779200,-370.102971,-10732.986159,-2681.334243
3263.779528,1036.288319,-12953.603985,-1762.019645
3263.779855,1258.350101,-11843.295072,-766.095498
3263.780183,518.144159,-10732.986159,-459.657299
3263.780511,296.082377,-9400.615463,-1838.629195
3263.780838,74.020594,-8956.491898,-1608.800546
3263.781166,-888.247130,-8808.450710,-229.828649
3263.781494,-444.123565,-8956.491898,1302.362347
3263.781821,962.267725,-9696.697840,2145.067394
3263.782149,592.164754,-10436.903782,1455.581446
3263.782476,1036.288319,-10807.006753,0.000000
3263.782804,444.123565,-10807.006753,-1455.581446
3263.783132,-444.123565,-8808.450710,-1915.238745
3263.783459,-592.164754,-8216.285956,-1915.238745
3263.783787,-370.102971,-9252.574275,-1225.752797
3263.784115,222.061783,-9252.574275,0.000000
3263.784442,740.205942,-9770.718434,1762.019645
3263.784770,518.144159,-9770.718434,3447.429741
3263.785098,370.102971,-9400.615463,2221.676944
3263.785425,518.144159,-9548.656652,383.047749
3263.785753,0.000000,-9326.594869,-1149.143247
3263.786081,-518.144159,-9770.718434,-1072.533697
3263.786408,222.061783,-9770.718434,-766.095498
3263.786736,592.164754,-9474.636058,-229.828649
3263.787064,1110.308913,-9770.718434,-536.266849
3263.787391,518.144159,-8808.450710,-383.047749
3263.787719,370.102971,-10658.965565,536.266849
3263.788047,666.185348,-9696.697840,919.314598
3263.788374,1628.453072,-7698.141797,76.609550
3263.788702,814.226536,-9104.533087,1762.019645
3263.789030,0.000000,-9474.636058,1991.848295
3263.789357,-1776.494261,-9474.636058,842.705048
3263.789685,-814.226536,-9918.759623,-2374.896044
3263.790013,-1110.308913,-9326.594869,-4290.134789
3263.790340,666.185348,-10807.006753,-3140.991542
3263.790668,2294.638420,-11325.150913,-1455.581446
3263.790996,1036.288319,-11843.295072,229.828649
3263.791323,1110.308913,-10807.006753,689.485948
3263.791651,2812.782580,-9474.636058,-383.047749
3263.791979,370.102971,-9696.697840,383.047749
3263.792306,-518.144159,-10066.800811,995.924147
3263.792634,-962.267725,-8882.471304,0.000000
3263.792962,-444.123565,-9326.594869,-1149.143247
3263.793289,1184.329507,-9992.780217,-2298.286494
3263.793617,1480.411884,-9992.780217,-612.876398
3263.793944,1998.556043,-10214.842000,766.095498
3263.794272,592.164754,-10658.965565,306.438199
3263.794600,-666.185348,-9918.759623,-306.438199
3263.794927,-148.041188,-8290.306550,-1455.581446
3263.795255,-962.267725,-7846.182985,0.000000
3263.795583,-1258.350101,-9326.594869,2298.286494
3263.795910,-370.102971,-9548.656652,2298.286494
3263.796238,1924.535449,-10955.047942,-1072.533697
3263.796566,1332.370696,-9326.594869,-1991.848295
3263.796893,-518.144159,-9104.533087,-1225.752797
3263.797221,-814.226536,-9326.594869,-536.266849
3263.797549,148.041188,-9252.574275,-612.876398
3263.797876,-444.123565,-9400.615463,153.219100
3263.798204,814.226536,-8660.409521,612.876398
3263.798532,1332.370696,-9252.574275,1455.581446
3263.798859,1480.411884,-10658.965565,2451.505594
3263.799187,962.267725,-11399.171507,1149.143247
3263.799515,-444.123565,-9696.697840,-1302.362347
3263.799842,-1332.370696,-9252.574275,-2834.553343
3263.800170,-888.247130,-7920.203579,-3447.429741
3263.800498,1184.329507,-8586.388927,-1302.362347
3263.800825,1258.350101,-9992.780217,612.876398
3263.801153,222.061783,-10658.965565,2298.286494
3263.801481,962.267725,-10955.047942,383.047749
3263.801808,1628.453072,-10066.800811,-1991.848295
3263.802136,-592.164754,-10658.965565,-1455.581446
3263.802464,-1702.473667,-11103.089130,-919.314598
3263.802791,-962.267725,-9548.656652,-2451.505594
3263.803119,666.185348,-10658.965565,-2298.286494
3263.803447,2072.576638,-10881.027347,-766.095498
3263.803774,1776.494261,-9770.718434,1072.533697
3263.804102,2294.638420,-9992.780217,1685.410096
3263.804430,1850.514855,-9992.780217,306.438199
3263.804757,0.000000,-8364.327145,-229.828649
3263.805085,-444.123565,-7254.018232,-995.924147
3263.805412,-666.185348,-8068.244768,-689.485948
3263.805740,-148.041188,-10584.944971,766.095498
3263.806068,222.061783,-11547.212695,612.876398
3263.806395,370.102971,-11769.274478,153.219100
3263.806723,1184.329507,-10658.965565,-1378.971896
3263.807051,1480.411884,-8290.306550,-1378.971896
3263.807378,592.164754,-8216.285956,76.609550
3263.807706,0.000000,-8882.471304,612.876398
3263.808034,-370.102971,-8364.327145,536.266849
3263.808361,-592.164754,-7624.121203,229.828649
3263.808689,-370.102971,-7920.203579,0.000000
3263.809017,-444.123565,-10436.903782,1378.971896
3263.809344,296.082377,-11473.192101,1532.190996
3263.809672,1184.329507,-10807.006753,0.000000
3263.810000,518.144159,-9474.636058,-1072.533697
3263.810327,-1036.288319,-8512.368333,-1455.581446
3263.810655,-1554.432478,-9548.656652,-1072.533697
3263.810983,-592.164754,-9770.718434,-766.095498
3263.811310,518.144159,-9178.553681,-1608.800546
3263.811638,222.061783,-9548.656652,0.000000
3263.811966,1110.308913,-9474.636058,1838.629195
3263.812293,2146.597232,-9992.780217,1608.800546
3263.812621,1776.494261,-12213.398043,919.314598
3263.812949,74.020594,-12139.377449,-1149.143247
3263.813276,-888.247130,-9696.697840,-3370.820191
3263.813604,-1258.350101,-7254.018232,-3447.429741
3263.813932,-370.102971,-7254.018232,-1685.410096
3263.814259,1332.370696,-9770.718434,1225.752797
3263.814587,2368.659014,-11547.212695,3447.429741
3263.814915,2738.761985,-11177.109724,2298.286494
3263.815242,3552.988522,-10658.965565,-229.828649
3263.815570,1258.350101,-10288.862594,-689.485948
3263.815897,-1480.411884,-9104.533087,153.219100
3263.816225,-1998.556043,-8512.368333,-612.876398
3263.816552,-666.185348,-8660.409521,-2145.067394
3263.816880,0.000000,-8808.450710,-1532.190996
3263.817207,0.000000,-9178.553681,536.266849
3263.817535,1554.432478,-9992.780217,995.924147
3263.817863,444.123565,-11103.089130,689.485948
3263.818190,-592.164754,-10584.944971,-536.266849
3263.818518,148.041188,-8660.409521,-1455.581446
3263.818845,740.205942,-7550.100608,-459.657299
3263.819173,1184.329507,-8216.285956,1225.752797
3263.819500,1554.432478,-10066.800811,3064.381992
3263.819828,1850.514855,-10881.027347,1378.971896
3263.820155,1850.514855,-11177.109724,-919.314598
3263.820483,0.000000,-9696.697840,-2068.457845
3263.820810,-1554.432478,-8290.306550,-1838.629195
3263.821138,-1628.453072,-7772.162391,-766.095498
3263.821465,444.123565,-8660.409521,-612.876398
3263.821793,666.185348,-9548.656652,229.828649
3263.822120,666.185348,-10436.903782,1991.848295
3263.822448,1258.350101,-10214.842000,1685.410096
3263.822775,1036.288319,-10436.903782,-153.219100
3263.823103,0.000000,-11473.192101,-1532.190996
3263.823430,-1258.350101,-10066.800811,-2145.067394
3263.823758,-1184.329507,-7476.080014,-3600.648841
3263.824086,-962.267725,-8660.409521,-1378.971896
3263.824413,518.144159,-11251.130318,842.705048
3263.824741,1776.494261,-10732.986159,919.314598
3263.825068,518.144159,-10732.986159,76.609550
3263.825396,148.041188,-9400.615463,-536.266849
3263.825723,592.164754,-8438.347739,-612.876398
3263.826051,296.082377,-9622.677246,306.438199
3263.826378,-222.061783,-10140.821405,766.095498
3263.826706,222.061783,-9696.697840,-689.485948
3263.827033,814.226536,-9548.656652,-1455.581446
3263.827361,592.164754,-10510.924376,-1378.971896
3263.827688,0.000000,-10436.903782,76.609550
3263.828016,814.226536,-9548.656652,-229.828649
3263.828343,0.000000,-10140.821405,-536.266849
3263.828671,0.000000,-10066.800811,-153.219100
3263.828998,296.082377,-7920.203579,-1225.752797
3263.829326,-148.041188,-9178.553681,766.095498
3263.829653,0.000000,-11251.130318,1302.362347
3263.829981,148.041188,-10066.800811,0.000000
3263.830309,1554.432478,-9178.553681,-842.705048
3263.830636,814.226536,-8068.244768,-306.438199
3263.830964,-666.185348,-7920.203579,1762.019645
3263.831291,-962.267725,-8734.430116,1685.410096
3263.831619,-1554.432478,-10362.883188,-689.485948
3263.831946,-1776.494261,-10066.800811,-2068.457845
3263.832274,0.000000,-9474.636058,-2374.896044
3263.832601,370.102971,-9696.697840,-229.828649
3263.832929,1554.432478,-11547.212695,1532.190996
3263.833256,1702.473667,-11991.336260,766.095498
3263.833584,666.185348,-11843.295072,0.000000
3263.833911,740.205942,-8882.471304,-2145.067394
3263.834239,666.185348,-7698.141797,-2451.505594
3263.834566,-148.041188,-7476.080014,306.438199
3263.834894,0.000000,-7402.059420,1149.143247
3263.835221,0.000000,-8734.430116,3294.210641
3263.835549,1184.329507,-11473.192101,2451.505594
3263.835876,2072.576638,-11695.253884,-306.438199
3263.836204,2072.576638,-11399.171507,-842.705048
3263.836532,888.247130,-10510.924376,-1072.533697
3263.836859,370.102971,-10288.862594,-2145.067394
3263.837187,222.061783,-9178.553681,-1762.019645
3263.837514,1036.288319,-8734.430116,-383.047749
3263.837842,592.164754,-7994.224174,2451.505594
3263.838169,1998.556043,-8438.347739,2987.772442
3263.838497,-592.164754,-9104.533087,1455.581446
3263.838824,-3182.885551,-11029.068536,-842.705048
3263.839152,-2294.638420,-9770.718434,-3600.648841
3263.839479,-370.102971,-9474.636058,-3983.696590
3263.839807,1480.411884,-11769.274478,-306.438199
3263.840134,2072.576638,-10881.027347,1838.629195
3263.840462,2442.679609,-10881.027347,1455.581446
3263.840789,3701.029710,-10510.924376,383.047749
3263.841117,1554.432478,-8586.388927,536.266849
3263.841444,-962.267725,-8364.327145,1378.971896
3263.841772,-2886.803174,-7476.080014,306.438199
3263.842099,-2442.679609,-7550.100608,-229.828649
3263.842427,-1110.308913,-8956.491898,-2145.067394
3263.842755,-666.185348,-11103.089130,-689.485948
3263.843082,518.144159,-12361.439231,1532.190996
3263.843410,1184.329507,-11769.274478,612.876398
3263.843737,1554.432478,-11621.233289,-1915.238745
3263.844065,1184.329507,-9326.594869,-3140.991542
3263.844392,-148.041188,-7031.956449,-1608.800546
3263.844720,-1850.514855,-8068.244768,1455.581446
3263.845047,-888.247130,-10214.842000,1608.800546
3263.845375,-296.082377,-10510.924376,995.924147
3263.845702,518.144159,-9992.780217,0.000000
3263.846030,0.000000,-10066.800811,-383.047749
3263.846357,222.061783,-10584.944971,-919.314598
3263.846685,-666.185348,-10066.800811,-1762.019645
3263.847012,-592.164754,-9178.553681,-919.314598
3263.847340,-444.123565,-8142.265362,-2221.676944
3263.847667,444.123565,-8956.491898,-842.705048
3263.847995,1036.288319,-9696.697840,1149.143247
3263.848322,1554.432478,-10732.986159,1532.190996
3263.848650,592.164754,-9844.739029,1072.533697
3263.848978,740.205942,-10066.800811,459.657299
3263.849305,148.041188,-9252.574275,-153.219100
3263.849633,-1554.432478,-9474.636058,0.000000
3263.849960,-1332.370696,-9474.636058,-306.438199
3263.850288,-444.123565,-9844.739029,-2145.067394
3263.850615,222.061783,-9400.615463,-2451.505594
3263.850943,1480.411884,-10658.965565,-1838.629195
3263.851270,0.000000,-9770.718434,1532.190996
3263.851598,1702.473667,-8364.327145,1608.800546
3263.851925,1776.494261,-8734.430116,842.705048
3263.852253,0.000000,-9918.759623,2068.457845
3263.852580,-814.226536,-8808.450710,1302.362347
3263.852908,-1258.350101,-9178.553681,-383.047749
3263.853235,-888.247130,-10584.944971,-766.095498
3263.853563,296.082377,-11547.212695,-2451.505594
3263.853890,370.102971,-9770.718434,-1915.238745
3263.854218,1332.370696,-9992.780217,-1838.629195
3263.854545,1628.453072,-10214.842000,-995.924147
3263.854873,1480.411884,-10732.986159,153.219100
3263.855201,518.144159,-9844.739029,919.314598
3263.855528,444.123565,-8734.430116,153.219100
3263.855856,222.061783,-7698.141797,842.705048
3263.856183,0.000000,-8142.265362,459.657299
3263.856511,-1184.329507,-8734.430116,1532.190996
3263.856838,148.041188,-11547.212695,1608.800546
3263.857166,2368.659014,-11177.109724,-1149.143247
3263.857493,1702.473667,-11251.130318,-1608.800546
3263.857821,666.185348,-9622.677246,-1915.238745
3263.858148,814.226536,-8364.327145,-1838.629195
3263.858476,-222.061783,-8660.409521,153.219100
3263.858803,-666.185348,-8068.244768,766.095498
3263.859131,-518.144159,-8882.471304,1838.629195
3263.859458,1036.288319,-10510.924376,2068.457845
3263.859786,888.247130,-9474.636058,612.876398
3263.860113,-1332.370696,-9844.739029,-459.657299
3263.860441,-2442.679609,-10066.800811,-1532.190996
3263.860768,-592.164754,-8956.491898,-3370.820191
3263.861096,148.041188,-9622.677246,-2298.286494
3263.861424,1406.391290,-9474.636058,229.828649
3263.861751,1998.556043,-10214.842000,2145.067394
3263.862079,2220.617826,-11399.171507,2298.286494
3263.862406,1184.329507,-10658.965565,1302.362347
3263.862734,-1110.308913,-9918.759623,689.485948
3263.863061,-1554.432478,-7031.956449,-1378.971896
3263.863389,-1850.514855,-8290.306550,-2145.067394
3263.863716,-888.247130,-10584.944971,-995.924147
3263.864044,370.102971,-9696.697840,-689.485948
3263.864371,1036.288319,-10214.842000,459.657299
3263.864699,2220.617826,-9104.533087,766.095498
3263.865026,2590.720797,-10510.924376,-919.314598
3263.865354,518.144159,-11843.295072,-1302.362347
3263.865681,-962.267725,-9474.636058,-842.705048
3263.866009,-370.102971,-8808.450710,-1608.800546
3263.866336,-296.082377,-10510.924376,-383.047749
3263.866664,-444.123565,-11177.109724,842.705048
3263.866991,-518.144159,-10732.986159,1915.238745
3263.867319,518.144159,-9770.718434,-536.266849
3263.867647,888.247130,-10140.821405,-2145.067394
3263.867974,-518.144159,-8068.244768,-2145.067394
3263.868302,-296.082377,-5921.647536,-919.314598
3263.868629,740.205942,-7402.059420,0.000000
3263.868957,370.102971,-10362.883188,1302.362347
3263.869284,222.061783,-11473.192101,2221.676944
3263.869612,592.164754,-10436.903782,459.657299
3263.869939,1110.308913,-9622.677246,-459.657299
3263.870267,814.226536,-11917.315666,0.000000
3263.870594,518.144159,-11547.212695,-1149.143247
3263.870922,370.102971,-9474.636058,-1225.752797
3263.871249,222.061783,-8216.285956,-1608.800546
3263.871577,592.164754,-7105.977043,-612.876398
3263.871904,1184.329507,-8660.409521,0.000000
3263.872232,-444.123565,-9474.636058,2374.896044
3263.872559,-1184.329507,-8956.491898,1149.143247
3263.872887,-296.082377,-8438.347739,-612.876398
3263.873214,1110.308913,-8438.347739,-1915.238745
3263.873542,0.000000,-9918.759623,995.924147
3263.873869,-444.123565,-11399.171507,1608.800546
3263.874197,-592.164754,-10436.903782,-153.219100
3263.874525,1110.308913,-11029.068536,-2451.505594
3263.874852,740.205942,-8660.409521,-3064.381992
3263.875180,888.247130,-7994.224174,-536.266849
3263.875507,962.267725,-10140.821405,2528.115143
3263.875835,1258.350101,-11547.212695,1378.971896
3263.876162,444.123565,-11177.109724,-995.924147
3263.876490,444.123565,-9844.739029,-2068.457845
3263.876817,-814.226536,-8734.430116,-536.266849
3263.877145,-518.144159,-10362.883188,-383.047749
3263.877472,-370.102971,-9844.739029,-995.924147
3263.877800,296.082377,-9918.759623,-1149.143247
3263.878127,592.164754,-8882.471304,153.219100
3263.878455,3182.885551,-9400.615463,536.266849
3263.878782,2738.761985,-11843.295072,3140.991542
3263.879110,222.061783,-10955.047942,2068.457845
3263.879437,-1110.308913,-7920.203579,-459.657299
3263.879765,-888.247130,-7772.162391,-2221.676944
3263.880092,-1702.473667,-8068.244768,-1072.533697
3263.880420,-1480.411884,-10807.006753,1149.143247
3263.880748,0.000000,-11029.068536,1455.581446
3263.881075,2146.597232,-9696.697840,-1072.533697
3263.881403,1036.288319,-8660.409521,-689.485948
3263.881730,-592.164754,-7624.121203,-919.314598
3263.882058,-1036.288319,-8216.285956,0.000000
3263.882385,-296.082377,-9104.533087,76.609550
3263.882713,1036.288319,-9326.594869,-306.438199
3263.883040,2220.617826,-9992.780217,536.266849
3263.883368,2516.700203,-10732.986159,2681.334243
3263.883695,1554.432478,-11695.253884,2987.772442
3263.884023,0.000000,-11473.192101,76.609550
3263.884350,-888.247130,-9104.533087,-2604.724693
3263.884678,-1480.411884,-7920.203579,-3600.648841
3263.885005,-1480.411884,-7402.059420,-1915.238745
3263.885333,592.164754,-8142.265362,612.876398
3263.885660,814.226536,-10658.965565,2145.067394
3263.885988,1258.350101,-10140.821405,3140.991542
3263.886315,2960.823768,-10584.944971,612.876398
3263.886643,1258.350101,-11177.109724,-1225.752797
3263.886971,0.000000,-10584.944971,-1991.848295
3263.887298,-1110.308913,-10881.027347,-2604.724693
3263.887626,-740.205942,-10066.800811,-2911.162892
3263.887953,74.020594,-10362.883188,-1608.800546
3263.888281,-222.061783,-10214.842000,842.705048
3263.888608,-666.185348,-8734.430116,2068.457845
3263.888936,1036.288319,-9992.780217,0.000000
3263.889263,0.000000,-9844.739029,-1072.533697
3263.889591,-518.144159,-8142.265362,-1302.362347
3263.889918,222.061783,-7402.059420,-383.047749
3263.890246,296.082377,-8512.368333,1072.533697
3263.890573,0.000000,-10732.986159,2451.505594
3263.890901,0.000000,-11843.295072,229.828649
3263.891228,518.144159,-10140.821405,-1225.752797
3263.891556,222.061783,-9548.656652,-1685.410096
3263.891883,444.123565,-9178.553681,-1072.533697
3263.892211,518.144159,-8586.388927,0.000000
3263.892538,-1036.288319,-9104.533087,1302.362347
3263.892866,-444.123565,-8808.450710,306.438199
3263.893194,222.061783,-8438.347739,-536.266849
3263.893521,0.000000,-9474.636058,612.876398
3263.893849,0.000000,-10658.965565,2145.067394
3263.894176,444.123565,-10214.842000,689.485948
3263.894504,814.226536,-8142.265362,-919.314598
3263.894831,1184.329507,-9622.677246,-995.924147
3263.895159,-296.082377,-9474.636058,689.485948
3263.895486,-296.082377,-8956.491898,612.876398
3263.895814,0.000000,-9474.636058,-612.876398
3263.896141,0.000000,-9252.574275,-2451.505594
3263.896469,0.000000,-10214.842000,-1455.581446
3263.896796,296.082377,-10732.986159,842.705048
3263.897124,1036.288319,-9844.739029,1455.581446
3263.897451,1480.411884,-11177.109724,-306.438199
3263.897779,148.041188,-11029.068536,-1838.629195
3263.898106,222.061783,-10066.800811,-2068.457845
3263.898434,148.041188,-7772.162391,-1302.362347
3263.898761,222.061783,-7254.018232,0.000000
3263.899089,74.020594,-9326.594869,1072.533697
3263.899417,740.205942,-10140.821405,919.314598
3263.899744,1924.535449,-10436.903782,306.438199
3263.900072,3256.906145,-12287.418637,-536.266849
3263.900399,1702.473667,-11917.315666,306.438199
3263.900727,1554.432478,-10658.965565,0.000000
3263.901054,0.000000,-9252.574275,-919.314598
3263.901382,0.000000,-8068.244768,-1532.190996
3263.901709,-222.061783,-8586.388927,1149.143247
3263.902037,148.041188,-9252.574275,2451.505594
3263.902364,518.144159,-7105.977043,1302.362347
3263.902692,-592.164754,-8882.471304,-536.266849
3263.903019,-2442.679609,-9844.739029,-612.876398
3263.903347,-1776.494261,-10066.800811,-1149.143247
3263.903674,-370.102971,-8438.347739,-842.705048
3263.904002,1776.494261,-9844.739029,0.000000
3263.904329,2368.659014,-11769.274478,1149.143247
3263.904657,2516.700203,-11843.295072,1608.800546
3263.904984,2664.741391,-10436.903782,919.314598
3263.905312,1036.288319,-9178.553681,0.000000
3263.905640,-1554.432478,-8068.244768,229.828649
3263.905967,-2146.597232,-6809.894666,-995.924147
3263.906295,-1776.494261,-6587.832884,-1455.581446
3263.906622,-962.267725,-8808.450710,-612.876398
3263.906950,296.082377,-11695.253884,842.705048
3263.907277,1036.288319,-11621.233289,1302.362347
3263.907605,2812.782580,-10658.965565,-459.657299
3263.907932,2220.617826,-12953.603985,-1838.629195
3263.908260,1332.370696,-11251.130318,-2451.505594
3263.908587,222.061783,-8290.306550,-1991.848295
3263.908915,-740.205942,-7550.100608,-919.314598
3263.909242,-370.102971,-9844.739029,689.485948
3263.909570,-814.226536,-10510.924376,689.485948
3263.909897,-1554.432478,-10510.924376,306.438199
3263.910225,-962.267725,-10436.903782,-1302.362347
3263.910552,-1332.370696,-9030.512492,-2834.553343
3263.910880,0.000000,-8956.491898,-2068.457845
3263.911207,370.102971,-10362.883188,-1149.143247
3263.911535,888.247130,-9770.718434,306.438199
3263.911863,1554.432478,-9622.677246,1149.143247
3263.912190,1628.453072,-9992.780217,1149.143247
3263.912518,1998.556043,-9622.677246,766.095498
3263.912845,1036.288319,-9844.739029,612.876398
3263.913173,1036.288319,-9252.574275,-536.266849
3263.913500,0.000000,-8586.388927,-689.485948
3263.913828,-1184.329507,-9326.594869,-1455.581446
3263.914155,-1258.350101,-9030.512492,-766.095498
3263.914483,-888.247130,-9770.718434,-459.657299
3263.914810,-370.102971,-9770.718434,-919.314598
3263.915138,518.144159,-10584.944971,-306.438199
3263.915465,1258.350101,-9400.615463,0.000000
3263.915793,2516.700203,-6587.832884,919.314598
3263.916120,1110.308913,-8586.388927,2834.553343
3263.916448,-148.041188,-9474.636058,3217.601092
3263.916775,-962.267725,-9696.697840,1149.143247
3263.917103,-444.123565,-9474.636058,-1915.238745
3263.917431,444.123565,-9326.594869,-3907.087040
3263.917758,74.020594,-11103.089130,-2145.067394
3263.918086,518.144159,-12361.439231,612.876398
3263.918413,1998.556043,-12287.418637,306.438199
3263.918741,2368.659014,-10955.047942,-1072.533697
3263.919068,1406.391290,-9104.533087,-612.876398
3263.919396,1184.329507,-8586.388927,76.609550
3263.919723,0.000000,-8142.265362,536.266849
3263.920051,-444.123565,-8068.244768,153.219100
3263.920378,-370.102971,-8438.347739,-306.438199
3263.920706,222.061783,-8660.409521,229.828649
3263.921033,2442.679609,-11251.130318,229.828649
3263.921361,1998.556043,-13989.892304,842.705048
3263.921688,1258.350101,-12213.398043,-536.266849
3263.922016,1110.308913,-8808.450710,-3064.381992
3263.922344,-888.247130,-7624.121203,-2528.115143
3263.922671,-1184.329507,-7402.059420,0.000000
3263.922999,-1110.308913,-9030.512492,2604.724693
3263.923326,-962.267725,-9252.574275,3600.648841
3263.923654,518.144159,-8512.368333,153.219100
3263.923981,-1258.350101,-8882.471304,-1685.410096
3263.924309,-1702.473667,-9992.780217,-1302.362347
3263.924636,-1184.329507,-10140.821405,-1378.971896
3263.924964,518.144159,-9622.677246,-1532.190996
3263.925291,1850.514855,-10066.800811,-1608.800546
3263.925619,1110.308913,-11399.171507,153.219100
3263.925946,2220.617826,-10436.903782,1991.848295
3263.926274,2220.617826,-10658.965565,1915.238745
3263.926601,-370.102971,-10510.924376,1455.581446
3263.926929,-1850.514855,-8290.306550,0.000000
3263.927257,-1628.453072,-7328.038826,-2298.286494
3263.927584,222.061783,-7772.162391,-2681.334243
3263.927912,-148.041188,-10510.924376,306.438199
3263.928239,-740.205942,-11769.274478,1378.971896
3263.928567,1332.370696,-10362.883188,-536.266849
3263.928894,1924.535449,-10732.986159,-2068.457845
3263.929222,1776.494261,-11843.295072,-1302.362347
3263.929549,1998.556043,-11029.068536,-459.657299
3263.929877,370.102971,-9918.759623,-153.219100
3263.930204,370.102971,-9992.780217,-383.047749
3263.930532,222.061783,-10436.903782,-842.705048
3263.930859,-1184.329507,-8216.285956,229.828649
3263.931187,-1628.453072,-9252.574275,1378.971896
3263.931514,-1258.350101,-9770.718434,306.438199
3263.931842,0.000000,-8956.491898,-2987.772442
3263.932169,0.000000,-7846.182985,-2528.115143
3263.932497,0.000000,-7920.203579,-1225.752797
3263.932825,1110.308913,-9548.656652,842.705048
3263.933152,1258.350101,-11325.150913,1072.533697
3263.933480,666.185348,-10584.944971,919.314598
3263.933807,1702.473667,-9770.718434,459.657299
3263.934135,1184.329507,-9104.533087,229.828649
3263.934462,1702.473667,-10807.006753,1532.190996
3263.934790,370.102971,-10955.047942,1532.190996
3263.935117,-666.185348,-8660.409521,-1225.752797
3263.935445,-518.144159,-8438.347739,-2987.772442
3263.935772,-592.164754,-9474.636058,-2757.943793
3263.936100,-518.144159,-9474.636058,-612.876398
3263.936427,-666.185348,-8956.491898,1149.143247
3263.936755,814.226536,-8808.450710,0.000000
3263.937082,1998.556043,-9474.636058,766.095498
3263.937410,1110.308913,-9178.553681,2068.457845
3263.937738,518.144159,-9400.615463,2681.334243
3263.938065,-222.061783,-11473.192101,1072.533697
3263.938393,222.061783,-10955.047942,-2757.943793
3263.938720,740.205942,-9548.656652,-4903.011187
3263.939048,-148.041188,-9474.636058,-2834.553343
3263.939375,370.102971,-10807.006753,459.657299
3263.939703,1184.329507,-11917.315666,995.924147
3263.940030,888.247130,-10732.986159,-306.438199
3263.940358,444.123565,-9104.533087,-612.876398
3263.940685,0.000000,-8956.491898,0.000000
3263.941013,-666.185348,-7994.224174,1149.143247
3263.941340,-740.205942,-8364.327145,1455.581446
3263.941668,0.000000,-8734.430116,76.609550
3263.941995,1702.473667,-8956.491898,-1149.143247
3263.942323,3034.844362,-12213.398043,-536.266849
3263.942651,2960.823768,-11547.212695,76.609550
3263.942978,2442.679609,-9474.636058,689.485948
3263.943306,0.000000,-8512.368333,-459.657299
3263.943633,-1776.494261,-8364.327145,-153.219100
3263.943961,-2368.659014,-8586.388927,459.657299
3263.944288,-2368.659014,-9104.533087,689.485948
3263.944616,-1110.308913,-9696.697840,842.705048
3263.944943,-296.082377,-10066.800811,-229.828649
3263.945271,-444.123565,-9252.574275,-1455.581446
3263.945598,-666.185348,-10140.821405,-2451.505594
3263.945926,222.061783,-8882.471304,-1762.019645
3263.946253,2442.679609,-8734.430116,-1302.362347
3263.946581,3330.926739,-10510.924376,612.876398
3263.946908,2442.679609,-11399.171507,2604.724693
3263.947236,2368.659014,-10955.047942,2374.896044
3263.947564,1258.350101,-10881.027347,1838.629195
3263.947891,0.000000,-10140.821405,76.609550
3263.948219,-666.185348,-10140.821405,-1685.410096
3263.948546,-1702.473667,-8364.327145,-2604.724693
3263.948874,-962.267725,-7846.182985,-2528.115143
3263.949201,74.020594,-9770.718434,-2298.286494
3263.949529,740.205942,-10436.903782,459.657299
3263.949856,2738.761985,-9696.697840,995.924147
3263.950184,2294.638420,-10658.965565,1072.533697
3263.950511,2294.638420,-12805.562797,1072.533697
3263.950839,962.267725,-11473.192101,-459.657299
3263.951166,-666.185348,-9252.574275,-1225.752797
3263.951494,-1406.391290,-9326.594869,-766.095498
3263.951821,-1702.473667,-9622.677246,-1149.143247
3263.952149,-666.185348,-10362.883188,-1072.533697
3263.952476,0.000000,-10510.924376,-689.485948
3263.952804,0.000000,-8808.450710,-1608.800546
3263.953132,0.000000,-6365.771101,-842.705048
3263.953459,370.102971,-7550.100608,612.876398
3263.953787,0.000000,-9844.739029,2451.505594
3263.954114,-518.144159,-9548.656652,2528.115143
3263.954442,-296.082377,-8290.306550,536.266849
3263.954769,296.082377,-9770.718434,-459.657299
3263.955097,814.226536,-11843.295072,-919.314598
3263.955424,1480.411884,-10584.944971,-306.438199
3263.955752,1184.329507,-10436.903782,-536.266849
3263.956079,0.000000,-10436.903782,-1455.581446
3263.956407,-222.061783,-8290.306550,-2451.505594
3263.956734,222.061783,-7994.224174,-1225.752797
3263.957062,-888.247130,-8808.450710,0.000000
3263.957389,-222.061783,-9474.636058,1685.410096
3263.957717,-296.082377,-9474.636058,1149.143247
3263.958045,296.082377,-8586.388927,76.609550
3263.958372,444.123565,-9992.780217,153.219100
3263.958700,814.226536,-9992.780217,0.000000
3263.959027,666.185348,-10214.842000,-459.657299
3263.959355,2146.597232,-9770.718434,-2145.067394
3263.959682,814.226536,-7846.182985,-1991.848295
3263.960010,0.000000,-9844.739029,0.000000
3263.960337,-1036.288319,-11251.130318,612.876398
3263.960665,-592.164754,-11843.295072,-383.047749
3263.960992,74.020594,-9770.718434,-2221.676944
3263.961320,0.000000,-8808.450710,-2068.457845
3263.961647,-888.247130,-10288.862594,1685.410096
3263.961975,814.226536,-11399.171507,1608.800546
3263.962302,1110.308913,-11029.068536,-153.219100
3263.962630,740.205942,-9696.697840,-1532.190996
3263.962958,296.082377,-7179.997637,-2757.943793
3263.963285,1554.432478,-8068.244768,-1991.848295
3263.963613,1406.391290,-11251.130318,1378.971896
3263.963940,888.247130,-11769.274478,2374.896044
3263.964268,888.247130,-8216.285956,1532.190996
3263.964595,1850.514855,-8882.471304,0.000000
3263.964923,0.000000,-10362.883188,995.924147
3263.965250,-1702.473667,-10807.006753,1838.629195
3263.965578,-2220.617826,-9030.512492,-919.314598
3263.965905,-666.185348,-8808.450710,-3753.867940
3263.966233,-1702.473667,-6661.853478,-4903.011187
3263.966560,222.061783,-7105.977043,-1072.533697
3263.966888,1554.432478,-10362.883188,2451.505594
3263.967215,2442.679609,-11547.212695,3064.381992
3263.967543,1998.556043,-10362.883188,2145.067394
3263.967871,1258.350101,-10955.047942,306.438199
3263.968198,1110.308913,-8586.388927,-1072.533697
3263.968526,1036.288319,-10066.800811,0.000000
3263.968853,0.000000,-9918.759623,1072.533697
3263.969181,-370.102971,-10140.821405,-383.047749
3263.969508,296.082377,-10288.862594,-2451.505594
3263.969836,1110.308913,-8290.306550,-2987.772442
3263.970163,444.123565,-9770.718434,-766.095498
3263.970491,-1480.411884,-11103.089130,1608.800546
3263.970818,-1554.432478,-9992.780217,1149.143247
3263.971146,1258.350101,-9696.697840,-459.657299
3263.971473,2368.659014,-8882.471304,-1608.800546
3263.971801,2072.576638,-11917.315666,1072.533697
3263.972128,2368.659014,-12805.562797,2145.067394
3263.972456,1702.473667,-11251.130318,-383.047749
3263.972783,0.000000,-9844.739029,-2451.505594
3263.973111,-2368.659014,-7031.956449,-3140.991542
3263.973439,-2812.782580,-7476.080014,-1685.410096
3263.973766,-2072.576638,-10436.903782,0.000000
3263.974094,-296.082377,-11695.253884,229.828649
3263.974421,444.123565,-9474.636058,459.657299
3263.974749,1850.514855,-8068.244768,153.219100
3263.975076,2442.679609,-8956.491898,1302.362347
3263.975404,1036.288319,-9474.636058,1915.238745
3263.975731,0.000000,-9252.574275,1302.362347
3263.976059,0.000000,-8586.388927,-153.219100
3263.976386,1924.535449,-8734.430116,-1608.800546
3263.976714,1554.432478,-9844.739029,-229.828649
3263.977041,-740.205942,-10288.862594,2604.724693
3263.977369,-962.267725,-10510.924376,1378.971896
3263.977696,-888.247130,-8956.491898,-2221.676944
3263.978024,-148.041188,-9030.512492,-3217.601092
3263.978352,-1998.556043,-8364.327145,-1685.410096
3263.978679,-1332.370696,-9178.553681,2298.286494
3263.979007,370.102971,-9252.574275,1991.848295
3263.979334,1850.514855,-10288.862594,0.000000
3263.979662,740.205942,-10140.821405,0.000000
3263.979989,518.144159,-8364.327145,0.000000
3263.980317,1332.370696,-8882.471304,-383.047749
3263.980644,1036.288319,-10955.047942,-1225.752797
3263.980972,1036.288319,-11251.130318,-1532.190996
3263.981299,-222.061783,-10140.821405,-919.314598
3263.981627,-888.247130,-9622.677246,-229.828649
3263.981954,-740.205942,-11029.068536,0.000000
3263.982282,-222.061783,-10881.027347,-2068.457845
3263.982609,-222.061783,-9326.594869,-1838.629195
3263.982937,74.020594,-9548.656652,-1149.143247
3263.983265,1110.308913,-9770.718434,76.609550
3263.983592,1998.556043,-10140.821405,995.924147
3263.983920,1776.494261,-10510.924376,1225.752797
3263.984247,74.020594,-8882.471304,306.438199
3263.984575,222.061783,-9770.718434,-766.095498
3263.984902,-222.061783,-10066.800811,-383.047749
3263.985230,592.164754,-9548.656652,-383.047749
3263.985557,-296.082377,-8956.491898,689.485948
3263.985885,-518.144159,-10140.821405,1225.752797
3263.986212,-888.247130,-10214.842000,842.705048
3263.986540,-518.144159,-9252.574275,-306.438199
3263.986867,-888.247130,-7476.080014,-1149.143247
3263.987195,-518.144159,-7994.224174,-1225.752797
3263.987522,-1184.329507,-7846.182985,0.000000
3263.987850,0.000000,-8882.471304,612.876398
3263.988178,1406.391290,-10436.903782,1149.143247
3263.988505,2220.617826,-9622.677246,1072.533697
3263.988833,2664.741391,-9992.780217,1455.581446
3263.989160,962.267725,-10732.986159,842.705048
3263.989488,370.102971,-10510.924376,-1225.752797
3263.989815,0.000000,-10140.821405,-1378.971896
3263.990143,74.020594,-8956.491898,-1455.581446
3263.990470,1036.288319,-9104.533087,-612.876398
3263.990798,222.061783,-10066.800811,612.876398
3263.991125,888.247130,-10436.903782,1455.581446
3263.991453,1258.350101,-11399.171507,919.314598
3263.991780,888.247130,-8956.491898,-919.314598
3263.992108,518.144159,-7846.182985,-766.095498
3263.992435,444.123565,-10288.862594,-612.876398
3263.992763,1776.494261,-12509.480420,-689.485948
3263.993091,2294.638420,-13471.748144,-689.485948
3263.993418,1406.391290,-10658.965565,-383.047749
3263.993746,1184.329507,-10066.800811,-383.047749
3263.994073,1406.391290,-11103.089130,-766.095498
3263.994401,-1184.329507,-9400.615463,306.438199
3263.994728,-2812.782580,-8142.265362,0.000000
3263.995056,-2146.597232,-7698.141797,-1532.190996
3263.995383,-666.185348,-7179.997637,-1991.848295
3263.995711,-1332.370696,-8142.265362,459.657299
3263.996038,-518.144159,-9548.656652,995.924147
3263.996366,1258.350101,-10584.944971,536.266849
3263.996693,1850.514855,-11103.089130,-689.485948
3263.997021,1036.288319,-9252.574275,-689.485948
3263.997348,2368.659014,-9474.636058,536.266849
3263.997676,2294.638420,-10214.842000,1455.581446
3263.998003,1332.370696,-10510.924376,1915.238745
3263.998331,-814.226536,-8586.388927,1149.143247
3263.998659,-1110.308913,-6513.812290,0.000000
3263.998986,-1110.308913,-7994.224174,-689.485948
3263.999314,-1850.514855,-10436.903782,0.000000
3263.999641,-1554.432478,-9622.677246,-153.219100
3263.999969,-592.164754,-9696.697840,-1455.581446
3264.000296,-296.082377,-8882.471304,-1991.848295
3264.000624,518.144159,-10140.821405,-689.485948
3264.000951,740.205942,-10510.924376,766.095498
3264.001279,814.226536,-8808.450710,1762.019645
3264.001606,1184.329507,-10584.944971,689.485948
3264.001934,962.267725,-9992.780217,-689.485948
3264.002261,1036.288319,-9400.615463,-919.314598
3264.002589,222.061783,-10510.924376,766.095498
3264.002916,-222.061783,-10807.006753,-229.828649
3264.003244,-740.205942,-12287.418637,-2145.067394
3264.003572,-1332.370696,-9844.739029,-4213.525239
3264.003899,-222.061783,-8438.347739,-2834.553343
3264.004227,0.000000,-10362.883188,0.000000
3264.004554,1554.432478,-11177.109724,1608.800546
3264.004882,1406.391290,-11029.068536,2068.457845
3264.005209,1184.329507,-8882.471304,536.266849
3264.005537,1332.370696,-7254.018232,-689.485948
3264.005864,444.123565,-10066.800811,153.219100
3264.006192,888.247130,-10510.924376,459.657299
3264.006519,666.185348,-8882.471304,-306.438199
3264.006847,0.000000,-9252.574275,-612.876398
3264.007174,-592.164754,-9844.739029,-766.095498
3264.007502,0.000000,-10732.986159,229.828649
3264.007829,-518.144159,-9548.656652,0.000000
3264.008157,-1184.329507,-8586.388927,0.000000
3264.008485,-1406.391290,-8068.244768,-536.266849
3264.008812,-296.082377,-6883.915261,-689.485948
3264.009140,1036.288319,-8216.285956,995.924147
3264.009467,2072.576638,-9844.739029,2757.943793
3264.009795,2738.761985,-9178.553681,2374.896044
3264.010122,2368.659014,-10955.047942,536.266849
3264.010450,962.267725,-9770.718434,-1685.410096
3264.010777,666.185348,-10658.965565,-2068.457845
3264.011105,0.000000,-11621.233289,-1149.143247
3264.011432,0.000000,-9992.780217,-766.095498
3264.011760,-592.164754,-10658.965565,-459.657299
3264.012087,888.247130,-9030.512492,-612.876398
3264.012415,1258.350101,-8808.450710,76.609550
3264.012742,-666.185348,-9918.759623,536.266849
3264.013070,-814.226536,-8512.368333,0.000000
3264.013398,1110.308913,-10066.800811,-1991.848295
3264.013725,1998.556043,-10881.027347,-2451.505594
3264.014053,1776.494261,-11547.212695,-536.266849
3264.014380,814.226536,-11769.274478,1608.800546
3264.014708,962.267725,-11325.150913,536.266849
3264.015035,-222.061783,-11769.274478,-689.485948
3264.015363,-1554.432478,-9400.615463,-2604.724693
3264.015690,-3182.885551,-7994.224174,-1149.143247
3264.016018,-2368.659014,-9474.636058,76.609550
3264.016345,-814.226536,-8734.430116,0.000000
3264.016673,592.164754,-8882.471304,-229.828649
3264.017000,444.123565,-9030.512492,919.314598
3264.017328,666.185348,-7920.203579,766.095498
3264.017655,518.144159,-9622.677246,689.485948
3264.017983,444.123565,-9326.594869,76.609550
3264.018310,148.041188,-8512.368333,306.438199
3264.018638,296.082377,-8956.491898,1149.143247
3264.018965,1110.308913,-8660.409521,1072.533697
3264.019293,1184.329507,-10436.903782,1149.143247
3264.019620,222.061783,-9770.718434,229.828649
3264.019948,-962.267725,-8216.285956,-1532.190996
3264.020275,-444.123565,-9252.574275,-1991.848295
3264.020603,-444.123565,-8882.471304,-1685.410096
3264.020930,-370.102971,-9104.533087,0.000000
3264.021258,222.061783,-9918.759623,459.657299
3264.021585,444.123565,-10362.883188,-306.438199
3264.021913,666.185348,-10584.944971,1149.143247
3264.022240,1258.350101,-8438.347739,0.000000
3264.022568,740.205942,-8808.450710,0.000000
3264.022895,592.164754,-11251.130318,0.000000
3264.023223,888.247130,-10881.027347,-1225.752797
3264.023550,2368.659014,-11103.089130,-1532.190996
3264.023878,2146.597232,-10510.924376,-689.485948
3264.024206,1258.350101,-11029.068536,0.000000
3264.024533,-666.185348,-11399.171507,-459.657299
3264.024861,-1184.329507,-9326.594869,-1532.190996
3264.025188,-518.144159,-8808.450710,-1532.190996
3264.025516,74.020594,-9326.594869,0.000000
3264.025843,148.041188,-9548.656652,1838.629195
3264.026171,1406.391290,-11029.068536,2374.896044
3264.026498,1110.308913,-9474.636058,-306.438199
3264.026826,1850.514855,-9918.759623,-1608.800546
3264.027153,1258.350101,-11103.089130,-1302.362347
3264.027481,666.185348,-9326.594869,153.219100
3264.027808,1406.391290,-8068.244768,995.924147
3264.028136,888.247130,-9474.636058,766.095498
3264.028463,222.061783,-9474.636058,1915.238745
3264.028791,-814.226536,-9252.574275,1991.848295
3264.029118,-1998.556043,-8216.285956,612.876398
3264.029446,-1998.556043,-8956.491898,-383.047749
3264.029773,-2368.659014,-8882.471304,-1455.581446
3264.030101,-1258.350101,-7328.038826,-1915.238745
3264.030428,296.082377,-8882.471304,-919.314598
3264.030756,2368.659014,-9622.677246,153.219100
3264.031083,3478.967927,-11769.274478,2221.676944
3264.031411,1628.453072,-10658.965565,1991.848295
3264.031738,1110.308913,-9770.718434,229.828649
3264.032066,296.082377,-10288.862594,0.000000
3264.032393,0.000000,-9326.594869,-995.924147
3264.032721,0.000000,-8290.306550,-383.047749
3264.033048,-518.144159,-10510.924376,536.266849
3264.033376,296.082377,-9918.759623,-1532.190996
3264.033703,0.000000,-10584.944971,-2221.676944
3264.034031,-1110.308913,-10658.965565,-1608.800546
3264.034358,518.144159,-8808.450710,-1685.410096
3264.034686,1480.411884,-10807.006753,-995.924147
3264.035013,1258.350101,-11843.295072,0.000000
3264.035341,1554.432478,-11917.315666,1302.362347
3264.035668,1480.411884,-10066.800811,612.876398
3264.035996,0.000000,-8438.347739,-153.219100
3264.036323,-1924.535449,-10807.006753,-153.219100
3264.036651,-2590.720797,-8734.430116,-2298.286494
3264.036978,-2368.659014,-8660.409521,-2987.772442
3264.037306,-2590.720797,-9918.759623,-2221.676944
3264.037633,148.041188,-10140.821405,-1915.238745
3264.037961,740.205942,-10140.821405,-383.047749
3264.038289,1184.329507,-10584.944971,1532.190996
3264.038616,518.144159,-8660.409521,1608.800546
3264.038944,1480.411884,-8364.327145,689.485948
3264.039271,1702.473667,-7920.203579,995.924147
3264.039599,888.247130,-9696.697840,2451.505594
3264.039926,1036.288319,-9918.759623,2451.505594
3264.040254,1702.473667,-9252.574275,536.266849
3264.040581,592.164754,-9622.677246,-689.485948
3264.040909,-666.185348,-8142.265362,-2221.676944
3264.041236,-888.247130,-8734.430116,-1915.238745
3264.041564,-740.205942,-9104.533087,-919.314598
3264.041891,-296.082377,-9178.553681,-995.924147
3264.042219,74.020594,-10510.924376,689.485948
3264.042546,814.226536,-9474.636058,1915.238745
3264.042874,592.164754,-8808.450710,1532.190996
3264.043201,0.000000,-10140.821405,1072.533697
3264.043529,592.164754,-8586.388927,-1225.752797
3264.043856,1258.350101,-8808.450710,-2451.505594
3264.044184,814.226536,-10066.800811,-1072.533697
3264.044511,1554.432478,-9474.636058,-919.314598
3264.044839,1628.453072,-9622.677246,0.000000
3264.045166,518.144159,-10955.047942,0.000000
3264.045494,-1110.308913,-11695.253884,-153.219100
3264.045821,-1184.329507,-9992.780217,-1455.581446
3264.046149,-296.082377,-8512.368333,-919.314598
3264.046476,518.144159,-10955.047942,0.000000
3264.046804,666.185348,-11325.150913,689.485948
3264.047131,814.226536,-10214.842000,995.924147
3264.047459,962.267725,-9770.718434,-612.876398
3264.047786,1110.308913,-8216.285956,-2221.676944
3264.048114,1036.288319,-9400.615463,-1762.019645
3264.048441,296.082377,-10732.986159,0.000000
3264.048769,-666.185348,-9844.739029,1838.629195
3264.049096,1406.391290,-9326.594869,1532.190996
3264.049424,1110.308913,-9030.512492,1149.143247
3264.049751,-444.123565,-10288.862594,2221.676944
3264.050079,-1036.288319,-11251.130318,919.314598
3264.050406,-296.082377,-9770.718434,-1302.362347
3264.050734,-370.102971,-8438.347739,-2604.724693
3264.051061,-1406.391290,-6291.750507,-1915.238745
3264.051389,444.123565,-7328.038826,76.609550
3264.051716,1628.453072,-8734.430116,1225.752797
3264.052044,1332.370696,-10066.800811,2068.457845
3264.052372,1258.350101,-11399.171507,1685.410096
3264.052699,888.247130,-9770.718434,766.095498
3264.053027,0.000000,-9400.615463,536.266849
3264.053354,-222.061783,-10362.883188,76.609550
3264.053682,0.000000,-9252.574275,-689.485948
3264.054009,296.082377,-10214.842000,-995.924147
3264.054337,518.144159,-9696.697840,-1532.190996
3264.054664,1184.329507,-8808.450710,-995.924147
3264.054992,1110.308913,-8734.430116,383.047749
3264.055319,74.020594,-9178.553681,1149.143247
3264.055647,74.020594,-10140.821405,459.657299
3264.055974,888.247130,-10807.006753,-842.705048
3264.056302,1036.288319,-11769.274478,-383.047749
3264.056629,1480.411884,-12361.439231,0.000000
3264.056957,666.185348,-11843.295072,-536.266849
3264.057284,0.000000,-11473.192101,-689.485948
3264.057612,0.000000,-9622.677246,-1762.019645
3264.057939,-740.205942,-6957.935855,-2068.457845
3264.058267,-740.205942,-8290.306550,-383.047749
3264.058594,-888.247130,-8660.409521,0.000000
3264.058922,0.000000,-8586.388927,383.047749
3264.059249,592.164754,-9474.636058,612.876398
3264.059577,444.123565,-9696.697840,689.485948
3264.059904,814.226536,-10436.903782,612.876398
3264.060232,222.061783,-10658.965565,-459.657299
3264.060559,0.000000,-10140.821405,-995.924147
3264.060887,962.267725,-9474.636058,-1685.410096
3264.061214,814.226536,-8068.244768,-842.705048
3264.061542,0.000000,-8734.430116,766.095498
3264.061869,-666.185348,-10288.862594,1685.410096
3264.062197,-962.267725,-7476.080014,766.095498
3264.062524,-296.082377,-8290.306550,153.219100
3264.062852,-1258.350101,-9474.636058,-306.438199
3264.063179,-2294.638420,-9474.636058,-229.828649
3264.063507,-814.226536,-10436.903782,0.000000
3264.063834,814.226536,-11621.233289,-1072.533697
3264.064162,1776.494261,-11843.295072,-842.705048
3264.064489,740.205942,-8660.409521,0.000000
3264.064817,740.205942,-7031.956449,459.657299
3264.065144,2590.720797,-10214.842000,383.047749
3264.065472,1110.308913,-9992.780217,0.000000
3264.065799,-296.082377,-7994.224174,76.609550
3264.066127,-1332.370696,-9030.512492,-153.219100
3264.066454,-1036.288319,-11843.295072,-383.047749
3264.066782,-666.185348,-12509.480420,-995.924147
3264.067110,222.061783,-10362.883188,-2911.162892
3264.067437,-370.102971,-9918.759623,-2298.286494
3264.067765,1184.329507,-11029.068536,-766.095498
3264.068092,2368.659014,-9696.697840,0.000000
3264.068420,1998.556043,-8882.471304,1455.581446
3264.068747,1036.288319,-9104.533087,1685.410096
3264.069075,1184.329507,-9178.553681,689.485948
3264.069402,0.000000,-8438.347739,76.609550
3264.069730,-1406.391290,-7994.224174,383.047749
3264.070057,-1036.288319,-8216.285956,-383.047749
3264.070385,-222.061783,-10955.047942,-459.657299
3264.070712,0.000000,-11547.212695,-459.657299
3264.071040,1850.514855,-10807.006753,-1149.143247
3264.071367,1480.411884,-8364.327145,-536.266849
3264.071695,1406.391290,-8438.347739,995.924147
3264.072022,370.102971,-8586.388927,1762.019645
3264.072350,-740.205942,-8068.244768,919.314598
3264.072677,-1480.411884,-8882.471304,842.705048
3264.073005,-370.102971,-9030.512492,-383.047749
3264.073332,-592.164754,-8660.409521,-689.485948
3264.073660,0.000000,-10658.965565,-689.485948
3264.073987,370.102971,-12065.356855,-1378.971896
3264.074315,1332.370696,-12583.501014,-2145.067394
3264.074642,1554.432478,-8956.491898,-1762.019645
3264.074970,2072.576638,-7994.224174,-1072.533697
3264.075297,1628.453072,-9844.739029,1302.362347
3264.075625,1628.453072,-9918.759623,1915.238745
3264.075952,1776.494261,-9696.697840,1072.533697
3264.076280,1924.535449,-9030.512492,383.047749
3264.076607,0.000000,-8068.244768,153.219100
3264.076935,-1036.288319,-9992.780217,306.438199
3264.077262,-296.082377,-11029.068536,-1608.800546
3264.077590,74.020594,-11917.315666,-1991.848295
3264.077917,444.123565,-11843.295072,-1838.629195
3264.078245,888.247130,-11177.109724,-1608.800546
3264.078572,1406.391290,-12065.356855,-536.266849
3264.078900,962.267725,-9696.697840,842.705048
3264.079227,222.061783,-7328.038826,1991.848295
3264.079555,-1036.288319,-8216.285956,1378.971896
3264.079882,-2146.597232,-7624.121203,0.000000
3264.080210,-2072.576638,-7920.203579,-689.485948
3264.080537,-1184.329507,-9030.512492,-766.095498
3264.080865,-1036.288319,-9992.780217,-689.485948
3264.081193,444.123565,-11399.171507,-919.314598
3264.081520,592.164754,-9326.594869,-1915.238745
3264.081848,444.123565,-9104.533087,-536.266849
3264.082175,1850.514855,-9770.718434,153.219100
3264.082503,1554.432478,-9548.656652,153.219100
3264.082830,814.226536,-10214.842000,1685.410096
3264.083158,0.000000,-8808.450710,2068.457845
3264.083485,222.061783,-8290.306550,689.485948
3264.083813,296.082377,-10066.800811,1225.752797
3264.084140,-1036.288319,-9992.780217,-536.266849
3264.084468,-2368.659014,-8142.265362,-306.438199
3264.084795,-518.144159,-9918.759623,-1915.238745
3264.085123,1110.308913,-10732.986159,-2374.896044
3264.085450,666.185348,-10066.800811,-459.657299
3264.085778,-370.102971,-8586.388927,229.828649
3264.086105,-518.144159,-9474.636058,995.924147
3264.086433,370.102971,-10955.047942,536.266849
3264.086760,962.267725,-9400.615463,-995.924147
3264.087088,1110.308913,-9918.759623,-1072.533697
3264.087415,2294.638420,-11399.171507,-1378.971896
3264.087743,518.144159,-11695.253884,0.000000
3264.088070,-666.185348,-10584.944971,0.000000
3264.088398,-1332.370696,-7772.162391,-1762.019645
3264.088725,0.000000,-8068.244768,-2604.724693
3264.089053,444.123565,-10955.047942,-2145.067394
3264.089380,0.000000,-11547.212695,536.266849
3264.089708,444.123565,-10658.965565,1838.629195
3264.090035,1998.556043,-10288.862594,383.047749
3264.090363,2220.617826,-9844.739029,-306.438199
3264.090690,740.205942,-10214.842000,76.609550
3264.091018,-444.123565,-8512.368333,229.828649
3264.091345,740.205942,-7698.141797,-766.095498
3264.091673,888.247130,-7402.059420,-1762.019645
3264.092000,296.082377,-9178.553681,229.828649
3264.092328,-222.061783,-9918.759623,2298.286494
3264.092655,888.247130,-10140.821405,1838.629195
3264.092983,1776.494261,-11325.150913,-153.219100
3264.093310,2220.617826,-10510.924376,-1915.238745
3264.093638,2146.597232,-7105.977043,-1072.533697
3264.093965,1110.308913,-9326.594869,1838.629195
3264.094293,0.000000,-9992.780217,2451.505594
3264.094620,444.123565,-9622.677246,1455.581446
3264.094948,0.000000,-7624.121203,-919.314598
3264.095276,-1110.308913,-6365.771101,-1915.238745
3264.095603,-2294.638420,-9622.677246,-995.924147
3264.095931,-1258.350101,-11325.150913,-842.705048
3264.096258,0.000000,-10807.006753,-995.924147
3264.096586,1554.432478,-11251.130318,-1608.800546
3264.096913,814.226536,-9696.697840,-995.924147
3264.097241,888.247130,-10214.842000,1378.971896
3264.097568,1998.556043,-10807.006753,153.219100
3264.097896,222.061783,-9770.718434,-1072.533697
3264.098223,814.226536,-9474.636058,-1685.410096
3264.098551,1332.370696,-7994.224174,-1532.190996
3264.098878,666.185348,-9844.739029,383.047749
3264.099206,296.082377,-11177.109724,1838.629195
3264.099533,370.102971,-11547.212695,306.438199
3264.099861,296.082377,-11103.089130,-1072.533697
3264.100188,148.041188,-9770.718434,-1762.019645
3264.100516,0.000000,-10510.924376,0.000000
3264.100843,0.000000,-12509.480420,536.266849
3264.101171,370.102971,-10288.862594,-1072.533697
3264.101498,888.247130,-8290.306550,-1532.190996
3264.101826,0.000000,-7846.182985,-1149.143247
3264.102153,-1110.308913,-7698.141797,842.705048
3264.102481,-740.205942,-8216.285956,612.876398
3264.102808,-888.247130,-8364.327145,306.438199
3264.103136,-296.082377,-10214.842000,1149.143247
3264.103463,-148.041188,-9178.553681,1378.971896
3264.103791,296.082377,-7698.141797,612.876398
3264.104118,518.144159,-10436.903782,689.485948
3264.104446,74.020594,-10584.944971,-1378.971896
3264.104773,0.000000,-9770.718434,-2451.505594
3264.105101,-370.102971,-8216.285956,-1225.752797
3264.105428,0.000000,-7846.182985,459.657299
3264.105756,1406.391290,-9992.780217,2298.286494
3264.106083,814.226536,-9474.636058,2451.505594
3264.106411,-666.185348,-8808.450710,1838.629195
3264.106738,-1998.556043,-8882.471304,1608.800546
3264.107066,-1036.288319,-8290.306550,-1302.362347
3264.107393,-518.144159,-10584.944971,-1762.019645
3264.107721,0.000000,-11769.274478,-2145.067394
3264.108048,518.144159,-11251.130318,-1532.190996
3264.108376,1998.556043,-10140.821405,-995.924147
3264.108703,1998.556043,-9104.533087,-995.924147
3264.109031,444.123565,-10066.800811,842.705048
3264.109359,-592.164754,-9918.759623,536.266849
3264.109686,-666.185348,-8956.491898,-229.828649
3264.110014,296.082377,-10214.842000,-612.876398
3264.110341,518.144159,-9844.739029,-459.657299
3264.110669,370.102971,-10732.986159,1149.143247
3264.110996,1628.453072,-12657.521608,-612.876398
3264.111324,1036.288319,-11473.192101,-2528.115143
3264.111651,1184.329507,-10732.986159,-2757.943793
3264.111979,148.041188,-8512.368333,-2068.457845
3264.112306,-222.061783,-7550.100608,153.219100
3264.112634,592.164754,-8142.265362,1608.800546
3264.112961,222.061783,-8808.450710,1838.629195
3264.113289,296.082377,-9326.594869,2681.334243
3264.113616,1480.411884,-9178.553681,0.000000
3264.113944,814.226536,-8142.265362,-919.314598
3264.114271,1554.432478,-11917.315666,0.000000
3264.114599,1406.391290,-12139.377449,-383.047749
3264.114926,1258.350101,-8216.285956,-1072.533697
3264.115254,1184.329507,-8142.265362,-612.876398
3264.115581,444.123565,-8808.450710,0.000000
3264.115909,-222.061783,-8586.388927,766.095498
3264.116236,-1406.391290,-8808.450710,1072.533697
3264.116564,-2368.659014,-8512.368333,-459.657299
3264.116891,-1332.370696,-9770.718434,-1608.800546
3264.117219,-962.267725,-8956.491898,-842.705048
3264.117546,888.247130,-9548.656652,919.314598
3264.117874,1332.370696,-11177.109724,766.095498
3264.118202,2368.659014,-11473.192101,76.609550
3264.118529,3034.844362,-10288.862594,-1685.410096
3264.118857,1406.391290,-8808.450710,-1149.143247
3264.119184,370.102971,-8068.244768,383.047749
3264.119512,296.082377,-9252.574275,995.924147
3264.119839,222.061783,-10066.800811,306.438199
3264.120167,518.144159,-11695.253884,153.219100
3264.120495,0.000000,-9918.759623,306.438199
3264.120822,0.000000,-10288.862594,0.000000
3264.121150,0.000000,-12139.377449,0.000000
3264.121477,518.144159,-10881.027347,-1685.410096
3264.121805,888.247130,-9474.636058,-2145.067394
3264.122132,444.123565,-9918.759623,-1302.362347
3264.122460,1184.329507,-9474.636058,-306.438199
3264.122788,1924.535449,-9474.636058,459.657299
3264.123115,-370.102971,-9030.512492,919.314598
3264.123443,-1480.411884,-10288.862594,536.266849
3264.123770,-1998.556043,-9918.759623,-536.266849
3264.124098,-1406.391290,-8438.347739,-766.095498
3264.124425,-296.082377,-9844.739029,-383.047749
3264.124753,-222.061783,-9770.718434,-459.657299
3264.125081,296.082377,-9474.636058,-459.657299
3264.125408,1036.288319,-9474.636058,0.000000
3264.125736,370.102971,-7550.100608,76.609550
3264.126063,1184.329507,-8808.450710,76.609550
3264.126391,370.102971,-9178.553681,229.828649
3264.126719,-370.102971,-9622.677246,1225.752797
3264.127046,-592.164754,-10140.821405,1378.971896
3264.127374,962.267725,-9770.718434,459.657299
3264.127701,814.226536,-9548.656652,536.266849
3264.128029,-592.164754,-9918.759623,153.219100
3264.128356,-1850.514855,-10066.800811,76.609550
3264.128684,592.164754,-10214.842000,-1915.238745
3264.129012,814.226536,-7846.182985,-2528.115143
3264.129339,1036.288319,-7994.224174,-536.266849
3264.129667,2294.638420,-10288.862594,1149.143247
3264.129994,962.267725,-10732.986159,2451.505594
3264.130322,-1036.288319,-10140.821405,1532.190996
3264.130649,-1776.494261,-9474.636058,-1608.800546
3264.130977,-1628.453072,-8808.450710,-3677.258390
3264.131305,-1036.288319,-10881.027347,-1608.800546
3264.131632,222.061783,-12361.439231,76.609550
3264.131960,2072.576638,-11547.212695,0.000000
3264.132287,2368.659014,-10955.047942,-995.924147
3264.132615,1850.514855,-9400.615463,-1225.752797
3264.132942,1406.391290,-9844.739029,-612.876398
3264.133270,-592.164754,-9252.574275,76.609550
3264.133598,-1332.370696,-7105.977043,459.657299
3264.133925,-1110.308913,-7772.162391,689.485948
3264.134253,-592.164754,-9252.574275,766.095498
3264.134580,1702.473667,-12583.501014,1378.971896
3264.134908,2368.659014,-12583.501014,76.609550
3264.135235,1776.494261,-11251.130318,-1149.143247
3264.135563,962.267725,-9474.636058,-2068.457845
3264.135891,1480.411884,-6587.832884,-1685.410096
3264.136218,2294.638420,-8290.306550,-153.219100
3264.136546,1258.350101,-9178.553681,2528.115143
3264.136873,-518.144159,-8364.327145,4136.915689
3264.137201,0.000000,-8438.347739,2374.896044
3264.137528,-1924.535449,-7550.100608,0.000000
3264.137856,-3627.009116,-10066.800811,-1302.362347
3264.138184,-3997.112087,-10288.862594,-3064.381992
3264.138511,-2960.823768,-8956.491898,-4060.306139
3264.138839,296.082377,-10362.883188,-3370.820191
3264.139166,962.267725,-9770.718434,-842.705048
3264.139494,2516.700203,-10066.800811,2834.553343
3264.139822,4441.235652,-10288.862594,2757.943793
3264.140149,2516.700203,-9918.759623,1685.410096
3264.140477,814.226536,-9474.636058,1838.629195
3264.140804,1258.350101,-7179.997637,0.000000
3264.141132,-296.082377,-8438.347739,306.438199
3264.141459,-296.082377,-12435.459826,0.000000
3264.141787,148.041188,-12583.501014,-1225.752797
3264.142115,444.123565,-10732.986159,-2221.676944
3264.142442,370.102971,-8956.491898,-3140.991542
3264.142770,222.061783,-9474.636058,-1532.190996
3264.143097,518.144159,-10584.944971,1149.143247
3264.143425,592.164754,-8586.388927,612.876398
3264.143752,1406.391290,-9326.594869,536.266849
3264.144080,1110.308913,-10584.944971,383.047749
3264.144408,666.185348,-9252.574275,459.657299
3264.144735,740.205942,-9770.718434,76.609550
3264.145063,-592.164754,-10807.006753,-1072.533697
3264.145390,-1406.391290,-9844.739029,-1685.410096
3264.145718,444.123565,-9104.533087,-2528.115143
3264.146045,0.000000,-7624.121203,-1455.581446
3264.146373,444.123565,-9400.615463,383.047749
3264.146701,888.247130,-10140.821405,1302.362347
3264.147028,222.061783,-8364.327145,1225.752797
3264.147356,1036.288319,-7994.224174,766.095498
3264.147683,592.164754,-8586.388927,1149.143247
3264.148011,-370.102971,-9548.656652,1302.362347
3264.148338,222.061783,-10584.944971,306.438199
3264.148666,518.144159,-10584.944971,-383.047749
3264.148994,740.205942,-9474.636058,-995.924147
3264.149321,-814.226536,-9474.636058,-842.705048
3264.149649,-1406.391290,-9400.615463,0.000000
3264.149976,0.000000,-9474.636058,-1455.581446
3264.150304,-222.061783,-8956.491898,-995.924147
3264.150631,0.000000,-9770.718434,0.000000
3264.150959,74.020594,-9178.553681,76.609550
3264.151287,1036.288319,-8660.409521,229.828649
3264.151614,518.144159,-10732.986159,1685.410096
3264.151942,-1110.308913,-10881.027347,995.924147
3264.152269,-666.185348,-9252.574275,-919.314598
3264.152597,-444.123565,-8512.368333,-3217.601092
3264.152924,-370.102971,-9400.615463,-2451.505594
3264.153252,518.144159,-12435.459826,-306.438199
3264.153580,0.000000,-11621.233289,459.657299
3264.153907,1110.308913,-10214.842000,0.000000
3264.154235,2294.638420,-11029.068536,-1225.752797
3264.154562,0.000000,-9474.636058,-995.924147
3264.154890,-370.102971,-8956.491898,383.047749
3264.155218,-962.267725,-8438.347739,-229.828649
3264.155545,-296.082377,-8586.388927,-612.876398
3264.155873,148.041188,-9696.697840,-612.876398
3264.156200,444.123565,-8586.388927,-306.438199
3264.156528,1850.514855,-9548.656652,459.657299
