#time,accel_x,accel_y,accel_z
3311.034635,0.000000,-9696.697840,-536.266849
3311.034963,148.041188,-10066.800811,-306.438199
3311.035290,296.082377,-9696.697840,-229.828649
3311.035618,518.144159,-9622.677246,0.000000
3311.035945,740.205942,-9474.636058,306.438199
3311.036273,666.185348,-9178.553681,76.609550
3311.036601,666.185348,-9030.512492,612.876398
3311.036928,74.020594,-8882.471304,612.876398
3311.037256,0.000000,-8882.471304,153.219100
3311.037583,74.020594,-8882.471304,0.000000
3311.037911,0.000000,-9252.574275,-306.438199
3311.038238,-148.041188,-8882.471304,0.000000
3311.038566,74.020594,-9326.594869,153.219100
3311.038894,296.082377,-9548.656652,-153.219100
3311.039221,592.164754,-10140.821405,0.000000
3311.039549,518.144159,-9992.780217,153.219100
3311.039876,740.205942,-9696.697840,153.219100
3311.040204,666.185348,-9918.759623,153.219100
3311.040532,888.247130,-9474.636058,-306.438199
3311.040859,370.102971,-9474.636058,383.047749
3311.041187,0.000000,-9178.553681,76.609550
3311.041514,0.000000,-9770.718434,-766.095498
3311.041842,0.000000,-9992.780217,-1072.533697
3311.042169,0.000000,-10140.821405,-995.924147
3311.042497,296.082377,-10510.924376,-995.924147
3311.042825,518.144159,-10658.965565,0.000000
3311.043152,1184.329507,-11177.109724,-766.095498
3311.043480,222.061783,-10362.883188,459.657299
3311.043807,296.082377,-10066.800811,0.000000
3311.044135,222.061783,-9696.697840,0.000000
3311.044463,148.041188,-9474.636058,-153.219100
3311.044790,0.000000,-9400.615463,0.000000
3311.045118,0.000000,-9400.615463,0.000000
3311.045445,0.000000,-9326.594869,536.266849
3311.045773,-296.082377,-9474.636058,306.438199
3311.046100,0.000000,-9696.697840,-306.438199
3311.046428,296.082377,-9844.739029,0.000000
3311.046756,518.144159,-9622.677246,0.000000
3311.047083,592.164754,-9770.718434,153.219100
3311.047411,814.226536,-9400.615463,306.438199
3311.047738,0.000000,-8882.471304,612.876398
3311.048066,518.144159,-8882.471304,306.438199
3311.048394,74.020594,-8734.430116,76.609550
3311.048721,0.000000,-8586.388927,0.000000
3311.049049,74.020594,-9104.533087,-229.828649
3311.049376,0.000000,-9474.636058,-383.047749
3311.049704,222.061783,-9474.636058,-306.438199
3311.050031,814.226536,-10732.986159,-689.485948
3311.050359,1110.308913,-9252.574275,0.000000
3311.050687,1776.494261,-9770.718434,0.000000
3311.051014,2590.720797,-9844.739029,0.000000
3311.051342,3627.009116,-9474.636058,0.000000
3311.051669,3849.070898,-9178.553681,76.609550
3311.051997,4811.338623,-9400.615463,-536.266849
3311.052325,5255.462188,-9770.718434,-766.095498
3311.052652,5699.585753,-9992.780217,-1149.143247
3311.052980,6365.771101,-9992.780217,-919.314598
3311.053307,7402.059420,-10214.842000,-995.924147
3311.053635,8216.285956,-10732.986159,-689.485948
3311.053962,8290.306550,-11399.171507,0.000000
3311.054290,8364.327145,-10732.986159,306.438199
3311.054618,9252.574275,-9030.512492,-229.828649
3311.054945,9992.780217,-9178.553681,0.000000
3311.055273,9622.677246,-8512.368333,229.828649
3311.055600,10288.862594,-8216.285956,536.266849
3311.055928,10732.986159,-8512.368333,612.876398
3311.056255,11177.109724,-9548.656652,229.828649
3311.056583,11251.130318,-9326.594869,-306.438199
3311.056911,9992.780217,-9400.615463,-306.438199
3311.057238,11177.109724,-9770.718434,76.609550
3311.057566,12065.356855,-9844.739029,-383.047749
3311.057893,13249.686362,-10066.800811,0.000000
3311.058221,14434.015869,-10436.903782,919.314598
3311.058549,15396.283594,-9696.697840,1762.019645
3311.058876,14582.057057,-7846.182985,1991.848295
3311.059204,13767.830521,-8068.244768,1378.971896
3311.059531,12731.542202,-8142.265362,1225.752797
3311.059859,12583.501014,-8882.471304,0.000000
3311.060186,12213.398043,-9918.759623,0.000000
3311.060514,12657.521608,-9474.636058,0.000000
3311.060842,12657.521608,-9548.656652,536.266849
3311.061169,12509.480420,-9474.636058,1302.362347
3311.061497,12361.439231,-9696.697840,919.314598
3311.061824,11251.130318,-9622.677246,0.000000
3311.062152,10436.903782,-10066.800811,153.219100
3311.062480,10066.800811,-9844.739029,-306.438199
3311.062807,8734.430116,-9104.533087,76.609550
3311.063135,7846.182985,-8808.450710,0.000000
3311.063462,8956.491898,-9178.553681,-383.047749
3311.063790,9770.718434,-10140.821405,-842.705048
3311.064117,9770.718434,-11399.171507,-459.657299
3311.064445,9474.636058,-12139.377449,-766.095498
3311.064773,9178.553681,-10658.965565,-383.047749
3311.065100,9252.574275,-8808.450710,-612.876398
3311.065428,9178.553681,-9030.512492,306.438199
3311.065755,9178.553681,-9400.615463,1532.190996
3311.066083,8882.471304,-11029.068536,1532.190996
3311.066411,7920.203579,-10658.965565,536.266849
3311.066738,7254.018232,-8290.306550,-1149.143247
3311.067066,6587.832884,-8068.244768,-2145.067394
3311.067393,4959.379811,-10066.800811,-383.047749
3311.067721,5847.626942,-10584.944971,-229.828649
3311.068048,8290.306550,-9400.615463,-1762.019645
3311.068376,10288.862594,-9474.636058,-1225.752797
3311.068704,10658.965565,-9474.636058,0.000000
3311.069031,9474.636058,-8216.285956,2221.676944
3311.069359,7254.018232,-7031.956449,3524.039291
3311.069686,9178.553681,-8290.306550,1455.581446
3311.070014,11621.233289,-9696.697840,-919.314598
3311.070342,11843.295072,-9622.677246,0.000000
3311.070669,11325.150913,-8882.471304,1455.581446
3311.070997,9548.656652,-9400.615463,689.485948
3311.071324,8290.306550,-9474.636058,612.876398
3311.071652,7179.997637,-8290.306550,-842.705048
3311.071979,6957.935855,-7476.080014,-1532.190996
3311.072307,8882.471304,-9178.553681,-995.924147
3311.072635,11547.212695,-9400.615463,-612.876398
3311.072962,11473.192101,-10066.800811,1762.019645
3311.073290,10732.986159,-10510.924376,2068.457845
3311.073617,11029.068536,-8068.244768,459.657299
3311.073945,10732.986159,-8068.244768,-612.876398
3311.074273,10214.842000,-11029.068536,-612.876398
3311.074600,12287.418637,-11843.295072,-919.314598
3311.074928,12361.439231,-10214.842000,-536.266849
3311.075255,9104.533087,-11325.150913,306.438199
3311.075583,7846.182985,-11547.212695,842.705048
3311.075910,8438.347739,-11029.068536,-383.047749
3311.076238,7994.224174,-10807.006753,-689.485948
3311.076566,6661.853478,-10436.903782,-1608.800546
3311.076893,7402.059420,-10140.821405,-1302.362347
3311.077221,5921.647536,-9474.636058,1608.800546
3311.077548,4811.338623,-7179.997637,2681.334243
3311.077876,2590.720797,-6217.729913,919.314598
3311.078204,518.144159,-8586.388927,153.219100
3311.078531,2368.659014,-10362.883188,-1225.752797
3311.078859,4811.338623,-10140.821405,-2834.553343
3311.079186,3701.029710,-10584.944971,-1072.533697
3311.079514,4811.338623,-10436.903782,0.000000
3311.079841,5699.585753,-10288.862594,0.000000
3311.080169,4663.297435,-11843.295072,1149.143247
3311.080497,4663.297435,-11399.171507,306.438199
3311.080824,5699.585753,-10584.944971,-459.657299
3311.081152,3775.050304,-9770.718434,1149.143247
3311.081479,2368.659014,-9918.759623,2221.676944
3311.081807,148.041188,-8364.327145,2834.553343
3311.082135,-3404.947333,-7328.038826,3217.601092
3311.082462,-5255.462188,-8068.244768,1302.362347
3311.082790,-6661.853478,-7772.162391,-1532.190996
3311.083117,-6587.832884,-7624.121203,-2451.505594
3311.083445,-6143.709319,-7846.182985,-2374.896044
3311.083772,-4959.379811,-8586.388927,-1838.629195
3311.084100,-4367.215058,-9474.636058,0.000000
3311.084428,-2146.597232,-9548.656652,536.266849
3311.084755,0.000000,-9844.739029,-1072.533697
3311.085083,-666.185348,-10955.047942,76.609550
3311.085410,-518.144159,-11029.068536,-536.266849
3311.085738,0.000000,-12139.377449,-1685.410096
3311.086065,-740.205942,-10436.903782,-1532.190996
3311.086393,0.000000,-9844.739029,0.000000
3311.086721,-666.185348,-10214.842000,306.438199
3311.087048,-1332.370696,-9030.512492,-689.485948
3311.087376,-1110.308913,-8882.471304,-1072.533697
3311.087703,518.144159,-7402.059420,-2604.724693
3311.088031,962.267725,-9918.759623,-612.876398
3311.088359,1776.494261,-10436.903782,689.485948
3311.088686,1924.535449,-9252.574275,-306.438199
3311.089014,1554.432478,-10955.047942,766.095498
3311.089341,1480.411884,-9992.780217,-995.924147
3311.089669,3404.947333,-10807.006753,-2834.553343
3311.089996,1258.350101,-10584.944971,-1149.143247
3311.090324,-370.102971,-10955.047942,-229.828649
3311.090652,-1332.370696,-12213.398043,-766.095498
3311.090979,-1036.288319,-10214.842000,-2987.772442
3311.091307,-444.123565,-7624.121203,-2987.772442
3311.091634,814.226536,-8512.368333,-1685.410096
3311.091962,1406.391290,-10955.047942,1149.143247
3311.092290,2368.659014,-9992.780217,2068.457845
3311.092617,4737.318029,-6883.915261,229.828649
3311.092945,3701.029710,-7550.100608,1378.971896
3311.093272,1998.556043,-9844.739029,2528.115143
3311.093600,1776.494261,-9548.656652,1072.533697
3311.093927,2072.576638,-9474.636058,-1225.752797
3311.094255,2960.823768,-10214.842000,-2374.896044
3311.094583,2590.720797,-12361.439231,-383.047749
3311.094910,2590.720797,-12213.398043,1991.848295
3311.095238,2738.761985,-10732.986159,2374.896044
3311.095565,2294.638420,-10214.842000,995.924147
3311.095893,1036.288319,-8882.471304,0.000000
3311.096221,-740.205942,-8364.327145,1149.143247
3311.096548,-592.164754,-5773.606348,689.485948
3311.096876,0.000000,-6587.832884,1838.629195
3311.097204,0.000000,-6957.935855,2221.676944
3311.097531,-444.123565,-8290.306550,689.485948
3311.097859,-1480.411884,-10658.965565,229.828649
3311.098187,222.061783,-11991.336260,-1302.362347
3311.098515,666.185348,-13915.871710,-1762.019645
3311.098843,1184.329507,-11917.315666,-2681.334243
3311.099171,222.061783,-11547.212695,-995.924147
3311.099499,-888.247130,-11695.253884,842.705048
3311.099827,-888.247130,-9252.574275,689.485948
3311.100154,-2738.761985,-7624.121203,612.876398
3311.100482,-1924.535449,-7624.121203,-1225.752797
3311.100810,-814.226536,-8734.430116,-919.314598
3311.101138,-1628.453072,-8364.327145,-229.828649
3311.101466,-1924.535449,-7402.059420,76.609550
3311.101794,-2294.638420,-9178.553681,306.438199
3311.102122,-962.267725,-7105.977043,-1685.410096
3311.102450,-1332.370696,-10288.862594,-1915.238745
3311.102778,-3108.864956,-12139.377449,-995.924147
3311.103105,-740.205942,-11547.212695,-2298.286494
3311.103433,-1184.329507,-10362.883188,-2374.896044
3311.103761,-814.226536,-10732.986159,-1608.800546
3311.104089,-1184.329507,-11547.212695,0.000000
3311.104417,0.000000,-10140.821405,0.000000
3311.104745,222.061783,-10510.924376,-536.266849
3311.105073,1036.288319,-9770.718434,-1685.410096
3311.105401,1628.453072,-6883.915261,76.609550
3311.105728,1480.411884,-8956.491898,2451.505594
3311.106056,1110.308913,-8512.368333,2374.896044
3311.106384,1924.535449,-8586.388927,229.828649
3311.106712,814.226536,-8734.430116,-1378.971896
3311.107040,1184.329507,-10214.842000,0.000000
3311.107368,1258.350101,-10807.006753,0.000000
3311.107696,962.267725,-10436.903782,229.828649
3311.108024,1184.329507,-12953.603985,-383.047749
3311.108351,3108.864956,-11325.150913,-2451.505594
3311.108679,1406.391290,-10362.883188,-1455.581446
3311.109007,-1258.350101,-9844.739029,1532.190996
3311.109335,296.082377,-7624.121203,0.000000
3311.109663,518.144159,-8290.306550,-306.438199
3311.109991,1110.308913,-7772.162391,0.000000
3311.110319,1480.411884,-8882.471304,1072.533697
3311.110647,962.267725,-9030.512492,1532.190996
3311.110974,888.247130,-8734.430116,0.000000
3311.111302,2812.782580,-10140.821405,-1532.190996
3311.111630,4663.297435,-9474.636058,-1608.800546
3311.111958,2516.700203,-11621.233289,2145.067394
3311.112286,1776.494261,-11473.192101,2834.553343
3311.112614,3478.967927,-10584.944971,-919.314598
3311.112942,1406.391290,-11917.315666,-1915.238745
3311.113270,-1036.288319,-11325.150913,-1149.143247
3311.113597,-2294.638420,-8808.450710,-919.314598
3311.113925,-2072.576638,-7698.141797,-536.266849
3311.114253,-1184.329507,-8586.388927,-229.828649
3311.114581,-296.082377,-8438.347739,0.000000
3311.114909,888.247130,-6661.853478,842.705048
3311.115237,518.144159,-8364.327145,1915.238745
3311.115565,740.205942,-10140.821405,995.924147
3311.115893,-740.205942,-9104.533087,76.609550
3311.116221,-814.226536,-10807.006753,-689.485948
3311.116548,592.164754,-10140.821405,-842.705048
3311.116876,1998.556043,-10510.924376,-612.876398
3311.117204,-592.164754,-10362.883188,919.314598
3311.117532,-1924.535449,-11991.336260,536.266849
3311.117860,-1776.494261,-10955.047942,-1915.238745
3311.118188,-1480.411884,-9474.636058,-3140.991542
3311.118516,-2664.741391,-8512.368333,-1225.752797
3311.118844,-2664.741391,-7994.224174,0.000000
3311.119171,-2072.576638,-8882.471304,2068.457845
3311.119499,-370.102971,-7402.059420,612.876398
3311.119827,-740.205942,-7698.141797,0.000000
3311.120155,-1110.308913,-9178.553681,612.876398
3311.120483,0.000000,-10510.924376,842.705048
3311.120811,2146.597232,-11695.253884,-306.438199
3311.121139,2220.617826,-10658.965565,-1225.752797
3311.121467,-518.144159,-11251.130318,459.657299
3311.121794,-666.185348,-10881.027347,1149.143247
3311.122122,-370.102971,-9474.636058,-689.485948
3311.122450,-2442.679609,-10140.821405,-842.705048
3311.122778,-3701.029710,-9474.636058,-1378.971896
3311.123106,-2664.741391,-7476.080014,-1302.362347
3311.123434,-1628.453072,-7402.059420,-1072.533697
3311.123762,222.061783,-8586.388927,-383.047749
3311.124090,1924.535449,-8586.388927,766.095498
3311.124417,2368.659014,-9474.636058,1302.362347
3311.124745,2886.803174,-10881.027347,1455.581446
3311.125073,3552.988522,-10584.944971,-383.047749
3311.125401,2072.576638,-10881.027347,229.828649
3311.125729,1702.473667,-11621.233289,919.314598
3311.126057,2590.720797,-10362.883188,76.609550
3311.126385,1628.453072,-10288.862594,-919.314598
3311.126713,0.000000,-9992.780217,229.828649
3311.127041,962.267725,-9400.615463,-919.314598
3311.127368,1924.535449,-8068.244768,-1762.019645
3311.127696,1998.556043,-9252.574275,-1072.533697
3311.128024,2072.576638,-11325.150913,1915.238745
3311.128352,2146.597232,-9622.677246,1378.971896
3311.128680,1776.494261,-8216.285956,0.000000
3311.129008,444.123565,-8734.430116,-612.876398
3311.129336,1480.411884,-10066.800811,-612.876398
3311.129664,296.082377,-10881.027347,766.095498
3311.129991,-222.061783,-9918.759623,766.095498
3311.130319,-222.061783,-9992.780217,-1072.533697
3311.130647,-1258.350101,-10214.842000,-2987.772442
3311.130975,-444.123565,-10436.903782,-2374.896044
3311.131303,2294.638420,-9770.718434,-1991.848295
3311.131631,1406.391290,-10066.800811,1072.533697
3311.131959,0.000000,-10881.027347,4366.744339
3311.132287,1554.432478,-7772.162391,2451.505594
3311.132614,2368.659014,-6809.894666,76.609550
3311.132942,222.061783,-9918.759623,1302.362347
3311.133270,-1554.432478,-9400.615463,1225.752797
3311.133598,-2072.576638,-7402.059420,-612.876398
3311.133926,-1850.514855,-7624.121203,-2298.286494
3311.134254,-1628.453072,-10140.821405,-1225.752797
3311.134582,-1554.432478,-10066.800811,919.314598
3311.134910,-592.164754,-9696.697840,1838.629195
3311.135237,0.000000,-10214.842000,-229.828649
3311.135565,296.082377,-9992.780217,-2374.896044
3311.135893,-1628.453072,-10658.965565,-842.705048
3311.136221,-1850.514855,-8882.471304,766.095498
3311.136549,1110.308913,-8882.471304,612.876398
3311.136877,2442.679609,-8512.368333,919.314598
3311.137205,888.247130,-7698.141797,2068.457845
3311.137533,-2072.576638,-9992.780217,1225.752797
3311.137860,-2812.782580,-10362.883188,-1225.752797
3311.138188,-2146.597232,-10436.903782,-2834.553343
3311.138516,-1924.535449,-10584.944971,-3447.429741
3311.138844,-1406.391290,-10955.047942,-2221.676944
3311.139172,-666.185348,-12361.439231,153.219100
3311.139500,1406.391290,-11991.336260,-383.047749
3311.139828,2442.679609,-11325.150913,-689.485948
3311.140156,2294.638420,-9030.512492,-689.485948
3311.140484,1924.535449,-8956.491898,536.266849
3311.140811,962.267725,-9104.533087,1685.410096
3311.141139,592.164754,-8068.244768,842.705048
3311.141467,-296.082377,-9030.512492,1072.533697
3311.141795,-222.061783,-8216.285956,153.219100
3311.142123,-518.144159,-8660.409521,0.000000
3311.142451,-1924.535449,-9696.697840,459.657299
3311.142779,-1776.494261,-10807.006753,-1762.019645
3311.143107,148.041188,-10214.842000,-3677.258390
3311.143434,1924.535449,-8956.491898,-3447.429741
3311.143762,2516.700203,-9178.553681,76.609550
3311.144090,3034.844362,-8956.491898,3064.381992
3311.144418,2812.782580,-9548.656652,3370.820191
3311.144746,2442.679609,-10362.883188,1378.971896
3311.145074,3034.844362,-9400.615463,-1532.190996
3311.145402,1036.288319,-9252.574275,-536.266849
3311.145730,888.247130,-9992.780217,76.609550
3311.146057,1628.453072,-9696.697840,-306.438199
3311.146385,2146.597232,-9696.697840,-1838.629195
3311.146713,888.247130,-8882.471304,-1532.190996
3311.147041,888.247130,-9474.636058,229.828649
3311.147369,1332.370696,-9326.594869,536.266849
3311.147697,1924.535449,-11103.089130,1149.143247
3311.148025,3182.885551,-12657.521608,306.438199
3311.148353,2294.638420,-9992.780217,-842.705048
3311.148680,0.000000,-9992.780217,-919.314598
3311.149008,-962.267725,-9770.718434,-842.705048
3311.149336,-1258.350101,-10066.800811,-995.924147
3311.149664,-666.185348,-9326.594869,-1838.629195
3311.149992,-1480.411884,-8956.491898,-459.657299
3311.150320,-1850.514855,-9400.615463,-153.219100
3311.150648,-2516.700203,-9104.533087,-536.266849
3311.150976,-1924.535449,-9770.718434,-919.314598
3311.151303,148.041188,-9918.759623,-1685.410096
3311.151631,814.226536,-9622.677246,-383.047749
3311.151959,222.061783,-10510.924376,2451.505594
3311.152287,592.164754,-9474.636058,2987.772442
3311.152615,1332.370696,-8660.409521,1378.971896
3311.152943,1110.308913,-9252.574275,-842.705048
3311.153271,-2220.617826,-9844.739029,-229.828649
3311.153599,-3701.029710,-8290.306550,-1225.752797
3311.153927,-3478.967927,-7772.162391,-2757.943793
3311.154254,-1850.514855,-9622.677246,-1838.629195
3311.154582,-888.247130,-9474.636058,-459.657299
3311.154910,148.041188,-9918.759623,1455.581446
3311.155238,814.226536,-9770.718434,1991.848295
3311.155566,2072.576638,-10732.986159,842.705048
3311.155894,1554.432478,-9474.636058,-459.657299
3311.156222,1406.391290,-9030.512492,0.000000
3311.156550,1776.494261,-8512.368333,459.657299
3311.156877,2516.700203,-7550.100608,919.314598
3311.157205,148.041188,-9104.533087,2451.505594
3311.157533,-1554.432478,-11399.171507,1378.971896
3311.157861,-962.267725,-10214.842000,-2374.896044
3311.158189,-444.123565,-10807.006753,-4213.525239
3311.158517,-592.164754,-10955.047942,-2068.457845
3311.158845,148.041188,-11399.171507,-383.047749
3311.159173,1480.411884,-10658.965565,383.047749
3311.159500,2664.741391,-9178.553681,0.000000
3311.159828,2368.659014,-8808.450710,0.000000
3311.160156,2294.638420,-7846.182985,842.705048
3311.160484,2294.638420,-9844.739029,1991.848295
3311.160812,1554.432478,-10732.986159,2221.676944
3311.161140,1036.288319,-8808.450710,-536.266849
3311.161468,-962.267725,-10584.944971,-536.266849
3311.161796,-962.267725,-11029.068536,-612.876398
3311.162123,-148.041188,-9770.718434,-2145.067394
3311.162451,-370.102971,-10140.821405,-2145.067394
3311.162779,-148.041188,-10066.800811,-1991.848295
3311.163107,-148.041188,-8956.491898,-1149.143247
3311.163435,0.000000,-7846.182985,-153.219100
3311.163763,296.082377,-7994.224174,1225.752797
3311.164091,1110.308913,-7698.141797,995.924147
3311.164419,1850.514855,-9474.636058,919.314598
3311.164746,1554.432478,-11399.171507,383.047749
3311.165074,1924.535449,-10066.800811,229.828649
3311.165402,2442.679609,-9770.718434,-1072.533697
3311.165730,2072.576638,-10732.986159,-1225.752797
3311.166058,2220.617826,-11029.068536,-153.219100
3311.166386,1332.370696,-9474.636058,-229.828649
3311.166714,0.000000,-9104.533087,153.219100
3311.167042,-518.144159,-8956.491898,689.485948
3311.167370,74.020594,-7328.038826,-612.876398
3311.167697,222.061783,-9400.615463,766.095498
3311.168025,444.123565,-11843.295072,1072.533697
3311.168353,296.082377,-11547.212695,-536.266849
3311.168681,0.000000,-9548.656652,-2374.896044
3311.169009,-1036.288319,-8586.388927,-2911.162892
3311.169337,-592.164754,-10732.986159,-1302.362347
3311.169665,-1702.473667,-8956.491898,1072.533697
3311.169993,-3034.844362,-8512.368333,1532.190996
3311.170320,-2738.761985,-10658.965565,-536.266849
3311.170648,-1258.350101,-10658.965565,-2987.772442
3311.170976,-814.226536,-10140.821405,-2068.457845
3311.171304,814.226536,-9622.677246,-536.266849
3311.171632,1332.370696,-10510.924376,689.485948
3311.171960,1258.350101,-9696.697840,2681.334243
3311.172288,1850.514855,-7920.203579,1225.752797
3311.172616,1554.432478,-9252.574275,76.609550
3311.172943,0.000000,-9548.656652,689.485948
3311.173271,-2146.597232,-8290.306550,919.314598
3311.173599,-2220.617826,-7476.080014,-766.095498
3311.173927,-1702.473667,-8364.327145,-1149.143247
3311.174255,-1998.556043,-10584.944971,306.438199
3311.174583,888.247130,-10288.862594,536.266849
3311.174911,2368.659014,-9400.615463,536.266849
3311.175239,2886.803174,-9918.759623,-612.876398
3311.175566,1332.370696,-11251.130318,0.000000
3311.175894,-888.247130,-9696.697840,766.095498
3311.176222,-962.267725,-8068.244768,153.219100
3311.176550,74.020594,-8364.327145,-229.828649
3311.176878,2072.576638,-7254.018232,0.000000
3311.177206,592.164754,-9992.780217,1072.533697
3311.177534,-370.102971,-11843.295072,842.705048
3311.177862,1110.308913,-11843.295072,-1915.238745
3311.178189,2072.576638,-10807.006753,-3217.601092
3311.178517,1628.453072,-10362.883188,-2221.676944
3311.178845,0.000000,-9622.677246,689.485948
3311.179173,740.205942,-9030.512492,306.438199
3311.179501,1702.473667,-9696.697840,-612.876398
3311.179829,1554.432478,-11695.253884,-229.828649
3311.180157,1332.370696,-9474.636058,0.000000
3311.180485,962.267725,-9548.656652,766.095498
3311.180813,-740.205942,-9992.780217,0.000000
3311.181140,-666.185348,-9844.739029,-1838.629195
3311.181468,222.061783,-9622.677246,-1915.238745
3311.181796,1628.453072,-8512.368333,-1532.190996
3311.182124,1036.288319,-10658.965565,1455.581446
3311.182452,222.061783,-10288.862594,2451.505594
3311.182780,296.082377,-8512.368333,842.705048
3311.183108,0.000000,-8734.430116,-919.314598
3311.183436,-1480.411884,-8660.409521,-1762.019645
3311.183763,-2960.823768,-9918.759623,-612.876398
3311.184091,-2960.823768,-8956.491898,0.000000
3311.184419,0.000000,-8364.327145,-1762.019645
3311.184747,222.061783,-8734.430116,-1378.971896
3311.185075,222.061783,-10510.924376,1149.143247
3311.185403,1110.308913,-9992.780217,2298.286494
3311.185731,962.267725,-9030.512492,459.657299
3311.186059,-222.061783,-9770.718434,76.609550
3311.186386,-370.102971,-9326.594869,-229.828649
3311.186714,-518.144159,-9252.574275,0.000000
3311.187042,-962.267725,-9548.656652,306.438199
3311.187370,-222.061783,-10288.862594,0.000000
3311.187698,1036.288319,-10436.903782,-612.876398
3311.188026,888.247130,-10066.800811,-995.924147
3311.188354,740.205942,-9696.697840,-1455.581446
3311.188682,-592.164754,-9326.594869,0.000000
3311.189009,222.061783,-10288.862594,76.609550
3311.189337,1406.391290,-11547.212695,-229.828649
3311.189665,148.041188,-10510.924376,0.000000
3311.189993,-1850.514855,-10288.862594,-229.828649
3311.190321,-2738.761985,-9548.656652,-1838.629195
3311.190649,-1776.494261,-9844.739029,-3370.820191
3311.190977,148.041188,-9770.718434,-3600.648841
3311.191305,-592.164754,-9474.636058,-766.095498
3311.191633,-518.144159,-10510.924376,1915.238745
3311.191960,888.247130,-8956.491898,689.485948
3311.192288,1702.473667,-9030.512492,383.047749
3311.192616,814.226536,-9844.739029,612.876398
3311.192944,592.164754,-9252.574275,153.219100
3311.193272,888.247130,-9474.636058,-229.828649
3311.193600,370.102971,-9252.574275,-383.047749
3311.193928,370.102971,-9844.739029,536.266849
3311.194256,1998.556043,-9622.677246,76.609550
3311.194583,1702.473667,-9104.533087,229.828649
3311.194911,962.267725,-10436.903782,-689.485948
3311.195239,-222.061783,-8882.471304,-1072.533697
3311.195567,-222.061783,-8956.491898,-536.266849
3311.195895,518.144159,-8216.285956,-689.485948
3311.196223,1406.391290,-8734.430116,1072.533697
3311.196551,1036.288319,-8438.347739,2451.505594
3311.196879,1110.308913,-10362.883188,2145.067394
3311.197206,962.267725,-12139.377449,0.000000
3311.197534,1924.535449,-9326.594869,-1915.238745
3311.197862,2294.638420,-9622.677246,-919.314598
3311.198190,1110.308913,-10658.965565,0.000000
3311.198518,0.000000,-10658.965565,612.876398
3311.198846,-296.082377,-8586.388927,-229.828649
3311.199174,1110.308913,-8438.347739,-1915.238745
3311.199501,888.247130,-11029.068536,-459.657299
3311.199829,444.123565,-11769.274478,995.924147
3311.200157,518.144159,-9400.615463,842.705048
3311.200485,1480.411884,-9030.512492,-1532.190996
3311.200812,0.000000,-9548.656652,-1991.848295
3311.201140,-888.247130,-10362.883188,0.000000
3311.201468,148.041188,-9252.574275,383.047749
3311.201796,0.000000,-10288.862594,153.219100
3311.202124,222.061783,-11029.068536,-459.657299
3311.202451,74.020594,-8882.471304,-1915.238745
3311.202779,-888.247130,-9400.615463,229.828649
3311.203107,-1258.350101,-10066.800811,1532.190996
3311.203435,740.205942,-10362.883188,0.000000
3311.203762,0.000000,-9622.677246,-1302.362347
3311.204090,-1184.329507,-9474.636058,-1378.971896
3311.204418,-1184.329507,-8882.471304,-689.485948
3311.204746,-962.267725,-7994.224174,919.314598
3311.205074,-518.144159,-9104.533087,1225.752797
3311.205401,444.123565,-9326.594869,-612.876398
3311.205729,296.082377,-9474.636058,0.000000
3311.206057,0.000000,-9474.636058,459.657299
3311.206385,444.123565,-10436.903782,-459.657299
3311.206713,296.082377,-10140.821405,-383.047749
3311.207040,0.000000,-9104.533087,306.438199
3311.207368,814.226536,-9474.636058,76.609550
3311.207696,592.164754,-9844.739029,-536.266849
3311.208024,-444.123565,-9474.636058,0.000000
3311.208351,-370.102971,-8808.450710,153.219100
3311.208679,814.226536,-8734.430116,153.219100
3311.209007,1110.308913,-10881.027347,766.095498
3311.209335,-518.144159,-10732.986159,1149.143247
3311.209663,-740.205942,-10066.800811,-1072.533697
3311.209990,-592.164754,-10214.842000,-2757.943793
3311.210318,0.000000,-9474.636058,-3064.381992
3311.210646,1628.453072,-9622.677246,-1685.410096
3311.210974,222.061783,-10584.944971,1378.971896
3311.211302,-666.185348,-10881.027347,2451.505594
3311.211629,1850.514855,-9844.739029,0.000000
3311.211957,1776.494261,-8882.471304,-1762.019645
3311.212285,148.041188,-9400.615463,0.000000
3311.212613,-148.041188,-8808.450710,-153.219100
3311.212940,1036.288319,-9030.512492,0.000000
3311.213268,1480.411884,-10288.862594,153.219100
3311.213596,1776.494261,-9326.594869,766.095498
3311.213924,1924.535449,-8956.491898,1302.362347
3311.214252,2072.576638,-10140.821405,689.485948
3311.214579,888.247130,-11325.150913,76.609550
3311.214907,222.061783,-9474.636058,-1072.533697
3311.215235,0.000000,-7772.162391,-842.705048
3311.215563,222.061783,-10140.821405,1532.190996
3311.215891,1184.329507,-9696.697840,1302.362347
3311.216218,1924.535449,-7846.182985,919.314598
3311.216546,740.205942,-8512.368333,383.047749
3311.216874,-1184.329507,-11695.253884,-306.438199
3311.217202,-2664.741391,-10066.800811,-459.657299
3311.217529,0.000000,-8512.368333,-1608.800546
3311.217857,814.226536,-9474.636058,-1149.143247
3311.218185,444.123565,-9770.718434,459.657299
3311.218513,0.000000,-9622.677246,1915.238745
3311.218841,370.102971,-9992.780217,1072.533697
3311.219168,592.164754,-9918.759623,-995.924147
3311.219496,74.020594,-10436.903782,-1532.190996
3311.219824,-740.205942,-8586.388927,-536.266849
3311.220152,148.041188,-9104.533087,229.828649
3311.220480,-296.082377,-10436.903782,-306.438199
3311.220807,-1110.308913,-11029.068536,-459.657299
3311.221135,-370.102971,-10066.800811,-842.705048
3311.221463,1184.329507,-9622.677246,-1608.800546
3311.221791,666.185348,-11547.212695,0.000000
3311.222118,148.041188,-10658.965565,153.219100
3311.222446,888.247130,-8512.368333,-612.876398
3311.222774,740.205942,-8660.409521,-995.924147
3311.223102,592.164754,-8882.471304,0.000000
3311.223430,-962.267725,-9844.739029,1302.362347
3311.223757,-1998.556043,-9104.533087,459.657299
3311.224085,-1184.329507,-9326.594869,-2221.676944
3311.224413,-740.205942,-9474.636058,-2451.505594
3311.224741,-1036.288319,-9178.553681,-536.266849
3311.225068,888.247130,-10214.842000,-383.047749
3311.225396,2368.659014,-10362.883188,-229.828649
3311.225724,2516.700203,-11177.109724,-229.828649
3311.226052,2294.638420,-10807.006753,536.266849
3311.226380,1850.514855,-9696.697840,766.095498
3311.226707,296.082377,-8956.491898,919.314598
3311.227035,0.000000,-8882.471304,689.485948
3311.227363,296.082377,-9104.533087,-536.266849
3311.227691,0.000000,-9104.533087,-1149.143247
3311.228019,0.000000,-9474.636058,-229.828649
3311.228346,148.041188,-9474.636058,-306.438199
3311.228674,1406.391290,-10362.883188,-229.828649
3311.229002,1776.494261,-11103.089130,0.000000
3311.229330,1406.391290,-9622.677246,0.000000
3311.229657,592.164754,-9178.553681,766.095498
3311.229985,-814.226536,-10214.842000,-919.314598
3311.230313,-592.164754,-10362.883188,-1225.752797
3311.230641,370.102971,-9104.533087,-1225.752797
3311.230969,518.144159,-9104.533087,0.000000
3311.231296,-444.123565,-10510.924376,2451.505594
3311.231624,444.123565,-10436.903782,153.219100
3311.231952,1184.329507,-8882.471304,-1608.800546
3311.232280,1184.329507,-10658.965565,-1608.800546
3311.232608,296.082377,-9770.718434,-689.485948
3311.232935,370.102971,-9252.574275,306.438199
3311.233263,0.000000,-8808.450710,919.314598
3311.233591,370.102971,-9400.615463,1838.629195
3311.233919,814.226536,-9622.677246,1532.190996
3311.234246,666.185348,-10214.842000,612.876398
3311.234574,518.144159,-10288.862594,-689.485948
3311.234902,-592.164754,-8586.388927,-1149.143247
3311.235230,0.000000,-10658.965565,-1378.971896
3311.235558,592.164754,-11029.068536,-842.705048
3311.235885,666.185348,-8586.388927,76.609550
3311.236213,0.000000,-6587.832884,76.609550
3311.236541,-592.164754,-9844.739029,1149.143247
3311.236869,-1776.494261,-11103.089130,689.485948
3311.237197,-444.123565,-9474.636058,-1302.362347
3311.237524,370.102971,-9992.780217,-1455.581446
3311.237852,888.247130,-10436.903782,-689.485948
3311.238180,-296.082377,-8586.388927,689.485948
3311.238508,888.247130,-8882.471304,1991.848295
3311.238835,1036.288319,-9178.553681,153.219100
3311.239163,518.144159,-9770.718434,-306.438199
3311.239491,-962.267725,-8660.409521,-1072.533697
3311.239819,-1480.411884,-9030.512492,-1072.533697
3311.240147,-592.164754,-10436.903782,-459.657299
3311.240474,148.041188,-10510.924376,-995.924147
3311.240802,888.247130,-11621.233289,229.828649
3311.241130,666.185348,-10214.842000,0.000000
3311.241458,1332.370696,-8290.306550,-1762.019645
3311.241786,888.247130,-9548.656652,-842.705048
3311.242113,0.000000,-9918.759623,459.657299
3311.242441,888.247130,-9326.594869,842.705048
3311.242769,1998.556043,-7846.182985,0.000000
3311.243097,1628.453072,-9696.697840,-612.876398
3311.243424,888.247130,-10732.986159,76.609550
3311.243752,-444.123565,-10584.944971,1532.190996
3311.244080,-518.144159,-9696.697840,0.000000
3311.244408,74.020594,-9474.636058,-2221.676944
3311.244736,518.144159,-10881.027347,-2145.067394
3311.245063,1110.308913,-9844.739029,-1225.752797
3311.245391,1406.391290,-8586.388927,2068.457845
3311.245719,148.041188,-7772.162391,1915.238745
3311.246047,-296.082377,-8586.388927,229.828649
3311.246374,0.000000,-10066.800811,0.000000
3311.246702,-148.041188,-9474.636058,-459.657299
3311.247030,148.041188,-9992.780217,-229.828649
3311.247358,1036.288319,-11325.150913,-689.485948
3311.247686,518.144159,-10955.047942,-689.485948
3311.248013,74.020594,-9696.697840,153.219100
3311.248341,1184.329507,-9030.512492,0.000000
3311.248669,1110.308913,-9326.594869,536.266849
3311.248997,0.000000,-9326.594869,1685.410096
3311.249325,-1258.350101,-9252.574275,536.266849
3311.249652,-740.205942,-9474.636058,-612.876398
3311.249980,0.000000,-9992.780217,-1455.581446
3311.250308,962.267725,-10288.862594,-995.924147
3311.250636,-296.082377,-9696.697840,-919.314598
3311.250963,-518.144159,-11103.089130,919.314598
3311.251291,1406.391290,-11103.089130,-383.047749
3311.251619,1776.494261,-9030.512492,-1532.190996
3311.251947,0.000000,-8882.471304,-306.438199
3311.252275,-2368.659014,-8438.347739,0.000000
3311.252602,-2294.638420,-8438.347739,612.876398
3311.252930,-666.185348,-7920.203579,-229.828649
3311.253258,592.164754,-9178.553681,-229.828649
3311.253586,888.247130,-9992.780217,612.876398
3311.253914,962.267725,-9474.636058,612.876398
3311.254241,1480.411884,-10881.027347,536.266849
3311.254569,1924.535449,-10214.842000,-919.314598
3311.254897,666.185348,-8586.388927,-995.924147
3311.255225,-148.041188,-9992.780217,-229.828649
3311.255552,-370.102971,-9918.759623,689.485948
3311.255880,888.247130,-8956.491898,1072.533697
3311.256208,296.082377,-7254.018232,689.485948
3311.256536,-1184.329507,-10436.903782,229.828649
3311.256864,-1924.535449,-12139.377449,-842.705048
3311.257191,-666.185348,-9548.656652,-1608.800546
3311.257519,666.185348,-8956.491898,-2374.896044
3311.257847,1258.350101,-8956.491898,-1608.800546
3311.258175,444.123565,-9844.739029,995.924147
3311.258503,1036.288319,-9770.718434,2298.286494
3311.258830,2072.576638,-9844.739029,1225.752797
3311.259158,740.205942,-10658.965565,-229.828649
3311.259486,370.102971,-8808.450710,-842.705048
3311.259814,666.185348,-10066.800811,-689.485948
3311.260141,0.000000,-10732.986159,0.000000
3311.260469,0.000000,-10658.965565,76.609550
3311.260797,814.226536,-9992.780217,-612.876398
3311.261125,1480.411884,-8808.450710,-1225.752797
3311.261453,370.102971,-9844.739029,-153.219100
3311.261780,0.000000,-9548.656652,1302.362347
3311.262108,-370.102971,-8808.450710,0.000000
3311.262436,222.061783,-8216.285956,-1225.752797
3311.262764,1406.391290,-8438.347739,-1225.752797
3311.263092,1184.329507,-10510.924376,766.095498
3311.263419,740.205942,-10955.047942,2145.067394
3311.263747,888.247130,-10658.965565,1378.971896
3311.264075,740.205942,-9400.615463,-2528.115143
3311.264403,296.082377,-9992.780217,-2451.505594
3311.264730,-592.164754,-10362.883188,-459.657299
3311.265058,-370.102971,-9178.553681,0.000000
3311.265386,-1184.329507,-8882.471304,383.047749
3311.265714,0.000000,-9030.512492,-229.828649
3311.266042,74.020594,-9178.553681,-1072.533697
3311.266369,-222.061783,-10140.821405,1149.143247
3311.266697,0.000000,-9548.656652,995.924147
3311.267025,1480.411884,-11399.171507,-306.438199
3311.267353,1850.514855,-10436.903782,-1608.800546
3311.267680,962.267725,-10140.821405,-842.705048
3311.268008,222.061783,-9252.574275,995.924147
3311.268336,666.185348,-8364.327145,1149.143247
3311.268664,444.123565,-10066.800811,612.876398
3311.268992,-592.164754,-10362.883188,306.438199
3311.269319,-2072.576638,-9104.533087,76.609550
3311.269647,-2368.659014,-9400.615463,-1838.629195
3311.269975,-1554.432478,-11473.192101,-2451.505594
3311.270303,592.164754,-10288.862594,-2528.115143
3311.270631,2146.597232,-9252.574275,-1762.019645
3311.270958,666.185348,-11251.130318,1378.971896
3311.271286,444.123565,-10436.903782,2681.334243
3311.271614,888.247130,-8734.430116,1072.533697
3311.271942,0.000000,-7920.203579,-536.266849
3311.272269,-2072.576638,-8512.368333,-1072.533697
3311.272597,-1480.411884,-9104.533087,-1225.752797
3311.272925,-1628.453072,-7031.956449,-919.314598
3311.273253,1036.288319,-9400.615463,-1225.752797
3311.273581,2368.659014,-10732.986159,229.828649
3311.273908,3034.844362,-10584.944971,1302.362347
3311.274236,2368.659014,-10658.965565,1608.800546
3311.274564,1554.432478,-9992.780217,383.047749
3311.274892,814.226536,-8364.327145,-1225.752797
3311.275220,0.000000,-7846.182985,-612.876398
3311.275547,222.061783,-8660.409521,1072.533697
3311.275875,1258.350101,-8068.244768,2451.505594
3311.276203,814.226536,-7698.141797,1149.143247
3311.276531,-444.123565,-11251.130318,-383.047749
3311.276858,-1332.370696,-11917.315666,-2451.505594
3311.277186,0.000000,-10807.006753,-3064.381992
3311.277514,1628.453072,-10214.842000,-1608.800546
3311.277842,1036.288319,-9400.615463,0.000000
3311.278170,888.247130,-10140.821405,2374.896044
3311.278497,2368.659014,-9770.718434,2451.505594
3311.278825,2368.659014,-9918.759623,1072.533697
3311.279153,592.164754,-10066.800811,-153.219100
3311.279481,-1998.556043,-8142.265362,-919.314598
3311.279809,-1110.308913,-8068.244768,-306.438199
3311.280136,222.061783,-9844.739029,-1225.752797
3311.280464,814.226536,-11325.150913,-842.705048
3311.280792,-222.061783,-10807.006753,842.705048
3311.281120,0.000000,-9622.677246,76.609550
3311.281447,444.123565,-11103.089130,-995.924147
3311.281775,-148.041188,-10214.842000,-689.485948
3311.282103,-1406.391290,-8290.306550,-689.485948
3311.282431,0.000000,-8068.244768,-229.828649
3311.282759,1998.556043,-9844.739029,-383.047749
3311.283086,3034.844362,-9548.656652,536.266849
3311.283414,1184.329507,-8216.285956,1915.238745
3311.283742,-444.123565,-10140.821405,2145.067394
3311.284070,-370.102971,-10140.821405,-919.314598
3311.284398,-1110.308913,-10066.800811,-2374.896044
3311.284725,-1998.556043,-8808.450710,-2987.772442
3311.285053,-962.267725,-7105.977043,-1608.800546
3311.285381,0.000000,-9252.574275,536.266849
3311.285709,666.185348,-9992.780217,842.705048
3311.286036,1258.350101,-9918.759623,612.876398
3311.286364,1702.473667,-9400.615463,536.266849
3311.286692,1184.329507,-9844.739029,689.485948
3311.287020,-148.041188,-10510.924376,0.000000
3311.287348,-666.185348,-9548.656652,-536.266849
3311.287675,-1184.329507,-9178.553681,-459.657299
3311.288003,-592.164754,-9474.636058,-536.266849
3311.288331,740.205942,-10362.883188,-766.095498
3311.288659,1554.432478,-10362.883188,-153.219100
3311.288986,74.020594,-9548.656652,536.266849
3311.289314,-296.082377,-9918.759623,229.828649
3311.289642,-296.082377,-10288.862594,-1915.238745
3311.289970,-518.144159,-10658.965565,-2374.896044
3311.290298,0.000000,-9400.615463,-1991.848295
3311.290625,-148.041188,-8882.471304,-612.876398
3311.290953,740.205942,-11029.068536,1838.629195
3311.291281,2368.659014,-11029.068536,1532.190996
3311.291609,1924.535449,-10436.903782,229.828649
3311.291937,518.144159,-9474.636058,-1608.800546
3311.292264,-1702.473667,-8734.430116,-2068.457845
3311.292592,-666.185348,-8290.306550,-2528.115143
3311.292920,666.185348,-7624.121203,-1915.238745
3311.293248,1110.308913,-9400.615463,1762.019645
3311.293575,1480.411884,-9178.553681,3064.381992
3311.293903,1998.556043,-10436.903782,2757.943793
3311.294231,2368.659014,-10584.944971,842.705048
3311.294559,1406.391290,-8956.491898,-1225.752797
3311.294887,-814.226536,-8734.430116,-1378.971896
3311.295214,-1924.535449,-9178.553681,-842.705048
3311.295542,0.000000,-8290.306550,-766.095498
3311.295870,1776.494261,-7920.203579,0.000000
3311.296198,2664.741391,-9474.636058,1302.362347
3311.296526,814.226536,-11547.212695,1838.629195
3311.296853,-1776.494261,-10658.965565,-229.828649
3311.297181,-1702.473667,-9992.780217,-3064.381992
3311.297509,0.000000,-10362.883188,-3753.867940
3311.297836,0.000000,-9548.656652,-766.095498
3311.298164,592.164754,-8882.471304,2451.505594
3311.298492,2146.597232,-9992.780217,1762.019645
3311.298819,3997.112087,-11251.130318,76.609550
3311.299147,2368.659014,-9770.718434,-1608.800546
3311.299475,-148.041188,-9696.697840,-766.095498
3311.299803,-1110.308913,-9770.718434,-306.438199
3311.300130,-444.123565,-9770.718434,-1149.143247
3311.300458,148.041188,-10436.903782,-995.924147
3311.300786,666.185348,-10436.903782,229.828649
3311.301113,962.267725,-11547.212695,536.266849
3311.301441,1036.288319,-10436.903782,306.438199
3311.301769,-296.082377,-9474.636058,-536.266849
3311.302096,0.000000,-8586.388927,-1991.848295
3311.302424,74.020594,-8364.327145,-1915.238745
3311.302752,222.061783,-9326.594869,306.438199
3311.303079,-370.102971,-7994.224174,2451.505594
3311.303407,-2146.597232,-8438.347739,2451.505594
3311.303735,-888.247130,-9548.656652,536.266849
3311.304063,-296.082377,-9770.718434,-1455.581446
3311.304390,-1480.411884,-10881.027347,-229.828649
3311.304718,-1554.432478,-9104.533087,-842.705048
3311.305046,148.041188,-8734.430116,-1149.143247
3311.305373,1184.329507,-9770.718434,-689.485948
3311.305701,740.205942,-9252.574275,689.485948
3311.306029,148.041188,-9474.636058,2145.067394
3311.306356,0.000000,-8438.347739,1302.362347
3311.306684,370.102971,-9844.739029,-383.047749
3311.307012,888.247130,-11251.130318,-1149.143247
3311.307339,0.000000,-10732.986159,0.000000
3311.307667,296.082377,-9992.780217,229.828649
3311.307995,0.000000,-8586.388927,-919.314598
3311.308323,888.247130,-9770.718434,-766.095498
3311.308650,1924.535449,-10140.821405,-536.266849
3311.308978,1776.494261,-9548.656652,842.705048
3311.309306,1036.288319,-8734.430116,1149.143247
3311.309633,0.000000,-10066.800811,842.705048
3311.309961,-518.144159,-12435.459826,-1302.362347
3311.310289,0.000000,-10362.883188,-3140.991542
3311.310616,444.123565,-9400.615463,-2604.724693
3311.310944,888.247130,-10362.883188,-842.705048
3311.311272,1702.473667,-11769.274478,1378.971896
3311.311599,3256.906145,-11103.089130,1072.533697
3311.311927,3034.844362,-8808.450710,-229.828649
3311.312255,518.144159,-8660.409521,-842.705048
3311.312583,-1184.329507,-7698.141797,-536.266849
3311.312910,-1332.370696,-7254.018232,-612.876398
3311.313238,-296.082377,-7920.203579,0.000000
3311.313566,222.061783,-7994.224174,766.095498
3311.313893,962.267725,-10362.883188,1991.848295
3311.314221,2072.576638,-10955.047942,766.095498
3311.314549,2812.782580,-11103.089130,-689.485948
3311.314876,1554.432478,-9770.718434,-1302.362347
3311.315204,222.061783,-9400.615463,-919.314598
3311.315532,0.000000,-8808.450710,0.000000
3311.315859,1036.288319,-8068.244768,689.485948
3311.316187,1036.288319,-7772.162391,2298.286494
3311.316515,-370.102971,-8882.471304,1302.362347
3311.316843,-3256.906145,-10362.883188,-459.657299
3311.317170,-2368.659014,-11325.150913,-2221.676944
3311.317498,-1554.432478,-10732.986159,-3830.477490
3311.317826,-666.185348,-9622.677246,-2757.943793
3311.318153,444.123565,-9622.677246,-612.876398
3311.318481,1776.494261,-10362.883188,1378.971896
3311.318809,2812.782580,-10436.903782,1225.752797
3311.319136,888.247130,-9992.780217,995.924147
3311.319464,-1406.391290,-11029.068536,153.219100
3311.319792,-962.267725,-9548.656652,-1302.362347
3311.320119,-592.164754,-9326.594869,-1072.533697
3311.320447,-962.267725,-10362.883188,-1072.533697
3311.320775,-1628.453072,-11621.233289,0.000000
3311.321103,1258.350101,-12213.398043,-842.705048
3311.321430,2146.597232,-9400.615463,-2221.676944
3311.321758,888.247130,-10288.862594,153.219100
3311.322086,148.041188,-9400.615463,-229.828649
3311.322413,0.000000,-8734.430116,76.609550
3311.322741,444.123565,-9030.512492,536.266849
3311.323069,222.061783,-8512.368333,612.876398
3311.323396,222.061783,-9622.677246,1762.019645
3311.323724,-370.102971,-9622.677246,536.266849
3311.324052,0.000000,-10658.965565,-1685.410096
3311.324379,0.000000,-9474.636058,-2604.724693
3311.324707,0.000000,-7772.162391,-1991.848295
3311.325035,518.144159,-8438.347739,0.000000
3311.325363,814.226536,-9104.533087,995.924147
3311.325690,740.205942,-8882.471304,1685.410096
3311.326018,1628.453072,-9474.636058,1225.752797
3311.326346,666.185348,-9252.574275,919.314598
3311.326673,222.061783,-9992.780217,306.438199
3311.327001,0.000000,-9844.739029,-153.219100
3311.327329,592.164754,-9844.739029,-766.095498
3311.327656,962.267725,-9104.533087,-1302.362347
3311.327984,666.185348,-8660.409521,-689.485948
3311.328312,518.144159,-9548.656652,0.000000
3311.328639,0.000000,-9844.739029,-153.219100
3311.328967,-222.061783,-10881.027347,919.314598
3311.329295,0.000000,-10510.924376,-612.876398
3311.329623,0.000000,-11843.295072,-1455.581446
3311.329950,888.247130,-11251.130318,-2374.896044
3311.330278,1406.391290,-9696.697840,-2451.505594
3311.330606,1110.308913,-10807.006753,-689.485948
3311.330933,1998.556043,-11325.150913,766.095498
3311.331261,2516.700203,-10066.800811,1838.629195
3311.331589,1998.556043,-8956.491898,1225.752797
3311.331916,0.000000,-8364.327145,-229.828649
3311.332244,-1184.329507,-9548.656652,-306.438199
3311.332572,-444.123565,-8142.265362,-2145.067394
3311.332899,0.000000,-9252.574275,-1455.581446
3311.333227,-1110.308913,-9474.636058,76.609550
3311.333555,74.020594,-9474.636058,612.876398
3311.333883,2664.741391,-10510.924376,229.828649
3311.334210,2516.700203,-10362.883188,306.438199
3311.334538,1184.329507,-9992.780217,1302.362347
3311.334866,-666.185348,-8068.244768,1455.581446
3311.335193,-1554.432478,-7476.080014,76.609550
3311.335521,0.000000,-7772.162391,0.000000
3311.335849,0.000000,-7550.100608,536.266849
3311.336176,-444.123565,-9326.594869,1762.019645
3311.336504,-2590.720797,-10362.883188,459.657299
3311.336832,-2146.597232,-11029.068536,-1991.848295
3311.337159,-296.082377,-10955.047942,-3830.477490
3311.337487,296.082377,-10214.842000,-2145.067394
3311.337815,814.226536,-10140.821405,459.657299
3311.338143,222.061783,-9178.553681,1608.800546
3311.338470,1628.453072,-9770.718434,1608.800546
3311.338798,1776.494261,-9696.697840,-383.047749
3311.339126,-814.226536,-9918.759623,-153.219100
3311.339453,-2072.576638,-9178.553681,-459.657299
3311.339781,-1258.350101,-8808.450710,-1915.238745
3311.340109,518.144159,-10510.924376,-2451.505594
3311.340436,740.205942,-11695.253884,-1915.238745
3311.340764,1406.391290,-11917.315666,76.609550
3311.341092,2220.617826,-10140.821405,0.000000
3311.341419,1332.370696,-10214.842000,-536.266849
3311.341747,1036.288319,-10362.883188,0.000000
3311.342075,888.247130,-9178.553681,459.657299
3311.342403,222.061783,-8734.430116,0.000000
3311.342730,370.102971,-9104.533087,229.828649
3311.343058,-962.267725,-9474.636058,153.219100
3311.343386,148.041188,-10066.800811,0.000000
3311.343713,0.000000,-9696.697840,-766.095498
3311.344041,148.041188,-10066.800811,-1608.800546
3311.344369,-888.247130,-8512.368333,-1762.019645
3311.344696,-222.061783,-9622.677246,0.000000
3311.345024,296.082377,-9474.636058,229.828649
3311.345352,222.061783,-9030.512492,1149.143247
3311.345679,1110.308913,-8956.491898,1302.362347
3311.346007,444.123565,-10510.924376,1149.143247
3311.346335,1850.514855,-10584.944971,306.438199
3311.346663,2664.741391,-9474.636058,-1072.533697
3311.346990,1332.370696,-9400.615463,0.000000
3311.347318,-740.205942,-9548.656652,919.314598
3311.347646,-1184.329507,-7920.203579,-612.876398
3311.347973,-592.164754,-8808.450710,-995.924147
3311.348301,222.061783,-10288.862594,-995.924147
3311.348629,74.020594,-10214.842000,459.657299
3311.348956,1406.391290,-10214.842000,1991.848295
3311.349284,1850.514855,-9918.759623,-383.047749
3311.349612,2220.617826,-10807.006753,-383.047749
3311.349939,1554.432478,-9622.677246,-536.266849
3311.350267,-518.144159,-8290.306550,612.876398
3311.350595,-2072.576638,-9030.512492,383.047749
3311.350923,-3108.864956,-9104.533087,-2221.676944
3311.351250,-1924.535449,-10066.800811,-2068.457845
3311.351578,148.041188,-9918.759623,-1532.190996
3311.351906,518.144159,-9918.759623,-919.314598
3311.352233,592.164754,-12361.439231,229.828649
3311.352561,740.205942,-11769.274478,0.000000
3311.352889,2294.638420,-9622.677246,-1149.143247
3311.353216,1036.288319,-8068.244768,-689.485948
3311.353544,-592.164754,-8660.409521,995.924147
3311.353872,-666.185348,-8956.491898,1225.752797
3311.354200,0.000000,-8882.471304,766.095498
3311.354527,0.000000,-9696.697840,383.047749
3311.354855,-1036.288319,-9252.574275,383.047749
3311.355183,-1258.350101,-9770.718434,536.266849
3311.355510,-1332.370696,-10955.047942,-995.924147
3311.355838,-814.226536,-10732.986159,-1991.848295
3311.356166,0.000000,-9474.636058,-1838.629195
3311.356493,1184.329507,-8068.244768,76.609550
3311.356821,1554.432478,-9474.636058,2451.505594
3311.357149,1332.370696,-8586.388927,2757.943793
3311.357476,814.226536,-7254.018232,2987.772442
3311.357804,518.144159,-7105.977043,612.876398
3311.358132,-1554.432478,-9400.615463,-1608.800546
3311.358460,-3182.885551,-10510.924376,-1225.752797
3311.358787,-814.226536,-9474.636058,-2298.286494
3311.359115,1998.556043,-10732.986159,-2604.724693
3311.359443,2812.782580,-11473.192101,-1225.752797
3311.359770,2590.720797,-11547.212695,1072.533697
3311.360098,2442.679609,-11103.089130,766.095498
3311.360426,1184.329507,-10658.965565,536.266849
3311.360753,0.000000,-9696.697840,-306.438199
3311.361081,-666.185348,-7476.080014,0.000000
3311.361409,0.000000,-7846.182985,0.000000
3311.361736,296.082377,-10140.821405,459.657299
3311.362064,962.267725,-11251.130318,0.000000
3311.362392,2442.679609,-11177.109724,-919.314598
3311.362720,1628.453072,-10584.944971,-1991.848295
3311.363047,1110.308913,-10658.965565,-1532.190996
3311.363375,-444.123565,-9770.718434,-919.314598
3311.363703,-1850.514855,-9770.718434,-842.705048
3311.364030,518.144159,-8290.306550,-919.314598
3311.364358,1036.288319,-8290.306550,-306.438199
3311.364686,222.061783,-10955.047942,2757.943793
3311.365013,222.061783,-10066.800811,2298.286494
3311.365341,1184.329507,-9770.718434,-306.438199
3311.365669,2072.576638,-9844.739029,-2681.334243
3311.365996,1554.432478,-9918.759623,-1838.629195
3311.366324,666.185348,-8734.430116,995.924147
3311.366652,148.041188,-8364.327145,1455.581446
3311.366980,0.000000,-8956.491898,766.095498
3311.367307,444.123565,-9844.739029,-229.828649
3311.367635,222.061783,-9104.533087,76.609550
3311.367963,0.000000,-9918.759623,1455.581446
3311.368290,74.020594,-9104.533087,459.657299
3311.368618,814.226536,-9326.594869,-1532.190996
3311.368946,518.144159,-10807.006753,-1455.581446
3311.369273,592.164754,-9770.718434,-919.314598
3311.369601,1776.494261,-9770.718434,0.000000
3311.369929,0.000000,-9770.718434,383.047749
3311.370256,-1554.432478,-10955.047942,612.876398
3311.370584,-2146.597232,-9548.656652,-1072.533697
3311.370912,-1554.432478,-9696.697840,-1991.848295
3311.371240,-1110.308913,-9770.718434,-1762.019645
3311.371567,-518.144159,-9622.677246,-1149.143247
3311.371895,1258.350101,-9844.739029,-229.828649
3311.372223,2294.638420,-10436.903782,-229.828649
3311.372550,2516.700203,-10732.986159,995.924147
3311.372878,1184.329507,-9918.759623,612.876398
3311.373206,-1554.432478,-9400.615463,689.485948
3311.373533,-1332.370696,-8882.471304,-612.876398
3311.373861,-444.123565,-8438.347739,-2451.505594
3311.374189,-1406.391290,-10066.800811,-766.095498
3311.374516,-1184.329507,-9918.759623,1225.752797
3311.374844,0.000000,-8808.450710,612.876398
3311.375172,1850.514855,-10732.986159,-689.485948
3311.375500,1110.308913,-11251.130318,-153.219100
3311.375827,518.144159,-9252.574275,306.438199
3311.376155,-666.185348,-7624.121203,153.219100
3311.376483,-222.061783,-8734.430116,536.266849
3311.376810,888.247130,-8438.347739,689.485948
3311.377138,518.144159,-7031.956449,1762.019645
3311.377466,-592.164754,-10436.903782,2068.457845
3311.377793,-740.205942,-11843.295072,0.000000
3311.378121,518.144159,-10214.842000,-2298.286494
3311.378449,1628.453072,-9918.759623,-2834.553343
3311.378776,1258.350101,-10362.883188,-689.485948
3311.379104,888.247130,-9918.759623,1149.143247
3311.379432,0.000000,-8586.388927,1991.848295
3311.379760,518.144159,-9474.636058,153.219100
3311.380087,74.020594,-9918.759623,-612.876398
3311.380415,-814.226536,-8882.471304,0.000000
3311.380743,-1554.432478,-9178.553681,229.828649
3311.381070,0.000000,-9696.697840,-1378.971896
3311.381398,1332.370696,-9548.656652,-1455.581446
3311.381726,2072.576638,-11399.171507,0.000000
3311.382053,2516.700203,-11251.130318,536.266849
3311.382381,2146.597232,-11325.150913,76.609550
3311.382709,518.144159,-10955.047942,0.000000
3311.383036,0.000000,-9178.553681,-1072.533697
3311.383364,-1332.370696,-8364.327145,-919.314598
3311.383692,-1258.350101,-9326.594869,995.924147
3311.384020,-1258.350101,-8364.327145,842.705048
3311.384347,-148.041188,-9474.636058,-536.266849
3311.384675,1258.350101,-10214.842000,-1378.971896
3311.385003,1036.288319,-10732.986159,-919.314598
3311.385330,1332.370696,-9474.636058,0.000000
3311.385658,1406.391290,-9326.594869,0.000000
3311.385986,666.185348,-10288.862594,689.485948
3311.386313,1628.453072,-8512.368333,153.219100
3311.386641,1036.288319,-8808.450710,766.095498
3311.386969,518.144159,-10288.862594,1838.629195
3311.387296,0.000000,-9622.677246,306.438199
3311.387624,0.000000,-9104.533087,-612.876398
3311.387952,222.061783,-7994.224174,-1072.533697
3311.388280,814.226536,-8956.491898,-1762.019645
3311.388607,222.061783,-10288.862594,0.000000
3311.388935,0.000000,-9474.636058,383.047749
3311.389263,592.164754,-9770.718434,-612.876398
3311.389590,148.041188,-9844.739029,-689.485948
3311.389918,-1480.411884,-9992.780217,766.095498
3311.390246,-1184.329507,-10658.965565,919.314598
3311.390573,-666.185348,-9400.615463,-2451.505594
3311.390901,592.164754,-9622.677246,-2221.676944
3311.391229,1702.473667,-9030.512492,-2681.334243
3311.391556,1850.514855,-10214.842000,306.438199
3311.391884,962.267725,-12065.356855,2528.115143
3311.392212,222.061783,-10362.883188,1302.362347
3311.392540,740.205942,-9696.697840,-1608.800546
3311.392867,-740.205942,-9548.656652,-1608.800546
3311.393195,-1184.329507,-9622.677246,-1302.362347
3311.393523,-1110.308913,-7846.182985,0.000000
3311.393850,-888.247130,-9178.553681,689.485948
3311.394178,740.205942,-10066.800811,76.609550
3311.394506,814.226536,-8734.430116,-383.047749
3311.394833,1036.288319,-9400.615463,0.000000
3311.395161,-370.102971,-11695.253884,919.314598
3311.395489,-370.102971,-10436.903782,-766.095498
3311.395816,-222.061783,-8512.368333,-1991.848295
3311.396144,-740.205942,-8808.450710,-306.438199
3311.396472,1110.308913,-8586.388927,919.314598
3311.396800,666.185348,-8512.368333,1532.190996
3311.397127,296.082377,-11177.109724,1378.971896
3311.397455,1480.411884,-11325.150913,-1608.800546
3311.397783,1924.535449,-9104.533087,-1302.362347
3311.398110,1036.288319,-8882.471304,-459.657299
3311.398438,-666.185348,-10066.800811,1302.362347
3311.398764,370.102971,-9992.780217,612.876398
3311.399092,148.041188,-9326.594869,-536.266849
3311.399419,0.000000,-9400.615463,-1072.533697
3311.399747,-444.123565,-9622.677246,-459.657299
3311.400075,-1776.494261,-9696.697840,-1378.971896
3311.400402,0.000000,-9326.594869,-1225.752797
3311.400730,1110.308913,-9252.574275,-2068.457845
3311.401058,1184.329507,-10288.862594,-689.485948
3311.401385,1258.350101,-10807.006753,1149.143247
3311.401713,2294.638420,-10362.883188,306.438199
3311.402040,2368.659014,-10881.027347,-689.485948
3311.402368,370.102971,-10510.924376,-306.438199
3311.402696,-666.185348,-9252.574275,-229.828649
3311.403023,-1184.329507,-8364.327145,-1225.752797
3311.403351,-1480.411884,-9252.574275,-1225.752797
3311.403679,592.164754,-9844.739029,-2068.457845
3311.404006,1332.370696,-9696.697840,-1149.143247
3311.404334,1258.350101,-10732.986159,0.000000
3311.404662,518.144159,-10362.883188,536.266849
3311.404989,666.185348,-9474.636058,306.438199
3311.405317,962.267725,-9474.636058,0.000000
3311.405644,666.185348,-9474.636058,0.000000
3311.405972,1258.350101,-10288.862594,229.828649
3311.406300,592.164754,-9770.718434,766.095498
3311.406627,666.185348,-9474.636058,842.705048
3311.406955,888.247130,-8956.491898,-1149.143247
3311.407283,0.000000,-8068.244768,0.000000
3311.407610,74.020594,-9770.718434,459.657299
3311.407938,-148.041188,-10140.821405,-536.266849
3311.408266,-148.041188,-11177.109724,-306.438199
3311.408593,444.123565,-9548.656652,-459.657299
3311.408921,296.082377,-9252.574275,0.000000
3311.409248,148.041188,-10362.883188,459.657299
3311.409576,-1628.453072,-8142.265362,536.266849
3311.409904,-1554.432478,-7920.203579,0.000000
3311.410231,-1702.473667,-8660.409521,-1225.752797
3311.410559,-1258.350101,-9252.574275,-2298.286494
3311.410887,-592.164754,-9178.553681,-842.705048
3311.411214,148.041188,-9252.574275,0.000000
3311.411542,1110.308913,-11399.171507,842.705048
3311.411870,1628.453072,-11843.295072,612.876398
3311.412197,2220.617826,-10658.965565,-306.438199
3311.412525,1110.308913,-10288.862594,-459.657299
3311.412852,222.061783,-9474.636058,-612.876398
3311.413180,740.205942,-8142.265362,-1302.362347
3311.413508,-444.123565,-8586.388927,-1225.752797
3311.413835,-444.123565,-9474.636058,1532.190996
3311.414163,-222.061783,-8512.368333,766.095498
3311.414491,0.000000,-10288.862594,0.000000
3311.414818,-148.041188,-11103.089130,-1225.752797
3311.415146,0.000000,-11325.150913,-2145.067394
3311.415474,370.102971,-10140.821405,-1072.533697
3311.415801,222.061783,-10066.800811,-536.266849
3311.416129,0.000000,-8956.491898,76.609550
3311.416456,2368.659014,-8290.306550,536.266849
3311.416784,2368.659014,-8364.327145,1378.971896
3311.417112,962.267725,-10732.986159,2221.676944
3311.417439,-1110.308913,-10214.842000,612.876398
3311.417767,0.000000,-9252.574275,-1149.143247
3311.418095,666.185348,-8882.471304,-2068.457845
3311.418422,-592.164754,-9326.594869,-612.876398
3311.418750,-296.082377,-10066.800811,1838.629195
3311.419078,1258.350101,-9474.636058,536.266849
3311.419405,1776.494261,-9992.780217,-766.095498
3311.419733,1184.329507,-10214.842000,-1378.971896
3311.420060,444.123565,-8142.265362,0.000000
3311.420388,296.082377,-8512.368333,1225.752797
3311.420716,-888.247130,-8216.285956,1149.143247
3311.421043,0.000000,-10362.883188,229.828649
3311.421371,370.102971,-10214.842000,-306.438199
3311.421699,1480.411884,-9548.656652,-536.266849
3311.422026,1184.329507,-11325.150913,-383.047749
3311.422354,0.000000,-11325.150913,0.000000
3311.422681,-296.082377,-9918.759623,-1838.629195
3311.423009,-222.061783,-9252.574275,-2681.334243
3311.423337,0.000000,-8808.450710,-1072.533697
3311.423664,222.061783,-9474.636058,1149.143247
3311.423992,74.020594,-8512.368333,1915.238745
3311.424320,518.144159,-11251.130318,1455.581446
3311.424647,1332.370696,-11029.068536,0.000000
3311.424975,1480.411884,-9770.718434,-995.924147
3311.425303,74.020594,-9252.574275,-1225.752797
3311.425630,-666.185348,-9252.574275,-689.485948
3311.425958,222.061783,-9548.656652,-1838.629195
3311.426285,296.082377,-9696.697840,-1149.143247
3311.426613,444.123565,-10288.862594,0.000000
3311.426941,148.041188,-10362.883188,1302.362347
3311.427268,-296.082377,-9622.677246,1991.848295
3311.427596,296.082377,-9030.512492,306.438199
3311.427924,518.144159,-9548.656652,-919.314598
3311.428251,222.061783,-9548.656652,-689.485948
3311.428579,-1110.308913,-9252.574275,-229.828649
3311.428907,-222.061783,-9252.574275,-842.705048
3311.429234,888.247130,-9622.677246,-2068.457845
3311.429562,444.123565,-10214.842000,-383.047749
3311.429889,-444.123565,-9844.739029,1915.238745
3311.430217,-2294.638420,-8956.491898,1378.971896
3311.430545,-1332.370696,-9474.636058,383.047749
3311.430872,-666.185348,-9770.718434,-1532.190996
3311.431200,0.000000,-9104.533087,-1302.362347
3311.431528,592.164754,-8734.430116,0.000000
3311.431855,1036.288319,-9178.553681,536.266849
3311.432183,1628.453072,-10658.965565,536.266849
3311.432511,1628.453072,-10436.903782,-153.219100
3311.432838,1850.514855,-9252.574275,-766.095498
3311.433166,-370.102971,-9252.574275,0.000000
3311.433493,-1480.411884,-8956.491898,76.609550
3311.433821,-1036.288319,-9252.574275,0.000000
3311.434149,-888.247130,-7105.977043,-536.266849
3311.434476,0.000000,-9252.574275,306.438199
3311.434804,1554.432478,-11547.212695,0.000000
3311.435132,1406.391290,-11991.336260,-536.266849
3311.435459,1258.350101,-9992.780217,-1915.238745
3311.435787,1406.391290,-9252.574275,-2528.115143
3311.436115,1702.473667,-10658.965565,-383.047749
3311.436442,814.226536,-8808.450710,1149.143247
3311.436770,222.061783,-7105.977043,2374.896044
3311.437097,518.144159,-9104.533087,1072.533697
3311.437425,0.000000,-11991.336260,-536.266849
3311.437753,-296.082377,-11399.171507,-1302.362347
3311.438080,518.144159,-9548.656652,-3064.381992
3311.438408,1406.391290,-10066.800811,-1991.848295
3311.438736,2664.741391,-11251.130318,-1149.143247
3311.439063,962.267725,-10436.903782,1608.800546
3311.439391,1776.494261,-10140.821405,2145.067394
3311.439719,370.102971,-8586.388927,919.314598
3311.440046,296.082377,-9474.636058,383.047749
3311.440374,-1924.535449,-9474.636058,0.000000
3311.440701,-1480.411884,-7550.100608,-229.828649
3311.441029,0.000000,-7698.141797,-766.095498
3311.441357,-296.082377,-9474.636058,-1072.533697
3311.441684,592.164754,-11325.150913,0.000000
3311.442012,1998.556043,-10881.027347,-995.924147
3311.442340,2368.659014,-9474.636058,0.000000
3311.442667,1554.432478,-10807.006753,306.438199
3311.442995,0.000000,-9252.574275,153.219100
3311.443323,-296.082377,-8660.409521,1225.752797
3311.443650,-518.144159,-7254.018232,842.705048
3311.443978,-592.164754,-9030.512492,919.314598
3311.444305,-1924.535449,-11103.089130,76.609550
3311.444633,-1480.411884,-9622.677246,-2221.676944
3311.444961,-962.267725,-8808.450710,-2528.115143
3311.445288,-370.102971,-9104.533087,-1991.848295
3311.445616,592.164754,-10807.006753,-842.705048
3311.445944,962.267725,-11325.150913,766.095498
3311.446271,1702.473667,-9252.574275,689.485948
3311.446599,888.247130,-10362.883188,536.266849
3311.446926,222.061783,-10288.862594,689.485948
3311.447254,888.247130,-8660.409521,153.219100
3311.447582,-296.082377,-8956.491898,76.609550
3311.447909,148.041188,-9474.636058,-306.438199
3311.448237,1036.288319,-10066.800811,-2374.896044
3311.448565,74.020594,-9474.636058,-1762.019645
3311.448892,0.000000,-9918.759623,-612.876398
3311.449220,0.000000,-10584.944971,0.000000
3311.449548,296.082377,-11103.089130,153.219100
3311.449875,-222.061783,-9326.594869,842.705048
3311.450203,-1184.329507,-8068.244768,153.219100
3311.450530,-1924.535449,-9474.636058,229.828649
3311.450858,-2294.638420,-9548.656652,-1302.362347
3311.451186,0.000000,-8734.430116,-2757.943793
3311.451513,296.082377,-9030.512492,-1762.019645
3311.451841,962.267725,-11177.109724,383.047749
3311.452169,2220.617826,-11251.130318,919.314598
3311.452496,2294.638420,-9918.759623,153.219100
3311.452824,1480.411884,-10436.903782,0.000000
3311.453152,592.164754,-9844.739029,229.828649
3311.453479,74.020594,-8512.368333,-153.219100
3311.453807,-1036.288319,-8364.327145,536.266849
3311.454134,-1258.350101,-7402.059420,842.705048
3311.454462,1332.370696,-8882.471304,1149.143247
3311.454790,1702.473667,-9992.780217,536.266849
3311.455117,1110.308913,-10362.883188,0.000000
3311.455445,0.000000,-8956.491898,-536.266849
3311.455773,-1036.288319,-9178.553681,-995.924147
3311.456100,0.000000,-10288.862594,-1455.581446
3311.456428,666.185348,-8586.388927,-459.657299
3311.456756,1850.514855,-7920.203579,1838.629195
3311.457083,592.164754,-11325.150913,2374.896044
3311.457411,0.000000,-11399.171507,76.609550
3311.457738,1110.308913,-9622.677246,-3600.648841
3311.458066,1406.391290,-9696.697840,-3217.601092
3311.458394,1480.411884,-10140.821405,-766.095498
3311.458721,296.082377,-9992.780217,919.314598
3311.459049,222.061783,-9622.677246,1915.238745
3311.459377,1332.370696,-10214.842000,842.705048
3311.459704,370.102971,-9770.718434,76.609550
3311.460032,-1184.329507,-9326.594869,-459.657299
3311.460360,-2516.700203,-8808.450710,-1608.800546
3311.460687,-740.205942,-9474.636058,-2451.505594
3311.461015,1036.288319,-10732.986159,-2068.457845
3311.461342,1110.308913,-10436.903782,0.000000
3311.461670,2664.741391,-9844.739029,1378.971896
3311.461998,1332.370696,-10584.944971,1455.581446
3311.462325,1036.288319,-11325.150913,1685.410096
3311.462653,888.247130,-9326.594869,-842.705048
3311.462981,-370.102971,-7846.182985,-919.314598
3311.463308,-1406.391290,-7846.182985,0.000000
3311.463636,-2294.638420,-8142.265362,306.438199
3311.463964,-888.247130,-9474.636058,-689.485948
3311.464291,370.102971,-9992.780217,-1225.752797
3311.464619,0.000000,-10436.903782,-689.485948
3311.464946,0.000000,-9844.739029,153.219100
3311.465274,444.123565,-9030.512492,0.000000
3311.465602,1258.350101,-9474.636058,0.000000
3311.465929,814.226536,-8956.491898,1072.533697
3311.466257,296.082377,-9474.636058,766.095498
3311.466585,0.000000,-10658.965565,76.609550
3311.466912,74.020594,-8734.430116,-2451.505594
3311.467240,1406.391290,-9178.553681,-1762.019645
3311.467568,592.164754,-10807.006753,-306.438199
3311.467895,1258.350101,-11547.212695,306.438199
3311.468223,888.247130,-9992.780217,-306.438199
3311.468550,0.000000,-9400.615463,-612.876398
3311.468878,740.205942,-10288.862594,-766.095498
3311.469206,0.000000,-9326.594869,536.266849
3311.469533,-1332.370696,-9770.718434,2145.067394
3311.469861,-2664.741391,-9844.739029,-383.047749
3311.470189,-2072.576638,-9918.759623,-3064.381992
3311.470516,0.000000,-9474.636058,-3447.429741
3311.470844,370.102971,-9696.697840,-1532.190996
3311.471172,1110.308913,-12065.356855,1532.190996
3311.471499,1332.370696,-10436.903782,919.314598
3311.471827,1628.453072,-9696.697840,0.000000
3311.472154,1998.556043,-9992.780217,-995.924147
3311.472482,1480.411884,-9474.636058,153.219100
3311.472810,-296.082377,-8586.388927,2451.505594
3311.473137,-962.267725,-6661.853478,0.000000
3311.473465,0.000000,-7698.141797,-1302.362347
3311.473793,518.144159,-9770.718434,-689.485948
3311.474120,1184.329507,-9548.656652,1532.190996
3311.474448,444.123565,-9770.718434,1532.190996
3311.474775,666.185348,-10807.006753,0.000000
3311.475103,888.247130,-10362.883188,-2145.067394
3311.475431,222.061783,-8808.450710,-1532.190996
3311.475758,0.000000,-8808.450710,612.876398
3311.476086,1110.308913,-9400.615463,1225.752797
3311.476414,888.247130,-8438.347739,2145.067394
3311.476741,592.164754,-10732.986159,689.485948
3311.477069,-1110.308913,-10510.924376,-1378.971896
3311.477397,222.061783,-10436.903782,-1608.800546
3311.477724,1110.308913,-9474.636058,-2298.286494
3311.478052,888.247130,-9992.780217,-1149.143247
3311.478379,592.164754,-10732.986159,536.266849
3311.478707,592.164754,-9474.636058,1149.143247
3311.479035,370.102971,-10288.862594,1302.362347
3311.479362,-222.061783,-11103.089130,-306.438199
3311.479690,-1036.288319,-9474.636058,-2374.896044
3311.480018,-740.205942,-8660.409521,-1378.971896
3311.480345,518.144159,-8808.450710,-1991.848295
3311.480673,888.247130,-11399.171507,0.000000
3311.481001,444.123565,-10510.924376,1302.362347
3311.481328,1258.350101,-9400.615463,536.266849
3311.481656,518.144159,-10214.842000,-536.266849
3311.481983,666.185348,-9918.759623,0.000000
3311.482311,296.082377,-9178.553681,-612.876398
3311.482639,-1184.329507,-7698.141797,76.609550
3311.482966,444.123565,-9030.512492,-842.705048
3311.483294,0.000000,-9474.636058,-229.828649
3311.483622,0.000000,-10288.862594,1762.019645
3311.483949,370.102971,-9844.739029,612.876398
3311.484277,-518.144159,-8956.491898,-995.924147
3311.484605,-592.164754,-7846.182985,0.000000
3311.484932,592.164754,-9178.553681,-1302.362347
3311.485260,0.000000,-9992.780217,612.876398
3311.485587,444.123565,-10584.944971,1072.533697
3311.485915,74.020594,-9548.656652,-689.485948
3311.486243,1184.329507,-10807.006753,-1455.581446
3311.486570,1332.370696,-9252.574275,-1685.410096
3311.486898,1480.411884,-9918.759623,306.438199
3311.487226,0.000000,-8734.430116,1378.971896
3311.487553,74.020594,-9474.636058,383.047749
3311.487881,0.000000,-10066.800811,-459.657299
3311.488209,0.000000,-9326.594869,-689.485948
3311.488536,444.123565,-8956.491898,-689.485948
3311.488864,-666.185348,-10214.842000,229.828649
3311.489191,-1554.432478,-11029.068536,0.000000
3311.489519,-1776.494261,-11103.089130,-2298.286494
3311.489847,-740.205942,-9326.594869,-3677.258390
3311.490174,1184.329507,-10288.862594,-2528.115143
3311.490502,592.164754,-11103.089130,-229.828649
3311.490830,962.267725,-11695.253884,2834.553343
3311.491157,1850.514855,-9696.697840,995.924147
3311.491485,2442.679609,-8734.430116,-229.828649
3311.491813,888.247130,-9770.718434,-459.657299
3311.492140,-740.205942,-8734.430116,-612.876398
3311.492468,-814.226536,-7179.997637,-995.924147
3311.492795,148.041188,-7920.203579,-2298.286494
3311.493123,-518.144159,-9104.533087,-536.266849
3311.493451,222.061783,-11621.233289,2834.553343
3311.493778,1406.391290,-9918.759623,2145.067394
3311.494106,2960.823768,-9622.677246,689.485948
3311.494434,2294.638420,-9474.636058,-229.828649
3311.494761,0.000000,-9844.739029,0.000000
3311.495089,-888.247130,-7698.141797,-306.438199
3311.495417,0.000000,-5773.606348,-536.266849
3311.495744,2442.679609,-7994.224174,-383.047749
3311.496072,592.164754,-11325.150913,1762.019645
3311.496399,-1480.411884,-11621.233289,1532.190996
3311.496727,-1776.494261,-10140.821405,-1762.019645
3311.497055,0.000000,-10584.944971,-3524.039291
3311.497382,1554.432478,-11029.068536,-3217.601092
3311.497710,518.144159,-9474.636058,-459.657299
3311.498038,888.247130,-9918.759623,2221.676944
3311.498365,2368.659014,-10584.944971,1762.019645
3311.498693,1184.329507,-10436.903782,1072.533697
3311.499021,888.247130,-10214.842000,-612.876398
3311.499348,-1036.288319,-8512.368333,-919.314598
3311.499676,-962.267725,-9548.656652,-689.485948
3311.500003,-1554.432478,-10288.862594,-1302.362347
3311.500331,-370.102971,-11103.089130,-842.705048
3311.500659,1110.308913,-9548.656652,-459.657299
3311.500986,1776.494261,-9918.759623,-306.438199
3311.501314,0.000000,-11325.150913,1762.019645
3311.501642,-592.164754,-9992.780217,-459.657299
3311.501969,296.082377,-7476.080014,-2528.115143
3311.502297,444.123565,-8290.306550,-1608.800546
3311.502625,0.000000,-10362.883188,1149.143247
3311.502952,1110.308913,-10510.924376,2681.334243
3311.503280,296.082377,-8660.409521,1838.629195
3311.503607,1406.391290,-9770.718434,-766.095498
3311.503935,0.000000,-9178.553681,-1762.019645
3311.504263,-370.102971,-8808.450710,0.000000
3311.504590,-666.185348,-8956.491898,766.095498
3311.504918,-1036.288319,-9030.512492,-383.047749
3311.505246,296.082377,-9770.718434,-1302.362347
3311.505573,444.123565,-9252.574275,-995.924147
3311.505901,222.061783,-9474.636058,306.438199
3311.506229,0.000000,-9992.780217,1838.629195
3311.506556,-296.082377,-8882.471304,76.609550
3311.506884,592.164754,-9770.718434,-766.095498
3311.507212,444.123565,-9622.677246,-1072.533697
3311.507539,518.144159,-10362.883188,306.438199
3311.507867,888.247130,-9844.739029,612.876398
3311.508194,1924.535449,-8882.471304,-1532.190996
3311.508522,592.164754,-10214.842000,-1762.019645
3311.508850,-1184.329507,-11843.295072,0.000000
3311.509177,-518.144159,-11177.109724,-536.266849
3311.509505,-444.123565,-9548.656652,-1225.752797
3311.509833,1258.350101,-9178.553681,-2221.676944
3311.510160,1702.473667,-10510.924376,153.219100
3311.510488,1258.350101,-11029.068536,2528.115143
3311.510816,1184.329507,-10362.883188,1685.410096
3311.511143,0.000000,-9844.739029,-919.314598
3311.511471,0.000000,-8882.471304,-3983.696590
3311.511799,-370.102971,-9474.636058,-3217.601092
3311.512126,-1702.473667,-9918.759623,-842.705048
3311.512454,-1110.308913,-8586.388927,1225.752797
3311.512782,-222.061783,-8290.306550,536.266849
3311.513109,1184.329507,-9770.718434,842.705048
3311.513437,2220.617826,-10510.924376,842.705048
3311.513764,2294.638420,-8956.491898,2068.457845
3311.514092,1406.391290,-8882.471304,1608.800546
3311.514420,-740.205942,-7698.141797,0.000000
3311.514747,148.041188,-8512.368333,-1991.848295
3311.515075,444.123565,-8364.327145,-383.047749
3311.515403,1480.411884,-8364.327145,1991.848295
3311.515730,0.000000,-9400.615463,1685.410096
3311.516058,-2738.761985,-11621.233289,-383.047749
3311.516386,-1554.432478,-10658.965565,-2298.286494
3311.516713,518.144159,-8438.347739,-2757.943793
3311.517041,1332.370696,-9400.615463,-689.485948
3311.517369,148.041188,-11251.130318,2068.457845
3311.517696,2146.597232,-9548.656652,612.876398
3311.518024,2294.638420,-9252.574275,-536.266849
3311.518351,888.247130,-10362.883188,-306.438199
3311.518679,-666.185348,-10140.821405,459.657299
3311.519007,-2220.617826,-8142.265362,-383.047749
3311.519334,-1406.391290,-9326.594869,-2145.067394
3311.519662,222.061783,-11917.315666,-1991.848295
3311.519990,-222.061783,-10436.903782,-919.314598
3311.520317,1332.370696,-10807.006753,383.047749
3311.520645,1702.473667,-11843.295072,-229.828649
3311.520973,1776.494261,-10955.047942,-1915.238745
3311.521300,0.000000,-9326.594869,-1302.362347
3311.521628,-1406.391290,-7920.203579,-383.047749
3311.521956,0.000000,-9030.512492,-689.485948
3311.522283,0.000000,-10066.800811,0.000000
3311.522611,-592.164754,-10658.965565,1302.362347
3311.522938,814.226536,-10732.986159,536.266849
3311.523266,1850.514855,-9992.780217,-1225.752797
3311.523594,1480.411884,-10436.903782,-689.485948
3311.523921,-1036.288319,-8512.368333,0.000000
3311.524249,444.123565,-8068.244768,612.876398
3311.524577,666.185348,-9252.574275,-306.438199
3311.524904,1184.329507,-10066.800811,612.876398
3311.525232,592.164754,-9696.697840,1455.581446
3311.525560,-518.144159,-8290.306550,919.314598
3311.525887,148.041188,-7920.203579,229.828649
3311.526215,-296.082377,-9030.512492,-306.438199
3311.526543,0.000000,-9326.594869,-995.924147
3311.526870,-148.041188,-10362.883188,-536.266849
3311.527198,592.164754,-9474.636058,-766.095498
3311.527525,2664.741391,-10436.903782,-383.047749
3311.527853,2146.597232,-10510.924376,0.000000
3311.528181,2442.679609,-9844.739029,0.000000
3311.528508,222.061783,-7772.162391,1072.533697
3311.528836,-962.267725,-8734.430116,1455.581446
3311.529164,-814.226536,-10140.821405,-536.266849
3311.529491,-1110.308913,-9622.677246,-1762.019645
3311.529819,370.102971,-8734.430116,-2221.676944
3311.530147,0.000000,-10066.800811,-1608.800546
3311.530474,1184.329507,-12213.398043,0.000000
3311.530802,3182.885551,-13175.665768,-1149.143247
3311.531130,2072.576638,-10881.027347,-1608.800546
3311.531457,740.205942,-10658.965565,-1455.581446
3311.531785,-592.164754,-11251.130318,-2145.067394
3311.532112,-1480.411884,-10214.842000,0.000000
3311.532440,-1332.370696,-7179.997637,153.219100
3311.532768,-962.267725,-6217.729913,0.000000
3311.533095,0.000000,-9770.718434,1532.190996
3311.533423,888.247130,-11325.150913,1225.752797
3311.533751,1258.350101,-9770.718434,0.000000
3311.534078,1110.308913,-9326.594869,-1149.143247
3311.534406,888.247130,-9030.512492,-1455.581446
3311.534734,-370.102971,-10214.842000,612.876398
3311.535061,-1480.411884,-8808.450710,1608.800546
3311.535389,2146.597232,-8142.265362,1532.190996
3311.535717,1998.556043,-8512.368333,1915.238745
3311.536044,-518.144159,-10066.800811,2451.505594
3311.536372,-3182.885551,-10214.842000,1072.533697
3311.536699,-1628.453072,-8882.471304,-2298.286494
3311.537027,592.164754,-8512.368333,-3677.258390
3311.537355,370.102971,-9548.656652,-2221.676944
3311.537682,222.061783,-9474.636058,919.314598
3311.538010,518.144159,-10214.842000,2145.067394
3311.538338,1184.329507,-10658.965565,536.266849
3311.538665,666.185348,-9474.636058,-612.876398
3311.538993,-1258.350101,-8216.285956,-383.047749
3311.539321,-962.267725,-8734.430116,0.000000
3311.539648,-666.185348,-10214.842000,-306.438199
3311.539976,370.102971,-9770.718434,-1838.629195
3311.540304,2294.638420,-10436.903782,-766.095498
3311.540631,2294.638420,-11547.212695,-153.219100
3311.540959,1850.514855,-11103.089130,383.047749
3311.541286,-814.226536,-11769.274478,153.219100
3311.541614,-740.205942,-10140.821405,-1991.848295
3311.541942,0.000000,-8956.491898,-4060.306139
3311.542269,-370.102971,-9622.677246,-842.705048
3311.542597,148.041188,-9474.636058,1532.190996
3311.542925,666.185348,-10362.883188,1991.848295
3311.543252,1554.432478,-10436.903782,842.705048
3311.543580,1850.514855,-10214.842000,-1915.238745
3311.543908,518.144159,-8216.285956,-1608.800546
3311.544235,148.041188,-8068.244768,76.609550
3311.544563,-518.144159,-8956.491898,153.219100
3311.544891,-1110.308913,-9918.759623,536.266849
3311.545218,-1184.329507,-9474.636058,-919.314598
3311.545546,-740.205942,-9992.780217,-689.485948
3311.545873,-740.205942,-9252.574275,229.828649
3311.546201,518.144159,-8512.368333,-459.657299
3311.546529,2072.576638,-9178.553681,-995.924147
3311.546856,1924.535449,-10658.965565,-612.876398
3311.547184,1110.308913,-10658.965565,1838.629195
3311.547512,1110.308913,-9178.553681,1991.848295
3311.547839,518.144159,-8142.265362,995.924147
3311.548167,1110.308913,-9770.718434,-689.485948
3311.548495,-518.144159,-9400.615463,-229.828649
3311.548822,-962.267725,-10288.862594,842.705048
3311.549150,-1998.556043,-9474.636058,1302.362347
3311.549478,-1332.370696,-9252.574275,-995.924147
3311.549805,0.000000,-8808.450710,-2451.505594
3311.550133,518.144159,-9548.656652,-1838.629195
3311.550460,814.226536,-11843.295072,1149.143247
3311.550788,2146.597232,-11399.171507,1072.533697
3311.551116,2294.638420,-9252.574275,459.657299
3311.551443,1258.350101,-10066.800811,-229.828649
3311.551771,-592.164754,-9696.697840,-612.876398
3311.552099,-1406.391290,-10214.842000,76.609550
3311.552426,-1924.535449,-8660.409521,-1302.362347
3311.552754,0.000000,-7698.141797,-2834.553343
3311.553082,1184.329507,-9622.677246,-1685.410096
3311.553409,2368.659014,-10955.047942,1532.190996
3311.553737,2368.659014,-11399.171507,2911.162892
3311.554065,1406.391290,-9992.780217,919.314598
3311.554392,1554.432478,-9696.697840,-842.705048
3311.554720,-444.123565,-9104.533087,-995.924147
3311.555048,-296.082377,-7624.121203,919.314598
3311.555375,1554.432478,-7772.162391,1455.581446
3311.555703,1776.494261,-8734.430116,1762.019645
3311.556030,222.061783,-10140.821405,612.876398
3311.556358,-2590.720797,-10362.883188,-689.485948
3311.556686,-1184.329507,-10214.842000,-1991.848295
3311.557013,666.185348,-11399.171507,-2757.943793
3311.557341,222.061783,-10436.903782,-1685.410096
3311.557669,370.102971,-9696.697840,229.828649
3311.557996,1184.329507,-10066.800811,1685.410096
3311.558324,3182.885551,-10807.006753,2911.162892
3311.558652,592.164754,-9400.615463,2451.505594
3311.558979,-666.185348,-7179.997637,76.609550
3311.559307,-666.185348,-6957.935855,-1378.971896
3311.559635,-1184.329507,-7698.141797,-1685.410096
3311.559962,-518.144159,-11177.109724,306.438199
3311.560290,-518.144159,-11029.068536,1149.143247
3311.560617,0.000000,-9770.718434,-229.828649
3311.560945,814.226536,-11399.171507,-1532.190996
3311.561273,-222.061783,-11769.274478,-2221.676944
3311.561600,0.000000,-9474.636058,-1608.800546
3311.561928,-1480.411884,-8734.430116,-1378.971896
3311.562256,0.000000,-9326.594869,-536.266849
3311.562583,1776.494261,-10066.800811,0.000000
3311.562911,1554.432478,-9474.636058,2451.505594
3311.563239,1554.432478,-11103.089130,2528.115143
3311.563566,-296.082377,-10510.924376,-459.657299
3311.563894,-666.185348,-8882.471304,-1991.848295
3311.564222,-1258.350101,-7994.224174,-2681.334243
3311.564549,-1184.329507,-10214.842000,-383.047749
3311.564877,-740.205942,-11029.068536,612.876398
3311.565204,-1036.288319,-9770.718434,-153.219100
3311.565532,-148.041188,-9474.636058,-536.266849
3311.565860,444.123565,-8956.491898,-1072.533697
3311.566187,1184.329507,-9178.553681,229.828649
3311.566515,0.000000,-10436.903782,995.924147
3311.566843,-1258.350101,-10140.821405,536.266849
3311.567170,592.164754,-10214.842000,-1608.800546
3311.567498,370.102971,-9770.718434,-1302.362347
3311.567826,-296.082377,-9400.615463,689.485948
3311.568153,-1480.411884,-10881.027347,1072.533697
3311.568481,666.185348,-9400.615463,-919.314598
3311.568809,1702.473667,-7550.100608,-1915.238745
3311.569136,666.185348,-8808.450710,153.219100
3311.569464,-444.123565,-9918.759623,3140.991542
3311.569791,-518.144159,-8586.388927,2528.115143
3311.570119,1850.514855,-8734.430116,-1378.971896
3311.570447,1628.453072,-10955.047942,-2145.067394
3311.570774,1554.432478,-11177.109724,0.000000
3311.571102,2516.700203,-10288.862594,1455.581446
3311.571430,1110.308913,-10288.862594,536.266849
3311.571757,1406.391290,-9844.739029,-2221.676944
3311.572085,666.185348,-9992.780217,-3600.648841
3311.572413,-1628.453072,-8068.244768,0.000000
3311.572740,370.102971,-7846.182985,612.876398
3311.573068,74.020594,-9178.553681,766.095498
3311.573396,1036.288319,-9696.697840,1149.143247
3311.573723,3108.864956,-11029.068536,612.876398
3311.574051,2738.761985,-10584.944971,153.219100
3311.574378,1702.473667,-10510.924376,842.705048
3311.574706,-296.082377,-9474.636058,76.609550
3311.575034,1036.288319,-7994.224174,-1685.410096
3311.575361,1110.308913,-8586.388927,-2068.457845
3311.575689,444.123565,-9030.512492,1302.362347
3311.576017,444.123565,-10140.821405,2681.334243
3311.576344,-1036.288319,-11547.212695,1532.190996
3311.576672,370.102971,-11695.253884,-1685.410096
3311.577000,0.000000,-10584.944971,-3600.648841
3311.577327,-148.041188,-9548.656652,-1225.752797
3311.577655,0.000000,-9918.759623,919.314598
3311.577983,518.144159,-9400.615463,689.485948
3311.578310,1258.350101,-8586.388927,153.219100
3311.578638,1036.288319,-9400.615463,612.876398
3311.578965,148.041188,-9178.553681,1915.238745
3311.579293,-1480.411884,-9104.533087,766.095498
3311.579621,-1850.514855,-8290.306550,-919.314598
3311.579948,-740.205942,-9474.636058,-1455.581446
3311.580276,-592.164754,-10807.006753,-995.924147
3311.580604,592.164754,-11029.068536,306.438199
3311.580931,0.000000,-10214.842000,153.219100
3311.581259,888.247130,-9178.553681,-1072.533697
3311.581587,1258.350101,-9918.759623,-1532.190996
3311.581914,0.000000,-9326.594869,-383.047749
3311.582242,-518.144159,-8068.244768,612.876398
3311.582570,-962.267725,-9696.697840,842.705048
3311.582897,-296.082377,-11029.068536,306.438199
3311.583225,666.185348,-10214.842000,-766.095498
3311.583552,-962.267725,-8586.388927,229.828649
3311.583880,-518.144159,-9474.636058,153.219100
3311.584208,-1332.370696,-9844.739029,0.000000
3311.584535,0.000000,-9770.718434,-1302.362347
3311.584863,-370.102971,-8290.306550,-2451.505594
3311.585191,-814.226536,-8586.388927,-995.924147
3311.585518,-1184.329507,-9918.759623,1532.190996
3311.585846,-1184.329507,-10140.821405,-612.876398
3311.586174,0.000000,-9696.697840,-306.438199
3311.586501,1036.288319,-10955.047942,-766.095498
3311.586829,1702.473667,-11621.233289,536.266849
3311.587157,1924.535449,-12139.377449,995.924147
3311.587484,1628.453072,-9474.636058,-842.705048
3311.587812,1998.556043,-8068.244768,-1915.238745
3311.588139,-666.185348,-9178.553681,-1225.752797
3311.588467,296.082377,-8882.471304,0.000000
3311.588795,0.000000,-8068.244768,1685.410096
3311.589122,148.041188,-8586.388927,2221.676944
3311.589450,1184.329507,-10510.924376,1149.143247
3311.589778,666.185348,-11325.150913,-536.266849
3311.590105,1850.514855,-9622.677246,-1378.971896
3311.590433,814.226536,-9918.759623,-1991.848295
3311.590761,1332.370696,-9326.594869,-1378.971896
3311.591088,2664.741391,-10510.924376,-2374.896044
3311.591416,1850.514855,-11325.150913,-153.219100
3311.591744,1998.556043,-10510.924376,1302.362347
3311.592071,518.144159,-10140.821405,766.095498
3311.592399,666.185348,-8364.327145,995.924147
3311.592726,370.102971,-7031.956449,383.047749
3311.593054,-2220.617826,-6957.935855,1455.581446
3311.593382,-222.061783,-8068.244768,1838.629195
3311.593709,518.144159,-9400.615463,0.000000
3311.594037,2516.700203,-9844.739029,-2068.457845
3311.594365,1332.370696,-9992.780217,-1532.190996
3311.594692,592.164754,-9696.697840,76.609550
3311.595020,2294.638420,-9622.677246,536.266849
3311.595348,296.082377,-9252.574275,1072.533697
3311.595675,148.041188,-9252.574275,1149.143247
3311.596003,-1332.370696,-10362.883188,1302.362347
3311.596331,-1184.329507,-10288.862594,536.266849
3311.596658,370.102971,-11695.253884,-1685.410096
3311.596986,0.000000,-9992.780217,-3830.477490
3311.597314,370.102971,-9844.739029,-2374.896044
3311.597641,-962.267725,-10436.903782,-995.924147
3311.597969,296.082377,-10066.800811,229.828649
3311.598296,592.164754,-9474.636058,1991.848295
3311.598624,-592.164754,-8586.388927,1838.629195
3311.598952,-1258.350101,-9770.718434,1608.800546
3311.599279,-592.164754,-8068.244768,536.266849
3311.599607,0.000000,-8068.244768,0.000000
3311.599935,-518.144159,-10362.883188,459.657299
3311.600262,0.000000,-9770.718434,-995.924147
3311.600590,222.061783,-10881.027347,-2374.896044
3311.600918,-740.205942,-11251.130318,-1915.238745
3311.601245,74.020594,-9770.718434,-1991.848295
3311.601573,-1702.473667,-9548.656652,-229.828649
3311.601900,-814.226536,-9474.636058,306.438199
3311.602228,1628.453072,-9326.594869,689.485948
3311.602556,1628.453072,-9178.553681,2068.457845
3311.602883,1702.473667,-10066.800811,2068.457845
3311.603211,-814.226536,-8364.327145,919.314598
3311.603538,-592.164754,-9326.594869,-919.314598
3311.603866,-666.185348,-8068.244768,-2451.505594
3311.604193,-1480.411884,-7698.141797,-1149.143247
3311.604521,-1184.329507,-9326.594869,0.000000
3311.604849,-1332.370696,-11029.068536,-1072.533697
3311.605176,-148.041188,-10658.965565,-306.438199
3311.605504,592.164754,-9400.615463,-1072.533697
3311.605831,518.144159,-9918.759623,0.000000
3311.606159,2368.659014,-11325.150913,459.657299
3311.606487,1702.473667,-9474.636058,-383.047749
3311.606814,2664.741391,-9918.759623,-1225.752797
3311.607142,2886.803174,-10658.965565,-766.095498
3311.607469,2960.823768,-11325.150913,-383.047749
3311.607797,1258.350101,-10214.842000,1149.143247
3311.608124,-592.164754,-8438.347739,229.828649
3311.608452,74.020594,-9992.780217,-612.876398
3311.608780,148.041188,-10584.944971,-1378.971896
3311.609107,740.205942,-9622.677246,919.314598
3311.609435,1924.535449,-9992.780217,1072.533697
3311.609762,2738.761985,-9992.780217,536.266849
3311.610090,3997.112087,-11621.233289,-766.095498
3311.610418,1406.391290,-8068.244768,-995.924147
3311.610745,518.144159,-8290.306550,-536.266849
3311.611073,-814.226536,-11029.068536,-383.047749
3311.611400,-444.123565,-11621.233289,-1378.971896
3311.611728,-1332.370696,-8882.471304,-1225.752797
3311.612055,-1184.329507,-7920.203579,-306.438199
3311.612383,814.226536,-10362.883188,1149.143247
3311.612711,370.102971,-10436.903782,919.314598
3311.613038,-148.041188,-8512.368333,76.609550
3311.613366,666.185348,-7772.162391,-1762.019645
3311.613693,1258.350101,-7105.977043,-2757.943793
3311.614021,-518.144159,-10732.986159,1149.143247
3311.614348,-1480.411884,-9474.636058,2987.772442
3311.614676,222.061783,-8068.244768,1378.971896
3311.615004,814.226536,-9844.739029,0.000000
3311.615331,962.267725,-11103.089130,229.828649
3311.615659,0.000000,-9252.574275,1072.533697
3311.615986,-666.185348,-8438.347739,0.000000
3311.616314,-1554.432478,-8734.430116,-1608.800546
3311.616642,-1406.391290,-9918.759623,-3217.601092
3311.616969,-814.226536,-9104.533087,-1991.848295
3311.617297,0.000000,-10066.800811,306.438199
3311.617624,-1110.308913,-10955.047942,1915.238745
3311.617952,296.082377,-10732.986159,76.609550
3311.618279,962.267725,-9696.697840,-842.705048
3311.618607,1776.494261,-9992.780217,0.000000
3311.618935,444.123565,-10140.821405,1455.581446
3311.619262,-1258.350101,-8438.347739,842.705048
3311.619590,-370.102971,-9104.533087,-1685.410096
3311.619917,74.020594,-10214.842000,-3677.258390
3311.620245,-740.205942,-11843.295072,-2374.896044
3311.620572,-2146.597232,-10807.006753,76.609550
3311.620900,0.000000,-8956.491898,0.000000
3311.621228,1258.350101,-10436.903782,-612.876398
3311.621555,1702.473667,-10658.965565,153.219100
3311.621883,1332.370696,-9252.574275,1532.190996
3311.622210,1110.308913,-8364.327145,1455.581446
3311.622538,2072.576638,-9992.780217,306.438199
3311.622866,2368.659014,-9030.512492,-1532.190996
3311.623193,-148.041188,-7550.100608,-153.219100
3311.623521,-296.082377,-9844.739029,766.095498
3311.623848,-962.267725,-10436.903782,229.828649
3311.624176,-370.102971,-10807.006753,-1072.533697
3311.624503,-444.123565,-9696.697840,-2604.724693
3311.624831,0.000000,-9178.553681,-689.485948
3311.625159,-444.123565,-9030.512492,1302.362347
3311.625486,74.020594,-8364.327145,2145.067394
3311.625814,1702.473667,-8956.491898,689.485948
3311.626141,3627.009116,-9474.636058,-1072.533697
3311.626469,2368.659014,-10140.821405,1149.143247
3311.626796,2220.617826,-10658.965565,1762.019645
3311.627124,444.123565,-9178.553681,76.609550
3311.627452,888.247130,-9844.739029,76.609550
3311.627779,518.144159,-9400.615463,-919.314598
3311.628107,-444.123565,-9178.553681,0.000000
3311.628434,-814.226536,-9770.718434,153.219100
3311.628762,740.205942,-10066.800811,-766.095498
3311.629090,2072.576638,-10362.883188,-995.924147
3311.629417,1924.535449,-9178.553681,-1149.143247
3311.629745,1850.514855,-10807.006753,459.657299
3311.630072,1480.411884,-11177.109724,842.705048
3311.630400,740.205942,-8882.471304,-383.047749
3311.630727,148.041188,-10436.903782,-1685.410096
3311.631055,-1850.514855,-11325.150913,-1762.019645
3311.631383,-1480.411884,-10214.842000,-1149.143247
3311.631710,-1628.453072,-9696.697840,-1072.533697
3311.632038,-222.061783,-9400.615463,-1762.019645
3311.632365,0.000000,-10066.800811,-1838.629195
3311.632693,0.000000,-9696.697840,76.609550
3311.633020,370.102971,-10066.800811,1532.190996
3311.633348,222.061783,-8734.430116,153.219100
3311.633676,148.041188,-8364.327145,-766.095498
3311.634003,-1480.411884,-7994.224174,842.705048
3311.634331,-1258.350101,-7698.141797,459.657299
3311.634658,-370.102971,-8364.327145,1762.019645
3311.634986,-814.226536,-10214.842000,1149.143247
3311.635314,0.000000,-9474.636058,-766.095498
3311.635641,-296.082377,-9474.636058,-1762.019645
3311.635969,-518.144159,-10140.821405,0.000000
3311.636296,-370.102971,-10140.821405,306.438199
3311.636624,-1480.411884,-8882.471304,-383.047749
3311.636951,0.000000,-8438.347739,0.000000
3311.637279,888.247130,-7772.162391,0.000000
3311.637607,444.123565,-8956.491898,1915.238745
3311.637934,-518.144159,-10807.006753,2221.676944
3311.638262,-296.082377,-10362.883188,-1378.971896
3311.638589,740.205942,-9918.759623,-3064.381992
3311.638917,296.082377,-9252.574275,-2374.896044
3311.639244,666.185348,-10658.965565,459.657299
3311.639572,1406.391290,-11103.089130,842.705048
3311.639900,1480.411884,-10362.883188,-229.828649
3311.640227,296.082377,-11843.295072,-306.438199
3311.640555,-148.041188,-9474.636058,-689.485948
3311.640882,592.164754,-8068.244768,-689.485948
3311.641210,-370.102971,-9918.759623,229.828649
3311.641538,0.000000,-9918.759623,0.000000
3311.641865,1406.391290,-10362.883188,-995.924147
3311.642193,2664.741391,-10732.986159,-995.924147
3311.642520,2960.823768,-10807.006753,0.000000
3311.642848,740.205942,-9548.656652,1225.752797
3311.643175,0.000000,-9400.615463,1072.533697
3311.643503,-518.144159,-9104.533087,-383.047749
3311.643831,-1776.494261,-8364.327145,-612.876398
3311.644158,-1406.391290,-8586.388927,76.609550
3311.644486,-888.247130,-9400.615463,0.000000
3311.644813,148.041188,-8956.491898,-766.095498
3311.645141,518.144159,-9474.636058,-2068.457845
3311.645468,740.205942,-10066.800811,-383.047749
3311.645796,2886.803174,-9844.739029,689.485948
3311.646124,2146.597232,-9622.677246,842.705048
3311.646451,2368.659014,-10658.965565,1225.752797
3311.646779,2294.638420,-9474.636058,153.219100
3311.647106,1406.391290,-9178.553681,0.000000
3311.647434,0.000000,-9474.636058,612.876398
3311.647762,-962.267725,-8364.327145,-306.438199
3311.648089,444.123565,-9548.656652,-1991.848295
3311.648417,0.000000,-9844.739029,-1608.800546
3311.648744,296.082377,-10584.944971,-842.705048
3311.649072,296.082377,-10732.986159,-153.219100
3311.649399,518.144159,-10807.006753,153.219100
3311.649727,518.144159,-11621.233289,0.000000
3311.650055,1036.288319,-9474.636058,-1455.581446
3311.650382,444.123565,-9252.574275,-995.924147
3311.650710,-296.082377,-11547.212695,-229.828649
3311.651037,-1184.329507,-11029.068536,-383.047749
3311.651365,-666.185348,-9400.615463,-1608.800546
3311.651692,-740.205942,-8142.265362,-1455.581446
3311.652020,-740.205942,-9992.780217,229.828649
3311.652348,-888.247130,-9622.677246,1149.143247
3311.652675,-444.123565,-9030.512492,459.657299
3311.653003,0.000000,-8808.450710,-459.657299
3311.653330,222.061783,-9400.615463,-1225.752797
3311.653658,-444.123565,-9622.677246,229.828649
3311.653986,-1332.370696,-8956.491898,995.924147
3311.654313,592.164754,-8586.388927,-536.266849
3311.654641,370.102971,-9474.636058,-842.705048
3311.654968,296.082377,-9918.759623,536.266849
3311.655296,740.205942,-9474.636058,536.266849
3311.655623,0.000000,-9178.553681,612.876398
3311.655951,-518.144159,-9844.739029,689.485948
3311.656279,-1110.308913,-8956.491898,-689.485948
3311.656606,0.000000,-8364.327145,-1225.752797
3311.656934,222.061783,-9104.533087,76.609550
3311.657261,0.000000,-9548.656652,0.000000
3311.657589,0.000000,-10140.821405,536.266849
3311.657916,1406.391290,-10510.924376,-612.876398
3311.658244,2220.617826,-10362.883188,-612.876398
3311.658572,1258.350101,-11029.068536,689.485948
3311.658899,0.000000,-9844.739029,919.314598
3311.659227,1036.288319,-10362.883188,229.828649
3311.659554,814.226536,-8882.471304,-995.924147
3311.659882,370.102971,-9770.718434,-1149.143247
3311.660210,-1258.350101,-11251.130318,0.000000
3311.660537,-444.123565,-9844.739029,-2068.457845
3311.660865,1332.370696,-9474.636058,-3370.820191
3311.661192,740.205942,-10436.903782,-1762.019645
3311.661520,148.041188,-10362.883188,1685.410096
3311.661847,1850.514855,-9992.780217,1455.581446
3311.662175,2368.659014,-10658.965565,306.438199
3311.662503,2442.679609,-10362.883188,0.000000
3311.662830,1036.288319,-8068.244768,842.705048
3311.663158,0.000000,-8512.368333,1685.410096
3311.663485,-1480.411884,-8882.471304,1149.143247
3311.663813,-1628.453072,-9252.574275,-1455.581446
3311.664140,-1480.411884,-9400.615463,-3524.039291
3311.664468,-1184.329507,-9030.512492,-2911.162892
3311.664796,-1406.391290,-9030.512492,-1302.362347
3311.665123,-814.226536,-9918.759623,383.047749
3311.665451,1258.350101,-10584.944971,1072.533697
3311.665778,3404.947333,-9474.636058,306.438199
3311.666106,2590.720797,-8956.491898,1149.143247
3311.666434,2516.700203,-9770.718434,2374.896044
3311.666761,2368.659014,-8660.409521,919.314598
3311.667089,1628.453072,-8956.491898,-306.438199
3311.667416,0.000000,-8364.327145,-1378.971896
3311.667744,-1480.411884,-9400.615463,-612.876398
3311.668071,-962.267725,-10881.027347,-459.657299
3311.668399,-1184.329507,-11177.109724,-689.485948
3311.668727,666.185348,-11399.171507,-2068.457845
3311.669054,1184.329507,-10288.862594,-1608.800546
3311.669382,1406.391290,-10807.006753,459.657299
3311.669709,1628.453072,-11177.109724,306.438199
3311.670037,1554.432478,-8734.430116,-689.485948
3311.670364,814.226536,-9104.533087,-919.314598
3311.670692,-1184.329507,-11103.089130,153.219100
3311.671020,-1480.411884,-10510.924376,-766.095498
3311.671347,-1184.329507,-8808.450710,-1072.533697
3311.671675,-1332.370696,-9474.636058,-1149.143247
3311.672002,-296.082377,-11473.192101,-383.047749
3311.672330,0.000000,-9992.780217,0.000000
3311.672658,666.185348,-9770.718434,229.828649
3311.672985,0.000000,-10066.800811,-306.438199
3311.673313,74.020594,-8438.347739,-383.047749
3311.673640,888.247130,-9770.718434,-306.438199
3311.673968,148.041188,-8364.327145,1072.533697
3311.674295,1110.308913,-8660.409521,1915.238745
3311.674623,444.123565,-9844.739029,2451.505594
3311.674951,814.226536,-8734.430116,1762.019645
3311.675278,0.000000,-8364.327145,229.828649
3311.675606,-1184.329507,-9326.594869,0.000000
3311.675933,-666.185348,-10436.903782,306.438199
3311.676261,-1110.308913,-8290.306550,-1302.362347
3311.676588,222.061783,-8364.327145,-1915.238745
3311.676916,814.226536,-10436.903782,-1302.362347
3311.677244,222.061783,-9474.636058,689.485948
3311.677571,888.247130,-9918.759623,1838.629195
3311.677899,1110.308913,-9622.677246,306.438199
3311.678226,1036.288319,-9400.615463,-153.219100
3311.678554,-296.082377,-8882.471304,0.000000
3311.678882,-666.185348,-9252.574275,842.705048
3311.679209,296.082377,-11251.130318,0.000000
3311.679537,592.164754,-10436.903782,-2681.334243
3311.679864,666.185348,-10955.047942,-2757.943793
3311.680192,74.020594,-11547.212695,-2221.676944
3311.680519,1258.350101,-10732.986159,-766.095498
3311.680847,740.205942,-11103.089130,-229.828649
3311.681175,74.020594,-10584.944971,1302.362347
3311.681502,1480.411884,-9844.739029,229.828649
3311.681830,1850.514855,-9474.636058,0.000000
3311.682157,1258.350101,-10066.800811,612.876398
3311.682485,0.000000,-9474.636058,1225.752797
3311.682812,0.000000,-7550.100608,-995.924147
3311.683140,-222.061783,-9770.718434,-1378.971896
3311.683468,-1998.556043,-10436.903782,-1532.190996
3311.683795,-1850.514855,-10955.047942,-1302.362347
3311.684123,-1924.535449,-9400.615463,-2221.676944
3311.684450,-1184.329507,-9252.574275,-995.924147
3311.684778,-296.082377,-9474.636058,459.657299
3311.685106,962.267725,-8808.450710,1455.581446
3311.685433,2072.576638,-9326.594869,2987.772442
3311.685761,2442.679609,-9474.636058,1838.629195
3311.686088,2294.638420,-8956.491898,153.219100
3311.686416,1998.556043,-8364.327145,-536.266849
3311.686743,814.226536,-7254.018232,0.000000
3311.687071,444.123565,-8216.285956,76.609550
3311.687399,-814.226536,-9400.615463,612.876398
3311.687726,-592.164754,-10288.862594,0.000000
3311.688054,-518.144159,-9696.697840,0.000000
3311.688381,666.185348,-10362.883188,0.000000
3311.688709,962.267725,-10955.047942,459.657299
3311.689036,740.205942,-10732.986159,0.000000
3311.689364,1406.391290,-8734.430116,-2221.676944
3311.689692,1850.514855,-7550.100608,-1762.019645
3311.690019,1036.288319,-9474.636058,-536.266849
3311.690347,-666.185348,-10658.965565,1149.143247
3311.690674,-2442.679609,-10732.986159,1149.143247
3311.691002,-1332.370696,-9178.553681,-1915.238745
3311.691330,-518.144159,-9030.512492,-2987.772442
3311.691657,-740.205942,-11103.089130,-229.828649
3311.691985,962.267725,-12583.501014,536.266849
3311.692312,1628.453072,-10066.800811,-383.047749
3311.692640,2072.576638,-9992.780217,-1685.410096
3311.692967,962.267725,-9696.697840,-1685.410096
3311.693295,-222.061783,-9178.553681,76.609550
3311.693623,-1036.288319,-8068.244768,919.314598
3311.693950,-814.226536,-9030.512492,1072.533697
3311.694278,592.164754,-9548.656652,383.047749
3311.694605,-148.041188,-9474.636058,229.828649
3311.694933,148.041188,-11695.253884,1455.581446
3311.695260,0.000000,-9992.780217,0.000000
3311.695588,592.164754,-9622.677246,-1532.190996
3311.695916,1036.288319,-9696.697840,-2451.505594
3311.696243,2072.576638,-7698.141797,-1838.629195
3311.696571,296.082377,-8142.265362,766.095498
3311.696898,-1332.370696,-9474.636058,2528.115143
3311.697226,0.000000,-9030.512492,2681.334243
3311.697554,1628.453072,-8142.265362,842.705048
3311.697881,0.000000,-9548.656652,536.266849
3311.698209,-740.205942,-10658.965565,612.876398
3311.698536,-296.082377,-9178.553681,-766.095498
3311.698864,1184.329507,-8882.471304,-2834.553343
3311.699191,1184.329507,-10584.944971,-2757.943793
3311.699519,444.123565,-9622.677246,-612.876398
3311.699847,-740.205942,-9622.677246,1608.800546
3311.700174,962.267725,-10214.842000,536.266849
3311.700502,2368.659014,-9844.739029,-1915.238745
3311.700829,444.123565,-9474.636058,919.314598
3311.701157,-148.041188,-10288.862594,1608.800546
3311.701485,0.000000,-9474.636058,0.000000
3311.701812,296.082377,-9622.677246,-1915.238745
3311.702140,1628.453072,-10732.986159,-3370.820191
3311.702467,0.000000,-10881.027347,-1532.190996
3311.702795,740.205942,-9992.780217,689.485948
3311.703123,1110.308913,-9474.636058,1302.362347
3311.703450,-222.061783,-9474.636058,306.438199
3311.703778,-370.102971,-10584.944971,229.828649
3311.704105,-1258.350101,-9252.574275,-689.485948
3311.704433,-1406.391290,-8956.491898,-689.485948
3311.704761,-1554.432478,-9178.553681,-536.266849
3311.705088,222.061783,-9400.615463,-842.705048
3311.705416,2812.782580,-9696.697840,-995.924147
3311.705743,1850.514855,-9474.636058,459.657299
3311.706071,1110.308913,-10881.027347,2374.896044
3311.706399,1554.432478,-9992.780217,229.828649
3311.706726,1258.350101,-7994.224174,-689.485948
3311.707054,-592.164754,-7994.224174,-229.828649
3311.707381,-1702.473667,-10214.842000,1225.752797
3311.707709,-444.123565,-9992.780217,383.047749
3311.708037,0.000000,-9252.574275,-612.876398
3311.708364,962.267725,-8660.409521,-1762.019645
3311.708692,518.144159,-9104.533087,-1302.362347
3311.709019,222.061783,-10955.047942,612.876398
3311.709347,1332.370696,-11177.109724,383.047749
3311.709675,962.267725,-8290.306550,0.000000
3311.710002,444.123565,-7994.224174,459.657299
3311.710330,-1258.350101,-10436.903782,995.924147
3311.710657,-1110.308913,-10955.047942,536.266849
3311.710985,0.000000,-10436.903782,-1302.362347
3311.711313,148.041188,-9696.697840,-2145.067394
3311.711640,1406.391290,-9474.636058,-1685.410096
3311.711968,666.185348,-8438.347739,-153.219100
3311.712295,592.164754,-9696.697840,1532.190996
3311.712623,296.082377,-10510.924376,1149.143247
3311.712951,444.123565,-9770.718434,-153.219100
3311.713278,296.082377,-9622.677246,-1149.143247
3311.713606,-1258.350101,-9030.512492,0.000000
3311.713933,-592.164754,-9178.553681,1072.533697
3311.714261,296.082377,-10510.924376,842.705048
3311.714589,2072.576638,-10807.006753,-1915.238745
3311.714916,296.082377,-9696.697840,-1532.190996
3311.715244,-888.247130,-8586.388927,0.000000
3311.715571,0.000000,-8734.430116,229.828649
3311.715899,148.041188,-9326.594869,-459.657299
3311.716227,-444.123565,-9252.574275,0.000000
3311.716554,-666.185348,-9326.594869,229.828649
3311.716882,-444.123565,-9400.615463,919.314598
3311.717209,1184.329507,-11843.295072,76.609550
3311.717537,518.144159,-10288.862594,-1378.971896
3311.717865,518.144159,-8586.388927,-1455.581446
3311.718192,0.000000,-8438.347739,-842.705048
3311.718520,1110.308913,-9252.574275,766.095498
3311.718847,2220.617826,-9252.574275,153.219100
3311.719175,740.205942,-10362.883188,1072.533697
3311.719503,222.061783,-11029.068536,612.876398
3311.719830,1036.288319,-9918.759623,-1225.752797
3311.720158,74.020594,-10214.842000,-536.266849
3311.720485,-592.164754,-10214.842000,-153.219100
3311.720813,-444.123565,-9992.780217,-919.314598
3311.721141,1406.391290,-10066.800811,-2374.896044
3311.721468,1702.473667,-9400.615463,-1455.581446
3311.721796,962.267725,-9326.594869,459.657299
3311.722123,222.061783,-9104.533087,2068.457845
3311.722451,0.000000,-10955.047942,1608.800546
3311.722779,962.267725,-9992.780217,-306.438199
3311.723106,518.144159,-8956.491898,-229.828649
3311.723434,-222.061783,-10807.006753,1072.533697
3311.723761,-1628.453072,-9770.718434,612.876398
3311.724089,-1480.411884,-9696.697840,-1532.190996
3311.724417,-740.205942,-8290.306550,-2987.772442
3311.724744,-1776.494261,-7994.224174,-2451.505594
3311.725072,-1110.308913,-9474.636058,229.828649
3311.725399,-222.061783,-9252.574275,1455.581446
3311.725727,2072.576638,-10214.842000,1762.019645
3311.726055,3256.906145,-10584.944971,536.266849
3311.726382,1628.453072,-10362.883188,1149.143247
3311.726710,740.205942,-10510.924376,1072.533697
3311.727037,592.164754,-8808.450710,-612.876398
3311.727365,814.226536,-10066.800811,-1762.019645
3311.727693,222.061783,-9918.759623,-1685.410096
3311.728020,-444.123565,-8438.347739,-306.438199
3311.728348,0.000000,-8512.368333,459.657299
3311.728675,-592.164754,-10066.800811,919.314598
3311.729003,740.205942,-10140.821405,0.000000
3311.729331,1184.329507,-9992.780217,-689.485948
3311.729658,814.226536,-12361.439231,0.000000
3311.729986,888.247130,-12435.459826,-383.047749
3311.730313,666.185348,-9252.574275,-1762.019645
3311.730641,222.061783,-8068.244768,-2298.286494
3311.730969,-370.102971,-9474.636058,-1455.581446
3311.731296,-1258.350101,-9992.780217,1225.752797
3311.731624,-518.144159,-9030.512492,766.095498
3311.731951,-592.164754,-9104.533087,0.000000
3311.732279,0.000000,-9992.780217,-689.485948
3311.732607,-666.185348,-9918.759623,0.000000
3311.732934,666.185348,-10658.965565,-536.266849
3311.733262,1480.411884,-9178.553681,-612.876398
3311.733589,814.226536,-10066.800811,-383.047749
3311.733917,962.267725,-9252.574275,153.219100
3311.734245,1850.514855,-7550.100608,76.609550
3311.734572,2220.617826,-9400.615463,1378.971896
3311.734900,222.061783,-10436.903782,1838.629195
3311.735227,-1998.556043,-9400.615463,1991.848295
3311.735555,0.000000,-6735.874072,-229.828649
3311.735883,592.164754,-8586.388927,-2221.676944
3311.736210,518.144159,-11547.212695,-612.876398
3311.736538,-296.082377,-11843.295072,766.095498
3311.736865,296.082377,-10066.800811,-689.485948
3311.737193,2220.617826,-8142.265362,-2451.505594
3311.737521,1702.473667,-9326.594869,-919.314598
3311.737848,740.205942,-9400.615463,1838.629195
3311.738176,-814.226536,-8808.450710,3217.601092
3311.738503,370.102971,-8216.285956,1302.362347
3311.738831,592.164754,-9326.594869,-689.485948
3311.739159,-592.164754,-11325.150913,-229.828649
3311.739486,-444.123565,-11177.109724,-995.924147
3311.739814,-814.226536,-10362.883188,-1915.238745
3311.740141,814.226536,-11103.089130,-2604.724693
3311.740469,1258.350101,-9548.656652,-2145.067394
3311.740797,962.267725,-9474.636058,612.876398
3311.741124,888.247130,-9474.636058,2451.505594
3311.741452,444.123565,-10436.903782,2451.505594
3311.741779,814.226536,-9474.636058,919.314598
3311.742107,814.226536,-7698.141797,-612.876398
3311.742435,-592.164754,-9252.574275,1225.752797
3311.742762,0.000000,-11621.233289,-766.095498
3311.743090,370.102971,-11547.212695,-1915.238745
3311.743417,1776.494261,-9030.512492,-3217.601092
3311.743745,666.185348,-8142.265362,-2374.896044
3311.744073,-1480.411884,-10658.965565,1915.238745
3311.744400,-2072.576638,-9844.739029,2528.115143
3311.744728,-370.102971,-9326.594869,689.485948
3311.745055,370.102971,-8438.347739,-536.266849
3311.745383,-1036.288319,-8142.265362,0.000000
3311.745711,-740.205942,-10436.903782,1455.581446
3311.746038,1110.308913,-10288.862594,0.000000
3311.746366,2220.617826,-11769.274478,-1378.971896
3311.746693,962.267725,-9770.718434,-1915.238745
3311.747021,148.041188,-8586.388927,-1225.752797
3311.747349,0.000000,-9326.594869,1378.971896
3311.747676,74.020594,-9622.677246,1991.848295
3311.748004,740.205942,-10732.986159,2145.067394
3311.748331,518.144159,-9326.594869,842.705048
3311.748659,296.082377,-7846.182985,-689.485948
3311.748987,-296.082377,-8956.491898,-306.438199
3311.749314,-1110.308913,-9844.739029,-536.266849
3311.749642,-222.061783,-11769.274478,-2145.067394
3311.749969,888.247130,-10510.924376,-3677.258390
3311.750297,2146.597232,-9696.697840,-2298.286494
3311.750625,1998.556043,-10436.903782,0.000000
3311.750952,444.123565,-10584.944971,2757.943793
3311.751280,962.267725,-10881.027347,1685.410096
3311.751607,-222.061783,-8808.450710,-306.438199
3311.751935,-1850.514855,-9548.656652,-1455.581446
3311.752263,-1776.494261,-8660.409521,-2068.457845
3311.752590,-296.082377,-7772.162391,-2451.505594
3311.752918,1332.370696,-10140.821405,-1915.238745
3311.753245,1554.432478,-10881.027347,0.000000
3311.753573,1554.432478,-10955.047942,1532.190996
3311.753901,2072.576638,-9252.574275,1532.190996
3311.754228,1480.411884,-9030.512492,153.219100
3311.754556,814.226536,-9770.718434,76.609550
3311.754883,-740.205942,-9918.759623,612.876398
3311.755211,0.000000,-10362.883188,842.705048
3311.755539,592.164754,-9178.553681,-689.485948
3311.755866,666.185348,-9992.780217,-2374.896044
3311.756194,-518.144159,-10955.047942,0.000000
3311.756521,-370.102971,-8290.306550,0.000000
3311.756849,296.082377,-8068.244768,-229.828649
3311.757177,0.000000,-9622.677246,153.219100
3311.757504,0.000000,-10214.842000,1072.533697
3311.757832,222.061783,-8290.306550,1455.581446
3311.758159,-444.123565,-8142.265362,766.095498
3311.758487,814.226536,-11177.109724,0.000000
3311.758815,444.123565,-9622.677246,-1072.533697
3311.759142,-148.041188,-9030.512492,-1532.190996
3311.759470,1258.350101,-9252.574275,-1149.143247
3311.759797,2590.720797,-10214.842000,-612.876398
3311.760125,1406.391290,-9474.636058,1072.533697
3311.760453,-592.164754,-9400.615463,2451.505594
3311.760780,370.102971,-9474.636058,229.828649
3311.761108,0.000000,-9474.636058,-1149.143247
3311.761435,-814.226536,-11917.315666,-536.266849
3311.761763,296.082377,-11399.171507,-1072.533697
3311.762091,-296.082377,-9400.615463,-689.485948
3311.762418,1554.432478,-10140.821405,-766.095498
3311.762746,1480.411884,-9918.759623,-1302.362347
3311.763073,740.205942,-9252.574275,-459.657299
3311.763401,148.041188,-8438.347739,766.095498
3311.763729,74.020594,-8660.409521,459.657299
3311.764056,1184.329507,-10288.862594,1072.533697
3311.764384,1554.432478,-10955.047942,1991.848295
3311.764711,1406.391290,-10066.800811,1225.752797
3311.765039,74.020594,-10436.903782,153.219100
3311.765367,-814.226536,-10066.800811,-1762.019645
3311.765694,-592.164754,-9104.533087,-2987.772442
3311.766022,-2590.720797,-8364.327145,-2221.676944
3311.766349,-2368.659014,-9252.574275,-612.876398
3311.766677,-1924.535449,-9474.636058,229.828649
3311.767005,148.041188,-9770.718434,842.705048
3311.767332,1924.535449,-9696.697840,766.095498
3311.767660,1776.494261,-10214.842000,1225.752797
3311.767987,2220.617826,-10214.842000,1608.800546
3311.768315,2516.700203,-9770.718434,-383.047749
3311.768643,1628.453072,-7550.100608,-766.095498
3311.768970,222.061783,-7846.182985,-612.876398
3311.769298,-296.082377,-10584.944971,306.438199
3311.769625,1110.308913,-10510.924376,-919.314598
3311.769953,0.000000,-9770.718434,-1149.143247
3311.770281,-1332.370696,-9474.636058,-536.266849
3311.770608,-518.144159,-9696.697840,459.657299
3311.770936,1110.308913,-10807.006753,1225.752797
3311.771263,1998.556043,-11547.212695,459.657299
3311.771591,0.000000,-13471.748144,-612.876398
3311.771919,1036.288319,-10066.800811,-2068.457845
3311.772246,1776.494261,-7402.059420,-4060.306139
3311.772574,-592.164754,-8364.327145,-1608.800546
3311.772901,-2886.803174,-8956.491898,1072.533697
3311.773229,-3478.967927,-8882.471304,1915.238745
3311.773557,518.144159,-8882.471304,0.000000
3311.773884,1776.494261,-9030.512492,-919.314598
3311.774212,1554.432478,-11029.068536,1149.143247
3311.774539,0.000000,-10955.047942,2604.724693
3311.774867,370.102971,-9696.697840,459.657299
3311.775195,3034.844362,-8216.285956,-3753.867940
3311.775522,1702.473667,-7994.224174,-2451.505594
3311.775850,0.000000,-10066.800811,1455.581446
3311.776177,-1184.329507,-10584.944971,2987.772442
3311.776505,296.082377,-10658.965565,766.095498
3311.776833,888.247130,-9918.759623,-1455.581446
3311.777160,-296.082377,-9918.759623,-689.485948
3311.777488,-888.247130,-8808.450710,1072.533697
3311.777815,-666.185348,-9400.615463,229.828649
3311.778143,814.226536,-11325.150913,-1378.971896
3311.778471,1776.494261,-9252.574275,-2451.505594
3311.778798,740.205942,-8438.347739,-689.485948
3311.779126,370.102971,-8586.388927,1685.410096
3311.779454,-296.082377,-8660.409521,2604.724693
3311.779781,740.205942,-9474.636058,612.876398
3311.780109,1184.329507,-9548.656652,-842.705048
3311.780436,1110.308913,-11177.109724,-383.047749
3311.780764,370.102971,-11251.130318,76.609550
3311.781092,-962.267725,-11843.295072,1225.752797
3311.781419,962.267725,-10510.924376,-2681.334243
3311.781747,888.247130,-8586.388927,-3370.820191
3311.782074,-296.082377,-9474.636058,-536.266849
3311.782402,-518.144159,-9622.677246,1455.581446
3311.782730,222.061783,-9770.718434,1378.971896
3311.783057,2146.597232,-8586.388927,-459.657299
3311.783385,814.226536,-8438.347739,536.266849
3311.783712,148.041188,-10732.986159,2528.115143
3311.784040,74.020594,-9030.512492,1072.533697
3311.784368,1628.453072,-9770.718434,-766.095498
3311.784695,2072.576638,-8808.450710,-3217.601092
3311.785023,666.185348,-10807.006753,-1532.190996
3311.785350,-666.185348,-10584.944971,1838.629195
3311.785678,-1258.350101,-8808.450710,1685.410096
3311.786006,-1554.432478,-9252.574275,0.000000
3311.786333,-296.082377,-8734.430116,-2298.286494
3311.786661,-1628.453072,-8882.471304,-1378.971896
3311.786988,-1998.556043,-10436.903782,459.657299
3311.787316,-296.082377,-10510.924376,536.266849
3311.787644,2368.659014,-10881.027347,-612.876398
3311.787971,3182.885551,-8808.450710,-1762.019645
3311.788299,2072.576638,-10510.924376,995.924147
3311.788626,2516.700203,-9400.615463,1838.629195
3311.788954,2738.761985,-8586.388927,1455.581446
3311.789282,962.267725,-10066.800811,1072.533697
3311.789609,-370.102971,-9548.656652,-306.438199
3311.789937,-2072.576638,-9548.656652,-919.314598
3311.790264,-1332.370696,-9622.677246,-1608.800546
3311.790592,-814.226536,-11029.068536,-1838.629195
3311.790920,1036.288319,-11843.295072,-2374.896044
3311.791247,2590.720797,-10807.006753,-2068.457845
3311.791575,1258.350101,-12213.398043,-306.438199
3311.791902,-148.041188,-10066.800811,153.219100
3311.792230,-666.185348,-8734.430116,-306.438199
3311.792558,-592.164754,-8290.306550,-919.314598
3311.792885,-1554.432478,-7624.121203,-306.438199
3311.793213,-2590.720797,-9252.574275,2068.457845
3311.793540,-518.144159,-9326.594869,1608.800546
3311.793868,1184.329507,-10066.800811,0.000000
3311.794196,1850.514855,-8512.368333,-1915.238745
3311.794523,592.164754,-9474.636058,-919.314598
3311.794851,-444.123565,-11251.130318,995.924147
3311.795178,1628.453072,-9474.636058,0.000000
3311.795506,1110.308913,-8956.491898,-153.219100
3311.795834,1184.329507,-9104.533087,1072.533697
3311.796161,592.164754,-9178.553681,2681.334243
3311.796489,74.020594,-10510.924376,2451.505594
3311.796816,-1110.308913,-9992.780217,-459.657299
3311.797144,-1332.370696,-10140.821405,-3294.210641
3311.797472,-370.102971,-8068.244768,-3677.258390
3311.797799,-148.041188,-9548.656652,-766.095498
3311.798127,-222.061783,-9474.636058,1225.752797
3311.798454,0.000000,-9622.677246,1455.581446
3311.798782,962.267725,-11547.212695,229.828649
3311.799110,518.144159,-8660.409521,-1072.533697
3311.799437,-296.082377,-7698.141797,0.000000
3311.799765,518.144159,-9030.512492,306.438199
3311.800092,592.164754,-12139.377449,766.095498
3311.800420,1036.288319,-11621.233289,-919.314598
3311.800748,1628.453072,-9622.677246,-1685.410096
3311.801075,666.185348,-11325.150913,-383.047749
3311.801403,1036.288319,-10214.842000,-459.657299
3311.801730,0.000000,-10140.821405,0.000000
3311.802058,-444.123565,-9400.615463,0.000000
3311.802386,-740.205942,-9326.594869,-919.314598
3311.802713,-1184.329507,-10436.903782,0.000000
3311.803041,-444.123565,-8512.368333,-229.828649
3311.803369,0.000000,-10214.842000,-383.047749
3311.803696,2072.576638,-10214.842000,-1532.190996
3311.804024,2886.803174,-10140.821405,-919.314598
3311.804352,1184.329507,-8586.388927,1455.581446
3311.804679,1554.432478,-7920.203579,1915.238745
3311.805007,0.000000,-9400.615463,2145.067394
3311.805335,-1110.308913,-7994.224174,1149.143247
3311.805663,-2442.679609,-8068.244768,-689.485948
3311.805990,-2886.803174,-9030.512492,-2528.115143
3311.806318,-1554.432478,-9326.594869,-3217.601092
3311.806646,-1036.288319,-10807.006753,-1608.800546
3311.806973,888.247130,-10214.842000,-1608.800546
3311.807301,2220.617826,-10807.006753,766.095498
3311.807629,2960.823768,-10436.903782,2298.286494
3311.807956,2812.782580,-9474.636058,1455.581446
3311.808284,1554.432478,-9622.677246,1838.629195
3311.808612,2664.741391,-7994.224174,766.095498
3311.808939,1036.288319,-8438.347739,1455.581446
3311.809267,888.247130,-9770.718434,383.047749
3311.809595,1110.308913,-10436.903782,-2145.067394
3311.809922,74.020594,-10732.986159,-2374.896044
3311.810250,-592.164754,-10362.883188,-2604.724693
3311.810578,-740.205942,-12657.521608,-1991.848295
3311.810905,1406.391290,-11103.089130,-1608.800546
3311.811233,1036.288319,-10955.047942,-306.438199
3311.811561,888.247130,-11621.233289,536.266849
3311.811888,1036.288319,-9474.636058,689.485948
3311.812216,0.000000,-10584.944971,383.047749
3311.812544,-1184.329507,-9474.636058,-995.924147
3311.812871,-3108.864956,-7994.224174,-1915.238745
3311.813199,-2072.576638,-7031.956449,-2221.676944
3311.813527,-444.123565,-7179.997637,-1532.190996
3311.813854,-888.247130,-9622.677246,1072.533697
3311.814182,-370.102971,-9770.718434,1915.238745
3311.814510,666.185348,-10362.883188,1915.238745
3311.814837,3330.926739,-9474.636058,-766.095498
3311.815165,2368.659014,-9326.594869,-306.438199
3311.815493,592.164754,-10881.027347,1455.581446
3311.815820,592.164754,-7994.224174,1532.190996
3311.816148,1702.473667,-9178.553681,689.485948
3311.816476,1702.473667,-8290.306550,-612.876398
3311.816803,-148.041188,-8216.285956,306.438199
3311.817131,-2294.638420,-8956.491898,919.314598
3311.817459,-2590.720797,-10658.965565,-1149.143247
3311.817787,-2664.741391,-11695.253884,-2528.115143
3311.818114,-592.164754,-9326.594869,-2374.896044
3311.818442,222.061783,-9178.553681,76.609550
3311.818770,740.205942,-11251.130318,1608.800546
3311.819097,1332.370696,-11325.150913,1455.581446
3311.819425,2072.576638,-9474.636058,-153.219100
3311.819753,2812.782580,-7624.121203,-1991.848295
3311.820080,-444.123565,-9326.594869,459.657299
3311.820408,-2146.597232,-8660.409521,1608.800546
3311.820736,-1702.473667,-9844.739029,1685.410096
3311.821063,74.020594,-12805.562797,-459.657299
3311.821391,1184.329507,-10362.883188,-2374.896044
3311.821719,-592.164754,-11843.295072,-1378.971896
3311.822046,-666.185348,-11325.150913,-995.924147
3311.822374,296.082377,-11251.130318,-1225.752797
3311.822702,1332.370696,-8586.388927,-1838.629195
3311.823029,1924.535449,-7031.956449,0.000000
3311.823357,0.000000,-10362.883188,1915.238745
3311.823685,1258.350101,-9548.656652,2221.676944
3311.824012,1628.453072,-9622.677246,1149.143247
3311.824340,1406.391290,-9474.636058,536.266849
3311.824668,148.041188,-8882.471304,229.828649
3311.824995,-2368.659014,-9844.739029,1838.629195
3311.825323,-1776.494261,-8808.450710,-1302.362347
3311.825651,-1110.308913,-9918.759623,-3753.867940
3311.825978,-666.185348,-8808.450710,-4366.744339
3311.826306,-1332.370696,-8956.491898,-1149.143247
3311.826634,-888.247130,-10066.800811,1532.190996
3311.826961,2294.638420,-9400.615463,2298.286494
3311.827289,2960.823768,-10658.965565,2451.505594
3311.827617,3404.947333,-8808.450710,1915.238745
3311.827944,1776.494261,-8956.491898,1378.971896
3311.828272,592.164754,-9030.512492,919.314598
3311.828600,888.247130,-9474.636058,-1838.629195
3311.828927,-444.123565,-9696.697840,-2911.162892
3311.829255,-444.123565,-8586.388927,-3217.601092
3311.829583,0.000000,-10584.944971,-919.314598
3311.829911,1184.329507,-10510.924376,229.828649
3311.830238,1776.494261,-10881.027347,1685.410096
3311.830566,2220.617826,-12065.356855,1991.848295
3311.830894,2368.659014,-9770.718434,0.000000
3311.831221,740.205942,-10288.862594,76.609550
3311.831549,222.061783,-9474.636058,-306.438199
3311.831877,-148.041188,-8956.491898,-1302.362347
3311.832204,0.000000,-9918.759623,-1762.019645
3311.832532,-296.082377,-8660.409521,-2374.896044
3311.832860,-1406.391290,-10140.821405,-842.705048
3311.833187,-592.164754,-10362.883188,-76.609550
3311.833515,-148.041188,-9770.718434,306.438199
3311.833843,518.144159,-8068.244768,153.219100
3311.834170,1332.370696,-8216.285956,612.876398
3311.834498,0.000000,-10732.986159,2298.286494
3311.834826,1554.432478,-9844.739029,995.924147
3311.835153,1850.514855,-9252.574275,-1225.752797
3311.835481,1776.494261,-9178.553681,-1762.019645
3311.835809,296.082377,-9548.656652,-229.828649
3311.836136,-740.205942,-10214.842000,1762.019645
3311.836464,-962.267725,-7994.224174,689.485948
3311.836792,-1850.514855,-9030.512492,0.000000
3311.837119,-444.123565,-8956.491898,536.266849
3311.837447,-1702.473667,-10140.821405,1225.752797
3311.837775,-1776.494261,-10881.027347,689.485948
3311.838102,-1258.350101,-9252.574275,-1455.581446
3311.838430,-666.185348,-9622.677246,-2068.457845
3311.838758,740.205942,-8734.430116,-2451.505594
3311.839085,1036.288319,-8290.306550,0.000000
3311.839413,1628.453072,-8142.265362,1762.019645
3311.839741,1110.308913,-11177.109724,1225.752797
3311.840068,74.020594,-11399.171507,842.705048
3311.840396,0.000000,-8660.409521,-612.876398
3311.840724,-518.144159,-10288.862594,383.047749
3311.841051,148.041188,-11769.274478,0.000000
3311.841379,-592.164754,-10881.027347,-1455.581446
3311.841707,962.267725,-10955.047942,-3294.210641
3311.842035,2072.576638,-9696.697840,-3140.991542
3311.842362,1332.370696,-10436.903782,-306.438199
