#time,accel_x,accel_y,accel_z
3094.472316,-296.082377,-9696.697840,-766.095498
3094.472644,148.041188,-9918.759623,-689.485948
3094.472971,296.082377,-9696.697840,0.000000
3094.473299,592.164754,-9844.739029,0.000000
3094.473627,666.185348,-9548.656652,766.095498
3094.473954,592.164754,-9474.636058,459.657299
3094.474282,444.123565,-9400.615463,536.266849
3094.474609,222.061783,-9178.553681,76.609550
3094.474937,222.061783,-9030.512492,383.047749
3094.475265,148.041188,-8808.450710,0.000000
3094.475592,0.000000,-8882.471304,0.000000
3094.475920,-222.061783,-8808.450710,0.000000
3094.476248,222.061783,-9474.636058,-306.438199
3094.476575,370.102971,-9548.656652,-229.828649
3094.476903,518.144159,-9548.656652,0.000000
3094.477230,592.164754,-9548.656652,229.828649
3094.477558,740.205942,-9474.636058,306.438199
3094.477886,814.226536,-9474.636058,153.219100
3094.478213,666.185348,-9400.615463,0.000000
3094.478541,592.164754,-9770.718434,-306.438199
3094.478869,296.082377,-9696.697840,-306.438199
3094.479196,0.000000,-9770.718434,-766.095498
3094.479524,296.082377,-10066.800811,-766.095498
3094.479851,148.041188,-9992.780217,-766.095498
3094.480179,296.082377,-10362.883188,-536.266849
3094.480507,296.082377,-10214.842000,-612.876398
3094.480834,1110.308913,-10955.047942,-306.438199
3094.481162,666.185348,-10658.965565,-459.657299
3094.481489,518.144159,-10436.903782,0.000000
3094.481817,370.102971,-9918.759623,-153.219100
3094.482145,0.000000,-10214.842000,-536.266849
3094.482472,370.102971,-9400.615463,0.000000
3094.482800,296.082377,-9326.594869,-612.876398
3094.483128,-222.061783,-9474.636058,76.609550
3094.483455,-296.082377,-9770.718434,-536.266849
3094.483783,0.000000,-9474.636058,-536.266849
3094.484110,222.061783,-9548.656652,-306.438199
3094.484438,148.041188,-9548.656652,0.000000
3094.484766,740.205942,-9548.656652,-306.438199
3094.485093,666.185348,-9326.594869,1302.362347
3094.485421,518.144159,-9252.574275,536.266849
3094.485748,444.123565,-9178.553681,306.438199
3094.486076,0.000000,-8956.491898,383.047749
3094.486404,0.000000,-8660.409521,153.219100
3094.486731,0.000000,-9030.512492,76.609550
3094.487059,0.000000,-9252.574275,-459.657299
3094.487387,222.061783,-9030.512492,0.000000
3094.487714,518.144159,-9696.697840,-766.095498
3094.488042,444.123565,-10066.800811,-306.438199
3094.488369,740.205942,-9992.780217,-306.438199
3094.488697,814.226536,-10066.800811,0.000000
3094.489025,740.205942,-9474.636058,0.000000
3094.489352,962.267725,-9474.636058,229.828649
3094.489680,518.144159,-9622.677246,-383.047749
3094.490007,444.123565,-9104.533087,-383.047749
3094.490335,814.226536,-9400.615463,-766.095498
3094.490663,1184.329507,-9844.739029,-612.876398
3094.490990,2368.659014,-9622.677246,-995.924147
3094.491318,3256.906145,-9400.615463,-383.047749
3094.491646,4145.153275,-9548.656652,-383.047749
3094.491973,5625.565159,-10807.006753,0.000000
3094.492301,6809.894666,-10658.965565,-766.095498
3094.492628,7105.977043,-10510.924376,0.000000
3094.492956,7402.059420,-9992.780217,0.000000
3094.493284,8142.265362,-10214.842000,0.000000
3094.493611,7698.141797,-9918.759623,612.876398
3094.493939,7476.080014,-9770.718434,919.314598
3094.494267,8290.306550,-8660.409521,76.609550
3094.494594,9178.553681,-9104.533087,0.000000
3094.494922,9696.697840,-9178.553681,76.609550
3094.495249,10436.903782,-8734.430116,153.219100
3094.495577,11325.150913,-8882.471304,306.438199
3094.495905,11547.212695,-9474.636058,1072.533697
3094.496232,11251.130318,-9400.615463,459.657299
3094.496560,11547.212695,-9252.574275,766.095498
3094.496887,10955.047942,-8808.450710,995.924147
3094.497215,12065.356855,-8882.471304,229.828649
3094.497543,12435.459826,-9178.553681,0.000000
3094.497870,13249.686362,-9992.780217,306.438199
3094.498198,13619.789333,-9548.656652,1072.533697
3094.498526,14137.933492,-8068.244768,76.609550
3094.498853,13693.809927,-8364.327145,0.000000
3094.499181,13545.768739,-10066.800811,1072.533697
3094.499508,13175.665768,-10066.800811,459.657299
3094.499836,13545.768739,-10584.944971,153.219100
3094.500164,13323.706956,-10436.903782,459.657299
3094.500491,13545.768739,-9622.677246,612.876398
3094.500819,12509.480420,-8882.471304,1762.019645
3094.501146,11177.109724,-9030.512492,1149.143247
3094.501474,10807.006753,-9326.594869,0.000000
3094.501802,10436.903782,-10510.924376,-612.876398
3094.502129,9326.594869,-10362.883188,-1149.143247
3094.502457,8808.450710,-10436.903782,-919.314598
3094.502785,7698.141797,-9474.636058,-1149.143247
3094.503112,8586.388927,-8882.471304,-383.047749
3094.503440,10658.965565,-9770.718434,-459.657299
3094.503767,11103.089130,-11251.130318,0.000000
3094.504095,10658.965565,-11843.295072,1149.143247
3094.504423,9918.759623,-10436.903782,1225.752797
3094.504750,8660.409521,-8290.306550,536.266849
3094.505078,7994.224174,-7402.059420,459.657299
3094.505405,7772.162391,-8068.244768,919.314598
3094.505733,8068.244768,-9770.718434,459.657299
3094.506061,7179.997637,-11843.295072,0.000000
3094.506388,6957.935855,-9696.697840,-536.266849
3094.506716,6587.832884,-8142.265362,-1225.752797
3094.507044,5477.523971,-9474.636058,0.000000
3094.507371,5403.503377,-9770.718434,1072.533697
3094.507699,6587.832884,-9548.656652,0.000000
3094.508026,7624.121203,-9474.636058,153.219100
3094.508354,7476.080014,-9326.594869,536.266849
3094.508682,6069.688724,-8068.244768,842.705048
3094.509009,2368.659014,-7624.121203,2528.115143
3094.509337,1776.494261,-8068.244768,1455.581446
3094.509665,4663.297435,-9844.739029,-1302.362347
3094.509992,5329.482782,-11251.130318,-3064.381992
3094.510320,4367.215058,-9474.636058,-1072.533697
3094.510647,3404.947333,-8956.491898,383.047749
3094.510975,3404.947333,-10140.821405,459.657299
3094.511303,2294.638420,-10955.047942,-229.828649
3094.511630,1480.411884,-8660.409521,-1608.800546
3094.511958,1998.556043,-7624.121203,-2298.286494
3094.512285,4367.215058,-10658.965565,-536.266849
3094.512613,5625.565159,-11029.068536,153.219100
3094.512941,4219.173869,-9474.636058,1072.533697
3094.513268,2886.803174,-9326.594869,842.705048
3094.513596,3552.988522,-10066.800811,-1455.581446
3094.513924,3478.967927,-10436.903782,-2681.334243
3094.514251,3256.906145,-10955.047942,-919.314598
3094.514579,5773.606348,-11473.192101,-383.047749
3094.514906,5255.462188,-9326.594869,76.609550
3094.515234,2368.659014,-9696.697840,689.485948
3094.515562,222.061783,-11399.171507,1762.019645
3094.515889,1332.370696,-10288.862594,-306.438199
3094.516217,1406.391290,-9104.533087,-2604.724693
3094.516544,-814.226536,-8512.368333,-1302.362347
3094.516872,-518.144159,-8660.409521,306.438199
3094.517200,1184.329507,-7846.182985,1532.190996
3094.517527,1554.432478,-9178.553681,2068.457845
3094.517855,592.164754,-10288.862594,1532.190996
3094.518183,888.247130,-9400.615463,0.000000
3094.518510,222.061783,-8438.347739,-383.047749
3094.518838,0.000000,-9178.553681,-536.266849
3094.519165,1702.473667,-9770.718434,-153.219100
3094.519493,2294.638420,-10066.800811,229.828649
3094.519821,2368.659014,-11029.068536,1915.238745
3094.520148,1480.411884,-11177.109724,383.047749
3094.520476,888.247130,-9918.759623,-459.657299
3094.520803,518.144159,-8734.430116,-306.438199
3094.521131,-444.123565,-10140.821405,-1225.752797
3094.521459,0.000000,-9178.553681,-1455.581446
3094.521786,444.123565,-8364.327145,459.657299
3094.522114,74.020594,-9696.697840,2451.505594
3094.522442,0.000000,-9844.739029,1838.629195
3094.522769,-592.164754,-8586.388927,76.609550
3094.523097,-2146.597232,-9696.697840,-229.828649
3094.523424,-2146.597232,-10436.903782,-1378.971896
3094.523752,-1628.453072,-9622.677246,-2221.676944
3094.524080,-1924.535449,-11547.212695,-459.657299
3094.524407,-1998.556043,-11325.150913,536.266849
3094.524735,-1406.391290,-9918.759623,-1991.848295
3094.525063,-3182.885551,-9844.739029,-995.924147
3094.525390,-2294.638420,-11251.130318,-153.219100
3094.525718,444.123565,-8512.368333,-1915.238745
3094.526045,-592.164754,-7105.977043,-383.047749
3094.526373,-1480.411884,-8808.450710,2528.115143
3094.526701,444.123565,-9918.759623,919.314598
3094.527028,-222.061783,-8290.306550,-842.705048
3094.527356,-1702.473667,-9400.615463,-1225.752797
3094.527683,-1480.411884,-10584.944971,-1302.362347
3094.528011,222.061783,-10955.047942,-1455.581446
3094.528339,444.123565,-11843.295072,0.000000
3094.528666,0.000000,-11843.295072,0.000000
3094.528994,-296.082377,-9474.636058,-536.266849
3094.529322,-592.164754,-9326.594869,-689.485948
3094.529649,-518.144159,-9548.656652,-229.828649
3094.529977,370.102971,-6661.853478,-1302.362347
3094.530304,518.144159,-5921.647536,-306.438199
3094.530632,592.164754,-9178.553681,2604.724693
3094.530960,2664.741391,-8290.306550,1915.238745
3094.531287,4145.153275,-7105.977043,766.095498
3094.531615,2442.679609,-10658.965565,995.924147
3094.531942,2220.617826,-13323.706956,0.000000
3094.532270,3330.926739,-11695.253884,-2374.896044
3094.532598,2294.638420,-11029.068536,-1225.752797
3094.532925,666.185348,-12509.480420,0.000000
3094.533253,1110.308913,-11177.109724,842.705048
3094.533581,74.020594,-8882.471304,536.266849
3094.533908,-1628.453072,-9474.636058,459.657299
3094.534236,-1184.329507,-8364.327145,-1532.190996
3094.534563,-814.226536,-5699.585753,-1608.800546
3094.534891,-222.061783,-6439.791695,1072.533697
3094.535219,2294.638420,-7031.956449,1378.971896
3094.535546,3701.029710,-8438.347739,842.705048
3094.535874,1924.535449,-9770.718434,1378.971896
3094.536202,2812.782580,-12213.398043,-306.438199
3094.536529,4219.173869,-12657.521608,-2221.676944
3094.536857,2960.823768,-13397.727550,-459.657299
3094.537184,1776.494261,-14952.160028,1225.752797
3094.537512,1110.308913,-11843.295072,-842.705048
3094.537839,-518.144159,-8216.285956,-2145.067394
3094.538167,-2516.700203,-8660.409521,-919.314598
3094.538494,-3775.050304,-7772.162391,-383.047749
3094.538822,-2516.700203,-4885.359217,-1072.533697
3094.539149,-1258.350101,-6069.688724,229.828649
3094.539477,592.164754,-7994.224174,995.924147
3094.539804,2294.638420,-8142.265362,306.438199
3094.540132,1406.391290,-7846.182985,1149.143247
3094.540459,1702.473667,-10807.006753,919.314598
3094.540787,2664.741391,-12583.501014,-1532.190996
3094.541114,2220.617826,-13767.830521,-2298.286494
3094.541442,0.000000,-14656.077652,-842.705048
3094.541769,0.000000,-13101.645173,-1302.362347
3094.542097,-1480.411884,-10066.800811,-1762.019645
3094.542425,-5033.400406,-9696.697840,0.000000
3094.542752,-5403.503377,-7994.224174,-1455.581446
3094.543080,-4293.194464,-4663.297435,-3370.820191
3094.543407,-3997.112087,-3997.112087,-995.924147
3094.543735,-1184.329507,-7105.977043,1455.581446
3094.544062,2886.803174,-7476.080014,919.314598
3094.544390,2442.679609,-8660.409521,2604.724693
3094.544717,666.185348,-10214.842000,2834.553343
3094.545045,2368.659014,-10658.965565,-383.047749
3094.545372,2072.576638,-12435.459826,-1915.238745
3094.545700,0.000000,-15396.283594,-689.485948
3094.546027,-148.041188,-14211.954086,-995.924147
3094.546355,-1258.350101,-10807.006753,-2221.676944
3094.546682,-4071.132681,-10955.047942,-612.876398
3094.547010,-4737.318029,-9770.718434,-306.438199
3094.547337,-3256.906145,-4885.359217,-2451.505594
3094.547665,-1924.535449,-4737.318029,153.219100
3094.547992,222.061783,-6957.935855,2298.286494
3094.548320,4145.153275,-6735.874072,919.314598
3094.548647,3034.844362,-6883.915261,1915.238745
3094.548975,1184.329507,-7994.224174,4290.134789
3094.549302,4145.153275,-9622.677246,229.828649
3094.549630,4737.318029,-12065.356855,-2528.115143
3094.549958,1998.556043,-15026.180623,-1302.362347
3094.550285,1406.391290,-14063.912898,-1991.848295
3094.550613,666.185348,-11473.192101,-2681.334243
3094.550940,-1924.535449,-12139.377449,-536.266849
3094.551268,-2220.617826,-10510.924376,-153.219100
3094.551595,-444.123565,-5921.647536,-2451.505594
3094.551923,-1480.411884,-5921.647536,153.219100
3094.552250,666.185348,-8142.265362,1532.190996
3094.552578,5033.400406,-5847.626942,0.000000
3094.552905,3034.844362,-4737.318029,1838.629195
3094.553233,444.123565,-8734.430116,4136.915689
3094.553560,2294.638420,-11695.253884,1149.143247
3094.553888,4293.194464,-13101.645173,-3677.258390
3094.554215,3182.885551,-15396.283594,-3370.820191
3094.554543,2664.741391,-15544.324782,-3677.258390
3094.554870,1776.494261,-13989.892304,-2834.553343
3094.555198,-1332.370696,-13841.851115,229.828649
3094.555525,-2738.761985,-11621.233289,459.657299
3094.555853,-2442.679609,-6661.853478,-612.876398
3094.556180,-2960.823768,-4071.132681,153.219100
3094.556508,-1406.391290,-5625.565159,1838.629195
3094.556835,888.247130,-5107.421000,995.924147
3094.557163,296.082377,-5033.400406,1915.238745
3094.557491,-1332.370696,-7846.182985,4136.915689
3094.557818,1850.514855,-10066.800811,2528.115143
3094.558146,3775.050304,-10510.924376,-2068.457845
3094.558473,4219.173869,-14730.098246,-919.314598
3094.558801,2812.782580,-15174.221811,-306.438199
3094.559128,888.247130,-12361.439231,-1225.752797
3094.559456,-2442.679609,-11103.089130,-306.438199
3094.559783,-5329.482782,-10436.903782,1225.752797
3094.560111,-5699.585753,-6661.853478,0.000000
3094.560438,-5181.441594,-3478.967927,-766.095498
3094.560766,-4885.359217,-4737.318029,229.828649
3094.561093,-2072.576638,-7105.977043,0.000000
3094.561421,0.000000,-6291.750507,-229.828649
3094.561748,74.020594,-6513.812290,2528.115143
3094.562076,2220.617826,-9548.656652,2451.505594
3094.562403,4145.153275,-11769.274478,-1149.143247
3094.562731,3552.988522,-14063.912898,-1532.190996
3094.563058,3775.050304,-15396.283594,-1608.800546
3094.563386,4219.173869,-14582.057057,-2681.334243
3094.563713,1554.432478,-14137.933492,-766.095498
3094.564041,-1480.411884,-12953.603985,536.266849
3094.564369,-2072.576638,-9030.512492,-1378.971896
3094.564696,-2960.823768,-5699.585753,-2911.162892
3094.565024,-4145.153275,-7105.977043,-766.095498
3094.565351,-2812.782580,-5773.606348,-306.438199
3094.565679,-1332.370696,-4959.379811,-306.438199
3094.566006,0.000000,-8586.388927,2604.724693
3094.566334,2220.617826,-11473.192101,3370.820191
3094.566661,5773.606348,-11029.068536,306.438199
3094.566989,5181.441594,-12139.377449,-1532.190996
3094.567316,4589.276840,-15322.262999,-3294.210641
3094.567644,4219.173869,-14063.912898,-2834.553343
3094.567971,1702.473667,-11843.295072,-612.876398
3094.568299,-1258.350101,-11251.130318,1149.143247
3094.568626,-1036.288319,-7772.162391,-459.657299
3094.568954,-2146.597232,-5995.668130,-995.924147
3094.569281,-4219.173869,-7254.018232,1532.190996
3094.569609,-2294.638420,-6513.812290,1608.800546
3094.569936,-814.226536,-4959.379811,0.000000
3094.570264,-2368.659014,-5551.544565,2145.067394
3094.570591,222.061783,-7846.182985,3294.210641
3094.570919,3849.070898,-9400.615463,842.705048
3094.571246,4441.235652,-10955.047942,0.000000
3094.571574,3552.988522,-13027.624579,-229.828649
3094.571902,4145.153275,-13619.789333,-3064.381992
3094.572229,1998.556043,-12213.398043,-1149.143247
3094.572557,-296.082377,-11399.171507,842.705048
3094.572884,-1998.556043,-8882.471304,0.000000
3094.573212,-2368.659014,-7994.224174,-995.924147
3094.573539,-2886.803174,-8290.306550,0.000000
3094.573867,-2738.761985,-7254.018232,0.000000
3094.574194,-1036.288319,-6217.729913,229.828649
3094.574522,-518.144159,-8660.409521,1915.238745
3094.574849,518.144159,-10658.965565,2528.115143
3094.575177,2442.679609,-10658.965565,536.266849
3094.575504,2442.679609,-9770.718434,-995.924147
3094.575832,1776.494261,-12657.521608,-2451.505594
3094.576159,2294.638420,-14285.974681,-3753.867940
3094.576487,1924.535449,-12139.377449,-3447.429741
3094.576814,-1036.288319,-11991.336260,-536.266849
3094.577142,-1628.453072,-11843.295072,1072.533697
3094.577469,-814.226536,-8586.388927,-689.485948
3094.577797,-2368.659014,-7846.182985,-612.876398
3094.578124,-2738.761985,-8660.409521,306.438199
3094.578452,-2368.659014,-7105.977043,0.000000
3094.578779,-2368.659014,-6957.935855,1915.238745
3094.579107,-2294.638420,-8438.347739,3677.258390
3094.579435,1406.391290,-8586.388927,842.705048
3094.579762,2294.638420,-9178.553681,229.828649
3094.580090,740.205942,-11399.171507,229.828649
3094.580417,1998.556043,-12213.398043,-1991.848295
3094.580745,2590.720797,-11325.150913,-4366.744339
3094.581072,1480.411884,-11103.089130,-2451.505594
3094.581400,444.123565,-10436.903782,-842.705048
3094.581727,0.000000,-7105.977043,1302.362347
3094.582055,-666.185348,-6883.915261,2221.676944
3094.582382,-1258.350101,-8512.368333,1455.581446
3094.582710,-592.164754,-7328.038826,-383.047749
3094.583037,-1554.432478,-6809.894666,0.000000
3094.583365,-1184.329507,-7994.224174,2221.676944
3094.583692,1406.391290,-9474.636058,-229.828649
3094.584020,1776.494261,-9474.636058,-536.266849
3094.584347,2220.617826,-11177.109724,229.828649
3094.584675,4441.235652,-12139.377449,-2298.286494
3094.585002,5847.626942,-12435.459826,-3524.039291
3094.585330,4737.318029,-13915.871710,-689.485948
3094.585657,3404.947333,-11251.130318,1225.752797
3094.585985,1924.535449,-7550.100608,536.266849
3094.586312,-1036.288319,-8142.265362,383.047749
3094.586640,-3034.844362,-8438.347739,995.924147
3094.586968,-2146.597232,-7994.224174,-612.876398
3094.587295,-2590.720797,-7772.162391,-919.314598
3094.587623,-3034.844362,-9844.739029,-229.828649
3094.587950,-2072.576638,-10807.006753,0.000000
3094.588278,1184.329507,-11177.109724,-459.657299
3094.588605,1924.535449,-11325.150913,0.000000
3094.588933,3552.988522,-11843.295072,-1149.143247
3094.589260,3256.906145,-10436.903782,-1685.410096
3094.589588,3923.091493,-11621.233289,-919.314598
3094.589915,2886.803174,-11473.192101,383.047749
3094.590243,1628.453072,-8438.347739,766.095498
3094.590570,1036.288319,-6883.915261,1302.362347
3094.590898,-814.226536,-9548.656652,1838.629195
3094.591225,-1480.411884,-9400.615463,459.657299
3094.591553,-2220.617826,-6217.729913,-1302.362347
3094.591880,-3923.091493,-8142.265362,0.000000
3094.592208,-2960.823768,-9400.615463,1072.533697
3094.592535,-592.164754,-8290.306550,0.000000
3094.592863,-296.082377,-10732.986159,1302.362347
3094.593190,1036.288319,-12065.356855,306.438199
3094.593518,3256.906145,-10510.924376,-3294.210641
3094.593846,2664.741391,-9918.759623,-2834.553343
3094.594173,1258.350101,-10362.883188,0.000000
3094.594501,1184.329507,-8216.285956,459.657299
3094.594828,1036.288319,-6291.750507,0.000000
3094.595156,370.102971,-9622.677246,1072.533697
3094.595483,444.123565,-11621.233289,766.095498
3094.595811,-296.082377,-8512.368333,0.000000
3094.596138,-2664.741391,-9030.512492,919.314598
3094.596466,-3108.864956,-10955.047942,459.657299
3094.596793,-2072.576638,-10214.842000,-1838.629195
3094.597121,-2442.679609,-9992.780217,-766.095498
3094.597448,-666.185348,-11029.068536,-1378.971896
3094.597776,1628.453072,-10510.924376,-4443.353888
3094.598103,814.226536,-10214.842000,-2604.724693
3094.598431,222.061783,-10881.027347,229.828649
3094.598758,1480.411884,-9622.677246,306.438199
3094.599086,1924.535449,-7476.080014,0.000000
3094.599413,962.267725,-8882.471304,1532.190996
3094.599741,518.144159,-10436.903782,2068.457845
3094.600068,1110.308913,-8068.244768,459.657299
3094.600396,-1702.473667,-8438.347739,1455.581446
3094.600723,-2442.679609,-10214.842000,1838.629195
3094.601051,-1184.329507,-9474.636058,-383.047749
3094.601379,-1850.514855,-10584.944971,-459.657299
3094.601706,-666.185348,-10807.006753,153.219100
3094.602034,1924.535449,-10510.924376,-2834.553343
3094.602361,888.247130,-9918.759623,-2757.943793
3094.602689,148.041188,-10436.903782,0.000000
3094.603016,2220.617826,-8586.388927,0.000000
3094.603344,3256.906145,-6883.915261,-459.657299
3094.603671,1628.453072,-8956.491898,2374.896044
3094.603999,1998.556043,-9400.615463,3524.039291
3094.604326,2294.638420,-6365.771101,2145.067394
3094.604654,962.267725,-8364.327145,919.314598
3094.604981,-1110.308913,-10584.944971,1378.971896
3094.605309,-888.247130,-10436.903782,-766.095498
3094.605636,-518.144159,-11325.150913,-1225.752797
3094.605964,1110.308913,-12065.356855,-2068.457845
3094.606291,2590.720797,-11325.150913,-3907.087040
3094.606619,740.205942,-10362.883188,-2451.505594
3094.606946,-1258.350101,-10955.047942,306.438199
3094.607274,296.082377,-9104.533087,-1532.190996
3094.607601,2886.803174,-7624.121203,-2451.505594
3094.607929,2442.679609,-8660.409521,0.000000
3094.608256,1998.556043,-9770.718434,2068.457845
3094.608584,2146.597232,-8512.368333,2374.896044
3094.608912,888.247130,-8734.430116,536.266849
3094.609239,148.041188,-10881.027347,-689.485948
3094.609567,0.000000,-10658.965565,-383.047749
3094.609894,-1184.329507,-10584.944971,-689.485948
3094.610222,-740.205942,-11843.295072,-995.924147
3094.610549,0.000000,-11917.315666,-2834.553343
3094.610877,-888.247130,-10066.800811,-3294.210641
3094.611204,-814.226536,-9548.656652,-689.485948
3094.611532,1924.535449,-9178.553681,-306.438199
3094.611859,2812.782580,-7105.977043,306.438199
3094.612187,2738.761985,-7179.997637,1455.581446
3094.612514,1776.494261,-8364.327145,2987.772442
3094.612842,370.102971,-6883.915261,2604.724693
3094.613169,-888.247130,-5773.606348,1455.581446
3094.613497,-2960.823768,-8290.306550,2068.457845
3094.613824,-2072.576638,-10584.944971,459.657299
3094.614152,-1702.473667,-11547.212695,-1838.629195
3094.614479,-2294.638420,-12805.562797,-842.705048
3094.614807,-1184.329507,-13027.624579,-1225.752797
3094.615134,148.041188,-10732.986159,-2298.286494
3094.615462,-1036.288319,-8290.306550,-1149.143247
3094.615789,-888.247130,-7772.162391,0.000000
3094.616117,518.144159,-7105.977043,-459.657299
3094.616445,1554.432478,-8068.244768,-229.828649
3094.616772,1258.350101,-10658.965565,1455.581446
3094.617100,1924.535449,-9474.636058,2145.067394
3094.617427,1776.494261,-8068.244768,766.095498
3094.617755,0.000000,-11399.171507,229.828649
3094.618082,0.000000,-12731.542202,-1915.238745
3094.618410,148.041188,-10288.862594,-2221.676944
3094.618737,-740.205942,-11917.315666,-995.924147
3094.619065,-370.102971,-13693.809927,-766.095498
3094.619392,-518.144159,-11251.130318,-1685.410096
3094.619720,-1776.494261,-10140.821405,-766.095498
3094.620047,-1924.535449,-9548.656652,-842.705048
3094.620375,888.247130,-7476.080014,-2757.943793
3094.620702,2072.576638,-6883.915261,-2451.505594
3094.621030,1258.350101,-8956.491898,1685.410096
3094.621357,2146.597232,-8068.244768,2451.505594
3094.621685,2886.803174,-6439.791695,1532.190996
3094.622012,1850.514855,-9918.759623,2298.286494
3094.622340,2368.659014,-12435.459826,1685.410096
3094.622667,3256.906145,-11177.109724,-766.095498
3094.622995,740.205942,-11991.336260,-306.438199
3094.623323,-444.123565,-13693.809927,76.609550
3094.623650,-1480.411884,-10658.965565,-2068.457845
3094.623978,-3256.906145,-7624.121203,-1915.238745
3094.624305,-2812.782580,-8438.347739,-1225.752797
3094.624633,-296.082377,-7105.977043,-2528.115143
3094.624960,-296.082377,-5033.400406,-1532.190996
3094.625288,592.164754,-7254.018232,2068.457845
3094.625615,2738.761985,-7179.997637,2374.896044
3094.625943,2294.638420,-7105.977043,2298.286494
3094.626270,296.082377,-9622.677246,2681.334243
3094.626598,814.226536,-10436.903782,459.657299
3094.626925,2368.659014,-10288.862594,-1455.581446
3094.627253,2072.576638,-13249.686362,-383.047749
3094.627580,518.144159,-15322.262999,842.705048
3094.627908,-1110.308913,-11695.253884,-995.924147
3094.628235,-2442.679609,-9548.656652,-3064.381992
3094.628563,-3404.947333,-11103.089130,-2451.505594
3094.628890,-1406.391290,-9474.636058,-2987.772442
3094.629218,0.000000,-6439.791695,-1302.362347
3094.629545,1258.350101,-7550.100608,1302.362347
3094.629873,2294.638420,-8290.306550,2604.724693
3094.630200,1332.370696,-7105.977043,2145.067394
3094.630528,-814.226536,-7402.059420,2681.334243
3094.630856,-1036.288319,-10584.944971,766.095498
3094.631183,1702.473667,-12139.377449,-2374.896044
3094.631511,666.185348,-12213.398043,-1838.629195
3094.631838,-222.061783,-14211.954086,-612.876398
3094.632166,-518.144159,-12731.542202,-689.485948
3094.632493,-2072.576638,-11103.089130,-995.924147
3094.632821,-2664.741391,-10066.800811,-1378.971896
3094.633148,-1998.556043,-8142.265362,-2374.896044
3094.633476,-148.041188,-6143.709319,-1915.238745
3094.633803,444.123565,-6587.832884,1378.971896
3094.634131,1776.494261,-6587.832884,2681.334243
3094.634458,2738.761985,-5551.544565,2145.067394
3094.634786,1110.308913,-7254.018232,2221.676944
3094.635113,74.020594,-10288.862594,1838.629195
3094.635441,666.185348,-11103.089130,-1378.971896
3094.635768,1258.350101,-11029.068536,-2834.553343
3094.636096,740.205942,-13249.686362,-2221.676944
3094.636423,370.102971,-13323.706956,-689.485948
3094.636751,-222.061783,-11029.068536,0.000000
3094.637078,-1258.350101,-10140.821405,0.000000
3094.637406,-666.185348,-9474.636058,-1532.190996
3094.637733,814.226536,-6587.832884,-2298.286494
3094.638061,1184.329507,-6217.729913,0.000000
3094.638389,1036.288319,-7698.141797,2298.286494
3094.638716,2590.720797,-6809.894666,1915.238745
3094.639044,2072.576638,-6143.709319,1762.019645
3094.639372,962.267725,-10214.842000,1838.629195
3094.639699,2294.638420,-11843.295072,-842.705048
3094.640027,3256.906145,-11325.150913,-2451.505594
3094.640355,2146.597232,-13767.830521,-766.095498
3094.640683,962.267725,-15544.324782,689.485948
3094.641010,0.000000,-13175.665768,383.047749
3094.641338,-1406.391290,-11547.212695,459.657299
3094.641666,-2368.659014,-9548.656652,-1225.752797
3094.641993,-1850.514855,-6587.832884,-2911.162892
3094.642321,-1776.494261,-4811.338623,-689.485948
3094.642649,-1480.411884,-5995.668130,995.924147
3094.642976,0.000000,-6217.729913,1149.143247
3094.643304,1332.370696,-7328.038826,1838.629195
3094.643632,2590.720797,-11029.068536,2681.334243
3094.643959,3108.864956,-11843.295072,0.000000
3094.644287,2812.782580,-11473.192101,-995.924147
3094.644615,1776.494261,-14211.954086,0.000000
3094.644943,1924.535449,-14952.160028,-766.095498
3094.645270,74.020594,-11177.109724,-536.266849
3094.645598,-2294.638420,-9252.574275,383.047749
3094.645926,-3478.967927,-8586.388927,689.485948
3094.646253,-2368.659014,-7105.977043,-1302.362347
3094.646581,-2442.679609,-7179.997637,-1302.362347
3094.646909,-1998.556043,-7698.141797,76.609550
3094.647236,444.123565,-6513.812290,-306.438199
3094.647564,1480.411884,-6661.853478,76.609550
3094.647892,518.144159,-9992.780217,919.314598
3094.648219,888.247130,-10436.903782,612.876398
3094.648547,2812.782580,-9770.718434,-1608.800546
3094.648875,3627.009116,-13397.727550,-1225.752797
3094.649202,2886.803174,-15322.262999,-612.876398
3094.649530,2220.617826,-13175.665768,0.000000
3094.649858,0.000000,-11843.295072,1225.752797
3094.650186,-2368.659014,-11325.150913,-1072.533697
3094.650513,-1998.556043,-8290.306550,-4903.011187
3094.650841,-2516.700203,-6809.894666,-3677.258390
3094.651169,-4219.173869,-7698.141797,919.314598
3094.651496,-740.205942,-6809.894666,919.314598
3094.651824,592.164754,-6513.812290,229.828649
3094.652152,-888.247130,-8512.368333,1685.410096
3094.652479,296.082377,-8512.368333,1762.019645
3094.652807,2738.761985,-8364.327145,0.000000
3094.653135,2368.659014,-11917.315666,-229.828649
3094.653462,3034.844362,-15470.304188,-689.485948
3094.653790,2072.576638,-11251.130318,-689.485948
3094.654118,-666.185348,-10214.842000,229.828649
3094.654446,-1554.432478,-10510.924376,612.876398
3094.654773,0.000000,-9104.533087,-1838.629195
3094.655101,-2960.823768,-8068.244768,-1149.143247
3094.655429,-2146.597232,-8216.285956,842.705048
3094.655756,1110.308913,-6291.750507,-766.095498
3094.656084,1184.329507,-6513.812290,306.438199
3094.656412,-296.082377,-7698.141797,3907.087040
3094.656739,1184.329507,-7476.080014,2451.505594
3094.657067,3256.906145,-8364.327145,0.000000
3094.657395,3256.906145,-12435.459826,-536.266849
3094.657722,3182.885551,-14211.954086,-1608.800546
3094.658050,1998.556043,-12361.439231,-1532.190996
3094.658378,-666.185348,-10584.944971,0.000000
3094.658705,-1406.391290,-12287.418637,-766.095498
3094.659033,-1554.432478,-11029.068536,-2374.896044
3094.659361,-1036.288319,-8660.409521,-2528.115143
3094.659689,-444.123565,-8290.306550,0.000000
3094.660016,296.082377,-7772.162391,995.924147
3094.660344,222.061783,-8068.244768,1149.143247
3094.660672,-1628.453072,-9178.553681,1838.629195
3094.660999,0.000000,-7550.100608,229.828649
3094.661327,2664.741391,-8512.368333,-2451.505594
3094.661655,2146.597232,-11251.130318,-1302.362347
3094.661982,3034.844362,-13471.748144,919.314598
3094.662310,2590.720797,-12287.418637,-306.438199
3094.662638,1110.308913,-10881.027347,-766.095498
3094.662965,-1480.411884,-11177.109724,-306.438199
3094.663293,-1776.494261,-10140.821405,-1149.143247
3094.663621,-1628.453072,-6883.915261,-1378.971896
3094.663949,-1776.494261,-6883.915261,536.266849
3094.664276,-296.082377,-8586.388927,459.657299
3094.664604,-222.061783,-7550.100608,2068.457845
3094.664932,-740.205942,-7920.203579,2757.943793
3094.665259,0.000000,-9030.512492,1225.752797
3094.665587,814.226536,-8290.306550,-1149.143247
3094.665915,1554.432478,-9030.512492,-2757.943793
3094.666242,2664.741391,-12213.398043,-1991.848295
3094.666570,2368.659014,-11029.068536,-383.047749
3094.666898,1554.432478,-7994.224174,995.924147
3094.667225,1258.350101,-10955.047942,2451.505594
3094.667553,814.226536,-11547.212695,1302.362347
3094.667881,740.205942,-8068.244768,-919.314598
3094.668209,-814.226536,-7476.080014,306.438199
3094.668536,-1258.350101,-9622.677246,842.705048
3094.668864,-1332.370696,-8216.285956,459.657299
3094.669192,-2590.720797,-6587.832884,919.314598
3094.669519,-3627.009116,-9178.553681,306.438199
3094.669847,-1184.329507,-10584.944971,-2298.286494
3094.670175,1258.350101,-10955.047942,-4673.182538
3094.670502,2072.576638,-13027.624579,-3447.429741
3094.670830,2664.741391,-11843.295072,-1532.190996
3094.671158,3404.947333,-10362.883188,-306.438199
3094.671485,1702.473667,-11547.212695,1762.019645
3094.671813,1702.473667,-11547.212695,1149.143247
3094.672141,1554.432478,-7476.080014,-995.924147
3094.672468,-592.164754,-8586.388927,0.000000
3094.672796,-1554.432478,-11103.089130,1685.410096
3094.673124,0.000000,-9474.636058,0.000000
3094.673452,-1628.453072,-8586.388927,-306.438199
3094.673779,-2738.761985,-9400.615463,1455.581446
3094.674107,518.144159,-9918.759623,-1225.752797
3094.674435,1850.514855,-9474.636058,-2834.553343
3094.674762,888.247130,-11325.150913,-1915.238745
3094.675090,962.267725,-10288.862594,-1149.143247
3094.675418,2220.617826,-8216.285956,-1762.019645
3094.675745,1258.350101,-9696.697840,1762.019645
3094.676073,1258.350101,-10584.944971,1991.848295
3094.676401,1258.350101,-7254.018232,459.657299
3094.676728,592.164754,-8438.347739,459.657299
3094.677056,74.020594,-11547.212695,459.657299
3094.677384,1110.308913,-10658.965565,-459.657299
3094.677712,-148.041188,-8660.409521,383.047749
3094.678039,-1554.432478,-8512.368333,2528.115143
3094.678367,0.000000,-9696.697840,-536.266849
3094.678695,370.102971,-9252.574275,-2604.724693
3094.679022,-444.123565,-9548.656652,-2298.286494
3094.679350,-148.041188,-9844.739029,-2298.286494
3094.679678,518.144159,-7698.141797,-1991.848295
3094.680005,-296.082377,-8216.285956,0.000000
3094.680333,592.164754,-10510.924376,1225.752797
3094.680661,1554.432478,-8956.491898,-612.876398
3094.680988,1184.329507,-9474.636058,0.000000
3094.681316,1332.370696,-11547.212695,536.266849
3094.681644,962.267725,-10881.027347,459.657299
3094.681972,-444.123565,-10140.821405,1608.800546
3094.682299,-814.226536,-11325.150913,1685.410096
3094.682627,0.000000,-11843.295072,-536.266849
3094.682955,296.082377,-10436.903782,-3447.429741
3094.683282,-370.102971,-10362.883188,-2604.724693
3094.683610,-296.082377,-10214.842000,-2068.457845
3094.683938,814.226536,-8216.285956,-1991.848295
3094.684265,740.205942,-8068.244768,-459.657299
3094.684593,222.061783,-9474.636058,1991.848295
3094.684921,740.205942,-7179.997637,1225.752797
3094.685248,1332.370696,-6957.935855,766.095498
3094.685576,0.000000,-10140.821405,2374.896044
3094.685904,-444.123565,-10140.821405,1532.190996
3094.686231,-1110.308913,-9474.636058,1072.533697
3094.686559,-3256.906145,-11399.171507,1302.362347
3094.686887,-1924.535449,-12139.377449,-995.924147
3094.687215,-592.164754,-10955.047942,-3753.867940
3094.687542,-444.123565,-9918.759623,-3064.381992
3094.687870,148.041188,-11251.130318,-2221.676944
3094.688198,1406.391290,-9622.677246,-1532.190996
3094.688525,1998.556043,-7402.059420,0.000000
3094.688853,1850.514855,-7846.182985,1225.752797
3094.689181,1924.535449,-6883.915261,1838.629195
3094.689508,1332.370696,-5921.647536,1915.238745
3094.689836,370.102971,-8438.347739,2298.286494
3094.690164,592.164754,-9992.780217,1302.362347
3094.690491,0.000000,-9474.636058,153.219100
3094.690819,-1406.391290,-10881.027347,842.705048
3094.691147,-666.185348,-12583.501014,229.828649
3094.691475,444.123565,-13027.624579,-2298.286494
3094.691802,148.041188,-12287.418637,-3370.820191
3094.692130,518.144159,-11547.212695,-4290.134789
3094.692458,1110.308913,-9770.718434,-4060.306139
3094.692785,1850.514855,-8364.327145,-2145.067394
3094.693113,1776.494261,-9030.512492,1302.362347
3094.693441,2146.597232,-6439.791695,2298.286494
3094.693768,2738.761985,-4293.194464,1991.848295
3094.694096,2812.782580,-8956.491898,2834.553343
3094.694424,1702.473667,-10658.965565,2221.676944
3094.694751,814.226536,-9622.677246,1149.143247
3094.695079,-962.267725,-10807.006753,842.705048
3094.695407,-1406.391290,-12731.542202,0.000000
3094.695735,74.020594,-11843.295072,-995.924147
3094.696062,-370.102971,-10955.047942,-1762.019645
3094.696390,-1480.411884,-12213.398043,-1302.362347
3094.696718,-1554.432478,-12361.439231,-2911.162892
3094.697045,-1332.370696,-7772.162391,-3600.648841
3094.697373,-814.226536,-6439.791695,-1608.800546
3094.697701,74.020594,-6069.688724,459.657299
3094.698028,1406.391290,-4737.318029,2068.457845
3094.698356,2368.659014,-7328.038826,4060.306139
3094.698684,3849.070898,-10066.800811,3830.477490
3094.699011,2072.576638,-9326.594869,2834.553343
3094.699339,-1258.350101,-10288.862594,1608.800546
3094.699667,-2886.803174,-12805.562797,612.876398
3094.699994,-1776.494261,-13915.871710,-2451.505594
3094.700322,-1184.329507,-13175.665768,-4290.134789
3094.700650,-888.247130,-13101.645173,-1991.848295
3094.700978,0.000000,-10807.006753,-1685.410096
3094.701305,370.102971,-8142.265362,-2374.896044
3094.701633,-740.205942,-8068.244768,-1225.752797
3094.701961,-296.082377,-6365.771101,-536.266849
3094.702288,518.144159,-3478.967927,-1072.533697
3094.702616,592.164754,-6439.791695,689.485948
3094.702944,1480.411884,-9400.615463,3294.210641
3094.703271,2368.659014,-8808.450710,2604.724693
3094.703599,814.226536,-11473.192101,1762.019645
3094.703927,-296.082377,-15618.345376,842.705048
3094.704254,1406.391290,-15026.180623,-2298.286494
3094.704582,1184.329507,-13767.830521,-2987.772442
3094.704910,0.000000,-13989.892304,-1455.581446
3094.705238,296.082377,-11769.274478,-2451.505594
3094.705565,-888.247130,-6957.935855,-3294.210641
3094.705893,-2960.823768,-7031.956449,0.000000
3094.706221,-2146.597232,-5477.523971,919.314598
3094.706548,666.185348,-1998.556043,0.000000
3094.706876,1036.288319,-3997.112087,1302.362347
3094.707204,1332.370696,-8882.471304,3217.601092
3094.707531,2368.659014,-8882.471304,3294.210641
3094.707859,2294.638420,-8438.347739,1762.019645
3094.708187,888.247130,-12213.398043,1838.629195
3094.708514,962.267725,-15248.242405,383.047749
3094.708842,592.164754,-13767.830521,-995.924147
3094.709170,370.102971,-13619.789333,-1685.410096
3094.709498,-370.102971,-12583.501014,-3294.210641
3094.709825,-1924.535449,-9622.677246,-3907.087040
3094.710153,-2664.741391,-7179.997637,-1378.971896
3094.710481,-1406.391290,-5255.462188,-1608.800546
3094.710808,0.000000,-3404.947333,-919.314598
3094.711136,1406.391290,-4811.338623,995.924147
3094.711464,2368.659014,-8216.285956,3830.477490
3094.711791,3256.906145,-8586.388927,3677.258390
3094.712119,2960.823768,-9252.574275,2145.067394
3094.712447,740.205942,-12213.398043,1762.019645
3094.712774,1702.473667,-15766.386565,-766.095498
3094.713102,444.123565,-14137.933492,-2374.896044
3094.713430,-1554.432478,-14211.954086,-2451.505594
3094.713757,-1702.473667,-15248.242405,-3600.648841
3094.714085,-2738.761985,-11547.212695,-5439.278036
3094.714413,-2442.679609,-8364.327145,-4673.182538
3094.714741,-814.226536,-7994.224174,-2451.505594
3094.715068,962.267725,-5699.585753,-842.705048
3094.715396,2368.659014,-4737.318029,1072.533697
3094.715724,2664.741391,-7402.059420,3753.867940
3094.716051,3182.885551,-8364.327145,4060.306139
3094.716379,1998.556043,-7254.018232,2451.505594
3094.716707,0.000000,-10140.821405,3064.381992
3094.717034,0.000000,-12805.562797,383.047749
3094.717362,296.082377,-12731.542202,-2528.115143
3094.717690,-740.205942,-14508.036463,-2221.676944
3094.718017,-1110.308913,-15618.345376,-1378.971896
3094.718345,-888.247130,-10807.006753,-2834.553343
3094.718673,-2442.679609,-7846.182985,-2528.115143
3094.719001,-3034.844362,-6883.915261,0.000000
3094.719328,-518.144159,-4515.256246,-459.657299
3094.719656,1554.432478,-2442.679609,153.219100
3094.719984,2294.638420,-5625.565159,3140.991542
3094.720311,2886.803174,-7476.080014,4749.792088
3094.720639,2886.803174,-6735.874072,3677.258390
3094.720967,592.164754,-10066.800811,2374.896044
3094.721294,296.082377,-13915.871710,0.000000
3094.721622,1628.453072,-14137.933492,-2221.676944
3094.721950,1184.329507,-14063.912898,-1762.019645
3094.722277,444.123565,-14063.912898,-536.266849
3094.722605,0.000000,-12139.377449,-1225.752797
3094.722933,-2146.597232,-8882.471304,-1302.362347
3094.723261,-4071.132681,-7550.100608,-842.705048
3094.723588,-2516.700203,-5255.462188,-2757.943793
3094.723916,-1406.391290,-3478.967927,-2911.162892
3094.724244,0.000000,-6439.791695,0.000000
3094.724571,1924.535449,-9104.533087,2221.676944
3094.724899,3182.885551,-8216.285956,1685.410096
3094.725227,3182.885551,-10214.842000,1532.190996
3094.725554,2664.741391,-14211.954086,1302.362347
3094.725882,2664.741391,-15470.304188,-229.828649
3094.726210,1406.391290,-14285.974681,-383.047749
3094.726537,74.020594,-14656.077652,-1991.848295
3094.726865,-962.267725,-13323.706956,-2451.505594
3094.727193,-2368.659014,-10584.944971,-1685.410096
3094.727520,-3182.885551,-8660.409521,76.609550
3094.727848,-2368.659014,-5699.585753,-919.314598
3094.728176,-962.267725,-3404.947333,-2604.724693
3094.728504,-740.205942,-4811.338623,-612.876398
3094.728831,1332.370696,-7105.977043,1685.410096
3094.729159,2368.659014,-6143.709319,2451.505594
3094.729487,2368.659014,-8438.347739,2681.334243
3094.729814,2368.659014,-12953.603985,2757.943793
3094.730142,2886.803174,-13915.871710,536.266849
3094.730470,3701.029710,-14063.912898,-919.314598
3094.730797,1406.391290,-16876.695478,0.000000
3094.731125,0.000000,-13915.871710,-612.876398
3094.731453,-1924.535449,-9326.594869,-1762.019645
3094.731780,-3330.926739,-7624.121203,-1991.848295
3094.732108,-3552.988522,-5477.523971,-2145.067394
3094.732436,-2738.761985,-3627.009116,-2528.115143
3094.732764,-1554.432478,-3701.029710,0.000000
3094.733091,-296.082377,-4737.318029,1762.019645
3094.733419,2294.638420,-6217.729913,2145.067394
3094.733747,2664.741391,-8734.430116,2451.505594
3094.734074,2442.679609,-12657.521608,2221.676944
3094.734402,4293.194464,-13397.727550,-229.828649
3094.734730,4145.153275,-14063.912898,-1991.848295
3094.735057,1184.329507,-16728.654289,0.000000
3094.735385,592.164754,-14804.118840,-612.876398
3094.735713,-1850.514855,-10510.924376,-1915.238745
3094.736040,-3923.091493,-10584.944971,-1991.848295
3094.736368,-3627.009116,-8364.327145,-3600.648841
3094.736696,-2516.700203,-5403.503377,-4213.525239
3094.737023,-1998.556043,-4885.359217,-2145.067394
3094.737351,0.000000,-6365.771101,229.828649
3094.737679,3034.844362,-5995.668130,1915.238745
3094.738006,3256.906145,-7105.977043,2681.334243
3094.738334,3627.009116,-11325.150913,2987.772442
3094.738662,3775.050304,-12583.501014,1762.019645
3094.738989,4219.173869,-13915.871710,-306.438199
3094.739317,2368.659014,-16284.530724,76.609550
3094.739645,74.020594,-16062.468941,-536.266849
3094.739972,-2294.638420,-11769.274478,-1378.971896
3094.740300,-3923.091493,-9844.739029,-766.095498
3094.740628,-4737.318029,-7476.080014,-1378.971896
3094.740955,-4293.194464,-5255.462188,-2757.943793
3094.741283,-4071.132681,-4811.338623,-1532.190996
3094.741611,-592.164754,-5699.585753,0.000000
3094.741938,2886.803174,-5181.441594,1455.581446
3094.742266,4663.297435,-6217.729913,2451.505594
3094.742594,3627.009116,-10436.903782,4749.792088
3094.742921,4071.132681,-10955.047942,3370.820191
3094.743249,5033.400406,-12065.356855,-459.657299
3094.743577,2886.803174,-15692.365970,-842.705048
3094.743904,222.061783,-15914.427753,-459.657299
3094.744232,-1702.473667,-11843.295072,-1072.533697
3094.744560,-3552.988522,-10436.903782,-1532.190996
3094.744887,-4737.318029,-9992.780217,-2757.943793
3094.745215,-4293.194464,-7031.956449,-2834.553343
3094.745543,-3108.864956,-4071.132681,-1302.362347
3094.745870,-370.102971,-5181.441594,76.609550
3094.746198,2738.761985,-7254.018232,229.828649
3094.746526,4071.132681,-6735.874072,1685.410096
3094.746853,3330.926739,-8956.491898,2528.115143
3094.747181,4441.235652,-11177.109724,1302.362347
3094.747509,5107.421000,-12805.562797,-689.485948
3094.747836,3256.906145,-15470.304188,-689.485948
3094.748164,1258.350101,-16210.510130,-919.314598
3094.748492,74.020594,-13841.851115,-2145.067394
3094.748819,-2220.617826,-12139.377449,-1608.800546
3094.749147,-3775.050304,-10881.027347,-766.095498
3094.749474,-3775.050304,-6661.853478,-919.314598
3094.749802,-2738.761985,-3552.988522,-1149.143247
3094.750130,-1776.494261,-3478.967927,459.657299
3094.750457,814.226536,-4219.173869,1072.533697
3094.750785,888.247130,-4219.173869,2068.457845
3094.751113,740.205942,-9252.574275,2987.772442
3094.751440,2294.638420,-12435.459826,1838.629195
3094.751768,4663.297435,-11621.233289,-2068.457845
3094.752096,3849.070898,-13693.809927,-1608.800546
3094.752423,2442.679609,-16950.716072,153.219100
3094.752751,1406.391290,-13841.851115,536.266849
3094.753079,0.000000,-10807.006753,229.828649
3094.753406,-3627.009116,-9992.780217,536.266849
3094.753734,-4959.379811,-7179.997637,-612.876398
3094.754062,-5255.462188,-3923.091493,-1455.581446
3094.754389,-3923.091493,-4589.276840,-1532.190996
3094.754717,-1184.329507,-5847.626942,-1225.752797
3094.755045,962.267725,-6291.750507,-153.219100
3094.755372,2368.659014,-8364.327145,2068.457845
3094.755700,4589.276840,-10955.047942,1455.581446
3094.756028,6883.915261,-12213.398043,-1685.410096
3094.756355,6143.709319,-15026.180623,-229.828649
3094.756683,3849.070898,-17098.757260,842.705048
3094.757011,1628.453072,-13323.706956,-612.876398
3094.757338,-1332.370696,-11251.130318,-842.705048
3094.757666,-3923.091493,-12583.501014,229.828649
3094.757994,-3997.112087,-9918.759623,-1378.971896
3094.758321,-4515.256246,-5847.626942,-2221.676944
3094.758649,-3775.050304,-5329.482782,-1991.848295
3094.758977,-666.185348,-6661.853478,-1072.533697
3094.759304,1406.391290,-7031.956449,-1302.362347
3094.759632,1184.329507,-6069.688724,2145.067394
3094.759960,3034.844362,-7994.224174,2757.943793
3094.760287,5255.462188,-10584.944971,919.314598
3094.760615,5699.585753,-13989.892304,306.438199
3094.760943,4219.173869,-15840.407159,1072.533697
3094.761270,1924.535449,-12435.459826,766.095498
3094.761598,-1332.370696,-10584.944971,-306.438199
3094.761926,-3701.029710,-11251.130318,-383.047749
3094.762253,-4293.194464,-8882.471304,-2068.457845
3094.762581,-4293.194464,-6735.874072,-2145.067394
3094.762908,-4663.297435,-6957.935855,0.000000
3094.763236,-1184.329507,-7328.038826,-229.828649
3094.763564,518.144159,-5625.565159,-536.266849
3094.763891,592.164754,-6217.729913,1838.629195
3094.764219,1998.556043,-8512.368333,2528.115143
3094.764547,5033.400406,-10140.821405,612.876398
3094.764874,5625.565159,-11103.089130,-536.266849
3094.765202,4219.173869,-14804.118840,306.438199
3094.765530,2664.741391,-13693.809927,689.485948
3094.765857,740.205942,-10510.924376,-459.657299
3094.766185,-2072.576638,-11325.150913,0.000000
3094.766513,-3627.009116,-10732.986159,-1608.800546
3094.766840,-4367.215058,-7772.162391,-2528.115143
3094.767168,-3404.947333,-7624.121203,-1991.848295
3094.767496,-2886.803174,-7179.997637,-383.047749
3094.767823,-2294.638420,-6661.853478,1915.238745
3094.768151,-1480.411884,-6883.915261,1762.019645
3094.768479,962.267725,-8660.409521,842.705048
3094.768806,4515.256246,-10362.883188,-1762.019645
3094.769134,6143.709319,-11399.171507,-2145.067394
3094.769462,5033.400406,-15322.262999,612.876398
3094.769789,4219.173869,-15470.304188,995.924147
3094.770117,2146.597232,-10955.047942,-1072.533697
3094.770445,-1332.370696,-10955.047942,-995.924147
3094.770772,-3404.947333,-10955.047942,-536.266849
3094.771100,-4293.194464,-6513.812290,-1532.190996
3094.771428,-3849.070898,-5847.626942,-995.924147
3094.771755,-2368.659014,-8068.244768,229.828649
3094.772083,-740.205942,-7402.059420,919.314598
3094.772411,-740.205942,-6439.791695,3064.381992
3094.772738,740.205942,-8068.244768,2528.115143
3094.773066,3330.926739,-9104.533087,-306.438199
3094.773394,5255.462188,-10436.903782,-2374.896044
3094.773721,4145.153275,-12953.603985,-1225.752797
3094.774049,3997.112087,-13619.789333,0.000000
3094.774377,2664.741391,-11251.130318,0.000000
3094.774704,0.000000,-11399.171507,459.657299
3094.775032,-1924.535449,-11251.130318,536.266849
3094.775360,-2368.659014,-7550.100608,-1838.629195
3094.775687,-3256.906145,-7550.100608,-842.705048
3094.776015,-2812.782580,-9030.512492,459.657299
3094.776342,-962.267725,-7105.977043,0.000000
3094.776670,-1184.329507,-5625.565159,1455.581446
3094.776998,148.041188,-8216.285956,2911.162892
3094.777325,3330.926739,-9326.594869,229.828649
3094.777653,5107.421000,-9252.574275,-2451.505594
3094.777981,3775.050304,-12731.542202,-1762.019645
3094.778308,2590.720797,-15174.221811,-689.485948
3094.778636,2664.741391,-12287.418637,-1532.190996
3094.778964,740.205942,-11621.233289,-612.876398
3094.779291,-1184.329507,-11769.274478,-1149.143247
3094.779619,-2294.638420,-9622.677246,-995.924147
3094.779947,-3034.844362,-7624.121203,-306.438199
3094.780274,-2368.659014,-8290.306550,0.000000
3094.780602,-1776.494261,-7994.224174,0.000000
3094.780930,-2960.823768,-7402.059420,1378.971896
3094.781257,-2664.741391,-7550.100608,2221.676944
3094.781585,1036.288319,-9474.636058,-995.924147
3094.781913,4293.194464,-10362.883188,-3064.381992
3094.782240,4811.338623,-11991.336260,-1608.800546
3094.782568,5033.400406,-13767.830521,0.000000
3094.782896,3997.112087,-11473.192101,-1072.533697
3094.783223,1554.432478,-9474.636058,0.000000
3094.783551,-962.267725,-9992.780217,0.000000
3094.783879,-2886.803174,-7476.080014,0.000000
3094.784206,-2664.741391,-6661.853478,-842.705048
3094.784534,-3330.926739,-8586.388927,76.609550
3094.784862,-2442.679609,-10955.047942,383.047749
3094.785189,-2516.700203,-8290.306550,1072.533697
3094.785517,-2072.576638,-8216.285956,1072.533697
3094.785845,148.041188,-9770.718434,76.609550
3094.786172,3108.864956,-9622.677246,-2374.896044
3094.786500,2812.782580,-10066.800811,-2298.286494
3094.786828,3256.906145,-12213.398043,-536.266849
3094.787155,4219.173869,-10288.862594,-536.266849
3094.787483,2738.761985,-9474.636058,383.047749
3094.787811,0.000000,-10362.883188,1532.190996
3094.788138,-1628.453072,-8660.409521,-229.828649
3094.788466,-1998.556043,-7031.956449,-1608.800546
3094.788794,-3108.864956,-7994.224174,-689.485948
3094.789121,-2220.617826,-10214.842000,-536.266849
3094.789449,-666.185348,-9548.656652,995.924147
3094.789777,-518.144159,-9474.636058,2604.724693
3094.790104,1184.329507,-11621.233289,1455.581446
3094.790432,2738.761985,-11029.068536,-995.924147
3094.790759,2886.803174,-10807.006753,-2451.505594
3094.791087,3404.947333,-12435.459826,-2068.457845
3094.791415,3034.844362,-10066.800811,-1915.238745
3094.791742,1702.473667,-8290.306550,-919.314598
3094.792070,518.144159,-10955.047942,1072.533697
3094.792398,-148.041188,-9844.739029,1302.362347
3094.792725,-962.267725,-6735.874072,459.657299
3094.793053,-2516.700203,-6809.894666,306.438199
3094.793381,-1702.473667,-9844.739029,0.000000
3094.793708,-740.205942,-9474.636058,229.828649
3094.794036,-740.205942,-9474.636058,2145.067394
3094.794364,0.000000,-10214.842000,2528.115143
3094.794691,1850.514855,-10362.883188,229.828649
3094.795019,2886.803174,-10510.924376,-1378.971896
3094.795347,1110.308913,-10881.027347,-1072.533697
3094.795674,444.123565,-10584.944971,-2298.286494
3094.796002,-148.041188,-9622.677246,-3370.820191
3094.796330,-888.247130,-10436.903782,-2451.505594
3094.796657,-148.041188,-9992.780217,-1838.629195
3094.796985,74.020594,-7254.018232,0.000000
3094.797313,-666.185348,-8216.285956,2911.162892
3094.797640,296.082377,-9770.718434,2145.067394
3094.797968,1036.288319,-9104.533087,919.314598
3094.798296,-518.144159,-9178.553681,1455.581446
3094.798623,-740.205942,-9770.718434,1915.238745
3094.798951,370.102971,-10066.800811,76.609550
3094.799279,666.185348,-10066.800811,-1991.848295
3094.799606,1258.350101,-11695.253884,-2528.115143
3094.799934,1554.432478,-11991.336260,-3064.381992
3094.800262,1998.556043,-10658.965565,-3600.648841
3094.800589,1924.535449,-11325.150913,-1762.019645
3094.800917,1184.329507,-10436.903782,0.000000
3094.801245,370.102971,-7105.977043,153.219100
3094.801572,-592.164754,-6809.894666,536.266849
3094.801900,-1406.391290,-8438.347739,1378.971896
3094.802228,-1036.288319,-7920.203579,3294.210641
3094.802555,-148.041188,-7994.224174,2911.162892
3094.802883,-370.102971,-10436.903782,2834.553343
3094.803211,0.000000,-12731.542202,689.485948
3094.803538,888.247130,-11991.336260,-1302.362347
3094.803866,1776.494261,-11251.130318,-2604.724693
3094.804193,2664.741391,-11621.233289,-3370.820191
3094.804521,3256.906145,-9844.739029,-3830.477490
3094.804849,1998.556043,-8290.306550,76.609550
3094.805176,814.226536,-7920.203579,1838.629195
3094.805504,-740.205942,-6439.791695,1838.629195
3094.805832,-1924.535449,-6809.894666,2068.457845
3094.806159,-1924.535449,-8882.471304,1072.533697
3094.806487,-370.102971,-8438.347739,-842.705048
3094.806815,-740.205942,-7846.182985,229.828649
3094.807142,-962.267725,-11917.315666,2451.505594
3094.807470,296.082377,-12435.459826,1838.629195
3094.807798,1924.535449,-11621.233289,-536.266849
3094.808125,1406.391290,-12065.356855,-1685.410096
3094.808453,592.164754,-12879.583391,-3064.381992
3094.808781,1110.308913,-10658.965565,-4366.744339
3094.809108,592.164754,-9252.574275,-3370.820191
3094.809436,148.041188,-9622.677246,-842.705048
3094.809764,444.123565,-7476.080014,459.657299
3094.810091,1258.350101,-6365.771101,995.924147
3094.810419,444.123565,-7550.100608,1149.143247
3094.810747,-370.102971,-9030.512492,689.485948
3094.811074,0.000000,-9030.512492,1149.143247
3094.811402,-740.205942,-11177.109724,1149.143247
3094.811730,-222.061783,-12213.398043,1378.971896
3094.812057,592.164754,-12805.562797,-612.876398
3094.812385,444.123565,-13767.830521,-1225.752797
3094.812713,962.267725,-14359.995275,-2604.724693
3094.813040,814.226536,-11547.212695,-4366.744339
3094.813368,814.226536,-8216.285956,-3983.696590
3094.813696,370.102971,-8438.347739,-1225.752797
3094.814023,888.247130,-6661.853478,919.314598
3094.814351,0.000000,-4145.153275,1838.629195
3094.814679,-444.123565,-6587.832884,2451.505594
3094.815006,-962.267725,-7994.224174,2068.457845
3094.815334,-1332.370696,-6513.812290,1302.362347
3094.815662,-1332.370696,-8586.388927,1991.848295
3094.815989,74.020594,-11843.295072,1915.238745
3094.816317,1628.453072,-12065.356855,612.876398
3094.816645,2220.617826,-13545.768739,229.828649
3094.816972,2220.617826,-13397.727550,-1302.362347
3094.817300,2146.597232,-11251.130318,-2987.772442
3094.817627,222.061783,-8586.388927,-3294.210641
3094.817955,-1332.370696,-8142.265362,-1685.410096
3094.818283,-444.123565,-7105.977043,-383.047749
3094.818610,296.082377,-5255.462188,0.000000
3094.818938,0.000000,-6957.935855,2068.457845
3094.819266,0.000000,-8438.347739,2757.943793
3094.819593,444.123565,-6291.750507,1608.800546
3094.819921,74.020594,-8290.306550,1685.410096
3094.820249,0.000000,-12139.377449,1762.019645
3094.820576,1628.453072,-12435.459826,-766.095498
3094.820904,1554.432478,-12953.603985,0.000000
3094.821232,2294.638420,-14582.057057,-1762.019645
3094.821559,814.226536,-13249.686362,-3983.696590
3094.821887,-296.082377,-11251.130318,-3907.087040
3094.822215,-1702.473667,-9844.739029,-2987.772442
3094.822542,-1184.329507,-8660.409521,-1991.848295
3094.822870,-1258.350101,-6217.729913,0.000000
3094.823198,-1110.308913,-7254.018232,153.219100
3094.823525,-888.247130,-8364.327145,1455.581446
3094.823853,592.164754,-7328.038826,1532.190996
3094.824181,-222.061783,-8438.347739,2604.724693
3094.824508,0.000000,-11547.212695,3370.820191
3094.824836,2294.638420,-11917.315666,459.657299
3094.825164,2960.823768,-12805.562797,-689.485948
3094.825491,1258.350101,-14434.015869,306.438199
3094.825819,-296.082377,-12361.439231,-1608.800546
3094.826147,-962.267725,-8882.471304,-3677.258390
3094.826474,-2368.659014,-9030.512492,-3064.381992
3094.826802,-1554.432478,-7772.162391,-1991.848295
3094.827130,370.102971,-5699.585753,-842.705048
3094.827457,1110.308913,-7105.977043,2604.724693
3094.827785,1406.391290,-8660.409521,3294.210641
3094.828113,962.267725,-6661.853478,2451.505594
3094.828440,-222.061783,-5773.606348,2221.676944
3094.828768,74.020594,-8586.388927,1532.190996
3094.829096,1332.370696,-10955.047942,536.266849
3094.829423,1110.308913,-12361.439231,689.485948
3094.829751,1776.494261,-14063.912898,536.266849
3094.830079,2146.597232,-13841.851115,-1608.800546
3094.830406,0.000000,-11399.171507,-3447.429741
3094.830734,-1480.411884,-11473.192101,-3140.991542
3094.831062,-666.185348,-9548.656652,-2987.772442
3094.831389,814.226536,-5921.647536,-2757.943793
3094.831717,2072.576638,-5921.647536,0.000000
3094.832044,1702.473667,-7105.977043,3983.696590
3094.832372,814.226536,-5921.647536,4136.915689
3094.832700,-740.205942,-7031.956449,2145.067394
3094.833027,-2368.659014,-10584.944971,919.314598
3094.833355,-666.185348,-12139.377449,-2221.676944
3094.833683,518.144159,-13249.686362,-2757.943793
3094.834010,592.164754,-15248.242405,-1225.752797
3094.834338,1036.288319,-14952.160028,-1762.019645
3094.834666,1776.494261,-11917.315666,-2298.286494
3094.834993,-592.164754,-10510.924376,-995.924147
3094.835321,-2368.659014,-9178.553681,-919.314598
3094.835649,-1554.432478,-5995.668130,-2451.505594
3094.835976,-888.247130,-5181.441594,-2221.676944
3094.836304,-666.185348,-7550.100608,612.876398
3094.836632,1110.308913,-7105.977043,1838.629195
3094.836959,1184.329507,-5995.668130,3294.210641
3094.837287,1406.391290,-9252.574275,3294.210641
3094.837615,2146.597232,-11769.274478,459.657299
3094.837942,2442.679609,-12583.501014,-842.705048
3094.838270,1924.535449,-12953.603985,0.000000
3094.838598,1554.432478,-12879.583391,229.828649
3094.838925,222.061783,-11399.171507,-995.924147
3094.839253,-1036.288319,-11177.109724,-766.095498
3094.839581,-1924.535449,-9474.636058,-995.924147
3094.839908,-1036.288319,-7402.059420,-3140.991542
3094.840236,-296.082377,-6661.853478,-2911.162892
3094.840564,0.000000,-7105.977043,-689.485948
3094.840891,370.102971,-6365.771101,1838.629195
3094.841219,814.226536,-6661.853478,2221.676944
3094.841547,1480.411884,-8290.306550,2374.896044
3094.841874,1332.370696,-9474.636058,766.095498
3094.842202,2368.659014,-11399.171507,0.000000
3094.842529,2590.720797,-14137.933492,383.047749
3094.842857,2664.741391,-15174.221811,76.609550
3094.843185,740.205942,-12509.480420,-995.924147
3094.843512,-1480.411884,-10955.047942,-2681.334243
3094.843840,-1924.535449,-11473.192101,-2451.505594
3094.844168,-1110.308913,-8660.409521,-3447.429741
3094.844495,-296.082377,-7031.956449,-2374.896044
3094.844823,-370.102971,-8290.306550,0.000000
3094.845151,444.123565,-7920.203579,1302.362347
3094.845478,1184.329507,-6291.750507,1532.190996
3094.845806,1258.350101,-7994.224174,2068.457845
3094.846134,518.144159,-9992.780217,2681.334243
3094.846461,1480.411884,-9474.636058,306.438199
3094.846789,2220.617826,-11621.233289,536.266849
3094.847117,1110.308913,-13915.871710,0.000000
3094.847444,666.185348,-12879.583391,229.828649
3094.847772,-1628.453072,-11103.089130,153.219100
3094.848100,-3330.926739,-9770.718434,-1149.143247
3094.848427,-1924.535449,-9400.615463,-4213.525239
3094.848755,-1776.494261,-7772.162391,-3524.039291
3094.849083,-1480.411884,-8068.244768,-612.876398
3094.849410,-296.082377,-7698.141797,2528.115143
3094.849738,0.000000,-4885.359217,2604.724693
3094.850065,-592.164754,-6735.874072,2145.067394
3094.850393,0.000000,-9918.759623,689.485948
3094.850721,2146.597232,-9178.553681,-536.266849
3094.851048,2738.761985,-11769.274478,-919.314598
3094.851376,1998.556043,-15396.283594,842.705048
3094.851704,1184.329507,-13397.727550,229.828649
3094.852031,222.061783,-10807.006753,-842.705048
3094.852359,-1110.308913,-11621.233289,-1838.629195
3094.852687,-1850.514855,-10288.862594,-2911.162892
3094.853014,-1332.370696,-8068.244768,-3983.696590
3094.853342,-1110.308913,-6809.894666,-1225.752797
3094.853670,-222.061783,-7402.059420,1072.533697
3094.853997,518.144159,-6143.709319,1762.019645
3094.854325,814.226536,-8364.327145,2604.724693
3094.854653,1702.473667,-11177.109724,1532.190996
3094.854980,2442.679609,-9992.780217,-1455.581446
3094.855308,1628.453072,-10584.944971,-1608.800546
3094.855636,1554.432478,-13545.768739,153.219100
3094.855963,1258.350101,-12657.521608,842.705048
3094.856291,0.000000,-10140.821405,612.876398
3094.856619,-1480.411884,-10955.047942,229.828649
3094.856946,-592.164754,-10881.027347,-1378.971896
3094.857274,-296.082377,-7920.203579,-2451.505594
3094.857602,-444.123565,-8142.265362,-766.095498
3094.857929,0.000000,-8142.265362,689.485948
3094.858257,888.247130,-6291.750507,1149.143247
3094.858584,1924.535449,-5329.482782,2145.067394
3094.858912,2072.576638,-7254.018232,2604.724693
3094.859240,1776.494261,-8068.244768,1149.143247
3094.859567,1406.391290,-10584.944971,0.000000
3094.859895,74.020594,-14952.160028,-1225.752797
3094.860223,-370.102971,-13619.789333,-1072.533697
3094.860550,0.000000,-10510.924376,-1608.800546
3094.860878,-1184.329507,-11769.274478,-306.438199
3094.861206,-814.226536,-11473.192101,-842.705048
3094.861533,592.164754,-8290.306550,-2068.457845
3094.861861,0.000000,-7550.100608,-459.657299
3094.862189,-1258.350101,-8216.285956,1532.190996
3094.862516,-1110.308913,-6069.688724,536.266849
3094.862844,-370.102971,-5329.482782,0.000000
3094.863172,296.082377,-9548.656652,0.000000
3094.863499,2294.638420,-11695.253884,-1225.752797
3094.863827,3775.050304,-12435.459826,-383.047749
3094.864155,4367.215058,-15026.180623,153.219100
3094.864482,2368.659014,-13989.892304,-306.438199
3094.864810,962.267725,-10955.047942,-689.485948
3094.865138,-1184.329507,-9696.697840,-689.485948
3094.865465,-1628.453072,-9696.697840,-612.876398
3094.865793,-1924.535449,-8512.368333,-1225.752797
3094.866120,-1776.494261,-8290.306550,-306.438199
3094.866448,-1776.494261,-9326.594869,612.876398
3094.866776,-1110.308913,-7402.059420,-689.485948
3094.867103,-962.267725,-5995.668130,-1532.190996
3094.867431,666.185348,-9770.718434,76.609550
3094.867759,1628.453072,-9178.553681,-153.219100
3094.868086,4145.153275,-9326.594869,-766.095498
3094.868414,2960.823768,-11029.068536,229.828649
3094.868742,1776.494261,-12731.542202,2298.286494
3094.869069,222.061783,-10732.986159,1302.362347
3094.869397,-1850.514855,-9474.636058,612.876398
3094.869725,-1924.535449,-9918.759623,-766.095498
3094.870052,-740.205942,-7994.224174,-2451.505594
3094.870380,-1110.308913,-7402.059420,-1455.581446
3094.870708,-1406.391290,-9548.656652,919.314598
3094.871035,0.000000,-8068.244768,1225.752797
3094.871363,0.000000,-5921.647536,153.219100
3094.871691,-740.205942,-9030.512492,1302.362347
3094.872018,1332.370696,-10214.842000,0.000000
3094.872346,3552.988522,-9548.656652,-1302.362347
3094.872674,3775.050304,-12139.377449,-1072.533697
3094.873001,1480.411884,-13619.789333,536.266849
3094.873329,666.185348,-10214.842000,306.438199
3094.873656,-740.205942,-8512.368333,0.000000
3094.873984,-1480.411884,-10807.006753,-153.219100
3094.874312,-666.185348,-9178.553681,-1378.971896
3094.874639,-518.144159,-8586.388927,-1225.752797
3094.874967,-518.144159,-10881.027347,612.876398
3094.875295,1554.432478,-9844.739029,612.876398
3094.875622,1110.308913,-7179.997637,153.219100
3094.875950,-814.226536,-9696.697840,1302.362347
3094.876278,592.164754,-10510.924376,-229.828649
3094.876605,3552.988522,-9326.594869,-2757.943793
3094.876933,2442.679609,-11029.068536,-1455.581446
3094.877261,888.247130,-13027.624579,536.266849
3094.877588,814.226536,-10584.944971,0.000000
3094.877916,666.185348,-9770.718434,-536.266849
3094.878244,-518.144159,-10955.047942,-229.828649
3094.878571,-1110.308913,-8734.430116,-1225.752797
3094.878899,-1480.411884,-7328.038826,0.000000
3094.879227,-1850.514855,-8586.388927,1302.362347
3094.879554,-1110.308913,-8660.409521,1378.971896
3094.879882,-518.144159,-7105.977043,536.266849
3094.880210,222.061783,-9104.533087,842.705048
3094.880537,1480.411884,-11177.109724,536.266849
3094.880865,2960.823768,-9696.697840,-1455.581446
3094.881192,2516.700203,-11621.233289,-1762.019645
3094.881520,2146.597232,-13545.768739,-1072.533697
3094.881848,814.226536,-9992.780217,-2221.676944
3094.882175,-888.247130,-8068.244768,-1225.752797
3094.882503,-1628.453072,-9474.636058,306.438199
3094.882831,-888.247130,-8660.409521,612.876398
3094.883158,-592.164754,-6661.853478,766.095498
3094.883486,-370.102971,-8438.347739,2451.505594
3094.883814,444.123565,-10584.944971,1991.848295
3094.884141,370.102971,-8808.450710,919.314598
3094.884469,-666.185348,-8586.388927,383.047749
3094.884797,-814.226536,-10214.842000,-1225.752797
3094.885124,1628.453072,-9918.759623,-2451.505594
3094.885452,2368.659014,-11177.109724,-2221.676944
3094.885780,814.226536,-13767.830521,-995.924147
3094.886107,592.164754,-11917.315666,-1149.143247
3094.886435,740.205942,-9474.636058,-1302.362347
3094.886763,-1036.288319,-10214.842000,0.000000
3094.887090,-1554.432478,-9326.594869,383.047749
3094.887418,-814.226536,-5107.421000,383.047749
3094.887746,-518.144159,-7476.080014,2374.896044
3094.888073,666.185348,-10658.965565,2911.162892
3094.888401,1702.473667,-7179.997637,2145.067394
3094.888729,0.000000,-6587.832884,2298.286494
3094.889056,-1332.370696,-11695.253884,919.314598
3094.889384,444.123565,-12731.542202,-2757.943793
3094.889711,1480.411884,-11991.336260,-4979.620737
3094.890039,2368.659014,-13027.624579,-3983.696590
3094.890367,2294.638420,-11399.171507,-2145.067394
3094.890694,2516.700203,-9474.636058,-536.266849
3094.891022,1258.350101,-9474.636058,1455.581446
3094.891350,0.000000,-8216.285956,1762.019645
3094.891677,-518.144159,-6069.688724,842.705048
3094.892005,-1702.473667,-7105.977043,1072.533697
3094.892333,-2072.576638,-9178.553681,1532.190996
3094.892660,-888.247130,-8142.265362,842.705048
3094.892988,-814.226536,-9400.615463,1225.752797
3094.893316,-444.123565,-13027.624579,1532.190996
3094.893643,1924.535449,-12805.562797,-2298.286494
3094.893971,3182.885551,-11621.233289,-4443.353888
3094.894299,1554.432478,-13545.768739,-3294.210641
3094.894626,296.082377,-11251.130318,-2145.067394
3094.894954,222.061783,-7105.977043,-2681.334243
3094.895282,-370.102971,-7254.018232,0.000000
3094.895609,-1554.432478,-9770.718434,1608.800546
3094.895937,-1406.391290,-7031.956449,1685.410096
3094.896265,0.000000,-7476.080014,842.705048
3094.896592,0.000000,-9696.697840,1149.143247
3094.896920,0.000000,-9474.636058,153.219100
3094.897247,-666.185348,-9400.615463,1455.581446
3094.897575,-222.061783,-11991.336260,2145.067394
3094.897903,1480.411884,-12065.356855,-383.047749
3094.898230,2516.700203,-11251.130318,-2604.724693
3094.898558,1850.514855,-12139.377449,-1608.800546
3094.898886,1258.350101,-10955.047942,-1532.190996
3094.899213,2590.720797,-8956.491898,-2604.724693
3094.899541,444.123565,-9474.636058,-766.095498
3094.899869,-1554.432478,-7476.080014,766.095498
3094.900196,-666.185348,-3330.926739,0.000000
3094.900524,-1258.350101,-5551.544565,1455.581446
3094.900852,-592.164754,-10658.965565,3294.210641
3094.901179,0.000000,-10066.800811,2451.505594
3094.901507,0.000000,-8808.450710,2221.676944
3094.901835,0.000000,-11103.089130,1838.629195
3094.902162,1702.473667,-12287.418637,-459.657299
3094.902490,1998.556043,-11621.233289,-1838.629195
3094.902818,666.185348,-12805.562797,-1991.848295
3094.903145,518.144159,-11843.295072,-2757.943793
3094.903473,370.102971,-7624.121203,-4290.134789
3094.903801,-296.082377,-8216.285956,-2451.505594
3094.904128,-592.164754,-9178.553681,766.095498
3094.904456,-592.164754,-6291.750507,689.485948
3094.904783,-444.123565,-6291.750507,536.266849
3094.905111,74.020594,-10510.924376,1455.581446
3094.905439,444.123565,-9844.739029,2068.457845
3094.905766,0.000000,-7846.182985,2681.334243
3094.906094,-1184.329507,-11325.150913,1762.019645
3094.906422,74.020594,-13471.748144,-689.485948
3094.906749,1998.556043,-12435.459826,-3830.477490
3094.907077,1406.391290,-12657.521608,-3294.210641
3094.907405,444.123565,-13101.645173,-2298.286494
3094.907732,1110.308913,-10436.903782,-2911.162892
3094.908060,148.041188,-9178.553681,-2604.724693
3094.908388,-592.164754,-8660.409521,-2374.896044
3094.908715,-592.164754,-5477.523971,-1149.143247
3094.909043,222.061783,-3701.029710,995.924147
3094.909371,444.123565,-7105.977043,3753.867940
3094.909698,962.267725,-8734.430116,4290.134789
3094.910026,1184.329507,-7550.100608,4136.915689
3094.910354,592.164754,-10140.821405,3600.648841
3094.910681,1480.411884,-13915.871710,536.266849
3094.911009,1776.494261,-12065.356855,-1378.971896
3094.911337,888.247130,-11473.192101,-2604.724693
3094.911664,0.000000,-12879.583391,-3600.648841
3094.911992,1036.288319,-10955.047942,-4903.011187
3094.912320,518.144159,-8586.388927,-2681.334243
3094.912647,-1258.350101,-7105.977043,383.047749
3094.912975,-592.164754,-6365.771101,0.000000
3094.913302,222.061783,-5255.462188,306.438199
3094.913630,-444.123565,-7550.100608,1455.581446
3094.913958,-296.082377,-7772.162391,2374.896044
3094.914285,814.226536,-7254.018232,2604.724693
3094.914613,1184.329507,-10658.965565,3140.991542
3094.914941,2146.597232,-12731.542202,2834.553343
3094.915268,3923.091493,-12583.501014,0.000000
3094.915596,1036.288319,-13841.851115,-1915.238745
3094.915924,-1258.350101,-14804.118840,-2604.724693
3094.916251,-148.041188,-11177.109724,-5745.716235
3094.916579,74.020594,-9030.512492,-5286.058936
3094.916907,-888.247130,-10288.862594,-2068.457845
3094.917234,444.123565,-7624.121203,306.438199
3094.917562,1554.432478,-3478.967927,383.047749
3094.917890,962.267725,-6735.874072,2221.676944
3094.918217,0.000000,-9918.759623,3830.477490
3094.918545,-962.267725,-7105.977043,3447.429741
3094.918873,-1924.535449,-8364.327145,2987.772442
3094.919200,370.102971,-12435.459826,459.657299
3094.919528,1998.556043,-14137.933492,-3064.381992
3094.919856,740.205942,-14582.057057,0.000000
3094.920183,1184.329507,-14359.995275,-306.438199
3094.920511,1184.329507,-11843.295072,-2987.772442
3094.920838,-740.205942,-9622.677246,-4443.353888
3094.921166,-2664.741391,-9400.615463,-2374.896044
3094.921494,-2368.659014,-4737.318029,-1455.581446
3094.921821,-1110.308913,-1702.473667,-1149.143247
3094.922149,-2146.597232,-6513.812290,2681.334243
3094.922477,-1776.494261,-9252.574275,4519.963438
3094.922804,0.000000,-7179.997637,2681.334243
3094.923132,0.000000,-9030.512492,2145.067394
3094.923460,444.123565,-12583.501014,1608.800546
3094.923787,2590.720797,-12583.501014,0.000000
3094.924115,2812.782580,-12657.521608,-689.485948
3094.924443,0.000000,-14285.974681,-689.485948
3094.924770,740.205942,-12509.480420,-2068.457845
3094.925098,-296.082377,-9400.615463,-2757.943793
3094.925426,-2960.823768,-7920.203579,-2451.505594
3094.925753,-1850.514855,-7328.038826,-2834.553343
3094.926081,-592.164754,-5625.565159,-2221.676944
3094.926409,-740.205942,-6291.750507,-612.876398
3094.926736,0.000000,-8068.244768,2528.115143
3094.927064,666.185348,-7105.977043,2145.067394
3094.927392,666.185348,-8660.409521,3064.381992
3094.927719,1036.288319,-12583.501014,2987.772442
3094.928047,3182.885551,-13619.789333,536.266849
3094.928374,3775.050304,-12731.542202,-919.314598
3094.928702,2368.659014,-14804.118840,-919.314598
3094.929030,1480.411884,-13397.727550,-1378.971896
3094.929357,-592.164754,-10066.800811,-3294.210641
3094.929685,-2812.782580,-8142.265362,-2834.553343
3094.930013,-2960.823768,-7254.018232,-3294.210641
3094.930340,-888.247130,-5477.523971,-3217.601092
3094.930668,888.247130,-6513.812290,-1225.752797
3094.930996,814.226536,-8660.409521,2987.772442
3094.931323,2220.617826,-7105.977043,4290.134789
3094.931651,2590.720797,-7179.997637,2987.772442
3094.931979,2590.720797,-10881.027347,2834.553343
3094.932306,2368.659014,-11843.295072,2221.676944
3094.932634,1776.494261,-12213.398043,1302.362347
3094.932962,2072.576638,-14656.077652,0.000000
3094.933289,0.000000,-13471.748144,-2451.505594
3094.933617,-1258.350101,-10436.903782,-4290.134789
3094.933945,-1850.514855,-9844.739029,-3983.696590
3094.934272,-3034.844362,-9548.656652,-1838.629195
3094.934600,-1998.556043,-6143.709319,-2604.724693
3094.934928,74.020594,-4959.379811,-2757.943793
3094.935255,0.000000,-7179.997637,995.924147
3094.935583,962.267725,-6291.750507,3140.991542
3094.935910,1480.411884,-5255.462188,4443.353888
3094.936238,2072.576638,-9918.759623,3907.087040
3094.936566,2516.700203,-13471.748144,2451.505594
3094.936893,3627.009116,-13545.768739,-306.438199
3094.937221,1480.411884,-15174.221811,0.000000
3094.937549,0.000000,-15026.180623,-1072.533697
3094.937876,0.000000,-11325.150913,-4903.011187
3094.938204,-3182.885551,-9622.677246,-4596.572988
3094.938532,-4071.132681,-8808.450710,-3217.601092
3094.938859,-1110.308913,-5773.606348,-3447.429741
3094.939187,222.061783,-5107.421000,-1608.800546
3094.939515,-222.061783,-7624.121203,2528.115143
3094.939842,1110.308913,-6439.791695,2681.334243
3094.940170,1998.556043,-5995.668130,2451.505594
3094.940497,1036.288319,-9770.718434,2528.115143
3094.940825,2072.576638,-11399.171507,1302.362347
3094.941153,3404.947333,-11991.336260,229.828649
3094.941480,1998.556043,-14804.118840,1149.143247
3094.941808,444.123565,-16358.551318,0.000000
3094.942135,-1628.453072,-12065.356855,-1608.800546
3094.942463,-3849.070898,-9030.512492,-2834.553343
3094.942791,-3256.906145,-9104.533087,-3370.820191
3094.943118,-1776.494261,-6217.729913,-3600.648841
3094.943446,-740.205942,-4071.132681,-2221.676944
3094.943773,222.061783,-7031.956449,536.266849
3094.944101,1110.308913,-7105.977043,2374.896044
3094.944428,1850.514855,-4737.318029,2145.067394
3094.944756,1776.494261,-8216.285956,2911.162892
3094.945084,1850.514855,-11325.150913,1915.238745
3094.945411,3552.988522,-13175.665768,0.000000
3094.945739,3701.029710,-16062.468941,229.828649
3094.946066,2294.638420,-16580.613101,536.266849
3094.946394,888.247130,-12139.377449,-1225.752797
3094.946722,-666.185348,-10436.903782,-2451.505594
3094.947049,-3478.967927,-9548.656652,-2145.067394
3094.947377,-2664.741391,-6957.935855,-4290.134789
3094.947704,-1480.411884,-4737.318029,-4366.744339
3094.948032,-740.205942,-7031.956449,-1378.971896
3094.948360,-370.102971,-7179.997637,2298.286494
3094.948687,1258.350101,-5699.585753,1991.848295
3094.949015,740.205942,-8956.491898,2145.067394
3094.949342,1332.370696,-12213.398043,1378.971896
3094.949670,3997.112087,-11843.295072,-1378.971896
3094.949997,3404.947333,-14211.954086,306.438199
3094.950325,3256.906145,-16210.510130,2451.505594
3094.950653,2886.803174,-13175.665768,766.095498
3094.950980,-518.144159,-10214.842000,-995.924147
3094.951308,-2812.782580,-11103.089130,-1378.971896
3094.951635,-2664.741391,-6883.915261,-3370.820191
3094.951963,-2664.741391,-3478.967927,-4213.525239
3094.952291,-2146.597232,-5699.585753,-1072.533697
3094.952618,444.123565,-7550.100608,306.438199
3094.952946,1406.391290,-5773.606348,1072.533697
3094.953273,1776.494261,-7846.182985,2834.553343
3094.953601,1850.514855,-9992.780217,2911.162892
3094.953929,3330.926739,-10510.924376,459.657299
3094.954256,3701.029710,-13249.686362,919.314598
3094.954584,2368.659014,-15914.427753,2221.676944
3094.954911,1184.329507,-12657.521608,459.657299
3094.955239,444.123565,-9844.739029,-1149.143247
3094.955566,-3627.009116,-10214.842000,-1072.533697
3094.955894,-5181.441594,-7920.203579,-2604.724693
3094.956222,-3701.029710,-4885.359217,-4596.572988
3094.956549,-3627.009116,-5477.523971,-2834.553343
3094.956877,-2072.576638,-8068.244768,-995.924147
3094.957204,1258.350101,-6513.812290,76.609550
3094.957532,2590.720797,-7476.080014,2068.457845
3094.957860,2220.617826,-10955.047942,2987.772442
3094.958187,4515.256246,-11547.212695,153.219100
3094.958515,4293.194464,-11547.212695,0.000000
3094.958842,2146.597232,-14656.077652,1685.410096
3094.959170,296.082377,-13545.768739,919.314598
3094.959497,-1480.411884,-11473.192101,-1455.581446
3094.959825,-3849.070898,-10807.006753,-2604.724693
3094.960153,-3627.009116,-9696.697840,-4136.915689
3094.960480,-2812.782580,-6957.935855,-3830.477490
3094.960808,-2146.597232,-7402.059420,-2451.505594
3094.961135,-370.102971,-7772.162391,0.000000
3094.961463,2220.617826,-6365.771101,-229.828649
3094.961791,2886.803174,-6957.935855,919.314598
3094.962118,2664.741391,-9770.718434,2604.724693
3094.962446,2812.782580,-8956.491898,1685.410096
3094.962773,4441.235652,-10066.800811,919.314598
3094.963101,2886.803174,-14804.118840,1225.752797
3094.963429,1110.308913,-14063.912898,1378.971896
3094.963756,740.205942,-11103.089130,153.219100
3094.964084,-1702.473667,-11399.171507,-995.924147
3094.964411,-4219.173869,-10584.944971,-1225.752797
3094.964739,-3478.967927,-5699.585753,-3064.381992
3094.965066,-2368.659014,-4515.256246,-2757.943793
3094.965394,-1702.473667,-6587.832884,459.657299
3094.965722,444.123565,-5403.503377,1915.238745
3094.966049,2368.659014,-5699.585753,2374.896044
3094.966377,2442.679609,-10214.842000,2681.334243
3094.966704,4145.153275,-11251.130318,0.000000
3094.967032,4293.194464,-11251.130318,-1608.800546
3094.967360,2072.576638,-14359.995275,0.000000
3094.967687,2442.679609,-14063.912898,0.000000
3094.968015,888.247130,-10732.986159,-306.438199
3094.968342,-2664.741391,-11251.130318,0.000000
3094.968670,-4071.132681,-12731.542202,-306.438199
3094.968998,-2368.659014,-8290.306550,-2221.676944
3094.969325,-2072.576638,-5921.647536,-2298.286494
3094.969653,-1406.391290,-8068.244768,-459.657299
3094.969980,222.061783,-6735.874072,0.000000
3094.970308,2294.638420,-5551.544565,459.657299
3094.970635,2516.700203,-9622.677246,842.705048
3094.970963,3552.988522,-10955.047942,-383.047749
3094.971291,3923.091493,-10584.944971,-1532.190996
3094.971618,2960.823768,-15174.221811,76.609550
3094.971946,1850.514855,-16432.571912,459.657299
3094.972273,1036.288319,-12139.377449,-689.485948
3094.972601,-888.247130,-10214.842000,306.438199
3094.972929,-2590.720797,-10436.903782,-383.047749
3094.973256,-2812.782580,-7550.100608,-612.876398
3094.973584,-2886.803174,-5699.585753,-766.095498
3094.973911,-2812.782580,-6439.791695,0.000000
3094.974239,-1924.535449,-6069.688724,383.047749
3094.974566,0.000000,-5033.400406,536.266849
3094.974894,370.102971,-7846.182985,1455.581446
3094.975222,1110.308913,-9918.759623,1072.533697
3094.975549,4441.235652,-10881.027347,-1762.019645
3094.975877,4071.132681,-14137.933492,-1378.971896
3094.976204,1998.556043,-14952.160028,612.876398
3094.976532,1110.308913,-11103.089130,383.047749
3094.976860,-592.164754,-8364.327145,689.485948
3094.977187,-3108.864956,-10288.862594,536.266849
3094.977515,-3404.947333,-7550.100608,-689.485948
3094.977842,-2812.782580,-5551.544565,-919.314598
3094.978170,-2664.741391,-7698.141797,-229.828649
3094.978498,-1554.432478,-8290.306550,-612.876398
3094.978825,-444.123565,-7031.956449,-1302.362347
3094.979153,666.185348,-7994.224174,0.000000
3094.979480,2368.659014,-9844.739029,-689.485948
3094.979808,5403.503377,-11695.253884,-1225.752797
3094.980135,5847.626942,-14285.974681,-919.314598
3094.980463,3701.029710,-15618.345376,1302.362347
3094.980791,1924.535449,-11251.130318,536.266849
3094.981118,0.000000,-10140.821405,-536.266849
3094.981446,-2590.720797,-12435.459826,459.657299
3094.981773,-2368.659014,-8216.285956,-1762.019645
3094.982101,-2146.597232,-5625.565159,-1838.629195
3094.982429,-2590.720797,-8216.285956,229.828649
3094.982756,-888.247130,-9770.718434,0.000000
3094.983084,0.000000,-6883.915261,0.000000
3094.983411,-148.041188,-7179.997637,689.485948
3094.983739,2294.638420,-10066.800811,306.438199
3094.984067,4367.215058,-10955.047942,-1302.362347
3094.984394,5625.565159,-11547.212695,-766.095498
3094.984722,3108.864956,-13915.871710,1455.581446
3094.985049,3108.864956,-11843.295072,842.705048
3094.985377,518.144159,-8438.347739,0.000000
3094.985704,-3404.947333,-9326.594869,842.705048
3094.986032,-4589.276840,-8512.368333,76.609550
3094.986360,-4145.153275,-6143.709319,-1455.581446
3094.986687,-3034.844362,-8216.285956,-153.219100
3094.987015,-1998.556043,-8808.450710,229.828649
3094.987342,-148.041188,-6957.935855,689.485948
3094.987670,1110.308913,-8068.244768,2451.505594
3094.987998,2220.617826,-10732.986159,1608.800546
3094.988325,5255.462188,-10510.924376,-1225.752797
3094.988653,5625.565159,-11029.068536,-2451.505594
3094.988980,2516.700203,-12657.521608,306.438199
3094.989308,962.267725,-11547.212695,-153.219100
3094.989635,-296.082377,-8882.471304,-1455.581446
3094.989963,-3182.885551,-9400.615463,-842.705048
3094.990291,-3701.029710,-10658.965565,0.000000
3094.990618,-1332.370696,-8660.409521,-842.705048
3094.990946,-1628.453072,-8586.388927,459.657299
3094.991273,-666.185348,-10510.924376,1762.019645
3094.991601,0.000000,-7624.121203,612.876398
3094.991929,0.000000,-7179.997637,459.657299
3094.992256,666.185348,-9326.594869,459.657299
3094.992584,3404.947333,-10066.800811,-1685.410096
3094.992911,4811.338623,-12509.480420,-1838.629195
3094.993239,4589.276840,-14656.077652,-229.828649
3094.993567,3256.906145,-13471.748144,-995.924147
3094.993894,518.144159,-10140.821405,-1991.848295
3094.994222,-2442.679609,-10436.903782,-1149.143247
3094.994549,-4071.132681,-9474.636058,-689.485948
3094.994877,-2368.659014,-5181.441594,-1378.971896
3094.995204,-1850.514855,-6217.729913,1149.143247
3094.995532,-2368.659014,-9622.677246,4060.306139
3094.995860,-1036.288319,-7698.141797,3753.867940
3094.996187,74.020594,-7550.100608,1838.629195
3094.996515,1184.329507,-10140.821405,766.095498
3094.996842,3034.844362,-10658.965565,-1991.848295
3094.997170,4367.215058,-11843.295072,-3600.648841
3094.997498,3775.050304,-13545.768739,-2145.067394
3094.997825,2812.782580,-12065.356855,-1225.752797
3094.998153,2294.638420,-9178.553681,-1991.848295
3094.998480,-1036.288319,-9844.739029,76.609550
3094.998808,-3923.091493,-9400.615463,842.705048
3094.999136,-2960.823768,-5181.441594,-1149.143247
3094.999463,-2516.700203,-6143.709319,0.000000
3094.999791,-2146.597232,-9474.636058,3140.991542
3095.000118,-370.102971,-7772.162391,3983.696590
3095.000446,370.102971,-7550.100608,2528.115143
3095.000773,592.164754,-11473.192101,1532.190996
3095.001101,3182.885551,-12065.356855,-2145.067394
3095.001429,4367.215058,-11251.130318,-5132.839837
3095.001756,3108.864956,-13471.748144,-2987.772442
3095.002084,2590.720797,-13619.789333,-1072.533697
3095.002411,2442.679609,-10732.986159,-2068.457845
3095.002739,-740.205942,-10140.821405,-1378.971896
3095.003067,-3330.926739,-10436.903782,459.657299
3095.003394,-2664.741391,-5921.647536,-229.828649
3095.003722,-1924.535449,-4293.194464,-383.047749
3095.004049,-3034.844362,-8882.471304,1762.019645
3095.004377,-2368.659014,-8734.430116,2528.115143
3095.004705,-370.102971,-7624.121203,2374.896044
3095.005032,1110.308913,-10881.027347,2604.724693
3095.005360,2294.638420,-11917.315666,153.219100
3095.005687,3849.070898,-10955.047942,-3294.210641
3095.006015,3256.906145,-13175.665768,-2681.334243
3095.006342,2960.823768,-13767.830521,-1762.019645
3095.006670,2146.597232,-8808.450710,-2834.553343
3095.006998,444.123565,-9178.553681,-2068.457845
3095.007325,-2664.741391,-10214.842000,1149.143247
3095.007653,-2664.741391,-5921.647536,306.438199
3095.007980,-2886.803174,-4293.194464,0.000000
3095.008308,-3627.009116,-8364.327145,1838.629195
3095.008636,-1554.432478,-8882.471304,2451.505594
3095.008963,444.123565,-7920.203579,2528.115143
3095.009291,1110.308913,-11325.150913,2374.896044
3095.009618,2294.638420,-11843.295072,995.924147
3095.009946,4441.235652,-10584.944971,-1838.629195
3095.010273,3627.009116,-12213.398043,-2451.505594
3095.010601,2220.617826,-13545.768739,-1915.238745
3095.010929,1998.556043,-9992.780217,-2987.772442
3095.011256,222.061783,-8068.244768,-3140.991542
3095.011584,-1924.535449,-10807.006753,-1225.752797
3095.011911,-2738.761985,-7698.141797,-536.266849
3095.012239,-2590.720797,-3997.112087,-612.876398
3095.012567,-4293.194464,-7772.162391,2068.457845
3095.012894,-2738.761985,-10584.944971,2145.067394
3095.013222,74.020594,-8734.430116,919.314598
3095.013549,1406.391290,-10214.842000,2145.067394
3095.013877,3478.967927,-12435.459826,1302.362347
3095.014205,4959.379811,-11843.295072,459.657299
3095.014532,4589.276840,-13249.686362,-766.095498
3095.014860,3330.926739,-14063.912898,-1915.238745
3095.015187,2072.576638,-10584.944971,-4443.353888
3095.015515,0.000000,-9252.574275,-4903.011187
3095.015842,-3182.885551,-9622.677246,-1762.019645
3095.016170,-3552.988522,-7031.956449,-383.047749
3095.016498,-2368.659014,-3182.885551,-612.876398
3095.016825,-2220.617826,-7698.141797,1455.581446
3095.017153,-1406.391290,-10362.883188,3677.258390
3095.017480,1258.350101,-7402.059420,3294.210641
3095.017808,1776.494261,-8290.306550,4290.134789
3095.018136,2590.720797,-11029.068536,3447.429741
3095.018463,3627.009116,-11399.171507,842.705048
3095.018791,3108.864956,-11251.130318,-153.219100
3095.019118,2368.659014,-12583.501014,-1302.362347
3095.019446,1924.535449,-11251.130318,-4060.306139
3095.019774,222.061783,-10807.006753,-5209.449386
3095.020101,-2442.679609,-11621.233289,-3677.258390
3095.020429,-2960.823768,-8956.491898,-2374.896044
3095.020756,-1332.370696,-3849.070898,-1608.800546
3095.021084,-2072.576638,-5773.606348,1455.581446
3095.021411,-1702.473667,-8660.409521,4519.963438
3095.021739,444.123565,-6143.709319,4519.963438
3095.022067,296.082377,-7994.224174,4596.572988
3095.022394,222.061783,-12435.459826,3524.039291
3095.022722,2442.679609,-11473.192101,0.000000
3095.023049,3478.967927,-11325.150913,-2911.162892
3095.023377,2516.700203,-14952.160028,-2451.505594
3095.023705,2738.761985,-14434.015869,-4136.915689
3095.024032,2072.576638,-10584.944971,-5975.544884
3095.024360,-1110.308913,-10584.944971,-4366.744339
3095.024687,-2960.823768,-9104.533087,-2451.505594
3095.025015,-2368.659014,-5551.544565,-1072.533697
3095.025342,-2738.761985,-5625.565159,306.438199
3095.025670,-2442.679609,-7920.203579,2374.896044
3095.025998,444.123565,-6883.915261,2528.115143
3095.026325,1776.494261,-8512.368333,3983.696590
3095.026653,2220.617826,-12953.603985,5439.278036
3095.026980,3775.050304,-12657.521608,2068.457845
3095.027308,3701.029710,-11917.315666,-1608.800546
3095.027636,1702.473667,-13397.727550,-1991.848295
3095.027963,1628.453072,-12583.501014,-4366.744339
3095.028291,888.247130,-9178.553681,-4979.620737
3095.028618,-1702.473667,-10214.842000,-2528.115143
3095.028946,-3701.029710,-9178.553681,-1072.533697
3095.029274,-1850.514855,-5255.462188,-2068.457845
3095.029601,-1184.329507,-5847.626942,-1455.581446
3095.029929,-3256.906145,-7328.038826,2451.505594
3095.030256,-1998.556043,-5847.626942,3524.039291
3095.030584,370.102971,-7105.977043,3217.601092
3095.030911,1406.391290,-11843.295072,4290.134789
3095.031239,3552.988522,-11917.315666,2068.457845
3095.031567,3627.009116,-11473.192101,689.485948
3095.031894,2442.679609,-15026.180623,1072.533697
3095.032222,3182.885551,-14804.118840,-2374.896044
3095.032549,2516.700203,-10362.883188,-5362.668486
3095.032877,-1480.411884,-8586.388927,-4596.572988
3095.033205,-2812.782580,-9326.594869,-2451.505594
3095.033532,-962.267725,-6957.935855,-2221.676944
3095.033860,-1406.391290,-5995.668130,-459.657299
3095.034187,-3775.050304,-7476.080014,2451.505594
3095.034515,-2368.659014,-6217.729913,1378.971896
3095.034843,0.000000,-7179.997637,1991.848295
3095.035170,1850.514855,-11843.295072,2604.724693
3095.035498,3478.967927,-11843.295072,2528.115143
3095.035825,4663.297435,-11621.233289,1149.143247
3095.036153,3997.112087,-15100.201217,1149.143247
3095.036480,2886.803174,-15174.221811,-612.876398
3095.036808,2442.679609,-10362.883188,-4826.401637
3095.037136,-592.164754,-9252.574275,-4903.011187
3095.037463,-4367.215058,-8956.491898,-3600.648841
3095.037791,-3108.864956,-6883.915261,-3370.820191
3095.038118,-814.226536,-6365.771101,-2528.115143
3095.038446,-3108.864956,-8216.285956,1378.971896
3095.038774,-3182.885551,-6143.709319,2987.772442
3095.039101,-1702.473667,-4811.338623,2451.505594
3095.039429,-592.164754,-10140.821405,1991.848295
3095.039756,2220.617826,-12509.480420,766.095498
3095.040084,5255.462188,-10955.047942,459.657299
3095.040411,4737.318029,-13989.892304,2757.943793
3095.040739,5477.523971,-16284.530724,1991.848295
3095.041067,3182.885551,-11251.130318,-1455.581446
3095.041394,-814.226536,-9104.533087,-3677.258390
3095.041722,-2960.823768,-10584.944971,-4443.353888
3095.042050,-3034.844362,-7105.977043,-5592.497135
3095.042377,-3256.906145,-4737.318029,-3830.477490
3095.042705,-4441.235652,-7179.997637,612.876398
3095.043033,-2664.741391,-7105.977043,3064.381992
3095.043360,962.267725,-5847.626942,2757.943793
3095.043688,2368.659014,-9770.718434,3830.477490
3095.044016,4367.215058,-12879.583391,3677.258390
3095.044343,5847.626942,-11029.068536,1378.971896
3095.044671,5181.441594,-12731.542202,1378.971896
3095.044999,3034.844362,-14582.057057,1302.362347
3095.045326,1110.308913,-11325.150913,-2068.457845
3095.045654,-1554.432478,-9104.533087,-2221.676944
3095.045982,-3849.070898,-9844.739029,-2911.162892
3095.046309,-2886.803174,-8142.265362,-4903.011187
3095.046637,-1184.329507,-7994.224174,-5515.887586
3095.046965,-1998.556043,-8808.450710,-1378.971896
3095.047292,-2072.576638,-8068.244768,1302.362347
3095.047620,296.082377,-4441.235652,2221.676944
3095.047948,2368.659014,-6069.688724,3370.820191
3095.048275,3256.906145,-10066.800811,4519.963438
3095.048603,4145.153275,-10140.821405,4136.915689
3095.048931,3034.844362,-12213.398043,3753.867940
3095.049258,1776.494261,-16506.592507,1455.581446
3095.049586,1110.308913,-12657.521608,-3907.087040
3095.049914,-1406.391290,-9770.718434,-5362.668486
3095.050241,-3997.112087,-10807.006753,-3753.867940
3095.050569,-3108.864956,-8290.306550,-4979.620737
3095.050897,-592.164754,-7105.977043,-4443.353888
3095.051224,-518.144159,-8438.347739,-995.924147
3095.051552,-2812.782580,-6883.915261,2757.943793
3095.051879,-2146.597232,-3849.070898,3294.210641
3095.052207,74.020594,-5921.647536,2145.067394
3095.052535,1850.514855,-10510.924376,1378.971896
3095.052862,4811.338623,-10955.047942,1378.971896
3095.053190,5847.626942,-12879.583391,2068.457845
3095.053518,4811.338623,-16506.592507,3677.258390
3095.053845,3330.926739,-14878.139434,459.657299
3095.054173,-518.144159,-11103.089130,-2911.162892
3095.054501,-4145.153275,-10510.924376,-3830.477490
3095.054828,-4367.215058,-8512.368333,-4673.182538
3095.055156,-3256.906145,-5847.626942,-4673.182538
3095.055484,-2812.782580,-7698.141797,-1302.362347
3095.055811,-2442.679609,-8956.491898,1532.190996
3095.056139,-740.205942,-5403.503377,1225.752797
3095.056467,518.144159,-5847.626942,1072.533697
3095.056794,1554.432478,-10066.800811,2145.067394
3095.057122,3552.988522,-10066.800811,2145.067394
3095.057450,4737.318029,-11029.068536,1991.848295
3095.057777,3775.050304,-15396.283594,2757.943793
3095.058105,3849.070898,-15322.262999,1838.629195
3095.058433,1258.350101,-10140.821405,-459.657299
3095.058760,-2220.617826,-10436.903782,-1378.971896
3095.059088,-2146.597232,-10288.862594,-4213.525239
3095.059416,-1924.535449,-6069.688724,-6205.373534
3095.059743,-3404.947333,-5921.647536,-3524.039291
3095.060071,-3404.947333,-7476.080014,153.219100
3095.060399,-962.267725,-5255.462188,1072.533697
3095.060726,592.164754,-6069.688724,1455.581446
3095.061054,444.123565,-9770.718434,2911.162892
3095.061382,2886.803174,-11399.171507,2068.457845
3095.061709,5329.482782,-10732.986159,383.047749
3095.062037,4145.153275,-14211.954086,2604.724693
3095.062365,2886.803174,-14952.160028,1378.971896
3095.062692,1924.535449,-10658.965565,-536.266849
3095.063020,-1480.411884,-9770.718434,-1225.752797
3095.063348,-2664.741391,-10732.986159,-2757.943793
3095.063675,-2368.659014,-7846.182985,-4749.792088
3095.064003,-2590.720797,-7254.018232,-2911.162892
3095.064331,-2812.782580,-9030.512492,76.609550
3095.064658,0.000000,-7105.977043,0.000000
3095.064986,1628.453072,-5847.626942,229.828649
3095.065314,740.205942,-9918.759623,2528.115143
3095.065641,1406.391290,-11473.192101,2604.724693
3095.065969,2812.782580,-10510.924376,229.828649
3095.066297,2590.720797,-13027.624579,536.266849
3095.066624,2664.741391,-13989.892304,153.219100
3095.066952,1628.453072,-12361.439231,-612.876398
3095.067280,-814.226536,-11843.295072,229.828649
3095.067607,-1406.391290,-11029.068536,-1455.581446
3095.067935,-1332.370696,-7994.224174,-4519.963438
3095.068263,-2664.741391,-6587.832884,-4060.306139
3095.068590,-3701.029710,-7254.018232,-919.314598
3095.068918,-1332.370696,-6365.771101,76.609550
3095.069246,296.082377,-5403.503377,919.314598
3095.069573,0.000000,-9030.512492,2528.115143
3095.069901,2442.679609,-10807.006753,3064.381992
3095.070229,5255.462188,-9548.656652,1532.190996
3095.070556,4885.359217,-13101.645173,1915.238745
3095.070884,3478.967927,-14063.912898,612.876398
3095.071212,1850.514855,-9992.780217,-153.219100
3095.071539,-1036.288319,-9548.656652,-1378.971896
3095.071867,-3108.864956,-10214.842000,-995.924147
3095.072195,-2960.823768,-8290.306550,-2221.676944
3095.072522,-2072.576638,-7550.100608,-1608.800546
3095.072850,-1924.535449,-9326.594869,-383.047749
3095.073178,-222.061783,-8290.306550,-1072.533697
3095.073505,1480.411884,-6661.853478,-766.095498
3095.073833,1110.308913,-8512.368333,1455.581446
3095.074160,3108.864956,-9030.512492,1762.019645
3095.074488,5181.441594,-8142.265362,536.266849
3095.074816,4515.256246,-11103.089130,1762.019645
3095.075143,1998.556043,-14137.933492,3217.601092
3095.075471,222.061783,-13175.665768,1455.581446
3095.075799,-2294.638420,-10955.047942,-1072.533697
3095.076126,-2368.659014,-12139.377449,-3830.477490
3095.076454,-1702.473667,-9918.759623,-4903.011187
3095.076782,-2368.659014,-8216.285956,-3140.991542
3095.077109,-2220.617826,-10066.800811,76.609550
3095.077437,-148.041188,-8438.347739,153.219100
3095.077765,592.164754,-5921.647536,-229.828649
3095.078092,-814.226536,-7476.080014,1455.581446
3095.078420,0.000000,-9030.512492,1302.362347
3095.078748,2442.679609,-9622.677246,-306.438199
3095.079075,4219.173869,-12213.398043,-1378.971896
3095.079403,3256.906145,-13989.892304,0.000000
3095.079731,2812.782580,-11991.336260,612.876398
3095.080058,1110.308913,-10362.883188,383.047749
3095.080386,-2220.617826,-11399.171507,1532.190996
3095.080714,-2368.659014,-8882.471304,-1302.362347
3095.081041,-1776.494261,-6439.791695,-2604.724693
3095.081369,-2590.720797,-7698.141797,0.000000
3095.081697,-1850.514855,-8956.491898,1838.629195
3095.082024,-444.123565,-7402.059420,842.705048
3095.082352,-592.164754,-7476.080014,919.314598
3095.082680,814.226536,-9696.697840,-459.657299
3095.083007,2960.823768,-9104.533087,-2145.067394
3095.083335,4071.132681,-9770.718434,-536.266849
3095.083663,3330.926739,-13323.706956,1838.629195
3095.083990,1924.535449,-11695.253884,1378.971896
3095.084318,-222.061783,-9030.512492,536.266849
3095.084646,-2146.597232,-10362.883188,153.219100
3095.084973,-1776.494261,-9622.677246,-536.266849
3095.085301,-1850.514855,-7105.977043,-2068.457845
3095.085629,-1554.432478,-8586.388927,-612.876398
3095.085956,-1258.350101,-9770.718434,459.657299
3095.086284,-222.061783,-7328.038826,-612.876398
3095.086612,-222.061783,-8512.368333,0.000000
3095.086939,-370.102971,-10066.800811,76.609550
3095.087267,2442.679609,-9696.697840,-2374.896044
3095.087595,3256.906145,-11103.089130,-1762.019645
3095.087922,2738.761985,-13915.871710,229.828649
3095.088250,1776.494261,-11991.336260,612.876398
3095.088578,1480.411884,-9918.759623,0.000000
3095.088905,-1480.411884,-9178.553681,76.609550
3095.089233,-2368.659014,-9030.512492,0.000000
3095.089561,-1924.535449,-6291.750507,-842.705048
3095.089888,-2368.659014,-9104.533087,0.000000
3095.090216,-962.267725,-11399.171507,1149.143247
3095.090544,296.082377,-8586.388927,-689.485948
3095.090871,0.000000,-9030.512492,76.609550
3095.091199,1184.329507,-10658.965565,995.924147
3095.091527,4219.173869,-9844.739029,-1532.190996
3095.091854,3701.029710,-10584.944971,-689.485948
3095.092182,2072.576638,-12953.603985,1378.971896
3095.092510,-296.082377,-9844.739029,842.705048
3095.092837,-444.123565,-7772.162391,-1225.752797
3095.093165,-888.247130,-9326.594869,-1762.019645
3095.093493,-1998.556043,-10658.965565,0.000000
3095.093820,-592.164754,-8068.244768,536.266849
3095.094148,0.000000,-8216.285956,0.000000
3095.094476,-148.041188,-10955.047942,766.095498
3095.094803,814.226536,-8956.491898,-459.657299
3095.095131,-1110.308913,-7920.203579,842.705048
3095.095458,-962.267725,-8882.471304,1838.629195
3095.095786,2294.638420,-7994.224174,-1225.752797
3095.096114,3108.864956,-9474.636058,-1378.971896
3095.096441,1628.453072,-12287.418637,919.314598
3095.096769,1628.453072,-13101.645173,0.000000
3095.097097,1554.432478,-9474.636058,-2757.943793
3095.097424,-370.102971,-9474.636058,-2757.943793
3095.097752,-2738.761985,-10436.903782,-689.485948
3095.098080,-1776.494261,-6587.832884,0.000000
3095.098407,-888.247130,-7031.956449,995.924147
3095.098735,-1110.308913,-10732.986159,3064.381992
3095.099063,592.164754,-9918.759623,2374.896044
3095.099390,1184.329507,-8882.471304,1149.143247
3095.099718,148.041188,-10807.006753,1072.533697
3095.100046,2072.576638,-10732.986159,-1685.410096
3095.100373,3478.967927,-10362.883188,-3830.477490
3095.100701,2516.700203,-11991.336260,-1838.629195
3095.101029,1850.514855,-11473.192101,-306.438199
3095.101356,1554.432478,-8068.244768,-1072.533697
3095.101684,-1406.391290,-7624.121203,-459.657299
3095.102012,-4071.132681,-10955.047942,383.047749
3095.102339,-2368.659014,-9104.533087,-995.924147
3095.102667,222.061783,-7846.182985,-536.266849
3095.102995,962.267725,-10288.862594,2221.676944
3095.103322,1036.288319,-9474.636058,3447.429741
3095.103650,740.205942,-8438.347739,3830.477490
3095.103978,-296.082377,-10066.800811,2604.724693
3095.104305,296.082377,-9844.739029,-612.876398
3095.104633,296.082377,-8068.244768,-3907.087040
3095.104961,-1258.350101,-9844.739029,-3217.601092
3095.105288,-962.267725,-11695.253884,-2604.724693
3095.105616,814.226536,-9770.718434,-4213.525239
3095.105944,-296.082377,-9918.759623,-2068.457845
3095.106271,-1406.391290,-11621.233289,842.705048
3095.106599,0.000000,-8142.265362,842.705048
3095.106927,888.247130,-6735.874072,612.876398
3095.107254,0.000000,-8882.471304,2298.286494
3095.107582,0.000000,-9030.512492,2834.553343
3095.107910,370.102971,-8364.327145,3753.867940
3095.108237,296.082377,-11325.150913,2757.943793
3095.108565,1184.329507,-12361.439231,229.828649
3095.108893,2146.597232,-11473.192101,-3983.696590
3095.109220,296.082377,-11991.336260,-4826.401637
3095.109548,74.020594,-13175.665768,-4673.182538
3095.109876,888.247130,-9326.594869,-4903.011187
3095.110203,-296.082377,-8142.265362,-2451.505594
3095.110531,-2220.617826,-9844.739029,1532.190996
3095.110859,-370.102971,-7550.100608,1838.629195
3095.111186,1110.308913,-6069.688724,2374.896044
3095.111514,666.185348,-8586.388927,3753.867940
3095.111842,814.226536,-9178.553681,3064.381992
3095.112169,1480.411884,-8438.347739,1915.238745
3095.112497,1628.453072,-10732.986159,1762.019645
3095.112825,1406.391290,-12509.480420,153.219100
3095.113152,2220.617826,-11399.171507,-2757.943793
3095.113480,1406.391290,-12361.439231,-3217.601092
3095.113808,0.000000,-12805.562797,-2604.724693
3095.114135,740.205942,-9474.636058,-3983.696590
3095.114463,-370.102971,-7476.080014,-3524.039291
3095.114791,-3034.844362,-8364.327145,153.219100
3095.115118,-2738.761985,-6291.750507,919.314598
3095.115446,-740.205942,-4145.153275,995.924147
3095.115774,-666.185348,-7105.977043,2451.505594
3095.116101,-518.144159,-8882.471304,3294.210641
3095.116429,888.247130,-9252.574275,2911.162892
3095.116756,1258.350101,-10214.842000,2451.505594
3095.117084,1998.556043,-12583.501014,1378.971896
3095.117412,2368.659014,-12361.439231,-689.485948
3095.117739,1924.535449,-13915.871710,-2604.724693
3095.118067,888.247130,-13545.768739,-3064.381992
3095.118395,518.144159,-9474.636058,-5056.230287
3095.118722,1110.308913,-8068.244768,-5209.449386
3095.119050,-1258.350101,-9400.615463,-689.485948
3095.119378,-3256.906145,-7031.956449,2451.505594
3095.119705,-2590.720797,-5033.400406,1378.971896
3095.120033,-2072.576638,-8364.327145,919.314598
3095.120361,-222.061783,-10288.862594,383.047749
3095.120688,1480.411884,-8364.327145,919.314598
3095.121016,1628.453072,-11029.068536,3370.820191
3095.121344,3701.029710,-14211.954086,3370.820191
3095.121671,5921.647536,-13323.706956,229.828649
3095.121999,4293.194464,-11769.274478,-306.438199
3095.122327,1850.514855,-11843.295072,-1762.019645
3095.122654,296.082377,-9252.574275,-3524.039291
3095.122982,-1480.411884,-6957.935855,-4519.963438
3095.123310,-4145.153275,-7328.038826,-2987.772442
3095.123637,-3923.091493,-6291.750507,-1455.581446
3095.123965,-962.267725,-4737.318029,-383.047749
3095.124293,0.000000,-7846.182985,2834.553343
3095.124620,296.082377,-11029.068536,3830.477490
3095.124948,1702.473667,-8142.265362,2987.772442
3095.125276,888.247130,-7402.059420,3370.820191
3095.125603,3034.844362,-11029.068536,3294.210641
3095.125931,4367.215058,-11547.212695,1532.190996
3095.126259,3404.947333,-11843.295072,1225.752797
3095.126586,1110.308913,-13397.727550,153.219100
3095.126914,1036.288319,-12805.562797,-3600.648841
3095.127242,-518.144159,-9326.594869,-7584.345430
3095.127569,-3627.009116,-9030.512492,-6281.983084
3095.127897,-4737.318029,-7402.059420,-2911.162892
3095.128225,-1850.514855,-5107.421000,-2068.457845
3095.128552,-222.061783,-6513.812290,1608.800546
3095.128880,-518.144159,-8660.409521,5592.497135
3095.129208,888.247130,-7698.141797,5975.544884
3095.129535,1776.494261,-8808.450710,3983.696590
3095.129863,1702.473667,-12065.356855,2374.896044
3095.130191,3775.050304,-13841.851115,-306.438199
3095.130518,3923.091493,-13323.706956,-689.485948
3095.130846,3182.885551,-14434.015869,-306.438199
3095.131174,740.205942,-13545.768739,-2451.505594
3095.131501,-1406.391290,-9474.636058,-5056.230287
3095.131829,-3627.009116,-8956.491898,-5898.935335
3095.132157,-6587.832884,-8438.347739,-4979.620737
3095.132484,-6217.729913,-3256.906145,-5056.230287
3095.132812,-4367.215058,-4293.194464,-1838.629195
3095.133140,-740.205942,-9252.574275,3217.601092
3095.133467,2960.823768,-9548.656652,5056.230287
3095.133795,4071.132681,-8660.409521,6435.202183
3095.134123,5107.421000,-11251.130318,6052.154434
3095.134450,6217.729913,-12213.398043,2298.286494
3095.134778,4219.173869,-12879.583391,-306.438199
3095.135106,1332.370696,-12953.603985,-1225.752797
3095.135433,-814.226536,-11843.295072,-2451.505594
3095.135761,-1924.535449,-10362.883188,-4903.011187
3095.136089,-3478.967927,-10214.842000,-5515.887586
3095.136416,-5329.482782,-9104.533087,-4443.353888
3095.136744,-4367.215058,-5033.400406,-4136.915689
3095.137072,-2960.823768,-4885.359217,-1915.238745
3095.137399,-2368.659014,-7772.162391,2298.286494
3095.137727,0.000000,-7105.977043,5209.449386
3095.138054,2146.597232,-6809.894666,4826.401637
3095.138382,3404.947333,-10584.944971,6052.154434
3095.138710,6143.709319,-12287.418637,3217.601092
3095.139037,6069.688724,-12583.501014,1532.190996
3095.139365,4737.318029,-15100.201217,1149.143247
3095.139697,3182.885551,-16358.551318,-1762.019645
3095.140024,962.267725,-12657.521608,-4596.572988
3095.140352,-1924.535449,-8586.388927,-5745.716235
3095.140679,-3627.009116,-8512.368333,-4749.792088
3095.141007,-3552.988522,-5329.482782,-4060.306139
3095.141334,-2516.700203,-4959.379811,-2451.505594
3095.141662,-2886.803174,-8438.347739,1532.190996
3095.141990,-666.185348,-7920.203579,3140.991542
3095.142317,1406.391290,-6587.832884,3064.381992
3095.142645,2738.761985,-9030.512492,4903.011187
3095.142972,5107.421000,-11843.295072,3370.820191
3095.143300,7476.080014,-12657.521608,919.314598
3095.143627,5773.606348,-14730.098246,1608.800546
3095.143955,2960.823768,-14730.098246,689.485948
3095.144283,1480.411884,-12361.439231,-2145.067394
3095.144610,-888.247130,-10140.821405,-3753.867940
3095.144938,-4367.215058,-8586.388927,-4443.353888
3095.145265,-5107.421000,-6587.832884,-4673.182538
3095.145593,-4219.173869,-4367.215058,-3830.477490
3095.145920,-3478.967927,-6513.812290,0.000000
3095.146248,-1480.411884,-8586.388927,2528.115143
3095.146576,1332.370696,-6291.750507,3524.039291
3095.146903,1110.308913,-8290.306550,5515.887586
3095.147231,3923.091493,-11769.274478,4443.353888
3095.147558,5403.503377,-11843.295072,995.924147
3095.147886,4367.215058,-13175.665768,1838.629195
3095.148213,2812.782580,-14952.160028,1378.971896
3095.148541,962.267725,-12435.459826,-1532.190996
3095.148869,-1924.535449,-9844.739029,-3600.648841
3095.149196,-3478.967927,-9918.759623,-3907.087040
3095.149524,-4589.276840,-7476.080014,-4519.963438
3095.149851,-4145.153275,-4219.173869,-4213.525239
3095.150179,-4737.318029,-6439.791695,-1762.019645
3095.150507,-3034.844362,-8660.409521,1302.362347
3095.150834,-148.041188,-6587.832884,1991.848295
3095.151162,1258.350101,-7402.059420,3217.601092
3095.151489,3552.988522,-11399.171507,4749.792088
3095.151817,7105.977043,-12361.439231,3370.820191
3095.152144,6513.812290,-13693.809927,2834.553343
3095.152472,4145.153275,-14878.139434,2681.334243
3095.152800,1406.391290,-12361.439231,-536.266849
3095.153127,-2368.659014,-8956.491898,-3140.991542
3095.153455,-5033.400406,-9400.615463,-4443.353888
3095.153782,-6069.688724,-7402.059420,-6205.373534
3095.154110,-4071.132681,-5699.585753,-6665.030833
3095.154437,-2812.782580,-7328.038826,-2987.772442
3095.154765,-2368.659014,-10066.800811,459.657299
3095.155093,1258.350101,-8290.306550,2221.676944
3095.155420,2368.659014,-8142.265362,3294.210641
3095.155748,3923.091493,-10658.965565,4749.792088
3095.156075,7105.977043,-9474.636058,3140.991542
3095.156403,7179.997637,-11325.150913,3753.867940
3095.156730,4959.379811,-13693.809927,4749.792088
3095.157058,1480.411884,-11177.109724,995.924147
3095.157386,-2220.617826,-11695.253884,-2681.334243
3095.157713,-3552.988522,-12213.398043,-4136.915689
3095.158041,-4811.338623,-7772.162391,-5286.058936
3095.158368,-3330.926739,-4663.297435,-6281.983084
3095.158696,-4071.132681,-6513.812290,-3447.429741
3095.159023,-2812.782580,-10510.924376,-229.828649
3095.159351,296.082377,-6587.832884,1072.533697
3095.159679,1850.514855,-5773.606348,2451.505594
3095.160006,1998.556043,-9400.615463,4290.134789
3095.160334,4811.338623,-10881.027347,2451.505594
3095.160661,5625.565159,-12287.418637,1685.410096
3095.160989,5255.462188,-15470.304188,3447.429741
3095.161317,5255.462188,-13397.727550,1455.581446
3095.161644,2368.659014,-10807.006753,-459.657299
3095.161972,-1406.391290,-12139.377449,-2451.505594
3095.162299,-4515.256246,-8660.409521,-4826.401637
3095.162627,-3849.070898,-4811.338623,-6818.249932
3095.162954,-4515.256246,-5921.647536,-4903.011187
3095.163282,-4589.276840,-7772.162391,-689.485948
3095.163610,-1406.391290,-7328.038826,1762.019645
3095.163937,2294.638420,-8586.388927,1455.581446
3095.164265,2664.741391,-10362.883188,3140.991542
3095.164592,5107.421000,-11843.295072,1915.238745
3095.164920,4663.297435,-11843.295072,1378.971896
3095.165247,3997.112087,-13249.686362,2757.943793
3095.165575,3404.947333,-12287.418637,1762.019645
3095.165903,888.247130,-11325.150913,-229.828649
3095.166230,-1924.535449,-13027.624579,-995.924147
3095.166558,-2368.659014,-9992.780217,-1302.362347
3095.166885,-3701.029710,-6291.750507,-4213.525239
3095.167213,-3627.009116,-6883.915261,-4290.134789
3095.167540,-4293.194464,-7698.141797,-2145.067394
3095.167868,-1628.453072,-5477.523971,-919.314598
3095.168196,-1332.370696,-5107.421000,1455.581446
3095.168523,666.185348,-9474.636058,3217.601092
3095.168851,3478.967927,-10362.883188,3830.477490
3095.169178,4219.173869,-10288.862594,2298.286494
3095.169506,3256.906145,-12435.459826,2911.162892
3095.169833,3404.947333,-13101.645173,2298.286494
3095.170161,3034.844362,-10510.924376,-1532.190996
3095.170489,-1554.432478,-10288.862594,-306.438199
3095.170816,-2960.823768,-9844.739029,-689.485948
3095.171144,-2738.761985,-6365.771101,-3907.087040
3095.171471,-3775.050304,-5995.668130,-3524.039291
3095.171799,-4145.153275,-7846.182985,-2374.896044
3095.172126,-1702.473667,-7328.038826,-1838.629195
3095.172454,148.041188,-7328.038826,-536.266849
3095.172782,370.102971,-9104.533087,842.705048
3095.173109,3108.864956,-10955.047942,1378.971896
3095.173437,6217.729913,-10732.986159,459.657299
3095.173764,4959.379811,-14285.974681,2911.162892
3095.174092,2886.803174,-14878.139434,3907.087040
3095.174420,2442.679609,-11029.068536,459.657299
3095.174747,-444.123565,-10584.944971,-536.266849
3095.175075,-2368.659014,-11621.233289,-2451.505594
3095.175402,-3108.864956,-8438.347739,-4136.915689
3095.175730,-2960.823768,-7624.121203,-3907.087040
3095.176057,-3108.864956,-8882.471304,-2451.505594
3095.176385,-1110.308913,-7402.059420,-2757.943793
3095.176713,814.226536,-5773.606348,-1532.190996
3095.177040,962.267725,-8068.244768,1915.238745
3095.177368,2960.823768,-10584.944971,2911.162892
3095.177695,5107.421000,-9326.594869,1378.971896
3095.178023,4367.215058,-11843.295072,2757.943793
3095.178350,4663.297435,-14211.954086,3753.867940
3095.178678,4071.132681,-10881.027347,1532.190996
3095.179006,296.082377,-9252.574275,919.314598
3095.179333,-2516.700203,-11251.130318,0.000000
3095.179661,-4219.173869,-8290.306550,-2298.286494
3095.179988,-4589.276840,-5255.462188,-3447.429741
3095.180316,-5033.400406,-7550.100608,-2221.676944
3095.180643,-2812.782580,-7846.182985,-1455.581446
3095.180971,444.123565,-6217.729913,-1225.752797
3095.181299,888.247130,-8512.368333,1072.533697
3095.181626,2442.679609,-10288.862594,2068.457845
3095.181954,5403.503377,-10881.027347,0.000000
3095.182281,4959.379811,-12879.583391,1762.019645
3095.182609,2886.803174,-14137.933492,2911.162892
3095.182936,2220.617826,-10881.027347,919.314598
3095.183264,962.267725,-9252.574275,76.609550
3095.183592,-2516.700203,-10362.883188,1225.752797
3095.183919,-2590.720797,-7920.203579,-383.047749
3095.184247,-3775.050304,-7254.018232,-2221.676944
3095.184574,-3849.070898,-9992.780217,-2068.457845
3095.184902,-740.205942,-9400.615463,-3600.648841
3095.185230,592.164754,-7031.956449,-2681.334243
3095.185557,518.144159,-7994.224174,153.219100
3095.185885,1406.391290,-10658.965565,2374.896044
3095.186212,4515.256246,-10807.006753,306.438199
3095.186540,4219.173869,-10584.944971,0.000000
3095.186867,592.164754,-12953.603985,1532.190996
3095.187195,-444.123565,-10510.924376,76.609550
3095.187523,-1332.370696,-9992.780217,-1378.971896
3095.187850,-2886.803174,-11621.233289,-689.485948
3095.188178,-1628.453072,-10807.006753,-1072.533697
3095.188505,-1184.329507,-7772.162391,-689.485948
3095.188833,-1110.308913,-8290.306550,842.705048
3095.189160,-666.185348,-8882.471304,-306.438199
3095.189488,-370.102971,-5403.503377,-1991.848295
3095.189816,0.000000,-5625.565159,-1302.362347
3095.190143,1628.453072,-8660.409521,-383.047749
3095.190471,3404.947333,-10436.903782,-536.266849
3095.190798,3330.926739,-12879.583391,766.095498
3095.191126,3034.844362,-15692.365970,1838.629195
3095.191453,1184.329507,-12879.583391,612.876398
3095.191781,-444.123565,-10362.883188,-1685.410096
3095.192109,-1850.514855,-11843.295072,-689.485948
3095.192436,-1850.514855,-8364.327145,-383.047749
3095.192764,-962.267725,-5699.585753,-689.485948
3095.193091,-1332.370696,-7550.100608,1608.800546
3095.193419,-740.205942,-8290.306550,2068.457845
3095.193746,1332.370696,-6143.709319,536.266849
3095.194074,592.164754,-7254.018232,229.828649
3095.194402,1480.411884,-9548.656652,-1225.752797
3095.194729,4219.173869,-10288.862594,-3064.381992
3095.195057,4071.132681,-12731.542202,-2528.115143
3095.195384,2442.679609,-14952.160028,76.609550
3095.195712,962.267725,-12213.398043,1762.019645
3095.196040,518.144159,-8586.388927,-229.828649
3095.196367,-2072.576638,-10807.006753,0.000000
3095.196695,-2516.700203,-9400.615463,306.438199
3095.197022,-1258.350101,-4737.318029,-1072.533697
3095.197350,-1776.494261,-7254.018232,995.924147
3095.197677,-518.144159,-9992.780217,2374.896044
3095.198005,296.082377,-7031.956449,306.438199
3095.198333,-592.164754,-5995.668130,383.047749
3095.198660,148.041188,-8660.409521,-229.828649
3095.198988,3701.029710,-10658.965565,-3217.601092
3095.199315,4737.318029,-12139.377449,-2681.334243
3095.199643,2294.638420,-13915.871710,383.047749
3095.199970,1554.432478,-12583.501014,1225.752797
3095.200298,1332.370696,-10288.862594,-383.047749
3095.200626,-1110.308913,-10140.821405,0.000000
3095.200953,-3627.009116,-9474.636058,76.609550
3095.201281,-3627.009116,-5921.647536,-153.219100
3095.201608,-4071.132681,-6957.935855,76.609550
3095.201936,-3627.009116,-10436.903782,1149.143247
3095.202263,-666.185348,-8142.265362,-1072.533697
3095.202591,0.000000,-6809.894666,0.000000
3095.202919,0.000000,-10140.821405,306.438199
3095.203246,4071.132681,-10955.047942,-1991.848295
3095.203574,5773.606348,-12065.356855,-2681.334243
3095.203901,4367.215058,-13101.645173,-766.095498
3095.204229,2368.659014,-12435.459826,995.924147
3095.204556,1184.329507,-9548.656652,-383.047749
3095.204884,-1480.411884,-7550.100608,229.828649
3095.205212,-4219.173869,-9474.636058,383.047749
3095.205539,-3552.988522,-7624.121203,-842.705048
3095.205867,-2812.782580,-6883.915261,-536.266849
3095.206194,-1628.453072,-9918.759623,919.314598
3095.206522,444.123565,-10066.800811,1149.143247
3095.206850,0.000000,-7402.059420,1608.800546
3095.207177,74.020594,-7402.059420,2145.067394
3095.207505,3923.091493,-10658.965565,-1225.752797
3095.207832,4885.359217,-10658.965565,-1838.629195
3095.208160,4145.153275,-12509.480420,-383.047749
3095.208487,2516.700203,-12953.603985,536.266849
3095.208815,1850.514855,-10288.862594,-1455.581446
3095.209143,370.102971,-9548.656652,-2528.115143
3095.209470,-3552.988522,-9918.759623,-459.657299
3095.209798,-3478.967927,-8068.244768,153.219100
3095.210125,-1406.391290,-6513.812290,-306.438199
3095.210453,-592.164754,-8586.388927,1762.019645
3095.210780,592.164754,-8586.388927,2834.553343
3095.211108,222.061783,-7402.059420,4290.134789
3095.211436,1110.308913,-9400.615463,3524.039291
3095.211763,4959.379811,-11251.130318,-1455.581446
3095.212091,6069.688724,-10955.047942,-3907.087040
3095.212418,3997.112087,-11843.295072,-2374.896044
3095.212746,1702.473667,-13101.645173,-383.047749
3095.213073,814.226536,-11251.130318,-1762.019645
3095.213401,-1184.329507,-9030.512492,-3294.210641
3095.213729,-5403.503377,-9030.512492,-1532.190996
3095.214056,-5477.523971,-7994.224174,-1378.971896
3095.214384,-2072.576638,-7179.997637,-536.266849
3095.214711,-888.247130,-9844.739029,1455.581446
3095.215039,962.267725,-10955.047942,3064.381992
3095.215366,2368.659014,-8512.368333,3677.258390
3095.215694,3330.926739,-9400.615463,4213.525239
3095.216022,4219.173869,-10807.006753,1838.629195
3095.216349,5107.421000,-11103.089130,-919.314598
3095.216677,2886.803174,-11325.150913,-2374.896044
3095.217004,666.185348,-11843.295072,-2604.724693
3095.217332,-444.123565,-10436.903782,-3753.867940
3095.217659,-1406.391290,-9326.594869,-3830.477490
3095.217987,-5181.441594,-10881.027347,-919.314598
3095.218315,-6365.771101,-9104.533087,-459.657299
3095.218642,-2960.823768,-4959.379811,-1762.019645
3095.218970,-3034.844362,-6661.853478,1762.019645
3095.219297,-814.226536,-9474.636058,4060.306139
3095.219625,296.082377,-8660.409521,5439.278036
3095.219953,2812.782580,-8438.347739,5056.230287
3095.220280,3923.091493,-9474.636058,1302.362347
3095.220608,5477.523971,-11695.253884,-1762.019645
3095.220935,4071.132681,-13767.830521,-2221.676944
3095.221263,2368.659014,-13397.727550,-2374.896044
3095.221590,74.020594,-11103.089130,-4060.306139
3095.221918,-518.144159,-9400.615463,-5209.449386
3095.222246,-3478.967927,-10732.986159,-2834.553343
3095.222573,-5329.482782,-7402.059420,153.219100
3095.222901,-4737.318029,-3627.009116,383.047749
3095.223228,-2368.659014,-6957.935855,919.314598
3095.223556,-1924.535449,-8512.368333,2068.457845
3095.223883,74.020594,-7179.997637,2298.286494
3095.224211,1924.535449,-7994.224174,3983.696590
3095.224539,5107.421000,-13471.748144,2987.772442
3095.224866,6735.874072,-14434.015869,0.000000
3095.225194,5107.421000,-13545.768739,-1378.971896
3095.225521,2664.741391,-11769.274478,-2528.115143
3095.225849,1998.556043,-10955.047942,-3830.477490
3095.226176,222.061783,-8586.388927,-4903.011187
3095.226504,-3256.906145,-8364.327145,-3524.039291
3095.226832,-6069.688724,-8068.244768,-1149.143247
3095.227159,-3849.070898,-5847.626942,-306.438199
3095.227487,-2220.617826,-7031.956449,1455.581446
3095.227814,-1850.514855,-9030.512492,2374.896044
3095.228142,-222.061783,-7550.100608,2145.067394
3095.228469,1184.329507,-7624.121203,3907.087040
3095.228797,4589.276840,-11695.253884,3294.210641
3095.229125,6439.791695,-13397.727550,842.705048
3095.229452,5403.503377,-13545.768739,459.657299
3095.229780,4219.173869,-13323.706956,-995.924147
3095.230107,2738.761985,-11473.192101,-3753.867940
3095.230435,1406.391290,-8882.471304,-4749.792088
3095.230763,-1850.514855,-9252.574275,-3294.210641
3095.231090,-6365.771101,-8882.471304,-919.314598
3095.231418,-5403.503377,-5847.626942,-1685.410096
3095.231745,-3775.050304,-5921.647536,-1838.629195
3095.232073,-2220.617826,-8956.491898,689.485948
3095.232400,-814.226536,-7994.224174,3294.210641
3095.232728,888.247130,-8586.388927,5515.887586
3095.233056,3775.050304,-10066.800811,4366.744339
3095.233383,6439.791695,-12879.583391,842.705048
3095.233711,5921.647536,-13397.727550,306.438199
3095.234038,3478.967927,-12657.521608,766.095498
3095.234366,1702.473667,-10732.986159,-2298.286494
3095.234693,-296.082377,-9548.656652,-5362.668486
3095.235021,-3108.864956,-9252.574275,-4903.011187
3095.235349,-5181.441594,-8216.285956,-3447.429741
3095.235676,-5033.400406,-6809.894666,-1991.848295
3095.236004,-3404.947333,-7476.080014,0.000000
3095.236331,-3330.926739,-9548.656652,2145.067394
3095.236659,-666.185348,-7550.100608,2068.457845
3095.236986,666.185348,-6957.935855,3294.210641
3095.237314,2590.720797,-11177.109724,5515.887586
3095.237642,5181.441594,-11547.212695,4979.620737
3095.237969,6957.935855,-12287.418637,2451.505594
3095.238297,5255.462188,-13767.830521,919.314598
3095.238624,2886.803174,-13027.624579,-2451.505594
3095.238952,0.000000,-9474.636058,-4749.792088
3095.239279,-3330.926739,-8512.368333,-5439.278036
3095.239607,-5329.482782,-8438.347739,-5669.106685
3095.239935,-6661.853478,-5921.647536,-4519.963438
3095.240262,-6587.832884,-5329.482782,-1762.019645
3095.240590,-5107.421000,-8734.430116,1302.362347
3095.240917,-1554.432478,-8512.368333,2528.115143
3095.241245,2294.638420,-7624.121203,2834.553343
3095.241573,5255.462188,-9548.656652,4903.011187
3095.241900,8364.327145,-11843.295072,4749.792088
3095.242228,8068.244768,-13397.727550,3600.648841
3095.242556,7105.977043,-15322.262999,2987.772442
3095.242883,4589.276840,-13619.789333,-383.047749
3095.243211,74.020594,-10436.903782,-5132.839837
3095.243538,-4071.132681,-9252.574275,-7737.564530
3095.243866,-6439.791695,-9844.739029,-7431.126331
3095.244194,-5921.647536,-7105.977043,-6665.030833
3095.244521,-4515.256246,-6809.894666,-3907.087040
3095.244849,-3997.112087,-9326.594869,2298.286494
3095.245177,-1480.411884,-8734.430116,4903.011187
3095.245504,1554.432478,-5625.565159,4749.792088
3095.245832,3849.070898,-7624.121203,4826.401637
3095.246160,6513.812290,-10881.027347,2681.334243
3095.246487,6957.935855,-12435.459826,2528.115143
3095.246815,7179.997637,-14285.974681,3064.381992
3095.247143,5551.544565,-14952.160028,383.047749
3095.247470,3923.091493,-13767.830521,-3753.867940
3095.247798,-1110.308913,-10807.006753,-5898.935335
3095.248125,-4441.235652,-10066.800811,-5515.887586
3095.248453,-4737.318029,-6439.791695,-5822.325785
3095.248781,-4663.297435,-5033.400406,-4673.182538
3095.249108,-7031.956449,-7772.162391,306.438199
3095.249436,-5107.421000,-7402.059420,3140.991542
3095.249764,-1406.391290,-4071.132681,3370.820191
3095.250091,1554.432478,-7105.977043,4826.401637
3095.250419,4589.276840,-9252.574275,4903.011187
3095.250747,7328.038826,-10584.944971,3370.820191
3095.251074,6661.853478,-13915.871710,3907.087040
3095.251402,6143.709319,-16432.571912,1991.848295
3095.251730,3404.947333,-12435.459826,-2298.286494
3095.252057,-962.267725,-9622.677246,-4673.182538
3095.252385,-5033.400406,-9696.697840,-4903.011187
3095.252712,-4441.235652,-9252.574275,-6052.154434
3095.253040,-4663.297435,-6587.832884,-4136.915689
3095.253368,-5625.565159,-6513.812290,-689.485948
3095.253695,-5995.668130,-7328.038826,3217.601092
3095.254023,-2294.638420,-5329.482782,2911.162892
3095.254351,444.123565,-7698.141797,2834.553343
3095.254678,2368.659014,-10214.842000,3447.429741
3095.255006,6069.688724,-10584.944971,1915.238745
3095.255334,7328.038826,-13619.789333,2374.896044
3095.255661,6069.688724,-16876.695478,2987.772442
3095.255989,5329.482782,-13767.830521,-766.095498
3095.256317,518.144159,-9622.677246,-3447.429741
3095.256644,-4737.318029,-8808.450710,-4979.620737
3095.256972,-4515.256246,-8882.471304,-6971.469032
3095.257299,-4219.173869,-5847.626942,-6128.763984
3095.257627,-5033.400406,-6365.771101,-1378.971896
3095.257955,-4959.379811,-8438.347739,2374.896044
3095.258282,-1258.350101,-6217.729913,1685.410096
3095.258610,1258.350101,-7328.038826,1915.238745
3095.258938,3034.844362,-11251.130318,3064.381992
3095.259265,5921.647536,-11991.336260,2298.286494
3095.259593,7254.018232,-12361.439231,2681.334243
3095.259921,6735.874072,-16506.592507,3983.696590
3095.260248,5625.565159,-14730.098246,1149.143247
3095.260576,1850.514855,-10436.903782,-1149.143247
3095.260903,-3330.926739,-7846.182985,-2681.334243
3095.261231,-5107.421000,-8808.450710,-6511.811733
3095.261559,-5329.482782,-7105.977043,-7584.345430
3095.261886,-5477.523971,-5551.544565,-4979.620737
3095.262214,-5403.503377,-7105.977043,306.438199
3095.262542,-3034.844362,-6365.771101,3907.087040
3095.262869,592.164754,-7105.977043,3907.087040
3095.263197,4219.173869,-9992.780217,3524.039291
3095.263525,6883.915261,-10140.821405,2681.334243
3095.263852,8438.347739,-11991.336260,3524.039291
3095.264180,8512.368333,-14582.057057,4290.134789
3095.264508,5625.565159,-13175.665768,2451.505594
3095.264835,1924.535449,-9548.656652,-306.438199
3095.265163,-2146.597232,-9474.636058,-2528.115143
3095.265490,-4737.318029,-10362.883188,-5745.716235
3095.265818,-5107.421000,-8438.347739,-7048.078582
3095.266146,-5477.523971,-7105.977043,-5669.106685
3095.266473,-5255.462188,-9178.553681,-2681.334243
3095.266801,-4219.173869,-7994.224174,0.000000
3095.267129,-1480.411884,-6735.874072,1915.238745
3095.267456,1036.288319,-6661.853478,2987.772442
3095.267784,4441.235652,-8808.450710,2834.553343
3095.268112,7624.121203,-11473.192101,2987.772442
