#time,accel_x,accel_y,accel_z
3287.501817,592.164754,-9548.656652,-459.657299
3287.502145,222.061783,-9696.697840,153.219100
3287.502473,0.000000,-9474.636058,0.000000
3287.502800,0.000000,-9548.656652,-536.266849
3287.503128,-148.041188,-9844.739029,-612.876398
3287.503455,0.000000,-10214.842000,-766.095498
3287.503783,0.000000,-10362.883188,-612.876398
3287.504110,0.000000,-10881.027347,-766.095498
3287.504438,518.144159,-10807.006753,-229.828649
3287.504765,444.123565,-10881.027347,-383.047749
3287.505093,444.123565,-10510.924376,0.000000
3287.505421,370.102971,-10140.821405,-383.047749
3287.505748,148.041188,-10066.800811,-383.047749
3287.506076,74.020594,-9474.636058,-612.876398
3287.506403,0.000000,-9474.636058,-1072.533697
3287.506731,0.000000,-9474.636058,0.000000
3287.507058,0.000000,-9474.636058,-153.219100
3287.507386,74.020594,-9548.656652,-383.047749
3287.507713,74.020594,-9622.677246,-306.438199
3287.508041,444.123565,-9770.718434,0.000000
3287.508369,666.185348,-9770.718434,0.000000
3287.508696,740.205942,-9474.636058,689.485948
3287.509024,1036.288319,-9400.615463,536.266849
3287.509351,740.205942,-9252.574275,383.047749
3287.509679,222.061783,-8956.491898,536.266849
3287.510006,148.041188,-9252.574275,153.219100
3287.510334,0.000000,-9030.512492,0.000000
3287.510661,0.000000,-9030.512492,-536.266849
3287.510989,148.041188,-8956.491898,76.609550
3287.511317,592.164754,-9696.697840,0.000000
3287.511644,814.226536,-9992.780217,-459.657299
3287.511972,814.226536,-9770.718434,-383.047749
3287.512299,666.185348,-9918.759623,0.000000
3287.512627,592.164754,-9918.759623,-383.047749
3287.512954,518.144159,-9400.615463,-612.876398
3287.513282,592.164754,-9474.636058,0.000000
3287.513610,0.000000,-9252.574275,-306.438199
3287.513937,74.020594,-9104.533087,-689.485948
3287.514265,0.000000,-9844.739029,-842.705048
3287.514592,148.041188,-10288.862594,-919.314598
3287.514920,148.041188,-10510.924376,-766.095498
3287.515247,0.000000,-10362.883188,-995.924147
3287.515575,1110.308913,-9844.739029,-766.095498
3287.515902,1258.350101,-9770.718434,0.000000
3287.516230,2294.638420,-9770.718434,76.609550
3287.516558,2960.823768,-9252.574275,-153.219100
3287.516885,3552.988522,-8882.471304,0.000000
3287.517213,4367.215058,-9178.553681,-459.657299
3287.517540,5403.503377,-9844.739029,0.000000
3287.517868,6217.729913,-9622.677246,-306.438199
3287.518195,7031.956449,-9622.677246,-459.657299
3287.518523,7105.977043,-9622.677246,0.000000
3287.518850,8216.285956,-10436.903782,0.000000
3287.519178,7994.224174,-11029.068536,459.657299
3287.519506,8290.306550,-10140.821405,689.485948
3287.519833,9474.636058,-8956.491898,383.047749
3287.520161,9918.759623,-8660.409521,306.438199
3287.520488,9696.697840,-8512.368333,612.876398
3287.520816,10140.821405,-7920.203579,766.095498
3287.521143,10584.944971,-8290.306550,383.047749
3287.521471,10140.821405,-9548.656652,383.047749
3287.521798,10955.047942,-9178.553681,-229.828649
3287.522126,10584.944971,-7994.224174,229.828649
3287.522454,11695.253884,-10658.965565,459.657299
3287.522781,12657.521608,-11399.171507,-229.828649
3287.523109,13471.748144,-10732.986159,0.000000
3287.523436,14508.036463,-9844.739029,229.828649
3287.523764,14656.077652,-9474.636058,919.314598
3287.524091,14656.077652,-9030.512492,919.314598
3287.524419,14137.933492,-8512.368333,1149.143247
3287.524746,13027.624579,-9326.594869,459.657299
3287.525074,13471.748144,-10066.800811,-229.828649
3287.525402,13397.727550,-10214.842000,-153.219100
3287.525729,12583.501014,-10066.800811,0.000000
3287.526057,11843.295072,-9770.718434,536.266849
3287.526384,12213.398043,-9622.677246,0.000000
3287.526712,12287.418637,-10066.800811,383.047749
3287.527039,11917.315666,-10362.883188,306.438199
3287.527367,11473.192101,-9622.677246,919.314598
3287.527694,10881.027347,-9548.656652,383.047749
3287.528022,8808.450710,-9622.677246,459.657299
3287.528350,7772.162391,-8586.388927,0.000000
3287.528677,8586.388927,-7698.141797,-919.314598
3287.529005,9474.636058,-8808.450710,-766.095498
3287.529332,10214.842000,-10807.006753,919.314598
3287.529660,9696.697840,-11251.130318,689.485948
3287.529987,7698.141797,-9992.780217,1378.971896
3287.530315,7328.038826,-7994.224174,-766.095498
3287.530642,7402.059420,-8290.306550,-1225.752797
3287.530970,7920.203579,-9770.718434,459.657299
3287.531298,9548.656652,-10510.924376,1455.581446
3287.531625,9474.636058,-9548.656652,1762.019645
3287.531953,9178.553681,-8734.430116,306.438199
3287.532280,7846.182985,-8956.491898,229.828649
3287.532608,5921.647536,-9844.739029,76.609550
3287.532935,5847.626942,-9696.697840,-1072.533697
3287.533263,7550.100608,-9326.594869,-2528.115143
3287.533591,10214.842000,-9844.739029,-1915.238745
3287.533918,10362.883188,-10214.842000,842.705048
3287.534246,8290.306550,-8660.409521,2911.162892
3287.534573,7476.080014,-7920.203579,2757.943793
3287.534901,9474.636058,-9770.718434,-612.876398
3287.535228,11103.089130,-11251.130318,-2834.553343
3287.535556,10881.027347,-9696.697840,-1838.629195
3287.535883,9918.759623,-8882.471304,0.000000
3287.536211,8734.430116,-9844.739029,1072.533697
3287.536539,9030.512492,-10658.965565,0.000000
3287.536866,7698.141797,-9400.615463,-229.828649
3287.537194,8142.265362,-8882.471304,-1302.362347
3287.537521,9770.718434,-9844.739029,-1685.410096
3287.537849,11177.109724,-10658.965565,-612.876398
3287.538176,10584.944971,-10510.924376,1149.143247
3287.538504,10510.924376,-9696.697840,2528.115143
3287.538831,10362.883188,-7179.997637,1149.143247
3287.539159,9400.615463,-8216.285956,0.000000
3287.539487,9178.553681,-10436.903782,76.609550
3287.539814,10362.883188,-9770.718434,-842.705048
3287.540142,9104.533087,-9400.615463,-153.219100
3287.540469,6291.750507,-10658.965565,1532.190996
3287.540797,6439.791695,-9622.677246,459.657299
3287.541124,7328.038826,-9474.636058,-919.314598
3287.541452,6735.874072,-11325.150913,-995.924147
3287.541779,6587.832884,-10807.006753,-766.095498
3287.542107,6735.874072,-9548.656652,-229.828649
3287.542435,4885.359217,-9474.636058,2374.896044
3287.542762,4737.318029,-7179.997637,2451.505594
3287.543090,3923.091493,-5921.647536,689.485948
3287.543417,1184.329507,-9178.553681,1991.848295
3287.543745,3034.844362,-10510.924376,229.828649
3287.544072,4959.379811,-8586.388927,-2604.724693
3287.544400,3108.864956,-9918.759623,-1149.143247
3287.544727,4441.235652,-10658.965565,536.266849
3287.545055,5403.503377,-11103.089130,0.000000
3287.545383,3701.029710,-12213.398043,1225.752797
3287.545710,5551.544565,-12139.377449,-383.047749
3287.546038,3552.988522,-10807.006753,-689.485948
3287.546365,-370.102971,-11251.130318,1225.752797
3287.546693,-2072.576638,-10510.924376,0.000000
3287.547020,-4145.153275,-8586.388927,-919.314598
3287.547348,-5625.565159,-7698.141797,-1302.362347
3287.547675,-4885.359217,-9178.553681,-1302.362347
3287.548003,-4959.379811,-10140.821405,0.000000
3287.548331,-4663.297435,-7550.100608,153.219100
3287.548658,-3256.906145,-7698.141797,-1302.362347
3287.548986,-2960.823768,-9104.533087,-1532.190996
3287.549313,-3034.844362,-10436.903782,-1302.362347
3287.549641,-2368.659014,-10362.883188,-153.219100
3287.549968,-444.123565,-8808.450710,-383.047749
3287.550296,-222.061783,-9992.780217,-689.485948
3287.550624,-444.123565,-11473.192101,995.924147
3287.550951,-296.082377,-11695.253884,1685.410096
3287.551279,296.082377,-10881.027347,842.705048
3287.551606,444.123565,-7698.141797,-1225.752797
3287.551934,-1480.411884,-8586.388927,-842.705048
3287.552261,-1332.370696,-7772.162391,1149.143247
3287.552589,444.123565,-5921.647536,536.266849
3287.552916,0.000000,-5329.482782,995.924147
3287.553244,-1110.308913,-7476.080014,1455.581446
3287.553572,222.061783,-9252.574275,689.485948
3287.553899,1628.453072,-9252.574275,-919.314598
3287.554227,1480.411884,-11769.274478,-1608.800546
3287.554554,666.185348,-13915.871710,-1915.238745
3287.554882,1702.473667,-11325.150913,-1378.971896
3287.555209,1850.514855,-10584.944971,-1838.629195
3287.555537,2886.803174,-11769.274478,-1225.752797
3287.555864,2072.576638,-11769.274478,76.609550
3287.556192,222.061783,-10436.903782,1302.362347
3287.556520,1184.329507,-7994.224174,-229.828649
3287.556847,1924.535449,-9918.759623,-842.705048
3287.557175,0.000000,-9474.636058,0.000000
3287.557502,1776.494261,-9178.553681,0.000000
3287.557830,2516.700203,-9030.512492,-383.047749
3287.558157,3478.967927,-8216.285956,-1455.581446
3287.558485,2590.720797,-11251.130318,0.000000
3287.558812,3552.988522,-12805.562797,153.219100
3287.559140,3478.967927,-12657.521608,-459.657299
3287.559468,4441.235652,-15026.180623,-919.314598
3287.559795,3256.906145,-10807.006753,-919.314598
3287.560123,148.041188,-9844.739029,153.219100
3287.560450,-444.123565,-9992.780217,383.047749
3287.560778,-1036.288319,-8734.430116,-306.438199
3287.561105,-1628.453072,-8216.285956,689.485948
3287.561433,370.102971,-5403.503377,-459.657299
3287.561760,-296.082377,-5551.544565,2604.724693
3287.562088,-222.061783,-7328.038826,3294.210641
3287.562416,814.226536,-7698.141797,1762.019645
3287.562743,1110.308913,-10214.842000,1149.143247
3287.563071,1184.329507,-8660.409521,-229.828649
3287.563398,1998.556043,-11547.212695,76.609550
3287.563726,296.082377,-12435.459826,1685.410096
3287.564053,0.000000,-11843.295072,1072.533697
3287.564381,592.164754,-12287.418637,-995.924147
3287.564708,-1184.329507,-9992.780217,-1762.019645
3287.565036,-3627.009116,-8142.265362,-383.047749
3287.565364,-4293.194464,-7105.977043,0.000000
3287.565692,-4145.153275,-6957.935855,-919.314598
3287.566019,-3330.926739,-7328.038826,-536.266849
3287.566347,-888.247130,-5773.606348,-842.705048
3287.566675,-1184.329507,-7254.018232,689.485948
3287.567003,-1480.411884,-10288.862594,1762.019645
3287.567330,-592.164754,-11621.233289,-1608.800546
3287.567658,0.000000,-13101.645173,-3370.820191
3287.567986,1776.494261,-10732.986159,-4519.963438
3287.568313,1850.514855,-12731.542202,-1455.581446
3287.568641,-592.164754,-14211.954086,1225.752797
3287.568969,-296.082377,-12435.459826,0.000000
3287.569297,-1332.370696,-10658.965565,-2068.457845
3287.569624,-1480.411884,-9770.718434,-2834.553343
3287.569952,-2368.659014,-8586.388927,-1149.143247
3287.570280,-2516.700203,-7105.977043,-306.438199
3287.570607,-1554.432478,-7179.997637,306.438199
3287.570935,740.205942,-8068.244768,0.000000
3287.571263,2960.823768,-7476.080014,0.000000
3287.571591,2442.679609,-9252.574275,2451.505594
3287.571918,3849.070898,-9918.759623,2451.505594
3287.572246,4367.215058,-10732.986159,459.657299
3287.572574,2886.803174,-12953.603985,-306.438199
3287.572902,2738.761985,-11103.089130,-689.485948
3287.573229,888.247130,-8882.471304,612.876398
3287.573557,-740.205942,-9622.677246,612.876398
3287.573885,-1406.391290,-8882.471304,919.314598
3287.574212,-1924.535449,-8734.430116,-1225.752797
3287.574540,-1628.453072,-6809.894666,-2221.676944
3287.574868,370.102971,-8142.265362,-1072.533697
3287.575196,1406.391290,-8068.244768,1991.848295
3287.575523,2516.700203,-7179.997637,3524.039291
3287.575851,3108.864956,-8438.347739,3217.601092
3287.576179,4737.318029,-8068.244768,995.924147
3287.576506,4663.297435,-10584.944971,612.876398
3287.576834,2664.741391,-12361.439231,459.657299
3287.577162,1628.453072,-12953.603985,-229.828649
3287.577490,1332.370696,-12731.542202,-1991.848295
3287.577817,1406.391290,-11473.192101,-3907.087040
3287.578145,-962.267725,-11177.109724,-2298.286494
3287.578473,-1332.370696,-11473.192101,-995.924147
3287.578800,0.000000,-8808.450710,-995.924147
3287.579128,-296.082377,-8660.409521,-306.438199
3287.579456,1184.329507,-8364.327145,0.000000
3287.579784,1480.411884,-9178.553681,1378.971896
3287.580111,740.205942,-9252.574275,1915.238745
3287.580439,814.226536,-8364.327145,306.438199
3287.580767,0.000000,-10732.986159,-1378.971896
3287.581095,-444.123565,-10807.006753,-1838.629195
3287.581422,-1480.411884,-11177.109724,-1838.629195
3287.581750,-2072.576638,-11029.068536,-2451.505594
3287.582078,-2072.576638,-10658.965565,-2298.286494
3287.582405,-1184.329507,-11473.192101,-1072.533697
3287.582733,-740.205942,-9030.512492,-689.485948
3287.583061,-740.205942,-9326.594869,383.047749
3287.583389,-1184.329507,-7920.203579,1072.533697
3287.583716,-1036.288319,-7179.997637,1225.752797
3287.584044,-1258.350101,-6809.894666,2145.067394
3287.584372,0.000000,-5477.523971,1302.362347
3287.584699,-1184.329507,-7402.059420,2145.067394
3287.585027,-814.226536,-9696.697840,1149.143247
3287.585355,-962.267725,-9474.636058,-306.438199
3287.585683,-1628.453072,-11251.130318,-919.314598
3287.586010,-1332.370696,-9104.533087,-1838.629195
3287.586338,-1036.288319,-10807.006753,-1378.971896
3287.586666,-740.205942,-11843.295072,153.219100
3287.586994,666.185348,-11399.171507,229.828649
3287.587321,592.164754,-9844.739029,153.219100
3287.587649,-1480.411884,-8586.388927,153.219100
3287.587977,-3034.844362,-8882.471304,-229.828649
3287.588304,-2294.638420,-7772.162391,-1225.752797
3287.588632,-518.144159,-7846.182985,-1685.410096
3287.588960,-222.061783,-10881.027347,76.609550
3287.589288,1554.432478,-11325.150913,1455.581446
3287.589615,2886.803174,-10362.883188,-229.828649
3287.589943,2738.761985,-11177.109724,-1149.143247
3287.590271,1628.453072,-12139.377449,-1532.190996
3287.590598,592.164754,-11843.295072,-1302.362347
3287.590926,444.123565,-9696.697840,-1149.143247
3287.591254,1036.288319,-9474.636058,0.000000
3287.591582,814.226536,-9770.718434,229.828649
3287.591909,1406.391290,-8586.388927,1225.752797
3287.592237,2294.638420,-9548.656652,1149.143247
3287.592565,2294.638420,-8586.388927,306.438199
3287.592892,1776.494261,-9696.697840,689.485948
3287.593220,2220.617826,-10066.800811,995.924147
3287.593548,2886.803174,-8660.409521,-536.266849
3287.593876,2368.659014,-7698.141797,459.657299
3287.594203,1776.494261,-7031.956449,1762.019645
3287.594531,0.000000,-9326.594869,2757.943793
3287.594859,-1776.494261,-10807.006753,995.924147
3287.595187,-444.123565,-10214.842000,-2604.724693
3287.595514,-740.205942,-9252.574275,-2451.505594
3287.595842,296.082377,-9400.615463,-1991.848295
3287.596170,518.144159,-9400.615463,0.000000
3287.596497,1480.411884,-9474.636058,689.485948
3287.596825,3182.885551,-8882.471304,536.266849
3287.597153,2442.679609,-9844.739029,1149.143247
3287.597481,1924.535449,-8660.409521,842.705048
3287.597808,814.226536,-9030.512492,1225.752797
3287.598136,444.123565,-9770.718434,842.705048
3287.598464,666.185348,-10288.862594,-842.705048
3287.598791,-444.123565,-11917.315666,-995.924147
3287.599119,-296.082377,-8364.327145,-1455.581446
3287.599447,-444.123565,-8438.347739,-1915.238745
3287.599775,-666.185348,-12879.583391,-612.876398
3287.600102,-666.185348,-11991.336260,-689.485948
3287.600430,0.000000,-9770.718434,-1915.238745
3287.600758,0.000000,-10214.842000,-1302.362347
3287.601086,-592.164754,-11177.109724,76.609550
3287.601413,-666.185348,-9622.677246,0.000000
3287.601741,-1406.391290,-8216.285956,-689.485948
3287.602069,-2294.638420,-10658.965565,-842.705048
3287.602396,-1110.308913,-8438.347739,-1532.190996
3287.602724,-1480.411884,-8290.306550,-306.438199
3287.603052,-1998.556043,-10214.842000,1302.362347
3287.603380,-666.185348,-9252.574275,-536.266849
3287.603707,-592.164754,-9844.739029,-1149.143247
3287.604035,-666.185348,-9400.615463,-842.705048
3287.604363,222.061783,-10066.800811,229.828649
3287.604690,444.123565,-9474.636058,766.095498
3287.605018,-222.061783,-8586.388927,2145.067394
3287.605346,0.000000,-10658.965565,919.314598
3287.605674,296.082377,-7846.182985,-995.924147
3287.606001,-1480.411884,-7105.977043,0.000000
3287.606329,-2146.597232,-9474.636058,919.314598
3287.606657,-1480.411884,-9770.718434,0.000000
3287.606985,-518.144159,-9178.553681,-919.314598
3287.607312,2294.638420,-8512.368333,-1302.362347
3287.607640,1406.391290,-10288.862594,1149.143247
3287.607968,0.000000,-10955.047942,2221.676944
3287.608295,-962.267725,-10288.862594,229.828649
3287.608623,-296.082377,-11103.089130,-2757.943793
3287.608951,1850.514855,-9030.512492,-4213.525239
3287.609279,2294.638420,-9252.574275,-919.314598
3287.609606,1406.391290,-11547.212695,3140.991542
3287.609934,3330.926739,-10658.965565,2221.676944
3287.610262,3478.967927,-9474.636058,-995.924147
3287.610589,2072.576638,-8660.409521,-2451.505594
3287.610917,74.020594,-9770.718434,-1991.848295
3287.611245,-592.164754,-9696.697840,-459.657299
3287.611573,-148.041188,-7624.121203,-919.314598
3287.611900,1110.308913,-10066.800811,153.219100
3287.612228,2960.823768,-10732.986159,-229.828649
3287.612556,3627.009116,-10362.883188,459.657299
3287.612883,3256.906145,-11251.130318,1608.800546
3287.613211,2664.741391,-10955.047942,-229.828649
3287.613539,2368.659014,-10881.027347,-1532.190996
3287.613867,1924.535449,-9178.553681,-1149.143247
3287.614194,2368.659014,-8808.450710,689.485948
3287.614522,1776.494261,-6735.874072,2221.676944
3287.614850,222.061783,-6957.935855,2451.505594
3287.615178,-3108.864956,-9992.780217,1455.581446
3287.615505,-2812.782580,-9104.533087,-1685.410096
3287.615833,-1258.350101,-9474.636058,-3370.820191
3287.616161,-1036.288319,-11103.089130,-1915.238745
3287.616488,74.020594,-9844.739029,-612.876398
3287.616816,1628.453072,-9622.677246,1149.143247
3287.617144,2442.679609,-7179.997637,1762.019645
3287.617472,2220.617826,-8512.368333,1378.971896
3287.617799,444.123565,-10066.800811,1149.143247
3287.618127,-962.267725,-10362.883188,689.485948
3287.618455,-1036.288319,-10807.006753,0.000000
3287.618782,-888.247130,-7994.224174,-2604.724693
3287.619110,-2368.659014,-10214.842000,-689.485948
3287.619438,-2442.679609,-11547.212695,689.485948
3287.619766,74.020594,-9474.636058,-1378.971896
3287.620093,740.205942,-11399.171507,-1225.752797
3287.620421,370.102971,-10288.862594,-536.266849
3287.620749,0.000000,-9030.512492,153.219100
3287.621077,148.041188,-8808.450710,1072.533697
3287.621404,74.020594,-10732.986159,-153.219100
3287.621732,-1184.329507,-12583.501014,153.219100
3287.622060,222.061783,-9918.759623,-2221.676944
3287.622387,-666.185348,-8734.430116,-2987.772442
3287.622715,-2294.638420,-11843.295072,-1685.410096
3287.623043,-1776.494261,-11251.130318,-995.924147
3287.623371,-814.226536,-10732.986159,-766.095498
3287.623698,0.000000,-8142.265362,-766.095498
3287.624026,0.000000,-7476.080014,-2298.286494
3287.624354,-1480.411884,-8956.491898,1072.533697
3287.624681,0.000000,-8438.347739,1685.410096
3287.625009,1110.308913,-9178.553681,1302.362347
3287.625337,2072.576638,-8882.471304,229.828649
3287.625665,370.102971,-9622.677246,1455.581446
3287.625992,518.144159,-10436.903782,1149.143247
3287.626320,962.267725,-8512.368333,-689.485948
3287.626648,814.226536,-10732.986159,-1762.019645
3287.626975,814.226536,-9400.615463,-995.924147
3287.627303,-296.082377,-8734.430116,536.266849
3287.627631,592.164754,-8586.388927,766.095498
3287.627959,1480.411884,-8438.347739,1455.581446
3287.628286,592.164754,-11103.089130,1991.848295
3287.628614,222.061783,-9400.615463,-306.438199
3287.628942,370.102971,-8586.388927,-1378.971896
3287.629270,666.185348,-9252.574275,-2374.896044
3287.629597,1184.329507,-10436.903782,-1149.143247
3287.629925,740.205942,-12139.377449,1225.752797
3287.630253,2590.720797,-9918.759623,689.485948
3287.630580,3182.885551,-9622.677246,-1225.752797
3287.630908,1628.453072,-12435.459826,-689.485948
3287.631236,518.144159,-11991.336260,-306.438199
3287.631564,592.164754,-10140.821405,-612.876398
3287.631891,592.164754,-7402.059420,-1915.238745
3287.632219,-296.082377,-8438.347739,-612.876398
3287.632547,0.000000,-10658.965565,919.314598
3287.632874,2294.638420,-9104.533087,919.314598
3287.633202,2368.659014,-10510.924376,-153.219100
3287.633530,1850.514855,-9030.512492,-459.657299
3287.633858,1184.329507,-9992.780217,-612.876398
3287.634185,888.247130,-11695.253884,0.000000
3287.634513,1036.288319,-8882.471304,76.609550
3287.634841,1776.494261,-8882.471304,919.314598
3287.635169,1554.432478,-8512.368333,153.219100
3287.635496,-222.061783,-9474.636058,1455.581446
3287.635824,-1998.556043,-10288.862594,536.266849
3287.636152,-1036.288319,-9474.636058,-612.876398
3287.636479,-1628.453072,-9696.697840,-383.047749
3287.636807,-1332.370696,-9178.553681,-766.095498
3287.637135,-1702.473667,-8956.491898,-919.314598
3287.637463,-1332.370696,-8068.244768,0.000000
3287.637790,-740.205942,-7402.059420,612.876398
3287.638118,-1702.473667,-9992.780217,842.705048
3287.638446,-518.144159,-9474.636058,919.314598
3287.638773,370.102971,-8586.388927,766.095498
3287.639101,888.247130,-10214.842000,229.828649
3287.639429,370.102971,-13101.645173,-536.266849
3287.639757,-222.061783,-12953.603985,-689.485948
3287.640084,0.000000,-8512.368333,-1608.800546
3287.640412,962.267725,-8956.491898,-1532.190996
3287.640740,-888.247130,-11177.109724,-153.219100
3287.641068,-1850.514855,-9178.553681,612.876398
3287.641395,-1554.432478,-8142.265362,0.000000
3287.641723,-592.164754,-7698.141797,-1149.143247
3287.642051,666.185348,-9474.636058,-459.657299
3287.642378,1258.350101,-11325.150913,766.095498
3287.642706,1036.288319,-12065.356855,842.705048
3287.643034,1924.535449,-12731.542202,-536.266849
3287.643362,2146.597232,-9104.533087,-2987.772442
3287.643689,222.061783,-10066.800811,-1915.238745
3287.644017,-2368.659014,-11621.233289,153.219100
3287.644345,-1998.556043,-8808.450710,-153.219100
3287.644672,-1554.432478,-8216.285956,-919.314598
3287.645000,-888.247130,-8734.430116,-1072.533697
3287.645328,-444.123565,-8734.430116,-229.828649
3287.645656,0.000000,-8660.409521,1685.410096
3287.645983,1850.514855,-9474.636058,919.314598
3287.646311,2220.617826,-11399.171507,229.828649
3287.646639,2886.803174,-8734.430116,-1532.190996
3287.646966,1480.411884,-7105.977043,383.047749
3287.647294,1110.308913,-9696.697840,2604.724693
3287.647622,814.226536,-9548.656652,2298.286494
3287.647950,0.000000,-11325.150913,689.485948
3287.648277,0.000000,-9400.615463,-1072.533697
3287.648605,-1628.453072,-7328.038826,-2068.457845
3287.648933,-1850.514855,-10214.842000,-1455.581446
3287.649261,-1036.288319,-10584.944971,-1302.362347
3287.649588,444.123565,-10066.800811,-689.485948
3287.649916,2146.597232,-7476.080014,-1072.533697
3287.650244,1924.535449,-9030.512492,1455.581446
3287.650571,1702.473667,-11547.212695,2911.162892
3287.650899,2072.576638,-9178.553681,842.705048
3287.651227,444.123565,-9770.718434,0.000000
3287.651555,-222.061783,-8882.471304,-1072.533697
3287.651882,-444.123565,-8586.388927,-1838.629195
3287.652210,-666.185348,-10807.006753,-383.047749
3287.652538,518.144159,-10066.800811,-306.438199
3287.652865,1110.308913,-11547.212695,-995.924147
3287.653193,2590.720797,-11621.233289,-1608.800546
3287.653521,2146.597232,-10140.821405,-612.876398
3287.653849,444.123565,-10955.047942,1378.971896
3287.654176,0.000000,-9326.594869,689.485948
3287.654504,0.000000,-9770.718434,0.000000
3287.654832,1036.288319,-9030.512492,-995.924147
3287.655160,666.185348,-7550.100608,-153.219100
3287.655487,-592.164754,-9474.636058,1838.629195
3287.655815,-1406.391290,-10658.965565,766.095498
3287.656143,-1776.494261,-11251.130318,-1378.971896
3287.656470,148.041188,-10214.842000,-3140.991542
3287.656798,444.123565,-8808.450710,-1532.190996
3287.657126,222.061783,-10881.027347,1149.143247
3287.657454,74.020594,-9548.656652,2374.896044
3287.657781,0.000000,-8734.430116,2221.676944
3287.658109,592.164754,-7105.977043,1378.971896
3287.658437,-1258.350101,-7772.162391,995.924147
3287.658764,-3034.844362,-8586.388927,1225.752797
3287.659092,-1924.535449,-8290.306550,-1302.362347
3287.659420,-1480.411884,-9548.656652,-2451.505594
3287.659748,-740.205942,-9548.656652,-2221.676944
3287.660075,296.082377,-9104.533087,-612.876398
3287.660403,1998.556043,-10584.944971,689.485948
3287.660731,2368.659014,-10658.965565,459.657299
3287.661058,740.205942,-12583.501014,612.876398
3287.661386,1036.288319,-10436.903782,-612.876398
3287.661714,888.247130,-8586.388927,-1302.362347
3287.662042,0.000000,-10066.800811,-459.657299
3287.662369,-74.020594,-9770.718434,0.000000
3287.662697,222.061783,-10066.800811,-536.266849
3287.663025,1184.329507,-8438.347739,-842.705048
3287.663352,1406.391290,-9030.512492,-1302.362347
3287.663680,666.185348,-10140.821405,-459.657299
3287.664008,666.185348,-9844.739029,-459.657299
3287.664335,962.267725,-12065.356855,-536.266849
3287.664663,2368.659014,-11399.171507,-1072.533697
3287.664991,962.267725,-9622.677246,-1072.533697
3287.665318,-296.082377,-11251.130318,0.000000
3287.665646,-444.123565,-11917.315666,-459.657299
3287.665974,-518.144159,-10436.903782,-995.924147
3287.666301,0.000000,-8660.409521,-1838.629195
3287.666629,-666.185348,-7624.121203,-995.924147
3287.666956,-1110.308913,-9252.574275,0.000000
3287.667284,0.000000,-7698.141797,229.828649
3287.667612,1110.308913,-9030.512492,306.438199
3287.667939,1776.494261,-9030.512492,1378.971896
3287.668267,1702.473667,-7994.224174,1685.410096
3287.668595,1702.473667,-9622.677246,2604.724693
3287.668922,740.205942,-9844.739029,2374.896044
3287.669250,370.102971,-10732.986159,383.047749
3287.669578,-740.205942,-9844.739029,-1378.971896
3287.669905,-1480.411884,-8216.285956,-1072.533697
3287.670233,-1184.329507,-8956.491898,-1302.362347
3287.670560,-296.082377,-9178.553681,-612.876398
3287.670888,444.123565,-11029.068536,1455.581446
3287.671216,1036.288319,-9622.677246,1225.752797
3287.671543,1332.370696,-7994.224174,229.828649
3287.671871,-592.164754,-9030.512492,229.828649
3287.672199,-814.226536,-9474.636058,-306.438199
3287.672526,-296.082377,-9474.636058,-383.047749
3287.672854,962.267725,-7846.182985,-1225.752797
3287.673182,1628.453072,-9178.553681,0.000000
3287.673509,888.247130,-11325.150913,1838.629195
3287.673837,1258.350101,-10510.924376,842.705048
3287.674164,962.267725,-10881.027347,0.000000
3287.674492,148.041188,-10510.924376,-2068.457845
3287.674820,-444.123565,-9770.718434,-1915.238745
3287.675147,-666.185348,-11325.150913,-1302.362347
3287.675475,814.226536,-10362.883188,-689.485948
3287.675803,2368.659014,-10288.862594,0.000000
3287.676130,2294.638420,-8882.471304,842.705048
3287.676458,1110.308913,-8734.430116,1532.190996
3287.676786,-1406.391290,-9770.718434,229.828649
3287.677113,-814.226536,-9252.574275,-2298.286494
3287.677441,-1110.308913,-10732.986159,-1991.848295
3287.677768,518.144159,-9400.615463,-1608.800546
3287.678096,1184.329507,-7402.059420,0.000000
3287.678424,814.226536,-10955.047942,2528.115143
3287.678751,666.185348,-10807.006753,1838.629195
3287.679079,0.000000,-11177.109724,-459.657299
3287.679407,-962.267725,-9104.533087,-2451.505594
3287.679734,-888.247130,-6957.935855,-2451.505594
3287.680062,-1332.370696,-9844.739029,153.219100
3287.680389,-370.102971,-9326.594869,1225.752797
3287.680717,814.226536,-10066.800811,1762.019645
3287.681045,1702.473667,-8660.409521,842.705048
3287.681372,1480.411884,-8438.347739,229.828649
3287.681700,296.082377,-10510.924376,1532.190996
3287.682028,-148.041188,-8882.471304,-536.266849
3287.682355,-1110.308913,-10362.883188,-1991.848295
3287.682683,-222.061783,-9918.759623,-2221.676944
3287.683011,592.164754,-8068.244768,-1378.971896
3287.683338,1406.391290,-9918.759623,306.438199
3287.683666,962.267725,-10214.842000,2374.896044
3287.683993,666.185348,-11029.068536,1302.362347
3287.684321,2072.576638,-9992.780217,-1915.238745
3287.684649,2072.576638,-10066.800811,-1915.238745
3287.684976,666.185348,-10658.965565,229.828649
3287.685304,518.144159,-9252.574275,766.095498
3287.685632,-592.164754,-10066.800811,459.657299
3287.685959,-370.102971,-10288.862594,-1302.362347
3287.686287,222.061783,-9178.553681,-2451.505594
3287.686615,222.061783,-10214.842000,-536.266849
3287.686942,-148.041188,-10658.965565,229.828649
3287.687270,-814.226536,-10955.047942,-306.438199
3287.687597,-370.102971,-8364.327145,-1532.190996
3287.687925,444.123565,-8216.285956,-1072.533697
3287.688253,222.061783,-10066.800811,689.485948
3287.688580,814.226536,-9400.615463,1149.143247
3287.688908,814.226536,-9992.780217,1378.971896
3287.689236,2072.576638,-9622.677246,0.000000
3287.689563,1480.411884,-8586.388927,-842.705048
3287.689891,-1406.391290,-9992.780217,919.314598
3287.690219,-2738.761985,-9622.677246,612.876398
3287.690546,-1998.556043,-9548.656652,-1991.848295
3287.690874,-518.144159,-8438.347739,-2451.505594
3287.691201,1110.308913,-8364.327145,-1149.143247
3287.691529,814.226536,-10658.965565,2528.115143
3287.691857,740.205942,-11251.130318,3907.087040
3287.692184,1850.514855,-10140.821405,1532.190996
3287.692512,2294.638420,-8660.409521,-3064.381992
3287.692840,-296.082377,-8142.265362,-1915.238745
3287.693167,-1480.411884,-9622.677246,383.047749
3287.693495,0.000000,-10214.842000,536.266849
3287.693823,962.267725,-10140.821405,0.000000
3287.694150,962.267725,-8364.327145,-1225.752797
3287.694478,888.247130,-9770.718434,76.609550
3287.694805,1110.308913,-11843.295072,919.314598
3287.695133,1554.432478,-10881.027347,229.828649
3287.695461,296.082377,-10362.883188,-1532.190996
3287.695788,1036.288319,-9622.677246,-2068.457845
3287.696116,1184.329507,-8734.430116,-766.095498
3287.696444,518.144159,-9400.615463,2604.724693
3287.696771,1184.329507,-8364.327145,2298.286494
3287.697099,1110.308913,-10214.842000,0.000000
3287.697427,0.000000,-11325.150913,-2604.724693
3287.697754,-1628.453072,-10658.965565,-2068.457845
3287.698082,-222.061783,-11029.068536,-383.047749
3287.698409,1258.350101,-8882.471304,-612.876398
3287.698737,666.185348,-10066.800811,0.000000
3287.699065,0.000000,-9844.739029,689.485948
3287.699392,814.226536,-8586.388927,536.266849
3287.699720,518.144159,-9400.615463,766.095498
3287.700048,-814.226536,-8068.244768,-459.657299
3287.700375,-3108.864956,-8290.306550,-306.438199
3287.700703,-1850.514855,-8586.388927,0.000000
3287.701031,222.061783,-7920.203579,-995.924147
3287.701358,1258.350101,-10881.027347,0.000000
3287.701686,1258.350101,-11399.171507,1302.362347
3287.702013,1998.556043,-12287.418637,1608.800546
3287.702341,2294.638420,-10436.903782,459.657299
3287.702669,1406.391290,-9326.594869,-153.219100
3287.702996,-1480.411884,-10066.800811,0.000000
3287.703324,-1110.308913,-9252.574275,-766.095498
3287.703652,-518.144159,-8364.327145,-1225.752797
3287.703979,148.041188,-7772.162391,-536.266849
3287.704307,-296.082377,-7402.059420,995.924147
3287.704635,0.000000,-10436.903782,1072.533697
3287.704962,1554.432478,-11695.253884,-1072.533697
3287.705290,2294.638420,-12139.377449,-1532.190996
3287.705617,2072.576638,-9548.656652,-1532.190996
3287.705945,1554.432478,-8586.388927,-1302.362347
3287.706273,-518.144159,-11251.130318,689.485948
3287.706600,-962.267725,-10140.821405,612.876398
3287.706928,-592.164754,-9992.780217,-612.876398
3287.707256,0.000000,-10658.965565,-1455.581446
3287.707583,-370.102971,-9474.636058,-1532.190996
3287.707911,-1258.350101,-9770.718434,-536.266849
3287.708239,-444.123565,-8808.450710,-1149.143247
3287.708566,518.144159,-11843.295072,-689.485948
3287.708894,888.247130,-9474.636058,-153.219100
3287.709221,2516.700203,-7920.203579,-229.828649
3287.709549,1554.432478,-9844.739029,2145.067394
3287.709877,2072.576638,-11325.150913,1685.410096
3287.710204,370.102971,-10807.006753,919.314598
3287.710532,-1258.350101,-7994.224174,229.828649
3287.710860,-1850.514855,-7624.121203,-1762.019645
3287.711187,-2812.782580,-11029.068536,-612.876398
3287.711515,-1332.370696,-8956.491898,-1149.143247
3287.711842,148.041188,-8882.471304,-1225.752797
3287.712170,1924.535449,-10362.883188,-689.485948
3287.712498,1998.556043,-10881.027347,995.924147
3287.712825,1554.432478,-10214.842000,2451.505594
3287.713153,1554.432478,-8882.471304,1455.581446
3287.713481,-296.082377,-9474.636058,536.266849
3287.713808,-888.247130,-7920.203579,-842.705048
3287.714136,74.020594,-6957.935855,-1149.143247
3287.714464,-222.061783,-8956.491898,689.485948
3287.714791,814.226536,-9622.677246,1838.629195
3287.715119,1480.411884,-10732.986159,1685.410096
3287.715446,2590.720797,-10658.965565,-919.314598
3287.715774,888.247130,-10807.006753,-2145.067394
3287.716102,296.082377,-10955.047942,-1685.410096
3287.716429,-444.123565,-9326.594869,-689.485948
3287.716757,-666.185348,-10658.965565,229.828649
3287.717085,1554.432478,-9104.533087,-76.609550
3287.717412,2146.597232,-8438.347739,536.266849
3287.717740,666.185348,-9474.636058,2068.457845
3287.718068,-148.041188,-8808.450710,76.609550
3287.718395,-1998.556043,-10658.965565,-689.485948
3287.718723,-592.164754,-10140.821405,-2757.943793
3287.719050,444.123565,-9178.553681,-3294.210641
3287.719378,1036.288319,-11325.150913,-153.219100
3287.719706,814.226536,-10881.027347,2068.457845
3287.720033,962.267725,-11177.109724,1455.581446
3287.720361,592.164754,-11103.089130,-229.828649
3287.720689,0.000000,-9252.574275,-1685.410096
3287.721016,-1258.350101,-8660.409521,-1455.581446
3287.721344,-1628.453072,-8290.306550,-536.266849
3287.721672,-1184.329507,-8882.471304,612.876398
3287.721999,592.164754,-8068.244768,459.657299
3287.722327,814.226536,-8438.347739,842.705048
3287.722654,962.267725,-10584.944971,1685.410096
3287.722982,814.226536,-10066.800811,536.266849
3287.723310,0.000000,-10955.047942,-842.705048
3287.723637,-444.123565,-10140.821405,-1762.019645
3287.723965,148.041188,-8586.388927,-2451.505594
3287.724293,-148.041188,-9104.533087,-689.485948
3287.724620,370.102971,-9104.533087,1072.533697
3287.724948,740.205942,-9918.759623,1225.752797
3287.725276,2146.597232,-9770.718434,-459.657299
3287.725603,1702.473667,-9252.574275,-1378.971896
3287.725931,1036.288319,-11029.068536,0.000000
3287.726258,222.061783,-9770.718434,383.047749
3287.726586,0.000000,-9326.594869,0.000000
3287.726914,0.000000,-9030.512492,-1225.752797
3287.727241,296.082377,-9696.697840,-1915.238745
3287.727569,-296.082377,-11029.068536,-383.047749
3287.727897,222.061783,-10807.006753,-229.828649
3287.728224,0.000000,-10510.924376,-306.438199
3287.728552,814.226536,-9030.512492,-1302.362347
3287.728880,74.020594,-8956.491898,-1149.143247
3287.729207,-222.061783,-11547.212695,536.266849
3287.729535,518.144159,-9178.553681,76.609550
3287.729862,592.164754,-9400.615463,0.000000
3287.730190,888.247130,-10362.883188,0.000000
3287.730518,1332.370696,-9844.739029,-229.828649
3287.730845,518.144159,-9918.759623,1072.533697
3287.731173,-1184.329507,-8808.450710,919.314598
3287.731501,-2072.576638,-10807.006753,-459.657299
3287.731828,-1036.288319,-9178.553681,-1991.848295
3287.732156,222.061783,-7624.121203,-1991.848295
3287.732484,518.144159,-9474.636058,229.828649
3287.732811,148.041188,-10214.842000,2528.115143
3287.733139,666.185348,-10732.986159,2834.553343
3287.733466,2220.617826,-8956.491898,0.000000
3287.733794,1406.391290,-8364.327145,-1915.238745
3287.734122,-1036.288319,-10510.924376,459.657299
3287.734449,-1998.556043,-8956.491898,536.266849
3287.734777,-518.144159,-9030.512492,-459.657299
3287.735105,1036.288319,-8882.471304,-1915.238745
3287.735432,1776.494261,-8660.409521,0.000000
3287.735760,1184.329507,-11473.192101,3753.867940
3287.736088,1628.453072,-9992.780217,2298.286494
3287.736415,1554.432478,-10362.883188,-229.828649
3287.736743,370.102971,-9104.533087,-1991.848295
3287.737070,74.020594,-7994.224174,-2221.676944
3287.737398,-370.102971,-10658.965565,153.219100
3287.737726,814.226536,-9844.739029,306.438199
3287.738053,1184.329507,-10214.842000,306.438199
3287.738381,2368.659014,-9474.636058,-995.924147
3287.738709,148.041188,-8660.409521,-1532.190996
3287.739036,-1258.350101,-11473.192101,383.047749
3287.739364,-518.144159,-10732.986159,-459.657299
3287.739692,518.144159,-10436.903782,-1149.143247
3287.740019,1850.514855,-8882.471304,-1225.752797
3287.740347,1332.370696,-9400.615463,306.438199
3287.740674,-666.185348,-11251.130318,2681.334243
3287.741002,-296.082377,-9474.636058,1378.971896
3287.741330,-592.164754,-9844.739029,-1608.800546
3287.741657,-1628.453072,-8956.491898,-3447.429741
3287.741985,-1924.535449,-7179.997637,-2451.505594
3287.742313,-962.267725,-9918.759623,383.047749
3287.742640,962.267725,-9992.780217,766.095498
3287.742968,1776.494261,-10584.944971,1838.629195
3287.743295,2368.659014,-10881.027347,1149.143247
3287.743623,1998.556043,-9548.656652,153.219100
3287.743951,888.247130,-10807.006753,0.000000
3287.744278,-296.082377,-9178.553681,-919.314598
3287.744606,-962.267725,-9252.574275,-1149.143247
3287.744934,0.000000,-8364.327145,-1608.800546
3287.745261,222.061783,-7031.956449,-995.924147
3287.745589,0.000000,-9918.759623,1838.629195
3287.745917,814.226536,-11251.130318,1838.629195
3287.746244,1480.411884,-11029.068536,0.000000
3287.746572,1036.288319,-9622.677246,-1225.752797
3287.746899,962.267725,-9030.512492,-1225.752797
3287.747227,444.123565,-10436.903782,76.609550
3287.747555,148.041188,-9918.759623,1072.533697
3287.747882,814.226536,-10288.862594,0.000000
3287.748210,1628.453072,-10288.862594,-1915.238745
3287.748538,518.144159,-9474.636058,-459.657299
3287.748865,-370.102971,-10288.862594,1149.143247
3287.749193,-296.082377,-8734.430116,-229.828649
3287.749521,-296.082377,-9918.759623,-1072.533697
3287.749848,-296.082377,-10140.821405,-1072.533697
3287.750176,740.205942,-7772.162391,-1225.752797
3287.750503,1258.350101,-10066.800811,919.314598
3287.750831,1110.308913,-11177.109724,919.314598
3287.751159,518.144159,-11547.212695,612.876398
3287.751486,2368.659014,-9918.759623,-1378.971896
3287.751814,592.164754,-7994.224174,-689.485948
3287.752142,-2072.576638,-9992.780217,1532.190996
3287.752469,-2886.803174,-8882.471304,306.438199
3287.752797,-3330.926739,-9178.553681,-1685.410096
3287.753125,-1036.288319,-8956.491898,-2987.772442
3287.753452,1332.370696,-9178.553681,-2451.505594
3287.753780,740.205942,-11917.315666,1991.848295
3287.754107,1554.432478,-11843.295072,3064.381992
3287.754435,2442.679609,-9992.780217,229.828649
3287.754763,2590.720797,-9326.594869,-2451.505594
3287.755090,-1110.308913,-8142.265362,-1378.971896
3287.755418,-1036.288319,-8882.471304,612.876398
3287.755746,-518.144159,-6513.812290,842.705048
3287.756073,0.000000,-8882.471304,1149.143247
3287.756401,592.164754,-10214.842000,1532.190996
3287.756729,1406.391290,-9030.512492,612.876398
3287.757056,1406.391290,-10658.965565,306.438199
3287.757384,370.102971,-10436.903782,-842.705048
3287.757711,0.000000,-10288.862594,-2451.505594
3287.758039,814.226536,-9400.615463,-2604.724693
3287.758367,1406.391290,-9104.533087,-1225.752797
3287.758694,1776.494261,-9622.677246,2145.067394
3287.759022,2516.700203,-9104.533087,3600.648841
3287.759350,1554.432478,-9030.512492,2834.553343
3287.759677,0.000000,-9474.636058,-842.705048
3287.760005,-1628.453072,-9326.594869,-2987.772442
3287.760333,-962.267725,-11843.295072,-2068.457845
3287.760660,1110.308913,-9770.718434,-1915.238745
3287.760988,1924.535449,-9992.780217,-612.876398
3287.761315,962.267725,-10881.027347,1072.533697
3287.761643,1776.494261,-10807.006753,536.266849
3287.761971,1332.370696,-11325.150913,-306.438199
3287.762298,-888.247130,-8734.430116,-1225.752797
3287.762626,-2664.741391,-8068.244768,-842.705048
3287.762954,-1480.411884,-8438.347739,-766.095498
3287.763281,148.041188,-7772.162391,-1225.752797
3287.763609,518.144159,-10807.006753,383.047749
3287.763937,370.102971,-10732.986159,2298.286494
3287.764264,1554.432478,-11843.295072,0.000000
3287.764592,2368.659014,-11843.295072,-1991.848295
3287.764919,1036.288319,-10288.862594,-2681.334243
3287.765247,-518.144159,-9622.677246,-1225.752797
3287.765574,-444.123565,-8882.471304,0.000000
3287.765902,740.205942,-8290.306550,766.095498
3287.766230,592.164754,-8364.327145,842.705048
3287.766557,222.061783,-8068.244768,1685.410096
3287.766885,0.000000,-9696.697840,1302.362347
3287.767212,296.082377,-11103.089130,-383.047749
3287.767540,0.000000,-10955.047942,-1762.019645
3287.767867,0.000000,-9474.636058,-2145.067394
3287.768195,370.102971,-8290.306550,-1608.800546
3287.768522,592.164754,-11473.192101,-612.876398
3287.768850,0.000000,-10658.965565,306.438199
3287.769178,-222.061783,-9770.718434,383.047749
3287.769505,740.205942,-9474.636058,0.000000
3287.769833,518.144159,-7920.203579,-459.657299
3287.770160,-1184.329507,-9696.697840,1149.143247
3287.770488,-740.205942,-10140.821405,536.266849
3287.770815,518.144159,-9622.677246,-689.485948
3287.771143,2220.617826,-9548.656652,-2221.676944
3287.771471,1776.494261,-9400.615463,-1225.752797
3287.771798,814.226536,-11547.212695,1378.971896
3287.772126,1850.514855,-10362.883188,1225.752797
3287.772453,0.000000,-9252.574275,1225.752797
3287.772781,-1998.556043,-9252.574275,1302.362347
3287.773108,-1184.329507,-8438.347739,-1532.190996
3287.773436,-1850.514855,-8808.450710,-2068.457845
3287.773763,-666.185348,-9918.759623,-1608.800546
3287.774091,444.123565,-10955.047942,-536.266849
3287.774419,1480.411884,-11177.109724,766.095498
3287.774746,1998.556043,-8808.450710,229.828649
3287.775074,1776.494261,-10140.821405,76.609550
3287.775401,0.000000,-10214.842000,0.000000
3287.775729,-1480.411884,-10214.842000,-459.657299
3287.776056,666.185348,-8438.347739,-1149.143247
3287.776384,888.247130,-6809.894666,-1378.971896
3287.776711,222.061783,-9474.636058,2298.286494
3287.777039,740.205942,-10140.821405,3600.648841
3287.777367,1850.514855,-11029.068536,1838.629195
3287.777694,2368.659014,-11177.109724,-1608.800546
3287.778022,0.000000,-8660.409521,-3064.381992
3287.778349,-740.205942,-8660.409521,-842.705048
3287.778677,-888.247130,-9326.594869,0.000000
3287.779004,-444.123565,-9992.780217,766.095498
3287.779332,1110.308913,-9252.574275,1072.533697
3287.779659,2738.761985,-7254.018232,689.485948
3287.779987,1850.514855,-9178.553681,1072.533697
3287.780315,-962.267725,-11251.130318,536.266849
3287.780642,-1850.514855,-11917.315666,-919.314598
3287.780970,1184.329507,-10066.800811,-2681.334243
3287.781297,2294.638420,-7772.162391,-3064.381992
3287.781625,74.020594,-9992.780217,919.314598
3287.781952,-370.102971,-11029.068536,2604.724693
3287.782280,740.205942,-11029.068536,842.705048
3287.782607,370.102971,-9622.677246,-1991.848295
3287.782935,-962.267725,-7846.182985,-3907.087040
3287.783263,-2516.700203,-8586.388927,-995.924147
3287.783590,-1776.494261,-9178.553681,459.657299
3287.783918,962.267725,-9918.759623,0.000000
3287.784245,2886.803174,-11325.150913,-306.438199
3287.784573,1776.494261,-9844.739029,919.314598
3287.784900,1480.411884,-10658.965565,1838.629195
3287.785228,1258.350101,-10955.047942,0.000000
3287.785555,-148.041188,-11177.109724,-1149.143247
3287.785883,-222.061783,-9326.594869,-1915.238745
3287.786211,-740.205942,-7105.977043,-1915.238745
3287.786538,-444.123565,-8956.491898,229.828649
3287.786866,0.000000,-10140.821405,2374.896044
3287.787193,518.144159,-9918.759623,1455.581446
3287.787521,2368.659014,-10881.027347,-612.876398
3287.787848,2220.617826,-10658.965565,-1685.410096
3287.788176,1110.308913,-9844.739029,0.000000
3287.788503,888.247130,-8882.471304,229.828649
3287.788831,0.000000,-9548.656652,306.438199
3287.789159,74.020594,-9696.697840,-995.924147
3287.789486,-1184.329507,-6883.915261,-1149.143247
3287.789814,-518.144159,-9474.636058,76.609550
3287.790141,0.000000,-9474.636058,0.000000
3287.790469,0.000000,-9474.636058,-229.828649
3287.790796,666.185348,-10066.800811,-842.705048
3287.791124,1036.288319,-9326.594869,-1838.629195
3287.791451,962.267725,-9918.759623,0.000000
3287.791779,370.102971,-9770.718434,536.266849
3287.792107,740.205942,-10288.862594,459.657299
3287.792434,1628.453072,-10066.800811,689.485948
3287.792762,740.205942,-9030.512492,-153.219100
3287.793089,370.102971,-10881.027347,766.095498
3287.793417,222.061783,-9548.656652,0.000000
3287.793744,-1480.411884,-8364.327145,-919.314598
3287.794072,-1850.514855,-10214.842000,-1608.800546
3287.794399,-1850.514855,-9918.759623,-2068.457845
3287.794727,-444.123565,-10658.965565,-1685.410096
3287.795055,444.123565,-9770.718434,-383.047749
3287.795382,1258.350101,-11103.089130,1225.752797
3287.795710,1776.494261,-12213.398043,1685.410096
3287.796037,1776.494261,-8808.450710,0.000000
3287.796365,814.226536,-8660.409521,-919.314598
3287.796692,-1702.473667,-9252.574275,0.000000
3287.797020,-1776.494261,-8956.491898,0.000000
3287.797348,-444.123565,-7698.141797,-612.876398
3287.797675,74.020594,-7624.121203,-689.485948
3287.798003,0.000000,-10584.944971,1225.752797
3287.798330,740.205942,-11251.130318,2068.457845
3287.798658,888.247130,-10807.006753,536.266849
3287.798985,592.164754,-11177.109724,-995.924147
3287.799313,-444.123565,-8512.368333,-1532.190996
3287.799640,-1184.329507,-7920.203579,-919.314598
3287.799968,-222.061783,-8882.471304,383.047749
3287.800296,1110.308913,-9844.739029,1072.533697
3287.800623,2886.803174,-9474.636058,1149.143247
3287.800951,3404.947333,-8660.409521,1072.533697
3287.801278,814.226536,-10658.965565,689.485948
3287.801606,-1702.473667,-11843.295072,-1072.533697
3287.801933,-1924.535449,-10140.821405,-1991.848295
3287.802261,148.041188,-9696.697840,-2374.896044
3287.802588,740.205942,-9178.553681,-2068.457845
3287.802916,592.164754,-11843.295072,919.314598
3287.803244,1332.370696,-11251.130318,2298.286494
3287.803571,1184.329507,-9326.594869,-229.828649
3287.803899,1332.370696,-9622.677246,-1378.971896
3287.804226,-592.164754,-7698.141797,-1302.362347
3287.804554,-1258.350101,-8216.285956,153.219100
3287.804881,0.000000,-9474.636058,76.609550
3287.805209,666.185348,-10510.924376,76.609550
3287.805536,814.226536,-12287.418637,612.876398
3287.805864,1036.288319,-10881.027347,459.657299
3287.806192,1036.288319,-10658.965565,-919.314598
3287.806519,962.267725,-10510.924376,-1762.019645
3287.806847,518.144159,-9622.677246,-1838.629195
3287.807174,0.000000,-8216.285956,-919.314598
3287.807502,740.205942,-5995.668130,-459.657299
3287.807829,370.102971,-7698.141797,1991.848295
3287.808157,444.123565,-10584.944971,2987.772442
3287.808484,296.082377,-10140.821405,1225.752797
3287.808812,444.123565,-10658.965565,-995.924147
3287.809140,740.205942,-9770.718434,-2834.553343
3287.809467,370.102971,-10807.006753,-2374.896044
3287.809795,-518.144159,-10140.821405,0.000000
3287.810122,-444.123565,-9474.636058,76.609550
3287.810450,1110.308913,-9326.594869,-306.438199
3287.810777,1406.391290,-8512.368333,0.000000
3287.811105,962.267725,-9548.656652,995.924147
3287.811432,0.000000,-9992.780217,1149.143247
3287.811760,0.000000,-9844.739029,229.828649
3287.812088,-444.123565,-9548.656652,-995.924147
3287.812415,-444.123565,-7994.224174,-1838.629195
3287.812743,-518.144159,-10214.842000,-306.438199
3287.813070,370.102971,-10955.047942,0.000000
3287.813398,370.102971,-10288.862594,-306.438199
3287.813725,1332.370696,-10807.006753,-1072.533697
3287.814053,592.164754,-8734.430116,-1225.752797
3287.814380,592.164754,-10066.800811,689.485948
3287.814708,-1258.350101,-8734.430116,3140.991542
3287.815036,-2516.700203,-8956.491898,1149.143247
3287.815363,-2294.638420,-9400.615463,-919.314598
3287.815691,-666.185348,-8438.347739,-3447.429741
3287.816018,-592.164754,-10140.821405,-1532.190996
3287.816346,0.000000,-10510.924376,76.609550
3287.816673,740.205942,-10881.027347,995.924147
3287.817001,2368.659014,-10955.047942,153.219100
3287.817328,2590.720797,-9326.594869,-842.705048
3287.817656,814.226536,-9696.697840,383.047749
3287.817984,-1184.329507,-9548.656652,1455.581446
3287.818311,-518.144159,-8586.388927,76.609550
3287.818639,444.123565,-8808.450710,-1378.971896
3287.818966,222.061783,-8660.409521,-459.657299
3287.819294,-296.082377,-9474.636058,2298.286494
3287.819621,148.041188,-10807.006753,2528.115143
3287.819949,1036.288319,-10436.903782,-995.924147
3287.820277,1406.391290,-9992.780217,-3064.381992
3287.820604,296.082377,-8808.450710,-1455.581446
3287.820932,148.041188,-8956.491898,153.219100
3287.821259,1184.329507,-8882.471304,1378.971896
3287.821587,2368.659014,-9474.636058,2298.286494
3287.821914,3627.009116,-10436.903782,1762.019645
3287.822242,2516.700203,-7254.018232,1685.410096
3287.822569,-370.102971,-8438.347739,306.438199
3287.822897,-3923.091493,-11103.089130,-1378.971896
3287.823225,-2960.823768,-11325.150913,-3524.039291
3287.823552,0.000000,-9178.553681,-4826.401637
3287.823880,1258.350101,-8512.368333,-2834.553343
3287.824207,1036.288319,-11917.315666,1608.800546
3287.824535,2294.638420,-12065.356855,2757.943793
3287.824862,2590.720797,-9770.718434,919.314598
3287.825190,1776.494261,-9548.656652,0.000000
3287.825517,-740.205942,-8364.327145,-383.047749
3287.825845,-1406.391290,-8290.306550,995.924147
3287.826173,-296.082377,-9548.656652,-1532.190996
3287.826500,0.000000,-9918.759623,-1378.971896
3287.826828,1110.308913,-11843.295072,-919.314598
3287.827155,1850.514855,-11547.212695,-153.219100
3287.827483,1332.370696,-10955.047942,153.219100
3287.827810,-370.102971,-9400.615463,-766.095498
3287.828138,-814.226536,-9178.553681,-1149.143247
3287.828465,-148.041188,-8882.471304,-995.924147
3287.828793,1406.391290,-6957.935855,-766.095498
3287.829121,962.267725,-9252.574275,2374.896044
3287.829448,-370.102971,-10362.883188,3370.820191
3287.829776,0.000000,-11103.089130,766.095498
3287.830103,148.041188,-10955.047942,-2834.553343
3287.830431,-740.205942,-8660.409521,-3370.820191
3287.830758,-962.267725,-8142.265362,-1149.143247
3287.831086,-370.102971,-8364.327145,0.000000
3287.831413,-666.185348,-8882.471304,1149.143247
3287.831741,1406.391290,-9030.512492,0.000000
3287.832069,1554.432478,-9104.533087,383.047749
3287.832396,296.082377,-10955.047942,2298.286494
3287.832724,296.082377,-9918.759623,1378.971896
3287.833051,1258.350101,-9474.636058,-842.705048
3287.833379,1110.308913,-10955.047942,-2374.896044
3287.833706,-814.226536,-11399.171507,-1378.971896
3287.834034,-666.185348,-10732.986159,229.828649
3287.834361,-444.123565,-8734.430116,0.000000
3287.834689,-1924.535449,-8734.430116,-459.657299
3287.835017,-740.205942,-11251.130318,-1225.752797
3287.835344,-148.041188,-9548.656652,-842.705048
3287.835672,-1702.473667,-9104.533087,995.924147
3287.835999,-1258.350101,-11325.150913,0.000000
3287.836327,-1258.350101,-10436.903782,-1608.800546
3287.836654,-148.041188,-8882.471304,-2145.067394
3287.836982,1628.453072,-8364.327145,-1915.238745
3287.837309,1924.535449,-10881.027347,1225.752797
3287.837637,1776.494261,-11843.295072,2221.676944
3287.837965,2072.576638,-9400.615463,536.266849
3287.838292,1110.308913,-9474.636058,-383.047749
3287.838620,-1184.329507,-9252.574275,-842.705048
3287.838947,-1184.329507,-9178.553681,-766.095498
3287.839275,-1184.329507,-8882.471304,-536.266849
3287.839602,-1036.288319,-8660.409521,-306.438199
3287.839930,2368.659014,-9770.718434,-459.657299
3287.840257,3108.864956,-9548.656652,1302.362347
3287.840585,2590.720797,-9474.636058,1915.238745
3287.840913,1332.370696,-9400.615463,459.657299
3287.841240,444.123565,-9326.594869,76.609550
3287.841568,592.164754,-9252.574275,-689.485948
3287.841895,1480.411884,-7994.224174,-1149.143247
3287.842223,1998.556043,-8290.306550,995.924147
3287.842550,3478.967927,-9770.718434,1915.238745
3287.842878,2738.761985,-10140.821405,1685.410096
3287.843206,962.267725,-11843.295072,-842.705048
3287.843533,-814.226536,-10732.986159,-2834.553343
3287.843861,370.102971,-10658.965565,-3217.601092
3287.844188,444.123565,-9252.574275,-2834.553343
3287.844516,666.185348,-8290.306550,612.876398
3287.844843,1480.411884,-9252.574275,1991.848295
3287.845171,2368.659014,-9030.512492,1378.971896
3287.845498,2220.617826,-10658.965565,1225.752797
3287.845826,444.123565,-10881.027347,383.047749
3287.846154,-1036.288319,-9030.512492,-1149.143247
3287.846481,-814.226536,-9770.718434,-2528.115143
3287.846809,-962.267725,-9474.636058,-2987.772442
3287.847136,148.041188,-10807.006753,-1685.410096
3287.847464,814.226536,-11547.212695,766.095498
3287.847791,740.205942,-9474.636058,1225.752797
3287.848119,222.061783,-10584.944971,459.657299
3287.848446,-518.144159,-9474.636058,-612.876398
3287.848774,-888.247130,-9030.512492,-612.876398
3287.849102,-1628.453072,-8956.491898,229.828649
3287.849429,-814.226536,-7920.203579,-612.876398
3287.849757,-592.164754,-9918.759623,-536.266849
3287.850084,-740.205942,-10658.965565,-229.828649
3287.850412,-740.205942,-11251.130318,459.657299
3287.850739,-740.205942,-10288.862594,-383.047749
3287.851067,-1628.453072,-9030.512492,-1532.190996
3287.851394,-1110.308913,-9474.636058,-1608.800546
3287.851722,-888.247130,-7698.141797,-306.438199
3287.852050,-592.164754,-8364.327145,1072.533697
3287.852377,-740.205942,-9474.636058,2145.067394
3287.852705,-444.123565,-9474.636058,919.314598
3287.853032,370.102971,-9844.739029,-536.266849
3287.853360,666.185348,-9992.780217,-995.924147
3287.853687,0.000000,-10510.924376,-842.705048
3287.854015,-444.123565,-9918.759623,-995.924147
3287.854342,-592.164754,-9622.677246,-766.095498
3287.854670,592.164754,-9622.677246,-612.876398
3287.854998,444.123565,-8586.388927,-459.657299
3287.855325,222.061783,-10584.944971,1302.362347
3287.855653,-518.144159,-10288.862594,1685.410096
3287.855980,-518.144159,-8882.471304,-229.828649
3287.856308,-296.082377,-10066.800811,-2451.505594
3287.856635,-518.144159,-9992.780217,-2604.724693
3287.856963,740.205942,-10140.821405,-1608.800546
3287.857290,1554.432478,-10436.903782,-612.876398
3287.857618,1628.453072,-10658.965565,689.485948
3287.857946,3108.864956,-10881.027347,766.095498
3287.858273,3627.009116,-9104.533087,0.000000
3287.858601,1998.556043,-9992.780217,383.047749
3287.858928,0.000000,-10584.944971,1072.533697
3287.859256,296.082377,-7846.182985,-919.314598
3287.859583,814.226536,-8808.450710,-766.095498
3287.859911,740.205942,-8438.347739,0.000000
3287.860238,444.123565,-8660.409521,689.485948
3287.860566,592.164754,-10658.965565,1225.752797
3287.860894,1850.514855,-10214.842000,-306.438199
3287.861221,2368.659014,-9770.718434,-1378.971896
3287.861549,1480.411884,-8290.306550,-536.266849
3287.861876,1110.308913,-8586.388927,1455.581446
3287.862204,1406.391290,-9696.697840,1455.581446
3287.862531,2294.638420,-9474.636058,1608.800546
3287.862859,3256.906145,-9030.512492,842.705048
3287.863186,1480.411884,-9992.780217,229.828649
3287.863514,0.000000,-10955.047942,306.438199
3287.863842,-370.102971,-10807.006753,-1685.410096
3287.864169,-814.226536,-9548.656652,-2221.676944
3287.864497,-666.185348,-9474.636058,-1762.019645
3287.864824,-1110.308913,-8808.450710,-229.828649
3287.865152,-222.061783,-9400.615463,1225.752797
3287.865479,814.226536,-10066.800811,689.485948
3287.865807,370.102971,-10881.027347,459.657299
3287.866134,518.144159,-11177.109724,0.000000
3287.866462,0.000000,-9252.574275,-612.876398
3287.866790,0.000000,-9474.636058,-689.485948
3287.867118,-962.267725,-10510.924376,-536.266849
3287.867445,-1184.329507,-11029.068536,-536.266849
3287.867773,296.082377,-10658.965565,-919.314598
3287.868101,296.082377,-9252.574275,-1532.190996
3287.868429,-1258.350101,-10214.842000,459.657299
3287.868756,-1554.432478,-9918.759623,689.485948
3287.869084,-666.185348,-9326.594869,-766.095498
3287.869412,0.000000,-9696.697840,-995.924147
3287.869739,74.020594,-8734.430116,-459.657299
3287.870067,-518.144159,-8660.409521,1378.971896
3287.870395,-2072.576638,-9770.718434,1455.581446
3287.870723,-1480.411884,-9252.574275,-459.657299
3287.871050,-518.144159,-9104.533087,-1378.971896
3287.871378,-296.082377,-8216.285956,-1149.143247
3287.871706,-1110.308913,-9326.594869,459.657299
3287.872034,-222.061783,-9548.656652,766.095498
3287.872361,74.020594,-8364.327145,-459.657299
3287.872689,1184.329507,-11103.089130,-995.924147
3287.873017,740.205942,-9844.739029,-536.266849
3287.873344,592.164754,-9104.533087,612.876398
3287.873672,1036.288319,-10362.883188,766.095498
3287.874000,1110.308913,-10362.883188,-919.314598
3287.874328,1554.432478,-10658.965565,-1685.410096
3287.874655,370.102971,-8438.347739,-229.828649
3287.874983,-370.102971,-8438.347739,689.485948
3287.875311,-370.102971,-9992.780217,229.828649
3287.875639,370.102971,-9770.718434,-1302.362347
3287.875966,666.185348,-9770.718434,-1302.362347
3287.876294,740.205942,-9622.677246,-766.095498
3287.876622,1036.288319,-11547.212695,306.438199
3287.876949,296.082377,-11177.109724,-612.876398
3287.877277,2294.638420,-10140.821405,-2221.676944
3287.877605,3256.906145,-9696.697840,-995.924147
3287.877933,2442.679609,-9400.615463,689.485948
3287.878260,2220.617826,-10732.986159,2528.115143
3287.878588,3552.988522,-11029.068536,995.924147
3287.878916,1776.494261,-8882.471304,-306.438199
3287.879244,444.123565,-9474.636058,-536.266849
3287.879571,-592.164754,-7772.162391,-1532.190996
3287.879899,-370.102971,-7994.224174,-383.047749
3287.880227,-222.061783,-8956.491898,153.219100
3287.880554,-370.102971,-10288.862594,842.705048
3287.880882,1110.308913,-10214.842000,612.876398
3287.881210,1998.556043,-9326.594869,-842.705048
3287.881538,814.226536,-9770.718434,919.314598
3287.881865,296.082377,-9474.636058,766.095498
3287.882193,296.082377,-8734.430116,76.609550
3287.882521,888.247130,-9252.574275,229.828649
3287.882849,1628.453072,-7994.224174,0.000000
3287.883176,888.247130,-8512.368333,1762.019645
3287.883504,-1332.370696,-10881.027347,2451.505594
3287.883832,-2294.638420,-11251.130318,-383.047749
3287.884159,-296.082377,-10214.842000,-2834.553343
3287.884487,-814.226536,-8438.347739,-2911.162892
3287.884815,-814.226536,-10140.821405,-459.657299
3287.885143,-1110.308913,-10362.883188,1608.800546
3287.885470,-148.041188,-9030.512492,766.095498
3287.885798,962.267725,-8586.388927,-766.095498
3287.886126,0.000000,-9770.718434,-1455.581446
3287.886454,-1184.329507,-9992.780217,689.485948
3287.886781,-1110.308913,-9548.656652,0.000000
3287.887109,-740.205942,-9622.677246,-1608.800546
3287.887437,-666.185348,-11621.233289,-1915.238745
3287.887764,0.000000,-11177.109724,-1378.971896
3287.888092,222.061783,-10436.903782,-842.705048
3287.888420,888.247130,-10362.883188,0.000000
3287.888748,-148.041188,-9548.656652,-229.828649
3287.889075,0.000000,-10066.800811,-689.485948
3287.889403,814.226536,-8438.347739,-1302.362347
3287.889731,296.082377,-9178.553681,995.924147
3287.890058,-370.102971,-9622.677246,2221.676944
3287.890386,-518.144159,-10140.821405,1302.362347
3287.890714,-296.082377,-9992.780217,-995.924147
3287.891042,222.061783,-8882.471304,-3064.381992
3287.891369,-148.041188,-10140.821405,-766.095498
3287.891697,0.000000,-10955.047942,919.314598
3287.892025,518.144159,-8734.430116,229.828649
3287.892353,1406.391290,-8512.368333,-689.485948
3287.892680,814.226536,-7994.224174,0.000000
3287.893008,518.144159,-9696.697840,1455.581446
3287.893336,1184.329507,-9622.677246,1378.971896
3287.893663,740.205942,-8586.388927,536.266849
3287.893991,814.226536,-10510.924376,0.000000
3287.894319,888.247130,-8734.430116,-919.314598
3287.894647,1258.350101,-8808.450710,-153.219100
3287.894974,1036.288319,-10584.944971,306.438199
3287.895302,0.000000,-10288.862594,0.000000
3287.895630,962.267725,-10955.047942,-689.485948
3287.895958,1998.556043,-9178.553681,-1838.629195
3287.896285,592.164754,-9548.656652,1072.533697
3287.896613,-1332.370696,-9474.636058,2298.286494
3287.896941,-1036.288319,-10288.862594,229.828649
3287.897268,814.226536,-11177.109724,-2374.896044
3287.897596,2368.659014,-8586.388927,-3600.648841
3287.897924,1036.288319,-9030.512492,-536.266849
3287.898252,888.247130,-13471.748144,3064.381992
3287.898579,1332.370696,-11695.253884,1149.143247
3287.898907,2442.679609,-9992.780217,-2451.505594
3287.899235,1332.370696,-9844.739029,-2145.067394
3287.899563,814.226536,-10140.821405,-842.705048
3287.899890,74.020594,-8290.306550,995.924147
3287.900218,-296.082377,-7105.977043,842.705048
3287.900546,-1110.308913,-9252.574275,1838.629195
3287.900873,222.061783,-8142.265362,459.657299
3287.901201,370.102971,-8586.388927,536.266849
3287.901529,-518.144159,-10732.986159,536.266849
3287.901857,0.000000,-9918.759623,-459.657299
3287.902184,1998.556043,-10214.842000,-2681.334243
3287.902512,1184.329507,-7994.224174,-1608.800546
3287.902840,222.061783,-8364.327145,1149.143247
3287.903168,444.123565,-8586.388927,3217.601092
3287.903495,444.123565,-8290.306550,3064.381992
3287.903823,370.102971,-11029.068536,1149.143247
3287.904151,-666.185348,-10066.800811,-1378.971896
3287.904478,-1036.288319,-8512.368333,-842.705048
3287.904806,-444.123565,-9252.574275,-1072.533697
3287.905134,-814.226536,-9548.656652,-1225.752797
3287.905462,-1258.350101,-11769.274478,-153.219100
3287.905789,296.082377,-8956.491898,-1762.019645
3287.906117,1184.329507,-8660.409521,-1762.019645
3287.906445,-444.123565,-10732.986159,459.657299
3287.906773,-1850.514855,-9622.677246,2145.067394
3287.907100,-814.226536,-9252.574275,1608.800546
3287.907428,1332.370696,-9030.512492,-766.095498
3287.907756,370.102971,-10807.006753,-766.095498
3287.908083,0.000000,-12509.480420,0.000000
3287.908411,-222.061783,-9918.759623,-1762.019645
3287.908739,1036.288319,-11103.089130,-2528.115143
3287.909067,1036.288319,-10658.965565,-2834.553343
3287.909394,222.061783,-9104.533087,-842.705048
3287.909722,-666.185348,-9178.553681,536.266849
3287.910050,0.000000,-9400.615463,306.438199
3287.910377,814.226536,-10584.944971,459.657299
3287.910705,1110.308913,-9178.553681,229.828649
3287.911033,148.041188,-10214.842000,842.705048
3287.911361,0.000000,-11621.233289,0.000000
3287.911688,518.144159,-9326.594869,-1608.800546
3287.912016,592.164754,-9104.533087,-2145.067394
3287.912344,1036.288319,-8660.409521,-1915.238745
3287.912672,74.020594,-9104.533087,919.314598
3287.912999,370.102971,-9474.636058,1991.848295
3287.913327,0.000000,-8660.409521,919.314598
3287.913655,148.041188,-9844.739029,459.657299
3287.913982,592.164754,-7994.224174,0.000000
3287.914310,518.144159,-8438.347739,612.876398
3287.914638,1036.288319,-10436.903782,459.657299
3287.914966,-148.041188,-9474.636058,-459.657299
3287.915293,1258.350101,-10436.903782,-1378.971896
3287.915621,1554.432478,-9326.594869,-1608.800546
3287.915949,0.000000,-10140.821405,459.657299
3287.916277,-1110.308913,-9326.594869,1378.971896
3287.916604,74.020594,-8660.409521,0.000000
3287.916932,148.041188,-9992.780217,-689.485948
3287.917260,-444.123565,-9696.697840,-842.705048
3287.917587,-1554.432478,-9252.574275,0.000000
3287.917915,-1480.411884,-10362.883188,-1302.362347
3287.918243,518.144159,-9474.636058,-1455.581446
3287.918571,2664.741391,-10658.965565,-2374.896044
3287.918898,2368.659014,-11177.109724,-306.438199
3287.919226,2220.617826,-11769.274478,1838.629195
3287.919554,2072.576638,-10658.965565,229.828649
3287.919882,888.247130,-9474.636058,-1225.752797
3287.920209,-740.205942,-10881.027347,-689.485948
3287.920537,-1554.432478,-8216.285956,-919.314598
3287.920865,-1332.370696,-8142.265362,-536.266849
3287.921192,-592.164754,-10584.944971,76.609550
3287.921520,518.144159,-10288.862594,0.000000
3287.921848,962.267725,-9992.780217,459.657299
3287.922176,1036.288319,-9030.512492,-612.876398
3287.922503,592.164754,-10658.965565,-995.924147
3287.922831,444.123565,-9696.697840,0.000000
3287.923159,296.082377,-7402.059420,842.705048
3287.923487,592.164754,-8512.368333,1838.629195
3287.923814,1406.391290,-8142.265362,1685.410096
3287.924142,666.185348,-8660.409521,2145.067394
3287.924470,-296.082377,-10732.986159,1685.410096
3287.924797,-1480.411884,-9548.656652,-1149.143247
3287.925125,0.000000,-11103.089130,-3907.087040
3287.925453,592.164754,-9918.759623,-2987.772442
3287.925781,1554.432478,-9696.697840,-612.876398
3287.926108,1406.391290,-9548.656652,1991.848295
3287.926436,962.267725,-9474.636058,2528.115143
3287.926764,444.123565,-10658.965565,1991.848295
3287.927092,-370.102971,-8364.327145,153.219100
3287.927419,-1850.514855,-6809.894666,-1149.143247
3287.927747,-2368.659014,-9030.512492,-919.314598
3287.928075,-2738.761985,-9548.656652,-842.705048
3287.928402,0.000000,-10807.006753,-1378.971896
3287.928730,1184.329507,-11325.150913,-1838.629195
3287.929058,2072.576638,-12213.398043,-1532.190996
3287.929386,2220.617826,-12065.356855,-1532.190996
3287.929713,1110.308913,-11547.212695,-383.047749
3287.930041,518.144159,-10140.821405,0.000000
3287.930369,444.123565,-7550.100608,-612.876398
3287.930697,-592.164754,-7846.182985,1072.533697
3287.931024,-296.082377,-9548.656652,2298.286494
3287.931352,-740.205942,-9696.697840,689.485948
3287.931680,-370.102971,-10066.800811,-919.314598
3287.932007,222.061783,-9992.780217,-3447.429741
3287.932335,592.164754,-11103.089130,-2374.896044
3287.932663,740.205942,-10955.047942,-459.657299
3287.932991,888.247130,-9178.553681,689.485948
3287.933318,888.247130,-9770.718434,1762.019645
3287.933646,1332.370696,-8734.430116,383.047749
3287.933974,740.205942,-9252.574275,919.314598
3287.934301,-222.061783,-9326.594869,1608.800546
3287.934629,-518.144159,-8734.430116,229.828649
3287.934957,0.000000,-9474.636058,-536.266849
3287.935285,740.205942,-8586.388927,-2145.067394
3287.935612,444.123565,-8660.409521,-1762.019645
3287.935940,222.061783,-10436.903782,0.000000
3287.936268,-296.082377,-9400.615463,1378.971896
3287.936596,592.164754,-10510.924376,1532.190996
3287.936923,2294.638420,-9992.780217,689.485948
3287.937251,888.247130,-8068.244768,1532.190996
3287.937579,-1480.411884,-9030.512492,2528.115143
3287.937906,-2368.659014,-9770.718434,0.000000
3287.938234,-1110.308913,-10362.883188,-3217.601092
3287.938562,0.000000,-8586.388927,-4443.353888
3287.938890,888.247130,-9474.636058,-3830.477490
3287.939217,1110.308913,-12361.439231,919.314598
3287.939545,2368.659014,-13471.748144,2068.457845
3287.939873,2664.741391,-11177.109724,153.219100
3287.940201,1406.391290,-9474.636058,-1532.190996
3287.940528,-740.205942,-9918.759623,-995.924147
3287.940856,-1480.411884,-9474.636058,-1225.752797
3287.941184,-1924.535449,-7550.100608,-1225.752797
3287.941511,962.267725,-8660.409521,-1072.533697
3287.941839,1332.370696,-9326.594869,0.000000
3287.942167,1702.473667,-11251.130318,2145.067394
3287.942495,1406.391290,-10955.047942,1149.143247
3287.942822,148.041188,-9696.697840,-1455.581446
3287.943150,222.061783,-10436.903782,-2451.505594
3287.943478,0.000000,-8068.244768,-1915.238745
3287.943806,-518.144159,-8734.430116,383.047749
3287.944133,1036.288319,-9844.739029,2604.724693
3287.944461,1776.494261,-9400.615463,2528.115143
3287.944789,1998.556043,-9918.759623,1149.143247
3287.945116,0.000000,-10140.821405,-1378.971896
3287.945444,-592.164754,-9252.574275,-1915.238745
3287.945772,74.020594,-9252.574275,-1532.190996
3287.946100,148.041188,-9474.636058,-383.047749
3287.946427,0.000000,-9030.512492,919.314598
3287.946755,814.226536,-8290.306550,1608.800546
3287.947083,814.226536,-9918.759623,1685.410096
3287.947411,0.000000,-11769.274478,1072.533697
3287.947738,-888.247130,-10214.842000,-766.095498
3287.948066,-592.164754,-7772.162391,-766.095498
3287.948394,-740.205942,-7328.038826,-1532.190996
3287.948721,0.000000,-8808.450710,-536.266849
3287.949049,592.164754,-11103.089130,766.095498
3287.949377,666.185348,-11029.068536,536.266849
3287.949705,1628.453072,-11621.233289,-995.924147
3287.950032,1480.411884,-10955.047942,-2068.457845
3287.950360,740.205942,-11843.295072,-1149.143247
3287.950688,148.041188,-9548.656652,0.000000
3287.951016,-592.164754,-8364.327145,-612.876398
3287.951343,0.000000,-9474.636058,-306.438199
3287.951671,1480.411884,-9474.636058,-842.705048
3287.951999,888.247130,-9622.677246,383.047749
3287.952326,222.061783,-10881.027347,919.314598
3287.952654,-222.061783,-9918.759623,0.000000
3287.952982,666.185348,-10214.842000,-1225.752797
3287.953310,814.226536,-8660.409521,-995.924147
3287.953637,-370.102971,-8882.471304,612.876398
3287.953965,-666.185348,-9474.636058,1225.752797
3287.954293,-740.205942,-9252.574275,-995.924147
3287.954620,444.123565,-9918.759623,-1455.581446
3287.954948,888.247130,-9178.553681,-1225.752797
3287.955276,0.000000,-8808.450710,1072.533697
3287.955604,148.041188,-10066.800811,1608.800546
3287.955931,518.144159,-9696.697840,76.609550
3287.956259,1332.370696,-9770.718434,0.000000
3287.956587,592.164754,-8364.327145,229.828649
3287.956915,1036.288319,-8290.306550,612.876398
3287.957242,1036.288319,-8956.491898,919.314598
3287.957570,-962.267725,-8808.450710,1302.362347
3287.957898,-1628.453072,-9918.759623,76.609550
3287.958225,-1554.432478,-10288.862594,-2681.334243
3287.958553,-1258.350101,-10140.821405,-2911.162892
3287.958881,444.123565,-9844.739029,-2068.457845
3287.959209,370.102971,-9696.697840,-459.657299
3287.959536,1998.556043,-11991.336260,2068.457845
3287.959864,2738.761985,-10881.027347,383.047749
3287.960192,1332.370696,-10140.821405,612.876398
3287.960520,444.123565,-9622.677246,0.000000
3287.960847,-666.185348,-9326.594869,-1532.190996
3287.961175,-1480.411884,-9030.512492,-1149.143247
3287.961503,-962.267725,-7031.956449,-2298.286494
3287.961830,-296.082377,-9178.553681,0.000000
3287.962158,2072.576638,-12509.480420,612.876398
3287.962486,2590.720797,-11769.274478,919.314598
3287.962814,2146.597232,-11103.089130,229.828649
3287.963141,962.267725,-8956.491898,-1072.533697
3287.963469,74.020594,-8364.327145,-1302.362347
3287.963797,0.000000,-9400.615463,0.000000
3287.964125,-370.102971,-8660.409521,689.485948
3287.964452,1998.556043,-8438.347739,919.314598
3287.964780,2812.782580,-9474.636058,1225.752797
3287.965108,444.123565,-10436.903782,919.314598
3287.965435,-1258.350101,-11547.212695,-842.705048
3287.965763,-1332.370696,-9030.512492,-2451.505594
3287.966091,666.185348,-9326.594869,-2451.505594
3287.966419,1036.288319,-8956.491898,-1225.752797
3287.966746,2072.576638,-9918.759623,2528.115143
3287.967074,2146.597232,-10362.883188,3983.696590
3287.967402,1850.514855,-9992.780217,2451.505594
3287.967730,0.000000,-9474.636058,76.609550
3287.968057,-1998.556043,-7254.018232,-2221.676944
3287.968385,-3404.947333,-6587.832884,-2298.286494
3287.968713,-2368.659014,-8438.347739,-689.485948
3287.969040,-1628.453072,-9696.697840,-306.438199
3287.969368,-296.082377,-11843.295072,612.876398
3287.969696,1628.453072,-11325.150913,153.219100
3287.970024,2590.720797,-11029.068536,-919.314598
3287.970351,1184.329507,-12139.377449,0.000000
3287.970679,0.000000,-10066.800811,-612.876398
3287.971007,518.144159,-8586.388927,-2757.943793
3287.971334,148.041188,-7846.182985,-1455.581446
3287.971662,148.041188,-8882.471304,536.266849
3287.971990,888.247130,-11103.089130,2451.505594
3287.972317,296.082377,-10436.903782,1915.238745
3287.972645,-370.102971,-10362.883188,-612.876398
3287.972973,-592.164754,-9548.656652,-2604.724693
3287.973301,518.144159,-9104.533087,-2757.943793
3287.973628,-296.082377,-10510.924376,-689.485948
3287.973956,-222.061783,-10140.821405,459.657299
3287.974284,518.144159,-9918.759623,383.047749
3287.974611,1406.391290,-9622.677246,-766.095498
3287.974939,1110.308913,-9770.718434,0.000000
3287.975267,-296.082377,-10436.903782,1532.190996
3287.975595,-1258.350101,-7772.162391,842.705048
3287.975922,370.102971,-9030.512492,-459.657299
3287.976250,0.000000,-8290.306550,-1915.238745
3287.976578,-222.061783,-8808.450710,-612.876398
3287.976905,-740.205942,-9992.780217,1915.238745
3287.977233,1110.308913,-9474.636058,306.438199
3287.977561,2960.823768,-9622.677246,-1072.533697
3287.977889,1998.556043,-9474.636058,-229.828649
3287.978216,0.000000,-9178.553681,1991.848295
3287.978544,-1110.308913,-9844.739029,2221.676944
3287.978872,-1036.288319,-8586.388927,-689.485948
3287.979199,-740.205942,-8512.368333,-2298.286494
3287.979527,-1480.411884,-8142.265362,-1608.800546
3287.979855,-740.205942,-10362.883188,612.876398
3287.980183,1998.556043,-13249.686362,919.314598
3287.980510,1406.391290,-10510.924376,-306.438199
3287.980838,666.185348,-10881.027347,-1532.190996
3287.981166,666.185348,-10066.800811,-2374.896044
3287.981493,592.164754,-9252.574275,-995.924147
3287.981821,74.020594,-9252.574275,153.219100
3287.982149,-1184.329507,-7624.121203,995.924147
3287.982477,888.247130,-9622.677246,1762.019645
3287.982804,3034.844362,-10140.821405,842.705048
3287.983132,2590.720797,-9844.739029,1225.752797
3287.983460,0.000000,-11695.253884,1455.581446
3287.983787,0.000000,-10066.800811,-1532.190996
3287.984115,-222.061783,-8586.388927,-3983.696590
3287.984443,-370.102971,-9252.574275,-3447.429741
3287.984771,0.000000,-9178.553681,306.438199
3287.985098,1332.370696,-10584.944971,4290.134789
3287.985426,1628.453072,-8808.450710,2604.724693
3287.985754,148.041188,-9844.739029,612.876398
3287.986081,-814.226536,-9918.759623,-766.095498
3287.986409,74.020594,-8586.388927,-1225.752797
3287.986737,-1110.308913,-8734.430116,76.609550
3287.987064,-1036.288319,-8438.347739,0.000000
3287.987392,296.082377,-9474.636058,-919.314598
3287.987720,2072.576638,-11325.150913,153.219100
3287.988048,1776.494261,-10436.903782,919.314598
3287.988375,518.144159,-10436.903782,1149.143247
3287.988703,-1406.391290,-8290.306550,383.047749
3287.989031,-1850.514855,-8586.388927,76.609550
3287.989358,-2220.617826,-8808.450710,-383.047749
3287.989686,-1036.288319,-7254.018232,-536.266849
3287.990014,-740.205942,-9918.759623,1225.752797
3287.990342,-666.185348,-10658.965565,536.266849
3287.990669,1110.308913,-11029.068536,-1915.238745
3287.990997,1258.350101,-11621.233289,-2528.115143
3287.991325,814.226536,-9622.677246,-2221.676944
3287.991652,0.000000,-9992.780217,-689.485948
3287.991980,-888.247130,-8882.471304,0.000000
3287.992308,74.020594,-9030.512492,229.828649
3287.992636,962.267725,-9844.739029,383.047749
3287.992963,592.164754,-9696.697840,842.705048
3287.993291,1036.288319,-12435.459826,689.485948
3287.993619,962.267725,-10066.800811,-1072.533697
3287.993946,1036.288319,-9474.636058,-1685.410096
3287.994274,74.020594,-8438.347739,-1608.800546
3287.994602,74.020594,-8808.450710,-1072.533697
3287.994930,666.185348,-10288.862594,-153.219100
3287.995257,444.123565,-10214.842000,76.609550
3287.995585,888.247130,-10362.883188,76.609550
3287.995913,1258.350101,-10436.903782,0.000000
3287.996240,518.144159,-9844.739029,766.095498
3287.996568,-888.247130,-10214.842000,1072.533697
3287.996896,-1702.473667,-9178.553681,-459.657299
3287.997224,-444.123565,-8290.306550,-2068.457845
3287.997551,1036.288319,-9474.636058,-2145.067394
3287.997879,1184.329507,-9622.677246,229.828649
3287.998207,1036.288319,-9400.615463,2374.896044
3287.998534,1924.535449,-7254.018232,1378.971896
3287.998862,1480.411884,-8216.285956,919.314598
3287.999190,-222.061783,-9770.718434,459.657299
3287.999518,-2072.576638,-9696.697840,612.876398
3287.999845,-1184.329507,-10288.862594,-612.876398
3288.000173,740.205942,-8882.471304,-2987.772442
3288.000501,2368.659014,-10066.800811,-2451.505594
3288.000828,2368.659014,-11399.171507,1685.410096
3288.001156,1628.453072,-9622.677246,2068.457845
3288.001484,2294.638420,-10881.027347,919.314598
3288.001811,814.226536,-9326.594869,-1072.533697
3288.002139,-370.102971,-9696.697840,-1455.581446
3288.002467,-1332.370696,-8142.265362,-536.266849
3288.002795,-592.164754,-6365.771101,0.000000
3288.003122,-666.185348,-10510.924376,229.828649
3288.003450,444.123565,-11473.192101,306.438199
3288.003778,2368.659014,-10807.006753,-459.657299
3288.004105,2442.679609,-9992.780217,-1302.362347
3288.004433,2220.617826,-10436.903782,-459.657299
3288.004761,222.061783,-11029.068536,229.828649
3288.005089,-1332.370696,-7698.141797,-689.485948
3288.005416,-1184.329507,-8882.471304,0.000000
3288.005744,74.020594,-8660.409521,1072.533697
3288.006072,1776.494261,-9252.574275,1991.848295
3288.006399,814.226536,-10658.965565,2451.505594
3288.006727,-1036.288319,-9622.677246,-766.095498
3288.007055,-1850.514855,-10584.944971,-3140.991542
3288.007383,-518.144159,-10066.800811,-3294.210641
3288.007710,814.226536,-9030.512492,-1685.410096
3288.008038,1998.556043,-9918.759623,229.828649
3288.008366,962.267725,-10362.883188,2451.505594
3288.008693,1554.432478,-11399.171507,2221.676944
3288.009021,2516.700203,-9622.677246,229.828649
3288.009349,-370.102971,-7846.182985,612.876398
3288.009677,-3108.864956,-8068.244768,1685.410096
3288.010004,-4071.132681,-7846.182985,-383.047749
3288.010332,-1998.556043,-8512.368333,-3294.210641
3288.010660,-370.102971,-10140.821405,-3447.429741
3288.010987,-148.041188,-10510.924376,-689.485948
3288.011315,444.123565,-11991.336260,1608.800546
3288.011643,1554.432478,-11399.171507,612.876398
3288.011971,2812.782580,-11399.171507,-1302.362347
3288.012298,1776.494261,-8734.430116,-919.314598
3288.012626,518.144159,-7624.121203,459.657299
3288.012954,-296.082377,-9844.739029,1762.019645
3288.013281,-296.082377,-9474.636058,0.000000
3288.013609,0.000000,-10214.842000,-536.266849
3288.013937,148.041188,-10436.903782,-1532.190996
3288.014265,1036.288319,-10732.986159,-1838.629195
3288.014592,1036.288319,-10658.965565,-383.047749
3288.014920,592.164754,-9696.697840,-536.266849
3288.015248,592.164754,-8956.491898,0.000000
3288.015575,1628.453072,-8438.347739,-306.438199
3288.015903,888.247130,-9474.636058,919.314598
3288.016231,296.082377,-10955.047942,1991.848295
3288.016558,1480.411884,-10214.842000,0.000000
3288.016886,1258.350101,-9474.636058,-1378.971896
3288.017214,1036.288319,-9622.677246,-2068.457845
3288.017542,0.000000,-9326.594869,-1838.629195
3288.017869,-296.082377,-10140.821405,-689.485948
3288.018197,-1110.308913,-9326.594869,-459.657299
3288.018525,0.000000,-9548.656652,-459.657299
3288.018852,1184.329507,-8808.450710,306.438199
3288.019180,1110.308913,-8734.430116,1225.752797
3288.019508,1480.411884,-9252.574275,3217.601092
3288.019836,888.247130,-8438.347739,1685.410096
3288.020163,518.144159,-8956.491898,689.485948
3288.020491,-814.226536,-9178.553681,-459.657299
3288.020819,-962.267725,-8586.388927,-1991.848295
3288.021146,-148.041188,-9696.697840,-1608.800546
3288.021474,-518.144159,-10140.821405,-995.924147
3288.021802,-296.082377,-11547.212695,153.219100
3288.022130,2368.659014,-10584.944971,0.000000
3288.022457,1184.329507,-10436.903782,383.047749
3288.022785,222.061783,-11177.109724,1302.362347
3288.023113,-814.226536,-8438.347739,-842.705048
3288.023440,444.123565,-7698.141797,-995.924147
3288.023768,370.102971,-8438.347739,-995.924147
3288.024096,-518.144159,-8068.244768,1685.410096
3288.024424,0.000000,-9104.533087,2374.896044
3288.024751,1258.350101,-10510.924376,842.705048
3288.025079,1406.391290,-11399.171507,-383.047749
3288.025407,666.185348,-10436.903782,-1608.800546
3288.025734,-592.164754,-9770.718434,-1532.190996
3288.026062,-1406.391290,-10584.944971,-995.924147
3288.026390,-370.102971,-9696.697840,-1532.190996
3288.026718,74.020594,-8882.471304,0.000000
3288.027045,1776.494261,-9104.533087,1302.362347
3288.027373,1924.535449,-9178.553681,1532.190996
3288.027701,-370.102971,-10732.986159,1149.143247
3288.028028,-2886.803174,-8438.347739,0.000000
3288.028356,-1998.556043,-8660.409521,-2911.162892
3288.028684,444.123565,-9548.656652,-2911.162892
3288.029012,-148.041188,-9696.697840,-383.047749
3288.029339,592.164754,-12583.501014,2681.334243
3288.029667,1850.514855,-10807.006753,1455.581446
3288.029995,2664.741391,-9474.636058,-459.657299
3288.030322,740.205942,-9696.697840,-229.828649
3288.030650,-1702.473667,-7772.162391,612.876398
3288.030978,-1406.391290,-7846.182985,229.828649
3288.031305,-1406.391290,-8438.347739,-1378.971896
3288.031633,-888.247130,-9474.636058,-1915.238745
3288.031961,0.000000,-10510.924376,0.000000
3288.032289,1110.308913,-10436.903782,842.705048
3288.032616,2146.597232,-11991.336260,536.266849
3288.032944,2368.659014,-11251.130318,-1072.533697
3288.033272,444.123565,-9252.574275,-2145.067394
3288.033599,740.205942,-8808.450710,-2068.457845
3288.033927,592.164754,-7846.182985,-383.047749
3288.034255,296.082377,-10955.047942,2374.896044
3288.034583,74.020594,-10436.903782,1685.410096
3288.034910,1406.391290,-10436.903782,-536.266849
3288.035238,1110.308913,-10288.862594,-1685.410096
3288.035566,592.164754,-9992.780217,-1302.362347
3288.035893,592.164754,-9770.718434,-919.314598
3288.036221,740.205942,-8438.347739,-842.705048
3288.036549,592.164754,-9770.718434,-459.657299
3288.036877,1184.329507,-11473.192101,0.000000
3288.037204,1258.350101,-10140.821405,-306.438199
3288.037532,1258.350101,-10140.821405,766.095498
3288.037860,296.082377,-10658.965565,-612.876398
3288.038187,148.041188,-9844.739029,-919.314598
3288.038515,-888.247130,-9104.533087,-536.266849
3288.038843,-444.123565,-8364.327145,-383.047749
3288.039171,-296.082377,-8586.388927,383.047749
3288.039498,0.000000,-8660.409521,536.266849
3288.039826,-296.082377,-9030.512492,1072.533697
3288.040154,1702.473667,-10362.883188,76.609550
3288.040481,1850.514855,-8068.244768,459.657299
3288.040809,0.000000,-10732.986159,1915.238745
3288.041137,-962.267725,-9474.636058,1455.581446
3288.041465,-370.102971,-8882.471304,-612.876398
3288.041792,444.123565,-9178.553681,-1685.410096
3288.042120,-814.226536,-9252.574275,-459.657299
3288.042448,-1110.308913,-10584.944971,536.266849
3288.042775,148.041188,-9474.636058,842.705048
3288.043103,1332.370696,-10362.883188,-229.828649
3288.043431,74.020594,-10881.027347,-995.924147
3288.043759,-888.247130,-9696.697840,-1149.143247
3288.044086,-1406.391290,-8808.450710,-1072.533697
3288.044414,-1406.391290,-7772.162391,-1149.143247
3288.044742,-1332.370696,-7624.121203,0.000000
3288.045069,444.123565,-9548.656652,459.657299
3288.045397,2072.576638,-10140.821405,1532.190996
3288.045725,3182.885551,-12509.480420,536.266849
3288.046053,1406.391290,-11177.109724,-689.485948
3288.046380,444.123565,-9622.677246,-1915.238745
3288.046708,-518.144159,-8586.388927,-1608.800546
3288.047036,0.000000,-9252.574275,-1608.800546
3288.047363,740.205942,-10510.924376,-459.657299
3288.047691,1184.329507,-9844.739029,536.266849
3288.048019,2146.597232,-10214.842000,1532.190996
3288.048346,518.144159,-11103.089130,76.609550
3288.048674,-740.205942,-9696.697840,-1072.533697
3288.049002,-444.123565,-8512.368333,-1608.800546
3288.049330,814.226536,-8512.368333,-2068.457845
3288.049657,2072.576638,-10066.800811,536.266849
3288.049985,2590.720797,-11251.130318,1302.362347
3288.050313,2220.617826,-8956.491898,2528.115143
3288.050640,1480.411884,-9400.615463,1685.410096
3288.050968,-1036.288319,-8290.306550,153.219100
3288.051296,-3775.050304,-7772.162391,0.000000
3288.051624,-3108.864956,-7476.080014,-1915.238745
3288.051951,-814.226536,-7254.018232,-2451.505594
3288.052279,-444.123565,-11251.130318,-229.828649
3288.052607,0.000000,-11769.274478,1378.971896
3288.052934,2146.597232,-10732.986159,1762.019645
3288.053262,2812.782580,-9474.636058,0.000000
3288.053590,2220.617826,-9992.780217,-383.047749
3288.053918,1406.391290,-11251.130318,229.828649
3288.054245,-814.226536,-8068.244768,995.924147
3288.054573,-814.226536,-9178.553681,0.000000
3288.054901,-1036.288319,-9844.739029,-306.438199
3288.055228,222.061783,-9474.636058,-383.047749
3288.055556,-148.041188,-11029.068536,306.438199
3288.055884,-370.102971,-11251.130318,-536.266849
3288.056212,592.164754,-10658.965565,-1991.848295
3288.056539,1998.556043,-9326.594869,-2451.505594
3288.056867,1110.308913,-8586.388927,-306.438199
3288.057195,518.144159,-11843.295072,1915.238745
3288.057522,148.041188,-10955.047942,1378.971896
3288.057850,518.144159,-9548.656652,0.000000
3288.058178,666.185348,-8438.347739,-2298.286494
3288.058506,592.164754,-10214.842000,-2298.286494
3288.058833,-1258.350101,-10955.047942,536.266849
3288.059161,-1702.473667,-10066.800811,306.438199
3288.059489,-1110.308913,-9178.553681,-2145.067394
3288.059816,666.185348,-9474.636058,-2604.724693
3288.060144,666.185348,-8956.491898,-536.266849
3288.060472,0.000000,-9622.677246,2145.067394
3288.060800,1776.494261,-8364.327145,2298.286494
3288.061127,2368.659014,-8660.409521,1149.143247
3288.061455,0.000000,-8512.368333,1455.581446
3288.061783,-2146.597232,-8512.368333,1149.143247
3288.062110,-1258.350101,-10140.821405,-306.438199
3288.062438,-1406.391290,-8512.368333,-2298.286494
3288.062766,-592.164754,-9178.553681,-2604.724693
3288.063093,74.020594,-10732.986159,-1991.848295
3288.063421,2368.659014,-11251.130318,612.876398
3288.063749,1776.494261,-12361.439231,2604.724693
3288.064077,888.247130,-10510.924376,1302.362347
3288.064404,296.082377,-8216.285956,-1072.533697
3288.064732,0.000000,-7402.059420,-1608.800546
3288.065060,-592.164754,-6217.729913,383.047749
3288.065387,-1850.514855,-8438.347739,2451.505594
3288.065715,-444.123565,-9622.677246,2068.457845
3288.066043,2072.576638,-10955.047942,0.000000
3288.066371,2146.597232,-10658.965565,-2451.505594
3288.066698,814.226536,-10288.862594,-1455.581446
3288.067026,-1036.288319,-11769.274478,0.000000
3288.067354,-888.247130,-9696.697840,-1838.629195
3288.067681,0.000000,-9474.636058,-1915.238745
3288.068009,666.185348,-10362.883188,0.000000
3288.068337,1110.308913,-9844.739029,2911.162892
3288.068665,2294.638420,-11399.171507,3217.601092
3288.068992,518.144159,-10066.800811,76.609550
3288.069320,-740.205942,-9770.718434,-3140.991542
3288.069648,-296.082377,-8438.347739,-4443.353888
3288.069975,666.185348,-7772.162391,-2451.505594
3288.070303,1036.288319,-11769.274478,2145.067394
3288.070631,1554.432478,-11547.212695,2374.896044
3288.070959,2220.617826,-10214.842000,2451.505594
3288.071286,1702.473667,-9030.512492,1302.362347
3288.071614,74.020594,-8660.409521,1378.971896
3288.071942,-1776.494261,-9548.656652,1378.971896
3288.072270,-2220.617826,-7328.038826,-1302.362347
3288.072597,-2072.576638,-7105.977043,-3753.867940
3288.072925,-296.082377,-9326.594869,-3140.991542
3288.073253,296.082377,-10955.047942,76.609550
3288.073580,1332.370696,-12435.459826,2528.115143
3288.073908,2368.659014,-11399.171507,229.828649
3288.074236,2590.720797,-11843.295072,-612.876398
3288.074564,1702.473667,-8882.471304,-306.438199
3288.074891,1554.432478,-7179.997637,766.095498
3288.075219,-444.123565,-8808.450710,2068.457845
3288.075547,-962.267725,-9326.594869,689.485948
3288.075874,296.082377,-9178.553681,-1302.362347
3288.076202,518.144159,-9178.553681,-1915.238745
3288.076530,518.144159,-9844.739029,-995.924147
3288.076858,1184.329507,-11843.295072,-536.266849
3288.077185,962.267725,-10362.883188,-689.485948
3288.077513,1184.329507,-10881.027347,0.000000
3288.077841,1184.329507,-11029.068536,-306.438199
3288.078168,370.102971,-8364.327145,153.219100
3288.078496,-740.205942,-10140.821405,842.705048
3288.078824,-1258.350101,-10288.862594,-229.828649
3288.079152,0.000000,-10214.842000,-1991.848295
3288.079479,0.000000,-10214.842000,-2451.505594
3288.079807,-222.061783,-9326.594869,-1302.362347
3288.080135,74.020594,-9696.697840,-536.266849
3288.080462,74.020594,-8956.491898,0.000000
3288.080790,0.000000,-10140.821405,842.705048
3288.081118,-296.082377,-8956.491898,0.000000
3288.081446,666.185348,-7624.121203,0.000000
3288.081773,1036.288319,-10288.862594,1455.581446
3288.082101,-296.082377,-10584.944971,1838.629195
3288.082429,1628.453072,-10362.883188,229.828649
3288.082757,2294.638420,-8438.347739,-995.924147
3288.083084,370.102971,-7920.203579,0.000000
3288.083412,-2294.638420,-9326.594869,689.485948
3288.083740,-2738.761985,-9844.739029,-383.047749
3288.084067,-888.247130,-10362.883188,-1378.971896
3288.084395,-296.082377,-9992.780217,-1072.533697
3288.084723,0.000000,-8956.491898,76.609550
3288.085051,1036.288319,-11325.150913,1838.629195
3288.085378,1110.308913,-10807.006753,842.705048
3288.085706,1258.350101,-9474.636058,-229.828649
3288.086034,740.205942,-8512.368333,-1225.752797
3288.086361,148.041188,-7698.141797,-766.095498
3288.086689,74.020594,-8882.471304,0.000000
3288.087017,-148.041188,-8808.450710,689.485948
3288.087345,-962.267725,-10066.800811,1685.410096
3288.087672,888.247130,-11251.130318,612.876398
3288.088000,1924.535449,-10066.800811,-1225.752797
3288.088328,-296.082377,-11325.150913,0.000000
3288.088655,-1332.370696,-9696.697840,-995.924147
3288.088983,370.102971,-9474.636058,-1685.410096
3288.089311,666.185348,-9622.677246,-2374.896044
3288.089639,814.226536,-8660.409521,-1532.190996
3288.089966,2220.617826,-9474.636058,995.924147
3288.090294,2590.720797,-10510.924376,2145.067394
3288.090622,1998.556043,-12731.542202,2068.457845
3288.090949,74.020594,-10288.862594,536.266849
3288.091277,-518.144159,-7328.038826,-1302.362347
3288.091605,0.000000,-9844.739029,0.000000
3288.091933,-740.205942,-9918.759623,229.828649
3288.092260,-962.267725,-10510.924376,0.000000
3288.092588,0.000000,-9104.533087,-2681.334243
3288.092916,0.000000,-8438.347739,-2451.505594
3288.093243,0.000000,-10066.800811,-1378.971896
3288.093571,-592.164754,-8808.450710,-229.828649
3288.093899,0.000000,-9844.739029,1685.410096
3288.094227,1924.535449,-9030.512492,766.095498
3288.094554,2368.659014,-8882.471304,766.095498
3288.094882,2368.659014,-10658.965565,2528.115143
3288.095210,1184.329507,-9474.636058,2221.676944
3288.095538,0.000000,-9770.718434,153.219100
3288.095865,-888.247130,-9474.636058,-2834.553343
3288.096193,-1184.329507,-6957.935855,-4443.353888
3288.096521,-1332.370696,-9030.512492,-1915.238745
3288.096848,-666.185348,-11843.295072,229.828649
3288.097176,-296.082377,-12139.377449,1149.143247
3288.097504,2072.576638,-9326.594869,-383.047749
3288.097832,2886.803174,-8734.430116,-995.924147
3288.098159,2368.659014,-12509.480420,1378.971896
3288.098487,962.267725,-11251.130318,2068.457845
3288.098815,740.205942,-8586.388927,-306.438199
3288.099142,74.020594,-7846.182985,-3370.820191
3288.099470,222.061783,-10066.800811,-3753.867940
3288.099798,-962.267725,-11547.212695,-459.657299
3288.100126,-1332.370696,-9770.718434,306.438199
3288.100453,-296.082377,-9474.636058,153.219100
3288.100781,1036.288319,-9474.636058,-1455.581446
3288.101109,222.061783,-8882.471304,-229.828649
3288.101436,148.041188,-10658.965565,2451.505594
3288.101764,370.102971,-8956.491898,2145.067394
3288.102092,74.020594,-8882.471304,0.000000
3288.102420,740.205942,-10288.862594,-1915.238745
3288.102747,444.123565,-9400.615463,-2298.286494
3288.103075,518.144159,-9992.780217,229.828649
3288.103403,74.020594,-10066.800811,842.705048
3288.103730,-518.144159,-11029.068536,383.047749
3288.104058,592.164754,-9178.553681,-1532.190996
3288.104386,-296.082377,-7105.977043,-919.314598
3288.104714,-1554.432478,-9844.739029,2757.943793
3288.105041,-1850.514855,-9696.697840,1991.848295
3288.105369,-1036.288319,-9474.636058,-995.924147
3288.105697,1110.308913,-8142.265362,-2834.553343
3288.106024,888.247130,-8364.327145,-1838.629195
3288.106352,666.185348,-11029.068536,1838.629195
3288.106680,888.247130,-10732.986159,1762.019645
3288.107008,2072.576638,-10066.800811,0.000000
3288.107335,1258.350101,-8808.450710,-1302.362347
3288.107663,-148.041188,-8142.265362,-842.705048
3288.107991,-1110.308913,-10955.047942,1149.143247
3288.108319,-148.041188,-10214.842000,0.000000
3288.108646,222.061783,-10288.862594,-766.095498
3288.108974,1184.329507,-10288.862594,-1225.752797
3288.109302,1998.556043,-9474.636058,-306.438199
3288.109629,2146.597232,-11695.253884,1072.533697
3288.109957,518.144159,-10288.862594,919.314598
3288.110285,0.000000,-9178.553681,-383.047749
3288.110613,962.267725,-7698.141797,-1762.019645
3288.110940,1110.308913,-8364.327145,-536.266849
3288.111268,0.000000,-10658.965565,2068.457845
3288.111596,1110.308913,-9770.718434,1685.410096
3288.111923,888.247130,-9918.759623,-383.047749
3288.112251,0.000000,-10510.924376,-1915.238745
3288.112579,-1776.494261,-10288.862594,-842.705048
3288.112907,-1850.514855,-9918.759623,-459.657299
3288.113234,-740.205942,-7698.141797,-1991.848295
3288.113562,-444.123565,-8956.491898,-1838.629195
3288.113890,-370.102971,-9622.677246,229.828649
3288.114217,518.144159,-9252.574275,766.095498
3288.114545,1702.473667,-10658.965565,2145.067394
3288.114873,1924.535449,-10436.903782,383.047749
3288.115201,1554.432478,-10658.965565,-766.095498
3288.115528,1480.411884,-8808.450710,-1072.533697
3288.115856,1850.514855,-8216.285956,-612.876398
3288.116184,1406.391290,-11177.109724,995.924147
3288.116511,1480.411884,-10214.842000,0.000000
3288.116839,148.041188,-9918.759623,-306.438199
3288.117167,0.000000,-9030.512492,-612.876398
3288.117495,-148.041188,-8586.388927,-612.876398
3288.117822,0.000000,-9770.718434,536.266849
3288.118150,0.000000,-9622.677246,-383.047749
3288.118478,444.123565,-10807.006753,-689.485948
3288.118806,888.247130,-11177.109724,-995.924147
3288.119133,666.185348,-9770.718434,-459.657299
3288.119461,148.041188,-10436.903782,-612.876398
3288.119789,-148.041188,-9696.697840,-995.924147
3288.120116,-296.082377,-10510.924376,-459.657299
3288.120444,-592.164754,-8882.471304,0.000000
3288.120772,-666.185348,-7994.224174,-306.438199
3288.121100,74.020594,-9400.615463,-383.047749
3288.121427,-518.144159,-9548.656652,0.000000
3288.121755,-1406.391290,-9918.759623,229.828649
3288.122083,0.000000,-9178.553681,-766.095498
3288.122410,1406.391290,-8882.471304,-1378.971896
3288.122738,592.164754,-10732.986159,0.000000
3288.123066,370.102971,-10732.986159,536.266849
3288.123394,370.102971,-10436.903782,995.924147
3288.123721,1406.391290,-9400.615463,612.876398
3288.124049,1184.329507,-8808.450710,0.000000
3288.124377,0.000000,-8956.491898,612.876398
3288.124704,-222.061783,-7772.162391,383.047749
3288.125032,222.061783,-9918.759623,995.924147
3288.125360,-222.061783,-10510.924376,-459.657299
3288.125688,-888.247130,-9548.656652,-2298.286494
3288.126015,-814.226536,-9252.574275,-2221.676944
3288.126343,74.020594,-9474.636058,-1225.752797
3288.126671,370.102971,-11103.089130,842.705048
3288.126998,1776.494261,-9474.636058,919.314598
3288.127326,2590.720797,-8808.450710,995.924147
3288.127654,1702.473667,-10807.006753,383.047749
3288.127982,148.041188,-9992.780217,612.876398
3288.128309,-1480.411884,-9104.533087,-459.657299
3288.128637,-1628.453072,-8586.388927,-1915.238745
3288.128965,-1332.370696,-9400.615463,-2987.772442
3288.129292,-1036.288319,-10955.047942,-919.314598
3288.129620,0.000000,-10288.862594,1378.971896
3288.129948,1110.308913,-11029.068536,1149.143247
3288.130276,1184.329507,-10362.883188,-536.266849
3288.130603,962.267725,-8364.327145,-995.924147
3288.130931,888.247130,-8216.285956,-383.047749
3288.131259,1184.329507,-8882.471304,153.219100
3288.131587,1480.411884,-9992.780217,1225.752797
3288.131914,2294.638420,-9696.697840,306.438199
3288.132242,1924.535449,-9178.553681,306.438199
3288.132570,1554.432478,-11103.089130,153.219100
3288.132897,296.082377,-11251.130318,-306.438199
3288.133225,-814.226536,-10288.862594,-689.485948
3288.133553,-740.205942,-8068.244768,-2451.505594
3288.133881,-666.185348,-7476.080014,-2681.334243
3288.134208,-296.082377,-9252.574275,0.000000
3288.134536,592.164754,-10066.800811,1302.362347
3288.134864,1406.391290,-9992.780217,1762.019645
3288.135191,2960.823768,-10288.862594,0.000000
3288.135519,2664.741391,-9474.636058,-612.876398
3288.135847,1776.494261,-9770.718434,612.876398
3288.136175,1258.350101,-8660.409521,1225.752797
3288.136502,-444.123565,-9474.636058,1225.752797
3288.136830,-444.123565,-9844.739029,0.000000
3288.137158,-518.144159,-8882.471304,-1455.581446
3288.137485,-1110.308913,-10584.944971,-842.705048
3288.137813,-1184.329507,-10436.903782,0.000000
3288.138141,-962.267725,-9400.615463,-383.047749
3288.138469,518.144159,-9178.553681,-1302.362347
3288.138796,814.226536,-10066.800811,-612.876398
3288.139124,1850.514855,-12287.418637,842.705048
3288.139452,962.267725,-10436.903782,919.314598
3288.139779,0.000000,-8956.491898,612.876398
3288.140107,518.144159,-8586.388927,-766.095498
3288.140435,-518.144159,-9622.677246,-919.314598
3288.140763,-1850.514855,-10732.986159,1149.143247
3288.141090,-1776.494261,-10362.883188,0.000000
3288.141418,-1480.411884,-9474.636058,-1685.410096
3288.141746,148.041188,-9252.574275,-2451.505594
3288.142073,0.000000,-7772.162391,-1225.752797
3288.142401,-148.041188,-9326.594869,1378.971896
3288.142729,444.123565,-9844.739029,1915.238745
3288.143057,0.000000,-10140.821405,1072.533697
3288.143384,-444.123565,-9252.574275,76.609550
3288.143712,0.000000,-7254.018232,-536.266849
3288.144040,1036.288319,-9548.656652,-1072.533697
3288.144368,-1332.370696,-10658.965565,0.000000
3288.144695,-1998.556043,-10732.986159,-1302.362347
3288.145023,518.144159,-9992.780217,-3447.429741
3288.145351,1702.473667,-9844.739029,-2451.505594
3288.145678,148.041188,-11251.130318,1608.800546
3288.146006,-296.082377,-11621.233289,1532.190996
3288.146334,-962.267725,-9178.553681,306.438199
3288.146662,0.000000,-8290.306550,-1762.019645
3288.146989,0.000000,-8142.265362,-1378.971896
3288.147317,148.041188,-10140.821405,2221.676944
3288.147645,518.144159,-9400.615463,2911.162892
3288.147972,2072.576638,-9918.759623,0.000000
3288.148300,1628.453072,-10362.883188,-2834.553343
3288.148628,444.123565,-9992.780217,-2528.115143
3288.148956,-888.247130,-10584.944971,229.828649
3288.149283,666.185348,-9400.615463,-229.828649
3288.149611,740.205942,-9696.697840,-306.438199
3288.149939,1554.432478,-10881.027347,383.047749
3288.150266,1406.391290,-8512.368333,1838.629195
3288.150594,1924.535449,-9252.574275,1915.238745
3288.150922,1628.453072,-9030.512492,919.314598
3288.151250,1480.411884,-7698.141797,-1225.752797
3288.151577,1554.432478,-8216.285956,-2145.067394
3288.151905,1332.370696,-9548.656652,-689.485948
3288.152233,1332.370696,-10807.006753,1072.533697
3288.152560,444.123565,-10288.862594,2068.457845
3288.152888,1036.288319,-10436.903782,459.657299
3288.153216,962.267725,-11103.089130,-306.438199
3288.153544,814.226536,-9844.739029,-842.705048
3288.153871,-296.082377,-10066.800811,383.047749
3288.154199,-740.205942,-8734.430116,0.000000
3288.154527,-962.267725,-7550.100608,-1608.800546
3288.154855,370.102971,-8956.491898,-2068.457845
3288.155182,444.123565,-9622.677246,-1532.190996
3288.155510,1776.494261,-11769.274478,766.095498
3288.155838,2294.638420,-11325.150913,995.924147
3288.156165,1628.453072,-10510.924376,612.876398
3288.156493,1628.453072,-10288.862594,383.047749
3288.156821,1406.391290,-9326.594869,1225.752797
3288.157149,296.082377,-9918.759623,1225.752797
3288.157476,-1332.370696,-8364.327145,536.266849
3288.157804,-666.185348,-7994.224174,-1532.190996
3288.158132,444.123565,-9770.718434,-2068.457845
3288.158459,-444.123565,-10066.800811,0.000000
3288.158787,-518.144159,-10362.883188,919.314598
3288.159115,-296.082377,-9844.739029,-229.828649
3288.159443,0.000000,-9992.780217,-995.924147
3288.159770,-296.082377,-10807.006753,-689.485948
3288.160098,0.000000,-8216.285956,0.000000
3288.160426,-518.144159,-8956.491898,766.095498
3288.160753,-962.267725,-9548.656652,306.438199
3288.161081,-1332.370696,-9326.594869,-1378.971896
3288.161409,-1628.453072,-9400.615463,-1302.362347
3288.161737,-1184.329507,-9104.533087,-766.095498
3288.162064,0.000000,-9178.553681,-536.266849
3288.162392,-518.144159,-8734.430116,-459.657299
3288.162720,-740.205942,-10214.842000,153.219100
3288.163047,-296.082377,-10807.006753,612.876398
3288.163375,0.000000,-9178.553681,383.047749
3288.163703,0.000000,-11177.109724,536.266849
3288.164031,0.000000,-10436.903782,-306.438199
3288.164358,888.247130,-9104.533087,-995.924147
3288.164686,1258.350101,-10584.944971,-306.438199
3288.165014,370.102971,-9474.636058,306.438199
3288.165341,296.082377,-8512.368333,306.438199
3288.165669,74.020594,-7994.224174,76.609550
3288.165997,-1628.453072,-10066.800811,1302.362347
3288.166325,-1554.432478,-11473.192101,0.000000
3288.166652,-1258.350101,-8512.368333,-995.924147
3288.166980,-1554.432478,-9104.533087,-1072.533697
3288.167308,-518.144159,-9326.594869,-1149.143247
3288.167636,814.226536,-9770.718434,-766.095498
3288.167963,1924.535449,-10584.944971,-383.047749
3288.168291,2590.720797,-10362.883188,-536.266849
3288.168618,2294.638420,-9474.636058,-689.485948
3288.168946,1258.350101,-9178.553681,153.219100
3288.169274,0.000000,-9400.615463,1838.629195
3288.169601,222.061783,-9326.594869,919.314598
3288.169929,740.205942,-9178.553681,-536.266849
3288.170257,296.082377,-11547.212695,0.000000
3288.170584,888.247130,-10955.047942,0.000000
3288.170912,1924.535449,-9252.574275,-842.705048
3288.171239,2738.761985,-10584.944971,-1915.238745
3288.171567,2442.679609,-9770.718434,-689.485948
3288.171895,2368.659014,-8364.327145,-766.095498
3288.172222,1924.535449,-7846.182985,0.000000
3288.172550,1258.350101,-10140.821405,1532.190996
3288.172878,2442.679609,-11769.274478,1149.143247
3288.173205,1406.391290,-8956.491898,842.705048
3288.173533,666.185348,-9400.615463,1532.190996
3288.173860,444.123565,-11325.150913,842.705048
3288.174188,-592.164754,-10288.862594,-1608.800546
3288.174516,-370.102971,-8290.306550,-2911.162892
3288.174843,-1036.288319,-7402.059420,-3600.648841
3288.175171,-814.226536,-9400.615463,-1225.752797
3288.175499,-444.123565,-8808.450710,306.438199
3288.175826,666.185348,-9474.636058,1455.581446
3288.176154,2220.617826,-10955.047942,1838.629195
3288.176481,2146.597232,-11177.109724,1838.629195
3288.176809,1554.432478,-10584.944971,1685.410096
3288.177137,148.041188,-8438.347739,-153.219100
3288.177464,-1924.535449,-8512.368333,-1302.362347
3288.177792,-2812.782580,-9178.553681,-1532.190996
3288.178120,-1480.411884,-9474.636058,-766.095498
3288.178447,-1406.391290,-8956.491898,-1762.019645
3288.178775,-1184.329507,-9622.677246,76.609550
3288.179102,-592.164754,-10288.862594,689.485948
3288.179430,1184.329507,-10881.027347,536.266849
3288.179758,888.247130,-11251.130318,919.314598
3288.180085,296.082377,-10140.821405,1378.971896
3288.180413,-148.041188,-9104.533087,689.485948
3288.180741,-666.185348,-8882.471304,-306.438199
3288.181068,0.000000,-10214.842000,-1685.410096
3288.181396,-740.205942,-9770.718434,-1685.410096
3288.181724,-740.205942,-10214.842000,-1149.143247
3288.182051,-1184.329507,-9844.739029,-1685.410096
3288.182379,-1406.391290,-9326.594869,-1149.143247
3288.182706,-592.164754,-9030.512492,229.828649
3288.183034,-74.020594,-9474.636058,1072.533697
3288.183362,592.164754,-10881.027347,1302.362347
3288.183689,0.000000,-10436.903782,0.000000
3288.184017,-444.123565,-9326.594869,-995.924147
3288.184345,814.226536,-10140.821405,-1762.019645
3288.184672,74.020594,-10140.821405,-1378.971896
3288.185000,0.000000,-8364.327145,-306.438199
3288.185327,-740.205942,-7698.141797,0.000000
3288.185655,518.144159,-10362.883188,-766.095498
3288.185983,1258.350101,-10955.047942,-306.438199
3288.186310,0.000000,-9474.636058,689.485948
3288.186638,-1480.411884,-10584.944971,1915.238745
3288.186966,-592.164754,-11177.109724,0.000000
3288.187293,2146.597232,-9548.656652,-3370.820191
3288.187621,1998.556043,-7772.162391,-2451.505594
3288.187948,1036.288319,-9030.512492,1302.362347
3288.188276,2516.700203,-10510.924376,2681.334243
3288.188604,2590.720797,-9474.636058,1378.971896
3288.188931,666.185348,-8068.244768,229.828649
3288.189259,444.123565,-8512.368333,-766.095498
3288.189587,-666.185348,-9030.512492,0.000000
3288.189914,0.000000,-11029.068536,0.000000
3288.190242,0.000000,-9770.718434,-1072.533697
3288.190569,666.185348,-9992.780217,-1378.971896
3288.190897,2368.659014,-11325.150913,-612.876398
3288.191225,3108.864956,-9844.739029,-383.047749
3288.191552,1924.535449,-8512.368333,1225.752797
3288.191880,1406.391290,-8364.327145,1455.581446
3288.192208,1110.308913,-8660.409521,1302.362347
3288.192535,1184.329507,-7994.224174,76.609550
3288.192863,-370.102971,-7772.162391,306.438199
3288.193191,-1184.329507,-10584.944971,1072.533697
3288.193518,-592.164754,-13101.645173,-383.047749
3288.193846,592.164754,-12953.603985,-2528.115143
3288.194173,2146.597232,-9622.677246,-3830.477490
3288.194501,1184.329507,-8734.430116,-1149.143247
3288.194829,222.061783,-10288.862594,2451.505594
3288.195156,-296.082377,-9622.677246,1685.410096
3288.195484,-2146.597232,-8216.285956,-153.219100
3288.195812,-1110.308913,-7402.059420,-1762.019645
3288.196139,-2442.679609,-7772.162391,-995.924147
3288.196467,-1924.535449,-11029.068536,842.705048
3288.196794,74.020594,-11029.068536,612.876398
3288.197122,1776.494261,-11991.336260,-842.705048
3288.197450,2590.720797,-11547.212695,-1378.971896
3288.197777,1036.288319,-10362.883188,-459.657299
3288.198105,444.123565,-8882.471304,0.000000
3288.198433,-222.061783,-8290.306550,-153.219100
3288.198760,-1776.494261,-9326.594869,459.657299
3288.199088,-1184.329507,-8586.388927,0.000000
3288.199415,-888.247130,-7476.080014,612.876398
3288.199743,-518.144159,-10510.924376,1608.800546
3288.200071,-1036.288319,-10881.027347,76.609550
3288.200398,-1036.288319,-9770.718434,-2221.676944
3288.200726,296.082377,-9104.533087,-3294.210641
3288.201054,0.000000,-10584.944971,-1149.143247
3288.201381,666.185348,-10584.944971,1378.971896
3288.201709,1702.473667,-9474.636058,1072.533697
3288.202036,518.144159,-9400.615463,459.657299
3288.202364,148.041188,-10066.800811,0.000000
3288.202692,-888.247130,-9030.512492,0.000000
3288.203019,-592.164754,-8586.388927,-383.047749
3288.203347,-518.144159,-9104.533087,-383.047749
3288.203675,-592.164754,-9844.739029,-383.047749
3288.204002,370.102971,-9992.780217,-306.438199
3288.204330,1258.350101,-10140.821405,-689.485948
3288.204657,2294.638420,-10510.924376,-612.876398
3288.204985,1258.350101,-9770.718434,-459.657299
3288.205313,1036.288319,-9326.594869,306.438199
3288.205640,2072.576638,-9622.677246,-459.657299
3288.205968,1332.370696,-10436.903782,1072.533697
3288.206296,2146.597232,-9918.759623,1455.581446
3288.206623,888.247130,-8808.450710,995.924147
3288.206951,148.041188,-11103.089130,-153.219100
3288.207279,0.000000,-11695.253884,-1915.238745
3288.207606,-370.102971,-8660.409521,-2757.943793
3288.207934,-518.144159,-8512.368333,-1532.190996
3288.208261,0.000000,-9844.739029,229.828649
3288.208589,1184.329507,-10436.903782,1685.410096
3288.208917,1554.432478,-9474.636058,1455.581446
3288.209244,740.205942,-9326.594869,919.314598
3288.209572,1480.411884,-9696.697840,0.000000
3288.209900,0.000000,-9474.636058,-459.657299
3288.210227,-666.185348,-8512.368333,536.266849
3288.210555,0.000000,-9104.533087,536.266849
3288.210882,0.000000,-8586.388927,-689.485948
3288.211210,1258.350101,-10807.006753,-306.438199
3288.211538,1258.350101,-11103.089130,-766.095498
3288.211865,-370.102971,-10140.821405,0.000000
3288.212193,148.041188,-9474.636058,76.609550
3288.212521,740.205942,-7994.224174,-1072.533697
3288.212848,0.000000,-8734.430116,306.438199
3288.213176,-296.082377,-10214.842000,383.047749
3288.213503,0.000000,-10584.944971,0.000000
3288.213831,1036.288319,-9770.718434,-1378.971896
3288.214159,740.205942,-9548.656652,-1838.629195
3288.214486,74.020594,-9326.594869,-612.876398
3288.214814,222.061783,-9400.615463,459.657299
3288.215142,370.102971,-11843.295072,229.828649
3288.215469,1628.453072,-10732.986159,-919.314598
3288.215797,740.205942,-8734.430116,-842.705048
3288.216124,0.000000,-9844.739029,383.047749
3288.216452,-1776.494261,-10362.883188,612.876398
3288.216780,-2368.659014,-10584.944971,153.219100
3288.217107,-740.205942,-9030.512492,-2145.067394
3288.217435,-740.205942,-7550.100608,-3064.381992
3288.217763,-740.205942,-8512.368333,-612.876398
3288.218090,-296.082377,-10214.842000,612.876398
3288.218418,-592.164754,-11325.150913,1302.362347
3288.218746,888.247130,-10807.006753,0.000000
3288.219073,518.144159,-9474.636058,-612.876398
3288.219401,222.061783,-9400.615463,0.000000
3288.219728,1184.329507,-9918.759623,306.438199
3288.220056,592.164754,-10288.862594,459.657299
3288.220384,1850.514855,-9696.697840,-919.314598
3288.220711,1332.370696,-7772.162391,-1608.800546
3288.221039,1036.288319,-7476.080014,0.000000
3288.221367,370.102971,-9326.594869,1685.410096
3288.221694,-148.041188,-10955.047942,1685.410096
3288.222022,1554.432478,-10214.842000,612.876398
3288.222349,2294.638420,-8808.450710,-1149.143247
3288.222677,1554.432478,-11843.295072,-919.314598
3288.223005,1406.391290,-12139.377449,306.438199
3288.223332,1258.350101,-9548.656652,0.000000
3288.223660,1702.473667,-8734.430116,-1838.629195
3288.223988,592.164754,-8660.409521,-2298.286494
3288.224315,-370.102971,-8734.430116,229.828649
3288.224643,-370.102971,-8734.430116,1455.581446
3288.224970,0.000000,-9770.718434,766.095498
3288.225298,1924.535449,-9992.780217,-459.657299
3288.225626,1258.350101,-9030.512492,-459.657299
3288.225953,888.247130,-9770.718434,229.828649
3288.226281,1036.288319,-10881.027347,-153.219100
3288.226609,2220.617826,-10510.924376,-1532.190996
3288.226936,1332.370696,-8734.430116,-1302.362347
3288.227264,0.000000,-10658.965565,-766.095498
3288.227591,-296.082377,-11843.295072,229.828649
3288.227919,296.082377,-9992.780217,-229.828649
3288.228247,592.164754,-8734.430116,-689.485948
3288.228574,0.000000,-9844.739029,229.828649
3288.228902,222.061783,-9770.718434,919.314598
3288.229230,74.020594,-8512.368333,1685.410096
3288.229557,0.000000,-10214.842000,306.438199
3288.229885,-666.185348,-10436.903782,-1149.143247
3288.230212,222.061783,-8068.244768,-2221.676944
3288.230540,-1110.308913,-7402.059420,-306.438199
3288.230868,-1480.411884,-8956.491898,1225.752797
3288.231195,-1258.350101,-9696.697840,1532.190996
3288.231523,-740.205942,-9770.718434,842.705048
3288.231851,1554.432478,-9622.677246,0.000000
3288.232178,1850.514855,-9992.780217,0.000000
3288.232506,592.164754,-10584.944971,1838.629195
3288.232834,-518.144159,-9992.780217,1532.190996
3288.233161,-888.247130,-9474.636058,-1532.190996
3288.233489,0.000000,-7846.182985,-3294.210641
3288.233816,-888.247130,-8142.265362,-1685.410096
3288.234144,-1702.473667,-10362.883188,689.485948
3288.234472,-296.082377,-11103.089130,689.485948
3288.234799,518.144159,-11251.130318,0.000000
3288.235127,1554.432478,-8734.430116,-1532.190996
3288.235455,592.164754,-7698.141797,-612.876398
3288.235782,-370.102971,-9696.697840,1991.848295
3288.236110,592.164754,-10362.883188,0.000000
3288.236437,148.041188,-10288.862594,-1608.800546
3288.236765,296.082377,-8956.491898,-2604.724693
3288.237093,-148.041188,-9548.656652,-995.924147
3288.237420,-666.185348,-9918.759623,995.924147
3288.237748,0.000000,-9770.718434,153.219100
3288.238076,-1702.473667,-10140.821405,-536.266849
3288.238403,-518.144159,-9178.553681,-2451.505594
3288.238731,-814.226536,-9178.553681,-919.314598
3288.239058,0.000000,-9992.780217,842.705048
3288.239386,1702.473667,-10732.986159,766.095498
3288.239714,1332.370696,-11547.212695,919.314598
3288.240041,3330.926739,-10066.800811,-689.485948
3288.240369,2590.720797,-8438.347739,-229.828649
3288.240697,1332.370696,-8956.491898,842.705048
3288.241024,740.205942,-9252.574275,612.876398
3288.241352,-518.144159,-8956.491898,76.609550
3288.241679,444.123565,-8068.244768,-842.705048
3288.242007,370.102971,-9104.533087,459.657299
3288.242335,-296.082377,-11029.068536,1915.238745
3288.242662,592.164754,-10732.986159,76.609550
3288.242990,1184.329507,-10066.800811,-2068.457845
3288.243318,3256.906145,-10140.821405,-2757.943793
3288.243645,2294.638420,-10807.006753,-1149.143247
3288.243973,1036.288319,-9252.574275,1455.581446
3288.244300,1628.453072,-7624.121203,1302.362347
3288.244628,148.041188,-9844.739029,1225.752797
3288.244956,-148.041188,-9326.594869,383.047749
3288.245283,-1628.453072,-7772.162391,-229.828649
3288.245611,-1850.514855,-9326.594869,-766.095498
3288.245939,0.000000,-11029.068536,-1378.971896
3288.246266,148.041188,-10436.903782,-1532.190996
3288.246594,3627.009116,-9252.574275,-1225.752797
3288.246922,3108.864956,-8660.409521,76.609550
3288.247249,962.267725,-9622.677246,2451.505594
3288.247577,370.102971,-9548.656652,2298.286494
3288.247904,-740.205942,-10140.821405,-306.438199
3288.248232,0.000000,-8068.244768,-2451.505594
3288.248560,-962.267725,-9252.574275,-383.047749
3288.248887,-592.164754,-12139.377449,1608.800546
3288.249215,814.226536,-12361.439231,459.657299
3288.249543,-1036.288319,-10955.047942,-1532.190996
3288.249870,-222.061783,-10362.883188,-3830.477490
3288.250198,-1406.391290,-9622.677246,-2528.115143
3288.250525,-1258.350101,-7402.059420,-306.438199
3288.250853,-740.205942,-7476.080014,1225.752797
3288.251181,-1258.350101,-9400.615463,2451.505594
3288.251508,666.185348,-9696.697840,2681.334243
3288.251836,518.144159,-8586.388927,1149.143247
3288.252164,0.000000,-9474.636058,995.924147
3288.252491,-296.082377,-10066.800811,0.000000
3288.252819,-1480.411884,-9622.677246,-1378.971896
3288.253146,74.020594,-9770.718434,-3064.381992
3288.253474,148.041188,-10362.883188,-2221.676944
3288.253802,666.185348,-9474.636058,0.000000
3288.254129,1110.308913,-9844.739029,995.924147
3288.254457,-1480.411884,-10807.006753,995.924147
3288.254785,-1110.308913,-8956.491898,0.000000
3288.255112,-74.020594,-7402.059420,-919.314598
3288.255440,444.123565,-8956.491898,229.828649
3288.255767,1628.453072,-10436.903782,766.095498
3288.256095,222.061783,-11399.171507,842.705048
3288.256423,1776.494261,-9844.739029,-689.485948
3288.256750,1776.494261,-9400.615463,-2451.505594
3288.257078,1480.411884,-10732.986159,-2374.896044
3288.257406,1110.308913,-10955.047942,-689.485948
3288.257733,1036.288319,-10288.862594,689.485948
3288.258061,1628.453072,-9770.718434,1302.362347
3288.258389,592.164754,-9474.636058,2221.676944
3288.258716,-1554.432478,-8216.285956,2068.457845
3288.259044,-2294.638420,-8956.491898,-459.657299
3288.259371,-3330.926739,-10214.842000,-2145.067394
3288.259699,-1332.370696,-9030.512492,-4213.525239
3288.260027,-962.267725,-7994.224174,-3447.429741
3288.260354,74.020594,-10362.883188,-842.705048
3288.260682,2368.659014,-12509.480420,1149.143247
3288.261010,2664.741391,-12213.398043,2451.505594
3288.261337,3552.988522,-9104.533087,1225.752797
3288.261665,3552.988522,-8660.409521,0.000000
3288.261992,2072.576638,-9104.533087,1149.143247
3288.262320,1332.370696,-9030.512492,1762.019645
3288.262648,-148.041188,-9474.636058,1455.581446
3288.262975,1110.308913,-8142.265362,-1072.533697
3288.263303,1110.308913,-8734.430116,-2221.676944
3288.263631,0.000000,-10510.924376,-689.485948
3288.263958,-296.082377,-9622.677246,-689.485948
3288.264286,-148.041188,-10510.924376,-153.219100
3288.264613,2368.659014,-11473.192101,-459.657299
3288.264941,2442.679609,-11843.295072,306.438199
3288.265269,518.144159,-10658.965565,2068.457845
3288.265596,-518.144159,-8956.491898,1225.752797
3288.265924,-962.267725,-9400.615463,-612.876398
3288.266252,962.267725,-9400.615463,-3217.601092
3288.266579,-592.164754,-8956.491898,-2068.457845
3288.266907,-1480.411884,-8586.388927,842.705048
3288.267234,-370.102971,-8882.471304,766.095498
3288.267562,0.000000,-9770.718434,1072.533697
3288.267890,1628.453072,-8586.388927,-919.314598
3288.268217,0.000000,-9696.697840,766.095498
3288.268545,-2146.597232,-11843.295072,1991.848295
3288.268873,-666.185348,-10362.883188,-919.314598
3288.269200,0.000000,-9548.656652,-3294.210641
3288.269528,1184.329507,-9696.697840,-1915.238745
3288.269856,518.144159,-9770.718434,1072.533697
3288.270183,666.185348,-10140.821405,2681.334243
3288.270511,592.164754,-9696.697840,0.000000
3288.270839,-962.267725,-9400.615463,-995.924147
3288.271166,-1110.308913,-8364.327145,-1302.362347
3288.271494,-1776.494261,-8142.265362,306.438199
3288.271822,-1110.308913,-8290.306550,919.314598
3288.272149,-740.205942,-9918.759623,229.828649
3288.272477,-1110.308913,-11177.109724,689.485948
3288.272805,2960.823768,-9474.636058,-153.219100
3288.273132,4293.194464,-8438.347739,-689.485948
3288.273460,2220.617826,-9992.780217,2374.896044
3288.273788,888.247130,-10362.883188,1838.629195
3288.274115,-444.123565,-8216.285956,-689.485948
3288.274443,222.061783,-8216.285956,-2374.896044
3288.274771,-444.123565,-10214.842000,-995.924147
3288.275098,-444.123565,-11917.315666,1225.752797
3288.275426,296.082377,-11843.295072,0.000000
3288.275754,74.020594,-11917.315666,-2451.505594
3288.276081,518.144159,-10584.944971,-3294.210641
3288.276409,-370.102971,-9252.574275,-1225.752797
3288.276737,518.144159,-7772.162391,536.266849
3288.277064,962.267725,-7402.059420,612.876398
3288.277392,962.267725,-9548.656652,919.314598
3288.277720,2368.659014,-10732.986159,1455.581446
3288.278047,3034.844362,-10436.903782,689.485948
3288.278375,592.164754,-9474.636058,1378.971896
3288.278703,0.000000,-9844.739029,689.485948
3288.279030,-1702.473667,-9400.615463,-1302.362347
3288.279358,-1036.288319,-9548.656652,-2834.553343
3288.279686,-1850.514855,-9474.636058,-2374.896044
3288.280013,-1184.329507,-9770.718434,-1149.143247
3288.280341,-1110.308913,-9252.574275,306.438199
3288.280669,-518.144159,-9474.636058,536.266849
3288.280996,1258.350101,-7772.162391,0.000000
3288.281324,1776.494261,-9178.553681,842.705048
3288.281652,1480.411884,-10288.862594,2451.505594
3288.281979,2146.597232,-10066.800811,536.266849
3288.282307,962.267725,-9326.594869,-153.219100
3288.282635,1628.453072,-9030.512492,-766.095498
3288.282962,444.123565,-9770.718434,-689.485948
3288.283290,-444.123565,-10658.965565,-229.828649
3288.283618,370.102971,-10362.883188,-612.876398
3288.283945,592.164754,-9770.718434,-1225.752797
3288.284273,1480.411884,-9474.636058,0.000000
3288.284601,666.185348,-10140.821405,1225.752797
3288.284928,0.000000,-9326.594869,2221.676944
3288.285256,370.102971,-10214.842000,536.266849
3288.285584,0.000000,-11843.295072,-919.314598
3288.285911,1628.453072,-9474.636058,-2451.505594
3288.286239,0.000000,-9844.739029,-1608.800546
3288.286567,-1850.514855,-10732.986159,-766.095498
3288.286894,-1406.391290,-9030.512492,-919.314598
3288.287222,-1850.514855,-8068.244768,-1072.533697
3288.287550,-592.164754,-8586.388927,-383.047749
3288.287877,0.000000,-9326.594869,459.657299
3288.288205,1110.308913,-9030.512492,1378.971896
3288.288533,2146.597232,-10214.842000,306.438199
3288.288860,1258.350101,-10362.883188,0.000000
3288.289188,2220.617826,-9326.594869,-1072.533697
3288.289516,222.061783,-8438.347739,0.000000
3288.289843,-1110.308913,-10807.006753,1225.752797
3288.290171,-740.205942,-10955.047942,0.000000
3288.290499,-1184.329507,-10510.924376,-536.266849
3288.290826,370.102971,-8364.327145,-1838.629195
3288.291154,-1036.288319,-8586.388927,-612.876398
3288.291482,-592.164754,-10362.883188,1762.019645
3288.291809,592.164754,-10436.903782,689.485948
3288.292137,-444.123565,-9548.656652,-153.219100
3288.292465,-148.041188,-8364.327145,-842.705048
3288.292792,296.082377,-8216.285956,-995.924147
3288.293120,296.082377,-8808.450710,1455.581446
3288.293448,2072.576638,-9030.512492,919.314598
3288.293775,1258.350101,-9844.739029,306.438199
3288.294103,740.205942,-10510.924376,229.828649
3288.294431,1480.411884,-10140.821405,-229.828649
3288.294758,1332.370696,-9326.594869,-766.095498
3288.295086,444.123565,-11177.109724,76.609550
3288.295414,-740.205942,-12361.439231,0.000000
3288.295741,814.226536,-9696.697840,-2451.505594
3288.296069,592.164754,-8364.327145,-2068.457845
3288.296397,444.123565,-9696.697840,459.657299
3288.296724,1628.453072,-9252.574275,1838.629195
3288.297052,0.000000,-8512.368333,1838.629195
3288.297380,-1110.308913,-9252.574275,383.047749
3288.297707,-296.082377,-8438.347739,-1455.581446
3288.298035,1554.432478,-10584.944971,-2145.067394
3288.298363,2886.803174,-11547.212695,-459.657299
3288.298690,1776.494261,-11991.336260,459.657299
3288.299018,1628.453072,-10436.903782,612.876398
3288.299346,1332.370696,-8808.450710,-306.438199
3288.299673,-592.164754,-8216.285956,-766.095498
3288.300001,-2368.659014,-7994.224174,-766.095498
3288.300329,-4441.235652,-9178.553681,0.000000
3288.300656,-3256.906145,-8438.347739,-1302.362347
3288.300984,-1184.329507,-8882.471304,-2374.896044
3288.301312,592.164754,-11843.295072,-1072.533697
3288.301639,2368.659014,-12509.480420,1072.533697
3288.301967,1850.514855,-12287.418637,1225.752797
3288.302295,1924.535449,-9548.656652,-536.266849
3288.302622,2294.638420,-8216.285956,-1991.848295
3288.302950,888.247130,-8438.347739,76.609550
3288.303278,0.000000,-8734.430116,1378.971896
3288.303605,-1998.556043,-9696.697840,2298.286494
3288.303933,-518.144159,-9178.553681,459.657299
3288.304261,222.061783,-8586.388927,-1838.629195
3288.304588,-888.247130,-11769.274478,-995.924147
3288.304916,0.000000,-11769.274478,-995.924147
3288.305244,296.082377,-10214.842000,-1072.533697
3288.305571,2442.679609,-10288.862594,-1225.752797
3288.305899,2738.761985,-10510.924376,-689.485948
3288.306227,74.020594,-9326.594869,1302.362347
3288.306554,-444.123565,-8068.244768,1608.800546
3288.306882,-1628.453072,-9548.656652,153.219100
3288.307210,-1258.350101,-9178.553681,-1762.019645
3288.307537,-1480.411884,-7179.997637,-1915.238745
3288.307865,-1924.535449,-9400.615463,0.000000
