#time,accel_x,accel_y,accel_z
3420.521287,370.102971,-9622.677246,-383.047749
3420.521615,666.185348,-9696.697840,-306.438199
3420.521943,814.226536,-9992.780217,-383.047749
3420.522271,888.247130,-9918.759623,-153.219100
3420.522598,666.185348,-9622.677246,0.000000
3420.522926,888.247130,-9326.594869,0.000000
3420.523254,666.185348,-9474.636058,153.219100
3420.523581,666.185348,-9474.636058,-612.876398
3420.523909,518.144159,-9770.718434,-1532.190996
3420.524237,0.000000,-9844.739029,-766.095498
3420.524565,148.041188,-10436.903782,-766.095498
3420.524892,296.082377,-10362.883188,-766.095498
3420.525220,888.247130,-11177.109724,-689.485948
3420.525548,666.185348,-9992.780217,153.219100
3420.525875,666.185348,-9918.759623,229.828649
3420.526203,740.205942,-9992.780217,-306.438199
3420.526531,444.123565,-9622.677246,76.609550
3420.526859,444.123565,-9622.677246,0.000000
3420.527186,0.000000,-9400.615463,0.000000
3420.527514,148.041188,-9548.656652,-383.047749
3420.527842,-222.061783,-9474.636058,-612.876398
3420.528169,0.000000,-9696.697840,-995.924147
3420.528497,0.000000,-9770.718434,-689.485948
3420.528825,0.000000,-9770.718434,0.000000
3420.529153,222.061783,-9918.759623,229.828649
3420.529480,444.123565,-9770.718434,612.876398
3420.529808,592.164754,-9178.553681,995.924147
3420.530136,518.144159,-8734.430116,919.314598
3420.530463,370.102971,-9474.636058,612.876398
3420.530791,0.000000,-9326.594869,689.485948
3420.531119,0.000000,-8956.491898,76.609550
3420.531447,-148.041188,-9400.615463,76.609550
3420.531774,0.000000,-9474.636058,-229.828649
3420.532102,0.000000,-9252.574275,-306.438199
3420.532430,296.082377,-9844.739029,0.000000
3420.532757,592.164754,-9992.780217,-536.266849
3420.533085,888.247130,-10140.821405,-689.485948
3420.533413,740.205942,-10066.800811,0.000000
3420.533741,740.205942,-9622.677246,0.000000
3420.534068,888.247130,-9622.677246,-153.219100
3420.534396,592.164754,-9474.636058,-153.219100
3420.534724,148.041188,-9400.615463,-612.876398
3420.535051,0.000000,-9548.656652,-1149.143247
3420.535379,222.061783,-10066.800811,-1072.533697
3420.535707,74.020594,-10214.842000,-919.314598
3420.536034,222.061783,-10362.883188,-1072.533697
3420.536362,518.144159,-10584.944971,-766.095498
3420.536690,888.247130,-10955.047942,0.000000
3420.537018,888.247130,-10510.924376,153.219100
3420.537345,962.267725,-9252.574275,-306.438199
3420.537673,888.247130,-9474.636058,0.000000
3420.538001,1628.453072,-9474.636058,0.000000
3420.538328,2294.638420,-9030.512492,0.000000
3420.538656,2886.803174,-8586.388927,-306.438199
3420.538984,3330.926739,-8734.430116,0.000000
3420.539312,4737.318029,-9770.718434,-306.438199
3420.539639,5699.585753,-9474.636058,0.000000
3420.539967,6143.709319,-9178.553681,76.609550
3420.540295,7476.080014,-9622.677246,306.438199
3420.540622,8438.347739,-10140.821405,153.219100
3420.540950,8808.450710,-10436.903782,995.924147
3420.541278,8438.347739,-10362.883188,2298.286494
3420.541606,8660.409521,-8956.491898,919.314598
3420.541933,8734.430116,-8808.450710,612.876398
3420.542261,8808.450710,-8586.388927,76.609550
3420.542589,8956.491898,-8290.306550,383.047749
3420.542916,10214.842000,-8438.347739,153.219100
3420.543244,10955.047942,-8956.491898,-153.219100
3420.543572,11399.171507,-10140.821405,0.000000
3420.543900,11473.192101,-9474.636058,76.609550
3420.544227,11177.109724,-8808.450710,229.828649
3420.544555,11695.253884,-9326.594869,612.876398
3420.544883,12435.459826,-10362.883188,0.000000
3420.545210,13471.748144,-10436.903782,0.000000
3420.545538,14730.098246,-9696.697840,229.828649
3420.545866,14878.139434,-9104.533087,995.924147
3420.546194,14359.995275,-9548.656652,0.000000
3420.546521,13323.706956,-9104.533087,76.609550
3420.546849,12805.562797,-8882.471304,-766.095498
3420.547177,11917.315666,-10362.883188,-995.924147
3420.547504,12065.356855,-10881.027347,-306.438199
3420.547832,13027.624579,-9918.759623,153.219100
3420.548160,13249.686362,-9548.656652,919.314598
3420.548488,13323.706956,-9918.759623,689.485948
3420.548815,12287.418637,-9844.739029,1378.971896
3420.549143,11769.274478,-10214.842000,536.266849
3420.549471,10066.800811,-9844.739029,-612.876398
3420.549798,8290.306550,-9030.512492,-1149.143247
3420.550126,7031.956449,-8882.471304,-766.095498
3420.550454,6883.915261,-8290.306550,0.000000
3420.550782,8290.306550,-8808.450710,-1072.533697
3420.551109,9622.677246,-10658.965565,0.000000
3420.551437,9844.739029,-11695.253884,612.876398
3420.551765,9918.759623,-10881.027347,612.876398
3420.552092,9252.574275,-8808.450710,536.266849
3420.552420,8734.430116,-7328.038826,919.314598
3420.552748,9474.636058,-8216.285956,1838.629195
3420.553076,9918.759623,-9548.656652,1608.800546
3420.553403,9326.594869,-11029.068536,1838.629195
3420.553731,9474.636058,-9548.656652,842.705048
3420.554059,8586.388927,-8290.306550,-612.876398
3420.554386,6439.791695,-9622.677246,-612.876398
3420.554714,6143.709319,-10732.986159,-919.314598
3420.555042,6883.915261,-10214.842000,-995.924147
3420.555370,8734.430116,-8882.471304,-1608.800546
3420.555697,10807.006753,-9030.512492,-306.438199
3420.556025,10214.842000,-9252.574275,1455.581446
3420.556353,7846.182985,-7920.203579,2757.943793
3420.556680,7550.100608,-8068.244768,2068.457845
3420.557008,9474.636058,-9104.533087,-1149.143247
3420.557336,11103.089130,-10140.821405,-2681.334243
3420.557664,10584.944971,-9548.656652,-1302.362347
3420.557991,9474.636058,-9548.656652,536.266849
3420.558319,9548.656652,-11695.253884,-383.047749
3420.558647,8882.471304,-11177.109724,-1225.752797
3420.558974,8216.285956,-8808.450710,-1685.410096
3420.559302,8956.491898,-8586.388927,-1608.800546
3420.559630,11029.068536,-9474.636058,-459.657299
3420.559957,12213.398043,-11029.068536,612.876398
3420.560285,12139.377449,-10436.903782,1915.238745
3420.560613,10658.965565,-7772.162391,1225.752797
3420.560941,9992.780217,-7105.977043,-612.876398
3420.561268,8956.491898,-8882.471304,-842.705048
3420.561596,11177.109724,-10288.862594,-1302.362347
3420.561924,14434.015869,-9326.594869,-2451.505594
3420.562251,14508.036463,-9622.677246,76.609550
3420.562579,13323.706956,-12361.439231,2451.505594
3420.562907,13767.830521,-11029.068536,2145.067394
3420.563235,14063.912898,-9622.677246,0.000000
3420.563562,12435.459826,-10288.862594,-1225.752797
3420.563890,11843.295072,-9992.780217,-1149.143247
3420.564218,12583.501014,-9400.615463,612.876398
3420.564545,10732.986159,-7624.121203,4443.353888
3420.564873,9548.656652,-6883.915261,4519.963438
3420.565201,5921.647536,-9104.533087,1378.971896
3420.565529,3923.091493,-10362.883188,-306.438199
3420.565856,5403.503377,-7846.182985,-3294.210641
3420.566184,6735.874072,-7031.956449,-4290.134789
3420.566512,7105.977043,-8290.306550,0.000000
3420.566839,9844.739029,-11547.212695,2451.505594
3420.567167,10881.027347,-11769.274478,2068.457845
3420.567495,9770.718434,-11547.212695,1991.848295
3420.567823,8438.347739,-12731.542202,612.876398
3420.568150,7328.038826,-10881.027347,-1532.190996
3420.568478,4515.256246,-9696.697840,-1072.533697
3420.568806,1628.453072,-9252.574275,76.609550
3420.569133,962.267725,-8808.450710,1685.410096
3420.569461,518.144159,-10510.924376,2911.162892
3420.569789,74.020594,-8068.244768,995.924147
3420.570117,-1258.350101,-8290.306550,229.828649
3420.570444,-2664.741391,-8142.265362,-536.266849
3420.570772,-1850.514855,-7105.977043,-1685.410096
3420.571100,-1332.370696,-6809.894666,-1685.410096
3420.571427,-740.205942,-8660.409521,-306.438199
3420.571755,1702.473667,-9622.677246,1608.800546
3420.572083,3552.988522,-9992.780217,76.609550
3420.572411,5033.400406,-13989.892304,-1072.533697
3420.572738,6365.771101,-15248.242405,-2298.286494
3420.573066,3034.844362,-14063.912898,-995.924147
3420.573394,-1036.288319,-11621.233289,1072.533697
3420.573721,-2590.720797,-8734.430116,459.657299
3420.574049,-4885.359217,-7105.977043,-536.266849
3420.574377,-6291.750507,-6883.915261,383.047749
3420.574705,-6587.832884,-5329.482782,-842.705048
3420.575032,-6217.729913,-5033.400406,-689.485948
3420.575360,-5255.462188,-6735.874072,0.000000
3420.575688,-1924.535449,-8142.265362,-306.438199
3420.576015,-888.247130,-7994.224174,0.000000
3420.576343,444.123565,-9400.615463,0.000000
3420.576671,1258.350101,-11325.150913,-1608.800546
3420.576999,2590.720797,-13175.665768,-3447.429741
3420.577326,3478.967927,-14952.160028,-1685.410096
3420.577654,3330.926739,-13101.645173,-459.657299
3420.577982,4071.132681,-11769.274478,0.000000
3420.578309,2072.576638,-12657.521608,383.047749
3420.578637,1998.556043,-12139.377449,0.000000
3420.578965,-296.082377,-8068.244768,-1838.629195
3420.579293,-1110.308913,-5329.482782,-1378.971896
3420.579620,-1554.432478,-4071.132681,-536.266849
3420.579948,222.061783,-6957.935855,1225.752797
3420.580276,814.226536,-6069.688724,2068.457845
3420.580603,3701.029710,-6439.791695,-306.438199
3420.580931,5995.668130,-10732.986159,-383.047749
3420.581259,7031.956449,-13989.892304,-1072.533697
3420.581586,5921.647536,-14285.974681,153.219100
3420.581914,4811.338623,-13027.624579,689.485948
3420.582242,5477.523971,-13175.665768,-1302.362347
3420.582570,3034.844362,-13323.706956,-1302.362347
3420.582897,444.123565,-11399.171507,842.705048
3420.583225,-814.226536,-7105.977043,306.438199
3420.583553,-740.205942,-5847.626942,306.438199
3420.583880,-1554.432478,-6439.791695,536.266849
3420.584208,-4145.153275,-7550.100608,1991.848295
3420.584536,-4515.256246,-5551.544565,1762.019645
3420.584864,-740.205942,-5033.400406,-1608.800546
3420.585191,888.247130,-7476.080014,-2451.505594
3420.585519,4145.153275,-11251.130318,-1225.752797
3420.585847,4959.379811,-12139.377449,2451.505594
3420.586174,5921.647536,-14211.954086,2681.334243
3420.586502,4589.276840,-14878.139434,842.705048
3420.586830,3256.906145,-16210.510130,-1685.410096
3420.587157,-2812.782580,-12583.501014,-1532.190996
3420.587485,-5255.462188,-8216.285956,-1991.848295
3420.587813,-5107.421000,-7920.203579,-2528.115143
3420.588140,-6069.688724,-7328.038826,-766.095498
3420.588468,-5477.523971,-5773.606348,1762.019645
3420.588796,0.000000,-4737.318029,1455.581446
3420.589124,1258.350101,-5921.647536,2757.943793
3420.589451,2738.761985,-8660.409521,2681.334243
3420.589779,3182.885551,-7994.224174,1532.190996
3420.590107,-296.082377,-6513.812290,689.485948
3420.590434,-1998.556043,-10066.800811,-306.438199
3420.590762,-1480.411884,-12509.480420,-1838.629195
3420.591090,-2368.659014,-14804.118840,-1149.143247
3420.591417,-1924.535449,-14582.057057,-2374.896044
3420.591745,-2442.679609,-13027.624579,-4366.744339
3420.592073,-4515.256246,-12805.562797,-2757.943793
3420.592400,-3997.112087,-11251.130318,-2528.115143
3420.592728,-3404.947333,-6513.812290,-1532.190996
3420.593056,-3108.864956,-3478.967927,-306.438199
3420.593384,-2072.576638,-4219.173869,1149.143247
3420.593711,592.164754,-6365.771101,2145.067394
3420.594039,2442.679609,-7402.059420,3370.820191
3420.594367,4145.153275,-8882.471304,3907.087040
3420.594694,5255.462188,-11991.336260,1991.848295
3420.595022,4293.194464,-13471.748144,-1378.971896
3420.595350,2072.576638,-13175.665768,-2604.724693
3420.595677,2516.700203,-13101.645173,-4519.963438
3420.596005,814.226536,-14730.098246,-3907.087040
3420.596333,-962.267725,-13545.768739,-2145.067394
3420.596660,-1110.308913,-9326.594869,0.000000
3420.596988,-2146.597232,-7105.977043,0.000000
3420.597316,-1406.391290,-7254.018232,1455.581446
3420.597644,-666.185348,-6439.791695,0.000000
3420.597971,296.082377,-4737.318029,-995.924147
3420.598299,1184.329507,-5477.523971,-383.047749
3420.598627,4219.173869,-8068.244768,536.266849
3420.598954,4071.132681,-8882.471304,2145.067394
3420.599282,3701.029710,-9844.739029,2451.505594
3420.599610,5625.565159,-12435.459826,229.828649
3420.599937,6735.874072,-14582.057057,-1991.848295
3420.600265,4219.173869,-14730.098246,-842.705048
3420.600593,1406.391290,-12139.377449,-842.705048
3420.600920,-222.061783,-9548.656652,-229.828649
3420.601248,-1628.453072,-8068.244768,229.828649
3420.601576,-3997.112087,-9474.636058,536.266849
3420.601904,-3997.112087,-7994.224174,-536.266849
3420.602231,-2368.659014,-4737.318029,-2298.286494
3420.602559,666.185348,-6883.915261,-2221.676944
3420.602887,1554.432478,-8734.430116,1455.581446
3420.603214,2294.638420,-10288.862594,3677.258390
3420.603542,2146.597232,-11843.295072,3983.696590
3420.603870,3034.844362,-11103.089130,0.000000
3420.604197,222.061783,-12065.356855,-2298.286494
3420.604525,-740.205942,-13101.645173,-766.095498
3420.604853,-814.226536,-10584.944971,76.609550
3420.605180,-1924.535449,-9548.656652,-306.438199
3420.605508,-3404.947333,-10658.965565,0.000000
3420.605836,-1776.494261,-9326.594869,-1149.143247
3420.606164,-1850.514855,-8512.368333,-612.876398
3420.606491,-1036.288319,-7920.203579,1225.752797
3420.606819,0.000000,-4515.256246,153.219100
3420.607147,-2664.741391,-4737.318029,612.876398
3420.607474,-3849.070898,-8660.409521,1455.581446
3420.607802,-2072.576638,-9474.636058,689.485948
3420.608130,1702.473667,-9104.533087,0.000000
3420.608457,2368.659014,-11843.295072,919.314598
3420.608785,1258.350101,-14137.933492,-153.219100
3420.609113,-1036.288319,-13545.768739,-2451.505594
3420.609440,-2516.700203,-10584.944971,-2987.772442
3420.609768,-2738.761985,-9622.677246,-2911.162892
3420.610096,-3552.988522,-9030.512492,-2068.457845
3420.610424,-3108.864956,-7772.162391,-306.438199
3420.610751,-1480.411884,-7624.121203,995.924147
3420.611079,1184.329507,-8734.430116,-766.095498
3420.611407,2146.597232,-10214.842000,0.000000
3420.611734,1850.514855,-10436.903782,2987.772442
3420.612062,3256.906145,-7254.018232,1302.362347
3420.612390,3256.906145,-8142.265362,-1072.533697
3420.612717,2738.761985,-11843.295072,-1455.581446
3420.613045,2738.761985,-14359.995275,-1302.362347
3420.613373,2294.638420,-11325.150913,-1532.190996
3420.613700,1036.288319,-9474.636058,-383.047749
3420.614028,-592.164754,-12213.398043,-995.924147
3420.614356,-1998.556043,-13027.624579,-1225.752797
3420.614684,-2886.803174,-9178.553681,-2221.676944
3420.615011,-1036.288319,-6291.750507,-3140.991542
3420.615339,-148.041188,-7105.977043,-1608.800546
3420.615667,962.267725,-9252.574275,2681.334243
3420.615994,3330.926739,-6957.935855,4060.306139
3420.616322,3775.050304,-6883.915261,3217.601092
3420.616650,4367.215058,-9548.656652,2374.896044
3420.616977,4441.235652,-9918.759623,1302.362347
3420.617305,3330.926739,-10066.800811,536.266849
3420.617633,1776.494261,-10510.924376,0.000000
3420.617960,1110.308913,-10140.821405,0.000000
3420.618288,-1628.453072,-9474.636058,1149.143247
3420.618616,-3478.967927,-11843.295072,229.828649
3420.618944,-2146.597232,-10362.883188,-2681.334243
3420.619271,-592.164754,-8216.285956,-4136.915689
3420.619599,148.041188,-8216.285956,-2068.457845
3420.619927,518.144159,-9622.677246,1149.143247
3420.620254,444.123565,-7254.018232,2528.115143
3420.620582,888.247130,-8216.285956,3370.820191
3420.620910,1332.370696,-9770.718434,0.000000
3420.621237,1628.453072,-10584.944971,-1838.629195
3420.621565,444.123565,-10140.821405,-919.314598
3420.621893,1184.329507,-9622.677246,-459.657299
3420.622220,1110.308913,-11843.295072,-995.924147
3420.622548,-296.082377,-12657.521608,-612.876398
3420.622876,-740.205942,-11029.068536,459.657299
3420.623204,222.061783,-9252.574275,-612.876398
3420.623531,-148.041188,-10214.842000,-153.219100
3420.623859,0.000000,-9252.574275,0.000000
3420.624187,-592.164754,-6735.874072,383.047749
3420.624514,-2664.741391,-7105.977043,766.095498
3420.624842,-2368.659014,-8882.471304,689.485948
3420.625170,-222.061783,-9400.615463,0.000000
3420.625497,-740.205942,-9844.739029,153.219100
3420.625825,-1332.370696,-10140.821405,-229.828649
3420.626153,-888.247130,-11325.150913,-2987.772442
3420.626480,-1184.329507,-12139.377449,-1378.971896
3420.626808,-814.226536,-10881.027347,-383.047749
3420.627136,1036.288319,-7772.162391,76.609550
3420.627464,0.000000,-7772.162391,1072.533697
3420.627791,296.082377,-9918.759623,1072.533697
3420.628119,592.164754,-9992.780217,229.828649
3420.628447,0.000000,-8364.327145,689.485948
3420.628774,0.000000,-7920.203579,1378.971896
3420.629102,1776.494261,-8512.368333,612.876398
3420.629430,1258.350101,-8068.244768,-1072.533697
3420.629757,2294.638420,-10066.800811,-1149.143247
3420.630085,4145.153275,-10807.006753,-919.314598
3420.630413,3849.070898,-13693.809927,306.438199
3420.630740,1258.350101,-11399.171507,1072.533697
3420.631068,888.247130,-8512.368333,306.438199
3420.631396,-1036.288319,-9548.656652,-1225.752797
3420.631724,-2294.638420,-11399.171507,-1685.410096
3420.632051,-2072.576638,-10436.903782,-2528.115143
3420.632379,-370.102971,-8142.265362,-2528.115143
3420.632707,518.144159,-8290.306550,-1762.019645
3420.633034,1850.514855,-9844.739029,459.657299
3420.633362,2146.597232,-9474.636058,1991.848295
3420.633690,2072.576638,-9104.533087,919.314598
3420.634017,3849.070898,-9326.594869,76.609550
3420.634345,4219.173869,-9252.574275,-1532.190996
3420.634673,1480.411884,-10881.027347,1532.190996
3420.635000,2072.576638,-9696.697840,1225.752797
3420.635328,370.102971,-8956.491898,1072.533697
3420.635656,-1258.350101,-11769.274478,383.047749
3420.635984,-2072.576638,-12139.377449,-1915.238745
3420.636311,-1332.370696,-9030.512492,-3753.867940
3420.636639,0.000000,-7105.977043,-4060.306139
3420.636967,-740.205942,-10584.944971,-1149.143247
3420.637294,-740.205942,-11917.315666,2451.505594
3420.637622,518.144159,-8882.471304,2681.334243
3420.637950,1184.329507,-7476.080014,612.876398
3420.638277,1998.556043,-7994.224174,-919.314598
3420.638605,1110.308913,-9400.615463,0.000000
3420.638933,666.185348,-10140.821405,1072.533697
3420.639260,0.000000,-8216.285956,842.705048
3420.639588,-444.123565,-8734.430116,-1149.143247
3420.639916,-962.267725,-11103.089130,-459.657299
3420.640244,666.185348,-12213.398043,0.000000
3420.640571,1184.329507,-10584.944971,-612.876398
3420.640899,2072.576638,-8734.430116,-612.876398
3420.641227,666.185348,-6587.832884,-383.047749
3420.641554,-740.205942,-10584.944971,153.219100
3420.641882,-1184.329507,-11399.171507,1838.629195
3420.642210,1628.453072,-8068.244768,0.000000
3420.642537,1406.391290,-7698.141797,-306.438199
3420.642865,148.041188,-11325.150913,536.266849
3420.643193,-1110.308913,-12213.398043,-153.219100
3420.643520,-1480.411884,-9992.780217,-229.828649
3420.643848,-444.123565,-9252.574275,-2528.115143
3420.644176,-1554.432478,-10584.944971,-2911.162892
3420.644504,-2738.761985,-9474.636058,-995.924147
3420.644831,-1406.391290,-7105.977043,-995.924147
3420.645159,592.164754,-9696.697840,-459.657299
3420.645487,1258.350101,-11547.212695,1455.581446
3420.645814,2072.576638,-11843.295072,2911.162892
3420.646142,2516.700203,-9548.656652,2221.676944
3420.646470,2368.659014,-8216.285956,-842.705048
3420.646797,1110.308913,-9992.780217,-2451.505594
3420.647125,222.061783,-11251.130318,-1455.581446
3420.647453,0.000000,-8882.471304,-689.485948
3420.647780,592.164754,-7105.977043,-306.438199
3420.648108,888.247130,-11251.130318,1072.533697
3420.648436,1258.350101,-14508.036463,1762.019645
3420.648764,1406.391290,-10955.047942,-1072.533697
3420.649091,0.000000,-8512.368333,-3447.429741
3420.649419,-1406.391290,-9844.739029,-2145.067394
3420.649747,-592.164754,-8808.450710,-153.219100
3420.650074,-370.102971,-7698.141797,1455.581446
3420.650402,-592.164754,-6883.915261,1455.581446
3420.650730,0.000000,-7254.018232,842.705048
3420.651057,666.185348,-9548.656652,689.485948
3420.651385,1406.391290,-9992.780217,383.047749
3420.651713,2368.659014,-10066.800811,-306.438199
3420.652040,2368.659014,-10658.965565,-612.876398
3420.652368,0.000000,-10584.944971,0.000000
3420.652696,-148.041188,-10732.986159,306.438199
3420.653024,0.000000,-9474.636058,-1608.800546
3420.653351,-1628.453072,-8216.285956,-536.266849
3420.653679,-148.041188,-8660.409521,-383.047749
3420.654007,296.082377,-10955.047942,-1149.143247
3420.654334,-888.247130,-11029.068536,1455.581446
3420.654662,814.226536,-7031.956449,153.219100
3420.654990,518.144159,-9104.533087,-306.438199
3420.655317,-814.226536,-11251.130318,0.000000
3420.655645,222.061783,-9696.697840,-689.485948
3420.655973,74.020594,-8068.244768,-1149.143247
3420.656300,222.061783,-9400.615463,0.000000
3420.656628,1332.370696,-12139.377449,153.219100
3420.656956,2442.679609,-11695.253884,1915.238745
3420.657284,1998.556043,-9252.574275,612.876398
3420.657611,814.226536,-9696.697840,0.000000
3420.657939,962.267725,-9844.739029,-1685.410096
3420.658267,-370.102971,-8586.388927,-1608.800546
3420.658594,-2220.617826,-9178.553681,-842.705048
3420.658922,-666.185348,-7698.141797,76.609550
3420.659250,1702.473667,-9474.636058,-459.657299
3420.659577,1776.494261,-12139.377449,766.095498
3420.659905,2220.617826,-10436.903782,459.657299
3420.660233,1480.411884,-9252.574275,-229.828649
3420.660560,666.185348,-10732.986159,0.000000
3420.660888,-518.144159,-10584.944971,-612.876398
3420.661216,-2294.638420,-8882.471304,-153.219100
3420.661544,-2368.659014,-6587.832884,-689.485948
3420.661871,-962.267725,-8216.285956,-1838.629195
3420.662199,-518.144159,-11399.171507,-1225.752797
3420.662527,-444.123565,-10955.047942,1149.143247
3420.662854,1850.514855,-8216.285956,76.609550
3420.663182,2960.823768,-10066.800811,-383.047749
3420.663510,1850.514855,-11621.233289,-459.657299
3420.663837,888.247130,-11103.089130,0.000000
3420.664165,1110.308913,-7772.162391,306.438199
3420.664493,1628.453072,-8808.450710,-306.438199
3420.664820,1036.288319,-10807.006753,536.266849
3420.665148,74.020594,-10140.821405,1532.190996
3420.665476,740.205942,-9474.636058,689.485948
3420.665804,1776.494261,-11473.192101,-766.095498
3420.666131,740.205942,-11473.192101,-2451.505594
3420.666459,-1036.288319,-9474.636058,-2451.505594
3420.666787,-1184.329507,-8438.347739,-1378.971896
3420.667114,-1258.350101,-8882.471304,-306.438199
3420.667442,-1184.329507,-9918.759623,0.000000
3420.667770,-74.020594,-9770.718434,459.657299
3420.668097,148.041188,-9770.718434,0.000000
3420.668425,962.267725,-8956.491898,-306.438199
3420.668753,1480.411884,-9252.574275,-229.828649
3420.669080,148.041188,-11103.089130,229.828649
3420.669408,-1998.556043,-9992.780217,1149.143247
3420.669736,-2664.741391,-7698.141797,-842.705048
3420.670063,-2220.617826,-8956.491898,-2451.505594
3420.670391,-740.205942,-9844.739029,-1915.238745
3420.670719,1776.494261,-10955.047942,-459.657299
3420.671047,1036.288319,-9326.594869,1532.190996
3420.671374,1332.370696,-10436.903782,2374.896044
3420.671702,1628.453072,-10807.006753,383.047749
3420.672030,444.123565,-8956.491898,-1072.533697
3420.672357,-1554.432478,-6883.915261,-383.047749
3420.672685,-1776.494261,-8216.285956,-766.095498
3420.673013,-1036.288319,-9474.636058,-153.219100
3420.673340,740.205942,-10140.821405,0.000000
3420.673668,1184.329507,-9770.718434,153.219100
3420.673996,444.123565,-10436.903782,842.705048
3420.674323,1258.350101,-11991.336260,0.000000
3420.674651,1110.308913,-11695.253884,-1149.143247
3420.674979,592.164754,-8142.265362,-1685.410096
3420.675307,814.226536,-5921.647536,-1608.800546
3420.675634,-888.247130,-8734.430116,-229.828649
3420.675962,-370.102971,-11177.109724,2298.286494
3420.676290,2368.659014,-10066.800811,1685.410096
3420.676617,3404.947333,-9252.574275,0.000000
3420.676945,2368.659014,-12509.480420,-995.924147
3420.677273,1406.391290,-13397.727550,-1072.533697
3420.677600,74.020594,-9030.512492,-459.657299
3420.677928,-518.144159,-8142.265362,-383.047749
3420.678256,-1184.329507,-9770.718434,-306.438199
3420.678583,-1702.473667,-9474.636058,0.000000
3420.678911,-740.205942,-8290.306550,0.000000
3420.679239,0.000000,-9326.594869,-766.095498
3420.679567,-518.144159,-10214.842000,229.828649
3420.679894,148.041188,-9918.759623,459.657299
3420.680222,592.164754,-8956.491898,229.828649
3420.680550,0.000000,-8660.409521,-919.314598
3420.680877,518.144159,-9770.718434,-1149.143247
3420.681205,814.226536,-11177.109724,-842.705048
3420.681533,592.164754,-10362.883188,-306.438199
3420.681860,1184.329507,-9474.636058,229.828649
3420.682188,1258.350101,-9918.759623,1838.629195
3420.682516,1628.453072,-11029.068536,689.485948
3420.682844,1850.514855,-9992.780217,76.609550
3420.683171,888.247130,-9622.677246,0.000000
3420.683499,592.164754,-8364.327145,-306.438199
3420.683827,148.041188,-7994.224174,-536.266849
3420.684154,-888.247130,-8290.306550,0.000000
3420.684482,-2220.617826,-9474.636058,153.219100
3420.684810,-1184.329507,-9104.533087,-995.924147
3420.685138,296.082377,-10288.862594,-1455.581446
3420.685465,148.041188,-10807.006753,-1608.800546
3420.685793,-740.205942,-10807.006753,-306.438199
3420.686121,-148.041188,-9400.615463,-919.314598
3420.686448,-1258.350101,-8882.471304,0.000000
3420.686776,-1332.370696,-10955.047942,766.095498
3420.687104,-1406.391290,-10140.821405,-383.047749
3420.687432,888.247130,-9178.553681,-1915.238745
3420.687759,1110.308913,-9326.594869,-995.924147
3420.688087,1776.494261,-10584.944971,-76.609550
3420.688415,-592.164754,-11473.192101,2834.553343
3420.688743,-370.102971,-9474.636058,1991.848295
3420.689070,592.164754,-7550.100608,-1991.848295
3420.689398,-296.082377,-9326.594869,-2451.505594
3420.689726,-1924.535449,-9622.677246,0.000000
3420.690053,222.061783,-9252.574275,1608.800546
3420.690381,1850.514855,-8512.368333,1608.800546
3420.690709,2294.638420,-9992.780217,1378.971896
3420.691037,1258.350101,-11695.253884,1225.752797
3420.691364,444.123565,-10658.965565,-229.828649
3420.691692,74.020594,-8956.491898,-2298.286494
3420.692020,592.164754,-9104.533087,-1378.971896
3420.692347,0.000000,-7698.141797,-306.438199
3420.692675,0.000000,-6957.935855,1072.533697
3420.693003,148.041188,-8956.491898,689.485948
3420.693331,740.205942,-10288.862594,306.438199
3420.693658,1924.535449,-11843.295072,153.219100
3420.693986,2294.638420,-11029.068536,-153.219100
3420.694314,1998.556043,-10066.800811,-1149.143247
3420.694642,1480.411884,-10362.883188,-383.047749
3420.694969,1184.329507,-10732.986159,0.000000
3420.695297,-296.082377,-9696.697840,766.095498
3420.695625,0.000000,-8438.347739,-306.438199
3420.695952,-370.102971,-8586.388927,-1608.800546
3420.696280,-592.164754,-11103.089130,-1762.019645
3420.696608,-1332.370696,-10955.047942,-919.314598
3420.696936,-814.226536,-9918.759623,-1072.533697
3420.697263,1258.350101,-9326.594869,-842.705048
3420.697591,2146.597232,-9622.677246,-1149.143247
3420.697919,962.267725,-11325.150913,-306.438199
3420.698246,1184.329507,-10436.903782,153.219100
3420.698574,2738.761985,-9548.656652,-229.828649
3420.698902,740.205942,-10214.842000,-612.876398
3420.699230,-370.102971,-10584.944971,919.314598
3420.699557,-814.226536,-8734.430116,766.095498
3420.699885,-222.061783,-9252.574275,-766.095498
3420.700213,-666.185348,-10510.924376,-1608.800546
3420.700541,0.000000,-11103.089130,-766.095498
3420.700868,518.144159,-8142.265362,306.438199
3420.701196,1480.411884,-8216.285956,459.657299
3420.701524,296.082377,-9474.636058,919.314598
3420.701851,-814.226536,-9326.594869,1378.971896
3420.702179,-962.267725,-8290.306550,689.485948
3420.702507,0.000000,-7624.121203,-536.266849
3420.702835,-296.082377,-8290.306550,-766.095498
3420.703162,-1036.288319,-10288.862594,766.095498
3420.703490,-592.164754,-9400.615463,919.314598
3420.703818,-666.185348,-8808.450710,919.314598
3420.704145,-1554.432478,-10584.944971,0.000000
3420.704473,-1184.329507,-11769.274478,-2221.676944
3420.704801,-444.123565,-9252.574275,-2298.286494
3420.705129,2146.597232,-8438.347739,-1455.581446
3420.705456,1480.411884,-9622.677246,1225.752797
3420.705784,-518.144159,-11547.212695,4290.134789
3420.706112,74.020594,-8808.450710,1838.629195
3420.706440,1258.350101,-9252.574275,-1991.848295
3420.706767,-296.082377,-10881.027347,-2221.676944
3420.707095,-2072.576638,-9548.656652,-995.924147
3420.707423,-962.267725,-9400.615463,-1915.238745
3420.707750,0.000000,-10066.800811,-842.705048
3420.708078,888.247130,-10658.965565,-229.828649
3420.708406,1184.329507,-10807.006753,536.266849
3420.708734,1776.494261,-10955.047942,0.000000
3420.709061,1850.514855,-10584.944971,-842.705048
3420.709389,1628.453072,-9252.574275,-919.314598
3420.709717,814.226536,-7254.018232,-383.047749
3420.710044,592.164754,-9104.533087,0.000000
3420.710372,-296.082377,-9548.656652,1149.143247
3420.710700,74.020594,-9400.615463,536.266849
3420.711028,1184.329507,-10288.862594,-689.485948
3420.711355,1554.432478,-10732.986159,-2068.457845
3420.711683,814.226536,-12287.418637,-689.485948
3420.712011,888.247130,-10807.006753,76.609550
3420.712339,2220.617826,-9104.533087,-612.876398
3420.712666,1258.350101,-9474.636058,689.485948
3420.712994,-592.164754,-8364.327145,1149.143247
3420.713322,-2072.576638,-7846.182985,1149.143247
3420.713649,-1480.411884,-8660.409521,0.000000
3420.713977,-814.226536,-8586.388927,-1378.971896
3420.714305,-444.123565,-8882.471304,-383.047749
3420.714633,518.144159,-10955.047942,919.314598
3420.714960,2072.576638,-9770.718434,0.000000
3420.715288,3108.864956,-10436.903782,-1072.533697
3420.715616,2886.803174,-11103.089130,-1149.143247
3420.715943,444.123565,-10732.986159,1072.533697
3420.716271,296.082377,-9770.718434,995.924147
3420.716599,222.061783,-8882.471304,306.438199
3420.716927,1110.308913,-10732.986159,0.000000
3420.717254,1406.391290,-10140.821405,-383.047749
3420.717582,1110.308913,-8734.430116,-766.095498
3420.717910,-370.102971,-9104.533087,459.657299
3420.718238,1332.370696,-9696.697840,-1302.362347
3420.718565,0.000000,-9992.780217,-766.095498
3420.718893,-740.205942,-9252.574275,-995.924147
3420.719221,-1998.556043,-8586.388927,-766.095498
3420.719548,-1184.329507,-9992.780217,-383.047749
3420.719876,296.082377,-11843.295072,-612.876398
3420.720204,888.247130,-10658.965565,-995.924147
3420.720532,814.226536,-9474.636058,-383.047749
3420.720859,444.123565,-10584.944971,1072.533697
3420.721187,-1258.350101,-11103.089130,459.657299
3420.721515,-1480.411884,-10584.944971,-689.485948
3420.721842,-888.247130,-6439.791695,-3064.381992
3420.722170,962.267725,-8364.327145,-2221.676944
3420.722498,962.267725,-11547.212695,1149.143247
3420.722826,518.144159,-11621.233289,3370.820191
3420.723153,1850.514855,-8586.388927,1378.971896
3420.723481,2072.576638,-8808.450710,-1455.581446
3420.723809,0.000000,-10881.027347,-1072.533697
3420.724137,-2368.659014,-9770.718434,612.876398
3420.724464,-1628.453072,-6365.771101,-536.266849
3420.724792,-740.205942,-8068.244768,-459.657299
3420.725120,-518.144159,-10732.986159,689.485948
3420.725447,0.000000,-10214.842000,1991.848295
3420.725775,1110.308913,-9252.574275,919.314598
3420.726103,1702.473667,-10881.027347,-995.924147
3420.726431,1628.453072,-10881.027347,-1838.629195
3420.726758,148.041188,-7698.141797,-689.485948
3420.727086,-370.102971,-6883.915261,153.219100
3420.727414,-740.205942,-8290.306550,919.314598
3420.727742,0.000000,-9918.759623,1685.410096
3420.728069,1702.473667,-10658.965565,919.314598
3420.728397,2220.617826,-10214.842000,-306.438199
3420.728725,2516.700203,-10362.883188,-612.876398
3420.729052,2368.659014,-12657.521608,-766.095498
3420.729380,1406.391290,-11843.295072,-536.266849
3420.729708,0.000000,-7772.162391,-229.828649
3420.730036,-592.164754,-7105.977043,-612.876398
3420.730363,-1776.494261,-9400.615463,0.000000
3420.730691,-1332.370696,-11621.233289,-766.095498
3420.731019,0.000000,-10510.924376,-1455.581446
3420.731346,222.061783,-9030.512492,-1685.410096
3420.731674,1332.370696,-11103.089130,-459.657299
3420.732002,1998.556043,-11177.109724,-1072.533697
3420.732330,888.247130,-10214.842000,0.000000
3420.732657,1554.432478,-9252.574275,-229.828649
3420.732985,1184.329507,-8882.471304,-383.047749
3420.733313,222.061783,-11177.109724,842.705048
3420.733641,222.061783,-10510.924376,842.705048
3420.733968,1036.288319,-9326.594869,76.609550
3420.734296,1998.556043,-10362.883188,-919.314598
3420.734624,1998.556043,-11547.212695,-1532.190996
3420.734951,962.267725,-9474.636058,459.657299
3420.735279,1406.391290,-7179.997637,1149.143247
3420.735607,518.144159,-6883.915261,1225.752797
3420.735935,-370.102971,-8882.471304,536.266849
3420.736262,-296.082377,-9844.739029,-689.485948
3420.736590,-1110.308913,-9030.512492,0.000000
3420.736918,222.061783,-8512.368333,-919.314598
3420.737245,1628.453072,-10658.965565,-1532.190996
3420.737573,0.000000,-12139.377449,-306.438199
3420.737901,666.185348,-9992.780217,306.438199
3420.738229,148.041188,-7105.977043,76.609550
3420.738556,-2516.700203,-9844.739029,1608.800546
3420.738884,-1924.535449,-11769.274478,-383.047749
3420.739212,-740.205942,-8512.368333,-2834.553343
3420.739540,1258.350101,-8808.450710,-2145.067394
3420.739867,1702.473667,-10436.903782,536.266849
3420.740195,1184.329507,-12213.398043,2528.115143
3420.740523,444.123565,-10436.903782,2681.334243
3420.740850,888.247130,-8290.306550,-1225.752797
3420.741178,-888.247130,-9326.594869,-2451.505594
3420.741506,-1998.556043,-10658.965565,-1072.533697
3420.741834,-1628.453072,-8438.347739,-842.705048
3420.742161,0.000000,-8882.471304,0.000000
3420.742489,222.061783,-8956.491898,612.876398
3420.742817,1776.494261,-11621.233289,1378.971896
3420.743144,1998.556043,-11843.295072,1225.752797
3420.743472,1924.535449,-10288.862594,-536.266849
3420.743800,-296.082377,-8364.327145,-842.705048
3420.744128,-370.102971,-7698.141797,0.000000
3420.744455,0.000000,-7624.121203,-306.438199
3420.744783,-814.226536,-7846.182985,536.266849
3420.745111,-592.164754,-8956.491898,919.314598
3420.745439,888.247130,-10436.903782,-306.438199
3420.745766,2812.782580,-12731.542202,-842.705048
3420.746094,2294.638420,-12213.398043,-383.047749
3420.746422,740.205942,-10066.800811,1072.533697
3420.746749,444.123565,-8290.306550,1378.971896
3420.747077,1036.288319,-9474.636058,383.047749
3420.747405,0.000000,-8586.388927,-612.876398
3420.747733,-2368.659014,-7254.018232,0.000000
3420.748060,-1850.514855,-7772.162391,-1225.752797
3420.748388,296.082377,-10658.965565,-2374.896044
3420.748716,148.041188,-11917.315666,-1608.800546
3420.749043,-296.082377,-10140.821405,536.266849
3420.749371,1702.473667,-9178.553681,-229.828649
3420.749699,3182.885551,-10881.027347,-1915.238745
3420.750027,1776.494261,-13249.686362,-1455.581446
3420.750354,592.164754,-10658.965565,0.000000
3420.750682,814.226536,-7846.182985,-689.485948
3420.751010,2220.617826,-10066.800811,-1225.752797
3420.751338,814.226536,-11251.130318,536.266849
3420.751665,1258.350101,-9844.739029,-229.828649
3420.751993,444.123565,-7254.018232,-536.266849
3420.752321,148.041188,-9992.780217,-612.876398
3420.752648,0.000000,-10955.047942,-1149.143247
3420.752976,0.000000,-9104.533087,-383.047749
3420.753304,0.000000,-8216.285956,-383.047749
3420.753632,814.226536,-9252.574275,-459.657299
3420.753959,1036.288319,-11769.274478,-1149.143247
3420.754287,0.000000,-10288.862594,153.219100
3420.754615,-518.144159,-7550.100608,306.438199
3420.754942,0.000000,-7994.224174,76.609550
3420.755270,-1850.514855,-8586.388927,766.095498
3420.755598,-3627.009116,-10066.800811,1685.410096
3420.755926,-2664.741391,-8956.491898,-842.705048
3420.756253,74.020594,-9030.512492,-5286.058936
3420.756581,1628.453072,-11177.109724,-3064.381992
3420.756909,1554.432478,-11769.274478,-153.219100
3420.757237,814.226536,-9844.739029,2911.162892
3420.757564,444.123565,-9030.512492,3677.258390
3420.757892,1184.329507,-9548.656652,0.000000
3420.758220,0.000000,-10362.883188,-1532.190996
3420.758547,-1998.556043,-7402.059420,-766.095498
3420.758875,-962.267725,-6957.935855,-1378.971896
3420.759203,-296.082377,-9770.718434,-306.438199
3420.759531,-518.144159,-10881.027347,1072.533697
3420.759858,0.000000,-9474.636058,1225.752797
3420.760186,1036.288319,-9252.574275,612.876398
3420.760514,888.247130,-10658.965565,-306.438199
3420.760841,222.061783,-12139.377449,-1225.752797
3420.761169,518.144159,-9844.739029,0.000000
3420.761497,1406.391290,-6439.791695,-383.047749
3420.761825,0.000000,-7994.224174,0.000000
3420.762152,-1702.473667,-12213.398043,842.705048
3420.762480,-444.123565,-11399.171507,919.314598
3420.762808,2072.576638,-8734.430116,-1302.362347
3420.763136,1628.453072,-10658.965565,-1991.848295
3420.763463,74.020594,-12435.459826,229.828649
3420.763791,814.226536,-9770.718434,766.095498
3420.764119,1110.308913,-7476.080014,-153.219100
3420.764446,296.082377,-9030.512492,-153.219100
3420.764774,-148.041188,-9474.636058,-306.438199
3420.765102,-1036.288319,-8438.347739,383.047749
3420.765430,0.000000,-8586.388927,-306.438199
3420.765757,222.061783,-9030.512492,-383.047749
3420.766085,296.082377,-9844.739029,0.000000
3420.766413,962.267725,-11251.130318,842.705048
3420.766740,1850.514855,-9474.636058,-536.266849
3420.767068,2886.803174,-9918.759623,-2068.457845
3420.767396,1406.391290,-11843.295072,-1455.581446
3420.767724,814.226536,-11695.253884,-1455.581446
3420.768051,0.000000,-8438.347739,689.485948
3420.768379,592.164754,-8216.285956,1225.752797
3420.768707,0.000000,-9770.718434,1072.533697
3420.769035,1036.288319,-10140.821405,-306.438199
3420.769362,1184.329507,-9474.636058,-1072.533697
3420.769690,1480.411884,-8956.491898,-766.095498
3420.770018,1628.453072,-8734.430116,76.609550
3420.770345,740.205942,-9474.636058,0.000000
3420.770673,-592.164754,-10288.862594,766.095498
3420.771001,-518.144159,-9992.780217,-536.266849
3420.771329,592.164754,-9474.636058,-1762.019645
3420.771656,666.185348,-10658.965565,-1302.362347
3420.771984,1110.308913,-10066.800811,0.000000
3420.772312,1036.288319,-9252.574275,1455.581446
3420.772639,-740.205942,-9474.636058,1685.410096
3420.772967,-1850.514855,-9548.656652,229.828649
3420.773295,-2294.638420,-9474.636058,-2298.286494
3420.773623,-1406.391290,-9178.553681,-1991.848295
3420.773950,0.000000,-8882.471304,-1762.019645
3420.774278,-518.144159,-10140.821405,383.047749
3420.774606,-1332.370696,-11399.171507,1838.629195
3420.774934,-740.205942,-10584.944971,1685.410096
3420.775261,888.247130,-9474.636058,-1225.752797
3420.775589,-296.082377,-9178.553681,-1915.238745
3420.775917,-1258.350101,-9622.677246,-842.705048
3420.776244,-1406.391290,-9252.574275,536.266849
3420.776572,-666.185348,-7624.121203,536.266849
3420.776900,296.082377,-8290.306550,1072.533697
3420.777228,888.247130,-9992.780217,1225.752797
3420.777555,518.144159,-11029.068536,995.924147
3420.777883,814.226536,-10362.883188,-689.485948
3420.778211,962.267725,-8734.430116,-1762.019645
3420.778538,1406.391290,-7476.080014,-1991.848295
3420.778866,0.000000,-8068.244768,689.485948
3420.779194,-1554.432478,-9622.677246,1149.143247
3420.779522,0.000000,-10066.800811,0.000000
3420.779849,2664.741391,-11325.150913,-1378.971896
3420.780177,2886.803174,-13101.645173,-1225.752797
3420.780505,1628.453072,-11621.233289,306.438199
3420.780833,2146.597232,-9548.656652,0.000000
3420.781160,1628.453072,-9178.553681,-229.828649
3420.781488,592.164754,-9696.697840,-842.705048
3420.781816,-1776.494261,-8364.327145,229.828649
3420.782143,-2146.597232,-7105.977043,-612.876398
3420.782471,-962.267725,-9326.594869,-1302.362347
3420.782799,148.041188,-11325.150913,-1915.238745
3420.783127,0.000000,-11917.315666,-536.266849
3420.783454,1702.473667,-11177.109724,766.095498
3420.783782,3775.050304,-11547.212695,-383.047749
3420.784110,2960.823768,-11325.150913,-1455.581446
3420.784438,222.061783,-11251.130318,0.000000
3420.784765,222.061783,-9178.553681,-536.266849
3420.785093,-814.226536,-7846.182985,153.219100
3420.785421,-222.061783,-9030.512492,842.705048
3420.785748,296.082377,-9622.677246,-383.047749
3420.786076,518.144159,-9400.615463,-995.924147
3420.786404,1406.391290,-9548.656652,-1149.143247
3420.786732,2442.679609,-9696.697840,-1532.190996
3420.787059,1480.411884,-9178.553681,153.219100
3420.787387,666.185348,-8364.327145,919.314598
3420.787715,222.061783,-8956.491898,2451.505594
3420.788043,518.144159,-8882.471304,919.314598
3420.788370,1332.370696,-9326.594869,-306.438199
3420.788698,1850.514855,-10436.903782,-1225.752797
3420.789026,74.020594,-9548.656652,0.000000
3420.789354,1406.391290,-10288.862594,-689.485948
3420.789681,814.226536,-10436.903782,-459.657299
3420.790009,-2072.576638,-8734.430116,919.314598
3420.790337,-3108.864956,-7105.977043,306.438199
3420.790665,-2220.617826,-9400.615463,-2757.943793
3420.790992,-666.185348,-10658.965565,-2145.067394
3420.791320,888.247130,-9918.759623,-1608.800546
3420.791648,1110.308913,-9400.615463,766.095498
3420.791976,888.247130,-12139.377449,2528.115143
3420.792303,1332.370696,-11621.233289,153.219100
3420.792631,0.000000,-9548.656652,-1378.971896
3420.792959,-2072.576638,-9178.553681,-1762.019645
3420.793287,-2072.576638,-9400.615463,-1455.581446
3420.793614,-148.041188,-9252.574275,-766.095498
3420.793942,-296.082377,-9696.697840,842.705048
3420.794270,148.041188,-10658.965565,1915.238745
3420.794597,1628.453072,-10584.944971,0.000000
3420.794925,1776.494261,-10955.047942,-383.047749
3420.795253,-444.123565,-9474.636058,-306.438199
3420.795581,-222.061783,-6143.709319,0.000000
3420.795908,370.102971,-4737.318029,306.438199
3420.796236,-444.123565,-8734.430116,919.314598
3420.796564,-1184.329507,-11843.295072,1149.143247
3420.796892,592.164754,-10881.027347,689.485948
3420.797219,2886.803174,-10214.842000,-459.657299
3420.797547,3478.967927,-13397.727550,-1225.752797
3420.797875,1332.370696,-12805.562797,-766.095498
3420.798203,370.102971,-8438.347739,0.000000
3420.798530,1184.329507,-7550.100608,459.657299
3420.798858,666.185348,-8660.409521,229.828649
3420.799186,-1110.308913,-8586.388927,536.266849
3420.799514,-1924.535449,-7402.059420,995.924147
3420.799841,-1184.329507,-7328.038826,-1608.800546
3420.800169,666.185348,-10214.842000,-2451.505594
3420.800497,592.164754,-11843.295072,-383.047749
3420.800825,888.247130,-10955.047942,1149.143247
3420.801152,2368.659014,-9844.739029,-995.924147
3420.801480,1924.535449,-11843.295072,-1149.143247
3420.801808,370.102971,-11473.192101,-1378.971896
3420.802135,296.082377,-9696.697840,-1608.800546
3420.802463,0.000000,-8882.471304,229.828649
3420.802791,148.041188,-9770.718434,612.876398
3420.803119,74.020594,-11029.068536,766.095498
3420.803446,222.061783,-10807.006753,-229.828649
3420.803774,74.020594,-7920.203579,-1225.752797
3420.804102,444.123565,-8290.306550,-2068.457845
3420.804430,0.000000,-9918.759623,-1455.581446
3420.804757,-1036.288319,-10584.944971,0.000000
3420.805085,-814.226536,-8068.244768,76.609550
3420.805413,1554.432478,-8956.491898,-766.095498
3420.805741,1480.411884,-11251.130318,459.657299
3420.806068,1184.329507,-10584.944971,1991.848295
3420.806396,814.226536,-9548.656652,995.924147
3420.806724,1554.432478,-10140.821405,-306.438199
3420.807052,74.020594,-9770.718434,-76.609550
3420.807379,-1406.391290,-8290.306550,-306.438199
3420.807707,-1850.514855,-7698.141797,536.266849
3420.808035,0.000000,-9252.574275,76.609550
3420.808363,1110.308913,-7772.162391,-842.705048
3420.808690,-222.061783,-10881.027347,995.924147
3420.809018,-2220.617826,-11547.212695,1608.800546
3420.809346,-1702.473667,-8882.471304,-1378.971896
3420.809674,-2368.659014,-7846.182985,-2068.457845
3420.810001,-592.164754,-9474.636058,-1762.019645
3420.810329,74.020594,-10140.821405,536.266849
3420.810657,1850.514855,-11177.109724,2757.943793
3420.810984,2516.700203,-10066.800811,2145.067394
3420.811312,1850.514855,-11251.130318,-612.876398
3420.811640,-592.164754,-10955.047942,-1302.362347
3420.811968,-2738.761985,-7402.059420,-1762.019645
3420.812295,-3256.906145,-7476.080014,-1685.410096
3420.812623,-1850.514855,-8660.409521,-1149.143247
3420.812951,-222.061783,-10066.800811,-842.705048
3420.813279,1406.391290,-10732.986159,919.314598
3420.813606,3849.070898,-10807.006753,-1149.143247
3420.813934,2960.823768,-11103.089130,0.000000
3420.814262,2442.679609,-11399.171507,383.047749
3420.814590,1776.494261,-7994.224174,-842.705048
3420.814917,1184.329507,-6143.709319,-1149.143247
3420.815245,0.000000,-8586.388927,0.000000
3420.815573,-518.144159,-11843.295072,1608.800546
3420.815901,1406.391290,-11473.192101,1302.362347
3420.816228,2886.803174,-10732.986159,-1838.629195
3420.816556,1776.494261,-10732.986159,-2757.943793
3420.816884,1628.453072,-11103.089130,-2298.286494
3420.817212,666.185348,-8734.430116,-1302.362347
3420.817539,1702.473667,-7402.059420,0.000000
3420.817867,444.123565,-7031.956449,919.314598
3420.818195,-222.061783,-9696.697840,1838.629195
3420.818522,0.000000,-10140.821405,2604.724693
3420.818850,1184.329507,-9992.780217,0.000000
3420.819178,888.247130,-9770.718434,-2145.067394
3420.819506,592.164754,-12139.377449,-1225.752797
3420.819833,666.185348,-10881.027347,-1608.800546
3420.820161,222.061783,-9622.677246,-766.095498
3420.820489,518.144159,-9326.594869,76.609550
3420.820817,592.164754,-9400.615463,842.705048
3420.821144,-814.226536,-8438.347739,1225.752797
3420.821472,-888.247130,-9030.512492,536.266849
3420.821800,-1258.350101,-9696.697840,-459.657299
3420.822128,-296.082377,-10584.944971,-612.876398
3420.822455,148.041188,-10732.986159,-1608.800546
3420.822783,-888.247130,-9844.739029,-383.047749
3420.823111,-814.226536,-6809.894666,76.609550
3420.823439,-592.164754,-7920.203579,459.657299
3420.823766,-814.226536,-10436.903782,842.705048
3420.824094,74.020594,-11251.130318,919.314598
3420.824422,740.205942,-8882.471304,-536.266849
3420.824750,148.041188,-10140.821405,76.609550
3420.825077,1110.308913,-11917.315666,-919.314598
3420.825405,148.041188,-9030.512492,-1225.752797
3420.825733,-3034.844362,-8364.327145,1072.533697
3420.826061,-3256.906145,-9696.697840,-229.828649
3420.826388,-1332.370696,-9918.759623,-2604.724693
3420.826716,-1184.329507,-9918.759623,-2451.505594
3420.827044,518.144159,-9992.780217,-1149.143247
3420.827371,-222.061783,-10436.903782,1302.362347
3420.827699,814.226536,-11843.295072,2451.505594
3420.828027,2072.576638,-10955.047942,-306.438199
3420.828355,0.000000,-11251.130318,-689.485948
3420.828682,-296.082377,-9104.533087,-1302.362347
3420.829010,74.020594,-6661.853478,-1378.971896
3420.829338,-222.061783,-8660.409521,76.609550
3420.829666,-666.185348,-8882.471304,2681.334243
3420.829993,-962.267725,-8734.430116,1838.629195
3420.830321,740.205942,-9474.636058,919.314598
3420.830649,2738.761985,-10436.903782,-2681.334243
3420.830977,1480.411884,-11695.253884,-1072.533697
3420.831304,666.185348,-8364.327145,1072.533697
3420.831632,222.061783,-6883.915261,459.657299
3420.831960,444.123565,-9844.739029,-459.657299
3420.832288,74.020594,-9696.697840,229.828649
3420.832615,1406.391290,-8956.491898,1991.848295
3420.832943,3034.844362,-8956.491898,1685.410096
3420.833271,2664.741391,-11769.274478,0.000000
3420.833599,370.102971,-11917.315666,-1532.190996
3420.833926,518.144159,-8438.347739,-2451.505594
3420.834254,74.020594,-7624.121203,-2298.286494
3420.834582,0.000000,-7254.018232,-612.876398
3420.834910,1036.288319,-9252.574275,536.266849
3420.835237,1110.308913,-11103.089130,1915.238745
3420.835565,2368.659014,-11177.109724,1378.971896
3420.835893,3552.988522,-11843.295072,-612.876398
3420.836220,1406.391290,-11843.295072,-612.876398
3420.836548,0.000000,-10288.862594,0.000000
3420.836876,0.000000,-8586.388927,-2145.067394
3420.837204,-370.102971,-8956.491898,-1838.629195
3420.837531,222.061783,-10584.944971,-919.314598
3420.837859,888.247130,-10436.903782,0.000000
3420.838187,370.102971,-9252.574275,1302.362347
3420.838515,0.000000,-11029.068536,1072.533697
3420.838842,148.041188,-11103.089130,-2681.334243
3420.839170,-962.267725,-9622.677246,-2911.162892
3420.839498,-666.185348,-8364.327145,-2451.505594
3420.839826,444.123565,-7994.224174,-842.705048
3420.840153,666.185348,-9622.677246,1915.238745
3420.840481,666.185348,-10584.944971,2374.896044
3420.840809,74.020594,-10288.862594,2451.505594
3420.841137,-444.123565,-8290.306550,1532.190996
3420.841464,-1184.329507,-7624.121203,-1608.800546
3420.841792,-2960.823768,-9104.533087,-1838.629195
3420.842120,-962.267725,-10214.842000,-919.314598
3420.842448,-518.144159,-7402.059420,-536.266849
3420.842775,-1554.432478,-9252.574275,1149.143247
3420.843103,-1850.514855,-11769.274478,153.219100
3420.843431,-1258.350101,-10288.862594,-842.705048
3420.843758,-370.102971,-8586.388927,-1991.848295
3420.844086,296.082377,-7772.162391,-1685.410096
3420.844414,370.102971,-11399.171507,76.609550
3420.844742,370.102971,-11325.150913,2374.896044
3420.845069,2220.617826,-9992.780217,229.828649
3420.845397,740.205942,-9918.759623,459.657299
3420.845725,74.020594,-9178.553681,-1072.533697
3420.846053,-1110.308913,-8808.450710,-1149.143247
3420.846380,-962.267725,-9770.718434,-459.657299
3420.846708,74.020594,-8068.244768,-1225.752797
3420.847036,962.267725,-9770.718434,-536.266849
3420.847364,1110.308913,-11399.171507,1225.752797
3420.847691,2294.638420,-10807.006753,689.485948
3420.848019,888.247130,-9474.636058,-306.438199
3420.848347,888.247130,-8216.285956,-919.314598
3420.848675,-296.082377,-9326.594869,-1455.581446
3420.849002,-666.185348,-9992.780217,-842.705048
3420.849330,1332.370696,-9104.533087,-153.219100
3420.849658,2368.659014,-10584.944971,995.924147
3420.849986,2072.576638,-12065.356855,1149.143247
3420.850313,814.226536,-11621.233289,842.705048
3420.850641,0.000000,-8512.368333,-1838.629195
3420.850969,444.123565,-6661.853478,-2221.676944
3420.851297,222.061783,-9400.615463,-919.314598
3420.851624,-148.041188,-9326.594869,1532.190996
3420.851952,1332.370696,-8438.347739,1225.752797
3420.852280,2960.823768,-9474.636058,612.876398
3420.852607,1776.494261,-11325.150913,459.657299
3420.852935,370.102971,-10955.047942,1302.362347
3420.853263,0.000000,-9326.594869,76.609550
3420.853591,222.061783,-9252.574275,-1762.019645
3420.853918,888.247130,-10214.842000,-2068.457845
3420.854246,962.267725,-10955.047942,-612.876398
3420.854574,2220.617826,-10658.965565,1532.190996
3420.854902,1480.411884,-8882.471304,2298.286494
3420.855229,1776.494261,-9622.677246,995.924147
3420.855557,-518.144159,-10140.821405,76.609550
3420.855885,-1850.514855,-9178.553681,-919.314598
3420.856213,-1184.329507,-7698.141797,-2221.676944
3420.856540,-296.082377,-8660.409521,-1608.800546
3420.856868,-148.041188,-10066.800811,-306.438199
3420.857196,74.020594,-10807.006753,1378.971896
3420.857524,592.164754,-9770.718434,842.705048
3420.857851,1110.308913,-9326.594869,0.000000
3420.858179,592.164754,-10658.965565,-612.876398
3420.858507,-1036.288319,-9918.759623,0.000000
3420.858835,-2886.803174,-9474.636058,612.876398
3420.859162,-222.061783,-9252.574275,-612.876398
3420.859490,444.123565,-7105.977043,-1149.143247
3420.859818,-2146.597232,-8956.491898,1225.752797
3420.860146,-2368.659014,-10288.862594,1455.581446
3420.860473,-962.267725,-9918.759623,-1762.019645
3420.860801,0.000000,-9474.636058,-2987.772442
3420.861129,592.164754,-10066.800811,-2987.772442
3420.861456,-296.082377,-10140.821405,1072.533697
3420.861784,1332.370696,-10584.944971,3677.258390
3420.862112,3256.906145,-10436.903782,995.924147
3420.862440,1924.535449,-11177.109724,-766.095498
3420.862767,444.123565,-9326.594869,-995.924147
3420.863095,-666.185348,-7402.059420,-1149.143247
3420.863423,-1184.329507,-8956.491898,-459.657299
3420.863751,-740.205942,-8734.430116,-1225.752797
3420.864078,-1702.473667,-8068.244768,612.876398
3420.864406,-592.164754,-9400.615463,995.924147
3420.864734,1998.556043,-10436.903782,306.438199
3420.865062,1628.453072,-11399.171507,-612.876398
3420.865389,1332.370696,-10066.800811,153.219100
3420.865717,1480.411884,-6587.832884,-995.924147
3420.866045,1702.473667,-8586.388927,-612.876398
3420.866373,1406.391290,-10955.047942,536.266849
3420.866700,592.164754,-10436.903782,2068.457845
3420.867028,1702.473667,-8512.368333,2145.067394
3420.867356,2368.659014,-10807.006753,0.000000
3420.867684,592.164754,-12139.377449,-689.485948
3420.868011,-962.267725,-10955.047942,-383.047749
3420.868339,-370.102971,-7772.162391,-2681.334243
3420.868667,-592.164754,-7550.100608,-2528.115143
3420.868994,-296.082377,-8808.450710,-2221.676944
3420.869322,-296.082377,-9474.636058,1302.362347
3420.869650,592.164754,-10066.800811,2681.334243
3420.869978,2294.638420,-9992.780217,1762.019645
3420.870305,1776.494261,-11843.295072,919.314598
3420.870633,74.020594,-12583.501014,229.828649
3420.870961,222.061783,-8734.430116,-2145.067394
3420.871289,740.205942,-8068.244768,-1915.238745
3420.871616,962.267725,-9992.780217,-1225.752797
3420.871944,888.247130,-10362.883188,-919.314598
3420.872272,222.061783,-10436.903782,1685.410096
3420.872600,888.247130,-9696.697840,2145.067394
3420.872927,814.226536,-9548.656652,919.314598
3420.873255,-296.082377,-9770.718434,76.609550
3420.873583,-1702.473667,-9030.512492,-1532.190996
3420.873911,-1480.411884,-7920.203579,-2298.286494
3420.874238,0.000000,-8808.450710,-1532.190996
3420.874566,814.226536,-10362.883188,-766.095498
3420.874894,-370.102971,-11251.130318,2068.457845
3420.875222,-444.123565,-9104.533087,1838.629195
3420.875549,-962.267725,-9178.553681,0.000000
3420.875877,-1554.432478,-9252.574275,-766.095498
3420.876205,-222.061783,-9622.677246,-842.705048
3420.876533,148.041188,-8808.450710,-229.828649
3420.876860,-666.185348,-7920.203579,1149.143247
3420.877188,222.061783,-10140.821405,0.000000
3420.877516,-1184.329507,-10807.006753,-689.485948
3420.877843,-2442.679609,-9400.615463,-306.438199
3420.878171,-814.226536,-7698.141797,-1378.971896
3420.878499,1036.288319,-9622.677246,-612.876398
3420.878827,370.102971,-12731.542202,1685.410096
3420.879154,962.267725,-11325.150913,1149.143247
3420.879482,1776.494261,-9622.677246,-1225.752797
3420.879810,1036.288319,-9474.636058,-2451.505594
3420.880138,-148.041188,-10140.821405,-2451.505594
3420.880465,-1110.308913,-9474.636058,0.000000
3420.880793,0.000000,-8364.327145,0.000000
3420.881121,592.164754,-8882.471304,1378.971896
3420.881449,1702.473667,-10510.924376,1762.019645
3420.881776,1776.494261,-10584.944971,1532.190996
3420.882104,1184.329507,-9992.780217,459.657299
3420.882432,814.226536,-9178.553681,-1991.848295
3420.882760,814.226536,-7772.162391,-3830.477490
3420.883087,0.000000,-7920.203579,-2068.457845
3420.883415,-222.061783,-10140.821405,536.266849
3420.883743,814.226536,-10436.903782,2987.772442
3420.884071,3034.844362,-11251.130318,3140.991542
3420.884398,3034.844362,-11251.130318,919.314598
3420.884726,888.247130,-10807.006753,0.000000
3420.885054,0.000000,-8882.471304,-1762.019645
3420.885381,0.000000,-7698.141797,-2528.115143
3420.885709,-148.041188,-8438.347739,-1915.238745
3420.886037,-666.185348,-8734.430116,-612.876398
3420.886364,-1110.308913,-8290.306550,1072.533697
3420.886692,-444.123565,-9252.574275,1685.410096
3420.887020,1776.494261,-10658.965565,0.000000
3420.887347,1554.432478,-11029.068536,536.266849
3420.887675,814.226536,-10362.883188,0.000000
3420.888002,1036.288319,-9770.718434,-1149.143247
3420.888330,1628.453072,-10584.944971,-2374.896044
3420.888657,888.247130,-10436.903782,-1915.238745
3420.888985,1184.329507,-8956.491898,-536.266849
3420.889313,0.000000,-9178.553681,2451.505594
3420.889640,0.000000,-9696.697840,2298.286494
3420.889968,-1184.329507,-10436.903782,995.924147
3420.890295,-1110.308913,-10066.800811,-995.924147
3420.890623,74.020594,-9252.574275,-3447.429741
3420.890950,0.000000,-9918.759623,-3447.429741
3420.891278,-1036.288319,-10140.821405,-842.705048
3420.891606,-370.102971,-10140.821405,842.705048
3420.891933,0.000000,-9992.780217,1378.971896
3420.892261,962.267725,-9918.759623,1455.581446
3420.892588,-666.185348,-9326.594869,1915.238745
3420.892916,-1406.391290,-9252.574275,1685.410096
3420.893243,740.205942,-8956.491898,-1149.143247
3420.893571,0.000000,-7476.080014,-1378.971896
3420.893899,-1480.411884,-8808.450710,-766.095498
3420.894226,-3330.926739,-9622.677246,-766.095498
3420.894554,-2368.659014,-9696.697840,-1608.800546
3420.894881,0.000000,-9696.697840,-2374.896044
3420.895209,74.020594,-10658.965565,-1149.143247
3420.895536,-518.144159,-10881.027347,2757.943793
3420.895864,1258.350101,-9474.636058,2374.896044
3420.896192,3256.906145,-8734.430116,0.000000
3420.896519,1850.514855,-10362.883188,-919.314598
3420.896847,-1332.370696,-9474.636058,-536.266849
3420.897174,-2738.761985,-6735.874072,-459.657299
3420.897502,-592.164754,-7105.977043,-689.485948
3420.897829,740.205942,-10436.903782,-919.314598
3420.898157,0.000000,-11547.212695,1762.019645
3420.898485,2590.720797,-11769.274478,1991.848295
3420.898812,4515.256246,-10362.883188,-995.924147
3420.899140,3552.988522,-11843.295072,-1225.752797
3420.899467,666.185348,-9474.636058,-995.924147
3420.899795,-444.123565,-5625.565159,-995.924147
3420.900123,-1184.329507,-7179.997637,-536.266849
3420.900450,0.000000,-11029.068536,0.000000
3420.900778,666.185348,-11769.274478,459.657299
3420.901105,2146.597232,-11621.233289,2145.067394
3420.901433,3256.906145,-10807.006753,-229.828649
3420.901760,2960.823768,-12139.377449,-1991.848295
3420.902088,888.247130,-10140.821405,-2221.676944
3420.902416,-370.102971,-7772.162391,-1378.971896
3420.902743,-370.102971,-6957.935855,76.609550
3420.903071,0.000000,-8808.450710,1072.533697
3420.903398,-148.041188,-10807.006753,1072.533697
3420.903726,74.020594,-10584.944971,2221.676944
3420.904053,0.000000,-8068.244768,536.266849
3420.904381,592.164754,-10066.800811,-689.485948
3420.904709,1406.391290,-11843.295072,-1762.019645
3420.905036,0.000000,-9252.574275,-1915.238745
3420.905364,-370.102971,-9400.615463,-1149.143247
3420.905691,1998.556043,-10140.821405,-1762.019645
3420.906019,1554.432478,-10214.842000,0.000000
3420.906346,370.102971,-10436.903782,2145.067394
3420.906674,74.020594,-9696.697840,2604.724693
3420.907002,888.247130,-8882.471304,306.438199
3420.907329,1184.329507,-8808.450710,-1225.752797
3420.907657,0.000000,-9770.718434,-2068.457845
3420.907984,-1184.329507,-7994.224174,-536.266849
3420.908312,0.000000,-7105.977043,995.924147
3420.908639,74.020594,-10214.842000,306.438199
3420.908967,-1258.350101,-11547.212695,0.000000
3420.909295,-1184.329507,-10362.883188,-459.657299
3420.909622,0.000000,-9252.574275,-1532.190996
3420.909950,0.000000,-10066.800811,-919.314598
3420.910277,296.082377,-9400.615463,-1072.533697
3420.910605,-1184.329507,-8808.450710,1762.019645
3420.910932,-1776.494261,-9252.574275,1762.019645
3420.911260,-1110.308913,-9622.677246,-842.705048
3420.911588,-1702.473667,-10066.800811,-1915.238745
3420.911915,0.000000,-8882.471304,-2145.067394
3420.912243,222.061783,-9622.677246,-612.876398
3420.912570,370.102971,-11547.212695,1532.190996
3420.912898,962.267725,-11399.171507,1455.581446
3420.913226,1110.308913,-10584.944971,0.000000
3420.913553,0.000000,-9326.594869,-995.924147
3420.913881,-888.247130,-7624.121203,-1149.143247
3420.914208,-740.205942,-7698.141797,-459.657299
3420.914536,-1110.308913,-8142.265362,459.657299
3420.914863,-888.247130,-8068.244768,1455.581446
3420.915191,1110.308913,-9400.615463,1455.581446
3420.915519,3182.885551,-11325.150913,689.485948
3420.915846,2072.576638,-11473.192101,-306.438199
3420.916174,1184.329507,-9918.759623,-689.485948
3420.916501,592.164754,-6217.729913,-1608.800546
3420.916829,666.185348,-5921.647536,-1455.581446
3420.917156,-666.185348,-10362.883188,459.657299
3420.917484,-592.164754,-11177.109724,1455.581446
3420.917812,2442.679609,-10732.986159,1072.533697
3420.918139,5033.400406,-11621.233289,0.000000
3420.918467,3552.988522,-12213.398043,-689.485948
3420.918794,1110.308913,-10807.006753,459.657299
3420.919122,222.061783,-7105.977043,76.609550
3420.919449,0.000000,-7846.182985,-766.095498
3420.919777,-1628.453072,-9252.574275,0.000000
3420.920105,-2072.576638,-8290.306550,-459.657299
3420.920432,-1258.350101,-9622.677246,-919.314598
3420.920760,1258.350101,-11621.233289,-1762.019645
3420.921087,1184.329507,-12509.480420,-995.924147
3420.921415,148.041188,-10510.924376,1149.143247
3420.921742,1036.288319,-8364.327145,-383.047749
3420.922070,814.226536,-8956.491898,0.000000
3420.922398,1406.391290,-10881.027347,0.000000
3420.922725,1332.370696,-10362.883188,-306.438199
3420.923053,740.205942,-8586.388927,-306.438199
3420.923380,1036.288319,-8956.491898,153.219100
3420.923708,1036.288319,-10436.903782,766.095498
3420.924035,148.041188,-9770.718434,76.609550
3420.924363,-666.185348,-9548.656652,-919.314598
3420.924691,-592.164754,-9622.677246,-2374.896044
3420.925018,0.000000,-9326.594869,-1455.581446
3420.925346,888.247130,-10584.944971,-153.219100
3420.925673,-518.144159,-9474.636058,1455.581446
3420.926001,222.061783,-8808.450710,536.266849
3420.926328,666.185348,-9622.677246,-1225.752797
3420.926656,0.000000,-11251.130318,-1225.752797
3420.926984,-296.082377,-9548.656652,-612.876398
3420.927311,-444.123565,-7254.018232,76.609550
3420.927639,-888.247130,-8438.347739,1455.581446
3420.927966,-740.205942,-10955.047942,536.266849
3420.928294,-1406.391290,-11029.068536,-766.095498
3420.928622,-1332.370696,-8438.347739,-2451.505594
3420.928949,814.226536,-8882.471304,-3064.381992
3420.929277,962.267725,-12213.398043,-1225.752797
3420.929604,-814.226536,-12139.377449,2298.286494
3420.929932,74.020594,-8956.491898,2604.724693
3420.930259,1184.329507,-8068.244768,0.000000
3420.930587,0.000000,-10732.986159,-612.876398
3420.930915,-1554.432478,-9030.512492,-995.924147
3420.931242,-2146.597232,-7179.997637,-1455.581446
3420.931570,-666.185348,-7772.162391,-2451.505594
3420.931897,444.123565,-11325.150913,-1532.190996
3420.932225,1110.308913,-13175.665768,1302.362347
3420.932552,1998.556043,-11177.109724,2451.505594
3420.932880,2368.659014,-10510.924376,842.705048
3420.933208,2220.617826,-8438.347739,919.314598
3420.933535,2368.659014,-7105.977043,-689.485948
3420.933863,-2072.576638,-7105.977043,383.047749
3420.934190,-2294.638420,-9030.512492,-459.657299
3420.934518,0.000000,-10807.006753,-1072.533697
3420.934845,2220.617826,-12879.583391,-919.314598
3420.935173,888.247130,-11029.068536,0.000000
3420.935501,222.061783,-10807.006753,1302.362347
3420.935828,740.205942,-9104.533087,76.609550
3420.936156,2886.803174,-9252.574275,-1455.581446
3420.936483,1480.411884,-9400.615463,-306.438199
3420.936811,518.144159,-8068.244768,689.485948
3420.937138,0.000000,-6587.832884,919.314598
3420.937466,1110.308913,-9622.677246,919.314598
3420.937794,370.102971,-11621.233289,766.095498
3420.938121,-370.102971,-9918.759623,1532.190996
3420.938449,296.082377,-8142.265362,0.000000
3420.938776,592.164754,-9992.780217,-2145.067394
3420.939104,-1998.556043,-11325.150913,-1915.238745
3420.939431,-1110.308913,-9252.574275,-1915.238745
3420.939759,296.082377,-7698.141797,-2451.505594
3420.940087,1850.514855,-10214.842000,-383.047749
3420.940414,2294.638420,-12287.418637,1915.238745
3420.940742,888.247130,-11547.212695,3140.991542
3420.941069,1480.411884,-8068.244768,0.000000
3420.941397,1184.329507,-8734.430116,-2451.505594
3420.941724,-740.205942,-9326.594869,-1302.362347
3420.942052,-370.102971,-8216.285956,383.047749
3420.942380,1776.494261,-7994.224174,229.828649
3420.942707,1406.391290,-11621.233289,-229.828649
3420.943035,1924.535449,-13027.624579,-1072.533697
3420.943362,0.000000,-11769.274478,153.219100
3420.943690,-2146.597232,-8660.409521,0.000000
3420.944018,-2146.597232,-8512.368333,-1149.143247
3420.944345,-1036.288319,-8438.347739,-1915.238745
3420.944673,-1480.411884,-8956.491898,536.266849
3420.945000,-1850.514855,-9474.636058,2374.896044
3420.945328,-962.267725,-9474.636058,-383.047749
3420.945655,296.082377,-10066.800811,-2757.943793
3420.945983,0.000000,-10436.903782,-2604.724693
3420.946311,-1036.288319,-10658.965565,-153.219100
3420.946638,0.000000,-9844.739029,1838.629195
3420.946966,2294.638420,-9326.594869,1378.971896
3420.947293,1258.350101,-10214.842000,1225.752797
3420.947621,1406.391290,-9844.739029,536.266849
3420.947948,814.226536,-7328.038826,76.609550
3420.948276,0.000000,-7920.203579,0.000000
3420.948604,-962.267725,-8808.450710,-1225.752797
3420.948931,-2442.679609,-7624.121203,153.219100
3420.949259,-1332.370696,-7476.080014,1225.752797
3420.949586,1184.329507,-9400.615463,919.314598
3420.949914,1406.391290,-12139.377449,1225.752797
3420.950241,1924.535449,-11843.295072,383.047749
3420.950569,2738.761985,-9326.594869,-1532.190996
3420.950897,2812.782580,-7994.224174,-2451.505594
3420.951224,1702.473667,-10140.821405,-689.485948
3420.951552,-1924.535449,-11029.068536,1762.019645
3420.951879,-1184.329507,-9918.759623,2068.457845
3420.952207,1036.288319,-10214.842000,0.000000
3420.952534,1406.391290,-11251.130318,-1302.362347
3420.952862,1332.370696,-11399.171507,-306.438199
3420.953190,370.102971,-8734.430116,-689.485948
3420.953517,1702.473667,-8438.347739,-1378.971896
3420.953845,592.164754,-9992.780217,-2068.457845
3420.954172,-148.041188,-9474.636058,-1915.238745
3420.954500,-2886.803174,-7402.059420,766.095498
3420.954827,0.000000,-9326.594869,536.266849
3420.955155,740.205942,-12213.398043,1225.752797
3420.955483,1480.411884,-12509.480420,1149.143247
3420.955810,296.082377,-9696.697840,0.000000
3420.956138,1184.329507,-9770.718434,-2298.286494
3420.956465,222.061783,-9844.739029,-3447.429741
3420.956793,148.041188,-8734.430116,-2528.115143
3420.957121,-2220.617826,-8068.244768,-229.828649
3420.957448,-814.226536,-9770.718434,2374.896044
3420.957776,1110.308913,-10510.924376,2145.067394
3420.958103,1406.391290,-11325.150913,1685.410096
3420.958431,296.082377,-7994.224174,76.609550
3420.958758,1110.308913,-9474.636058,-1532.190996
3420.959086,666.185348,-8068.244768,-689.485948
3420.959414,3034.844362,-8068.244768,-1685.410096
3420.959741,592.164754,-8216.285956,536.266849
3420.960069,666.185348,-10658.965565,3294.210641
3420.960396,888.247130,-9918.759623,2221.676944
3420.960724,814.226536,-11029.068536,153.219100
3420.961051,-3182.885551,-8512.368333,-1762.019645
3420.961379,-2146.597232,-9030.512492,-3447.429741
3420.961707,-1628.453072,-9326.594869,-2834.553343
3420.962034,2368.659014,-9770.718434,-2451.505594
3420.962362,1110.308913,-8808.450710,76.609550
3420.962689,-148.041188,-9844.739029,4213.525239
3420.963017,-1110.308913,-8882.471304,1532.190996
3420.963344,444.123565,-11473.192101,-1762.019645
3420.963672,814.226536,-10140.821405,-3524.039291
3420.964000,-888.247130,-9622.677246,-1378.971896
3420.964327,-222.061783,-11325.150913,689.485948
3420.964655,3552.988522,-11177.109724,-919.314598
3420.964982,2664.741391,-10658.965565,-1608.800546
3420.965310,-740.205942,-10214.842000,766.095498
3420.965637,-1036.288319,-9918.759623,689.485948
3420.965965,-444.123565,-7476.080014,-1225.752797
3420.966293,-740.205942,-6957.935855,-995.924147
3420.966620,-2516.700203,-8364.327145,1072.533697
3420.966948,-888.247130,-9400.615463,2451.505594
3420.967275,3034.844362,-10584.944971,1149.143247
3420.967603,3997.112087,-11473.192101,-995.924147
3420.967930,1702.473667,-10436.903782,0.000000
3420.968258,888.247130,-8216.285956,1225.752797
3420.968586,148.041188,-6143.709319,0.000000
3420.968913,-2146.597232,-9030.512492,0.000000
3420.969241,-3108.864956,-10214.842000,306.438199
3420.969568,-1110.308913,-10362.883188,229.828649
3420.969896,1480.411884,-11325.150913,-153.219100
3420.970223,3478.967927,-11251.130318,-1302.362347
3420.970551,2886.803174,-10510.924376,-1378.971896
3420.970879,1110.308913,-9474.636058,919.314598
3420.971206,1332.370696,-8512.368333,0.000000
3420.971534,-1258.350101,-7328.038826,536.266849
3420.971861,-2516.700203,-8882.471304,1149.143247
3420.972189,-3330.926739,-9474.636058,536.266849
3420.972517,-1184.329507,-10066.800811,-1378.971896
3420.972844,518.144159,-11399.171507,-2374.896044
3420.973172,1480.411884,-11991.336260,-1378.971896
3420.973499,148.041188,-10288.862594,76.609550
3420.973827,888.247130,-10658.965565,-1072.533697
3420.974154,518.144159,-9252.574275,-1608.800546
3420.974482,1406.391290,-9844.739029,-459.657299
3420.974810,-592.164754,-9548.656652,1225.752797
3420.975137,370.102971,-9474.636058,1378.971896
3420.975465,1184.329507,-8438.347739,0.000000
3420.975792,1850.514855,-10807.006753,-2298.286494
3420.976120,-444.123565,-11325.150913,-1225.752797
3420.976447,296.082377,-9474.636058,-1072.533697
3420.976775,1036.288319,-7846.182985,-2145.067394
3420.977103,1332.370696,-11325.150913,766.095498
3420.977430,740.205942,-11251.130318,1685.410096
3420.977758,444.123565,-9400.615463,1072.533697
3420.978085,-666.185348,-7994.224174,306.438199
3420.978413,-444.123565,-9104.533087,-2221.676944
3420.978740,-1628.453072,-9696.697840,-1991.848295
3420.979068,-740.205942,-8660.409521,229.828649
3420.979396,148.041188,-6957.935855,383.047749
3420.979723,592.164754,-8068.244768,-459.657299
3420.980051,-962.267725,-10658.965565,689.485948
3420.980378,-1554.432478,-11991.336260,0.000000
3420.980706,1184.329507,-9030.512492,-2221.676944
3420.981033,1776.494261,-8068.244768,-1532.190996
3420.981361,518.144159,-11251.130318,842.705048
3420.981689,1110.308913,-12213.398043,3217.601092
3420.982016,2294.638420,-9178.553681,1225.752797
3420.982344,1110.308913,-7920.203579,612.876398
3420.982671,0.000000,-9770.718434,153.219100
3420.982999,-1184.329507,-8364.327145,-1455.581446
3420.983326,-2442.679609,-7105.977043,-689.485948
3420.983654,-2072.576638,-7624.121203,-612.876398
3420.983982,518.144159,-9844.739029,-536.266849
3420.984309,2886.803174,-12879.583391,1378.971896
3420.984637,3256.906145,-12509.480420,1762.019645
3420.984964,2442.679609,-10214.842000,1302.362347
3420.985292,2886.803174,-8068.244768,76.609550
3420.985620,1258.350101,-7328.038826,-1991.848295
3420.985947,-2738.761985,-9474.636058,306.438199
3420.986275,-2590.720797,-9326.594869,153.219100
3420.986602,0.000000,-9474.636058,-306.438199
3420.986930,2442.679609,-12509.480420,-383.047749
3420.987257,1702.473667,-12287.418637,-306.438199
3420.987585,222.061783,-10288.862594,0.000000
3420.987912,518.144159,-8660.409521,-1072.533697
3420.988240,2220.617826,-9030.512492,-2451.505594
3420.988567,0.000000,-8882.471304,-1455.581446
3420.988895,-1628.453072,-9400.615463,1378.971896
3420.989223,-1036.288319,-7772.162391,1608.800546
3420.989550,444.123565,-10436.903782,383.047749
3420.989878,-1110.308913,-11843.295072,0.000000
3420.990205,-1702.473667,-9918.759623,-306.438199
3420.990533,-2146.597232,-7105.977043,-1532.190996
3420.990860,-518.144159,-9474.636058,-2068.457845
3420.991188,-222.061783,-10510.924376,-3064.381992
3420.991515,1110.308913,-11325.150913,-536.266849
3420.991843,592.164754,-9844.739029,842.705048
3420.992170,1776.494261,-9992.780217,1225.752797
3420.992498,1480.411884,-9252.574275,919.314598
3420.992825,1036.288319,-8882.471304,612.876398
3420.993153,962.267725,-8586.388927,-459.657299
3420.993480,1480.411884,-7698.141797,-1072.533697
3420.993808,1776.494261,-8808.450710,-1455.581446
3420.994135,1628.453072,-11399.171507,1149.143247
3420.994463,2072.576638,-11177.109724,919.314598
3420.994791,592.164754,-9400.615463,0.000000
3420.995118,-444.123565,-9622.677246,-1378.971896
3420.995446,-1924.535449,-11695.253884,-1838.629195
3420.995773,-2072.576638,-8882.471304,-1532.190996
3420.996101,74.020594,-8290.306550,-1149.143247
3420.996428,1702.473667,-9548.656652,-306.438199
3420.996756,888.247130,-9178.553681,1072.533697
3420.997083,-592.164754,-8216.285956,1532.190996
3420.997411,-1702.473667,-10510.924376,0.000000
3420.997738,0.000000,-10955.047942,-2528.115143
3420.998066,296.082377,-10066.800811,-3064.381992
3420.998393,-740.205942,-10214.842000,153.219100
3420.998721,592.164754,-10807.006753,2221.676944
3420.999048,3256.906145,-10955.047942,919.314598
3420.999376,888.247130,-10140.821405,306.438199
3420.999703,-592.164754,-9400.615463,536.266849
3421.000031,-888.247130,-7698.141797,-842.705048
3421.000358,-1184.329507,-7105.977043,-995.924147
3421.000686,-1258.350101,-8068.244768,-536.266849
3421.001014,-1998.556043,-9326.594869,1455.581446
3421.001341,-444.123565,-8438.347739,2681.334243
3421.001669,2886.803174,-11695.253884,1608.800546
3421.001996,3330.926739,-11991.336260,0.000000
3421.002324,3108.864956,-8956.491898,-1378.971896
3421.002651,888.247130,-7031.956449,-995.924147
3421.002979,-148.041188,-9992.780217,-1225.752797
3421.003306,-740.205942,-10436.903782,-383.047749
3421.003634,-518.144159,-9104.533087,1455.581446
3421.003961,518.144159,-9844.739029,1991.848295
3421.004289,2442.679609,-11843.295072,459.657299
3421.004616,2886.803174,-11325.150913,-766.095498
3421.004944,1776.494261,-9918.759623,-306.438199
3421.005271,296.082377,-8216.285956,-689.485948
3421.005599,-592.164754,-7402.059420,-1302.362347
3421.005926,-1924.535449,-9918.759623,-1455.581446
3421.006254,-2442.679609,-10362.883188,-229.828649
3421.006582,-1850.514855,-9770.718434,0.000000
3421.006909,-518.144159,-11177.109724,0.000000
3421.007237,1998.556043,-11251.130318,-306.438199
3421.007564,0.000000,-10288.862594,-383.047749
3421.007892,-1110.308913,-9548.656652,153.219100
3421.008219,-222.061783,-7846.182985,-2298.286494
3421.008547,888.247130,-10066.800811,-2145.067394
3421.008874,74.020594,-11547.212695,-459.657299
3421.009202,0.000000,-11103.089130,2068.457845
3421.009529,444.123565,-8068.244768,2145.067394
3421.009857,2220.617826,-8660.409521,-153.219100
3421.010184,296.082377,-10955.047942,0.000000
3421.010512,0.000000,-9030.512492,229.828649
3421.010839,592.164754,-6809.894666,-766.095498
3421.011167,3034.844362,-9252.574275,-766.095498
3421.011494,3182.885551,-13249.686362,229.828649
3421.011822,814.226536,-10955.047942,1915.238745
3421.012149,-148.041188,-8438.347739,995.924147
3421.012477,-1628.453072,-9252.574275,-383.047749
3421.012805,-1110.308913,-10362.883188,-2681.334243
3421.013132,-1628.453072,-9400.615463,-1072.533697
3421.013460,370.102971,-8438.347739,-306.438199
3421.013787,1924.535449,-7476.080014,-1378.971896
3421.014115,1628.453072,-9474.636058,995.924147
3421.014442,-1184.329507,-10584.944971,1532.190996
3421.014770,-1480.411884,-10807.006753,0.000000
3421.015097,74.020594,-8142.265362,-3294.210641
3421.015425,1924.535449,-9622.677246,-2681.334243
3421.015752,370.102971,-11843.295072,1455.581446
3421.016080,2072.576638,-11399.171507,2451.505594
3421.016407,2146.597232,-8956.491898,766.095498
3421.016735,2294.638420,-9548.656652,-919.314598
3421.017062,-444.123565,-9400.615463,-2451.505594
3421.017390,-1924.535449,-8512.368333,-1532.190996
3421.017717,-2886.803174,-7402.059420,-536.266849
3421.018045,-1332.370696,-9400.615463,-995.924147
3421.018373,296.082377,-10436.903782,1608.800546
3421.018700,2442.679609,-10362.883188,2221.676944
3421.019028,2516.700203,-11103.089130,1915.238745
3421.019355,2960.823768,-9474.636058,612.876398
3421.019683,1850.514855,-6513.812290,-2145.067394
3421.020010,-1924.535449,-7994.224174,-2068.457845
3421.020338,-3701.029710,-9474.636058,-612.876398
3421.020665,-1924.535449,-9696.697840,-153.219100
3421.020993,0.000000,-10658.965565,1149.143247
3421.021320,2516.700203,-11843.295072,1225.752797
3421.021648,3034.844362,-12287.418637,306.438199
3421.021975,2516.700203,-11177.109724,-383.047749
3421.022303,2368.659014,-8956.491898,-919.314598
3421.022630,370.102971,-7476.080014,-1378.971896
3421.022958,-2072.576638,-7550.100608,76.609550
3421.023285,-3330.926739,-8142.265362,1149.143247
3421.023613,-2072.576638,-9696.697840,842.705048
3421.023941,-888.247130,-11325.150913,153.219100
3421.024268,0.000000,-11103.089130,-842.705048
3421.024596,-592.164754,-9178.553681,-1455.581446
3421.024923,-296.082377,-9104.533087,-2298.286494
3421.025251,740.205942,-11621.233289,-2451.505594
3421.025578,740.205942,-10584.944971,-689.485948
3421.025906,-518.144159,-9474.636058,0.000000
3421.026233,-296.082377,-9770.718434,1915.238745
3421.026561,2146.597232,-10214.842000,1225.752797
3421.026888,1406.391290,-9696.697840,1225.752797
3421.027216,-740.205942,-9178.553681,1532.190996
3421.027543,-740.205942,-6587.832884,-1838.629195
3421.027871,1628.453072,-8068.244768,-3524.039291
3421.028198,1406.391290,-10362.883188,-1915.238745
3421.028526,0.000000,-13397.727550,919.314598
3421.028853,-1776.494261,-10732.986159,1685.410096
3421.029181,-740.205942,-7476.080014,-689.485948
3421.029508,296.082377,-10288.862594,-1608.800546
3421.029836,814.226536,-11547.212695,-842.705048
3421.030164,0.000000,-9178.553681,1378.971896
3421.030491,592.164754,-7772.162391,1302.362347
3421.030819,1406.391290,-7920.203579,-1072.533697
3421.031146,740.205942,-8956.491898,-1608.800546
3421.031474,-962.267725,-8956.491898,1149.143247
3421.031801,-814.226536,-8660.409521,1378.971896
3421.032129,2368.659014,-11843.295072,-689.485948
3421.032456,1924.535449,-13693.809927,-995.924147
3421.032784,444.123565,-11843.295072,-919.314598
3421.033111,962.267725,-8068.244768,76.609550
3421.033439,1776.494261,-7772.162391,-995.924147
3421.033766,-444.123565,-9770.718434,306.438199
3421.034094,0.000000,-9474.636058,153.219100
3421.034421,-370.102971,-7328.038826,0.000000
3421.034749,592.164754,-8808.450710,612.876398
3421.035076,444.123565,-11251.130318,612.876398
3421.035404,148.041188,-11547.212695,536.266849
3421.035732,-518.144159,-7476.080014,-919.314598
3421.036059,740.205942,-8290.306550,-2451.505594
3421.036387,296.082377,-10658.965565,-1149.143247
3421.036714,74.020594,-10362.883188,306.438199
3421.037042,1258.350101,-10066.800811,1302.362347
3421.037369,1924.535449,-11177.109724,459.657299
3421.037697,592.164754,-10584.944971,536.266849
3421.038024,-1332.370696,-9104.533087,1455.581446
3421.038352,-1184.329507,-7476.080014,612.876398
3421.038679,1924.535449,-7624.121203,-1915.238745
3421.039007,2516.700203,-10658.965565,-1302.362347
3421.039334,666.185348,-10732.986159,1378.971896
3421.039662,-518.144159,-9844.739029,383.047749
3421.039989,-740.205942,-9844.739029,-153.219100
3421.040317,-444.123565,-10584.944971,-1685.410096
3421.040644,-962.267725,-11325.150913,-383.047749
3421.040972,-1332.370696,-9474.636058,842.705048
3421.041299,148.041188,-7624.121203,-842.705048
3421.041627,-444.123565,-9400.615463,-689.485948
3421.041955,-1110.308913,-9548.656652,-306.438199
3421.042282,-1332.370696,-8586.388927,-689.485948
3421.042610,-1184.329507,-8660.409521,-689.485948
3421.042937,444.123565,-10436.903782,-1302.362347
3421.043265,888.247130,-11843.295072,-766.095498
3421.043592,1850.514855,-10510.924376,842.705048
3421.043920,2812.782580,-8808.450710,306.438199
3421.044247,3256.906145,-10214.842000,536.266849
3421.044575,1702.473667,-9696.697840,153.219100
3421.044902,1036.288319,-7994.224174,-919.314598
3421.045230,592.164754,-7476.080014,-842.705048
3421.045557,962.267725,-12731.542202,0.000000
3421.045885,0.000000,-12583.501014,1149.143247
3421.046212,0.000000,-10140.821405,612.876398
3421.046540,-2220.617826,-9252.574275,-1915.238745
3421.046867,-1554.432478,-9918.759623,-3677.258390
3421.047195,-1924.535449,-9548.656652,-3370.820191
3421.047523,-1036.288319,-8068.244768,-1149.143247
3421.047850,592.164754,-7772.162391,229.828649
3421.048178,2368.659014,-8734.430116,459.657299
3421.048505,2738.761985,-9918.759623,2298.286494
3421.048833,888.247130,-10658.965565,2681.334243
3421.049160,2368.659014,-9252.574275,536.266849
3421.049488,2368.659014,-9696.697840,-1762.019645
3421.049815,1406.391290,-10658.965565,-1378.971896
3421.050143,296.082377,-9918.759623,612.876398
3421.050470,-296.082377,-8438.347739,1532.190996
3421.050798,-2072.576638,-9400.615463,1072.533697
3421.051125,-2368.659014,-11547.212695,-995.924147
3421.051453,-2516.700203,-10140.821405,-2987.772442
3421.051780,-1406.391290,-9030.512492,-1915.238745
3421.052108,-740.205942,-8364.327145,0.000000
3421.052435,1850.514855,-10732.986159,689.485948
3421.052763,2072.576638,-10214.842000,2451.505594
3421.053090,2294.638420,-10066.800811,1838.629195
3421.053418,740.205942,-8660.409521,383.047749
3421.053746,0.000000,-9400.615463,-995.924147
3421.054073,-1184.329507,-9474.636058,-536.266849
3421.054401,-1850.514855,-9474.636058,229.828649
3421.054728,-1036.288319,-9178.553681,-306.438199
3421.055056,888.247130,-10288.862594,-153.219100
3421.055383,1998.556043,-11991.336260,0.000000
3421.055711,1702.473667,-9696.697840,0.000000
3421.056038,2442.679609,-7624.121203,-306.438199
3421.056366,518.144159,-7476.080014,0.000000
3421.056693,-444.123565,-8586.388927,0.000000
3421.057021,-1110.308913,-9474.636058,306.438199
3421.057348,1184.329507,-10658.965565,153.219100
3421.057676,1850.514855,-10510.924376,0.000000
3421.058003,1554.432478,-13249.686362,0.000000
3421.058331,74.020594,-11621.233289,-1838.629195
3421.058658,-1924.535449,-9178.553681,-1838.629195
3421.058986,-2368.659014,-7105.977043,-2528.115143
3421.059314,-1258.350101,-8068.244768,-1378.971896
3421.059641,-296.082377,-11399.171507,689.485948
3421.059969,1406.391290,-11547.212695,2451.505594
3421.060296,1998.556043,-10510.924376,1225.752797
3421.060624,2960.823768,-10066.800811,-383.047749
3421.060951,2220.617826,-9252.574275,-842.705048
3421.061279,-888.247130,-9104.533087,766.095498
3421.061606,-1554.432478,-7772.162391,689.485948
3421.061934,296.082377,-8290.306550,-612.876398
3421.062261,1036.288319,-10436.903782,-1378.971896
3421.062589,2294.638420,-13397.727550,153.219100
3421.062916,1702.473667,-12213.398043,1072.533697
3421.063244,1480.411884,-9844.739029,1072.533697
3421.063571,-888.247130,-8882.471304,-689.485948
3421.063899,-3478.967927,-10140.821405,-1762.019645
3421.064226,-4441.235652,-7624.121203,-2374.896044
3421.064554,-1332.370696,-5329.482782,-995.924147
3421.064882,666.185348,-9326.594869,1455.581446
3421.065209,1406.391290,-10362.883188,1685.410096
3421.065537,592.164754,-7846.182985,1378.971896
3421.065864,666.185348,-8512.368333,0.000000
3421.066192,1998.556043,-10436.903782,-1149.143247
3421.066519,1184.329507,-10881.027347,-383.047749
3421.066847,592.164754,-10362.883188,766.095498
3421.067174,962.267725,-9474.636058,919.314598
3421.067502,1998.556043,-9548.656652,383.047749
3421.067829,-296.082377,-10658.965565,689.485948
3421.068157,-2368.659014,-10436.903782,536.266849
3421.068484,-1924.535449,-7772.162391,-2451.505594
3421.068812,-888.247130,-7772.162391,-3753.867940
3421.069139,-1406.391290,-10807.006753,-1915.238745
3421.069467,-1702.473667,-10955.047942,1302.362347
3421.069794,0.000000,-9918.759623,1532.190996
3421.070122,2294.638420,-9918.759623,536.266849
3421.070449,2220.617826,-11251.130318,-612.876398
3421.070777,-222.061783,-10066.800811,-229.828649
3421.071105,-740.205942,-7476.080014,-153.219100
3421.071432,0.000000,-7698.141797,-919.314598
3421.071760,0.000000,-11251.130318,-229.828649
3421.072087,-1258.350101,-11843.295072,1762.019645
3421.072415,74.020594,-9844.739029,1991.848295
3421.072742,2220.617826,-8142.265362,-689.485948
3421.073070,3256.906145,-8956.491898,-2068.457845
3421.073397,814.226536,-10436.903782,-459.657299
3421.073725,-518.144159,-8216.285956,-536.266849
3421.074052,296.082377,-7179.997637,-383.047749
3421.074380,2738.761985,-10584.944971,-536.266849
3421.074707,1850.514855,-11843.295072,2068.457845
3421.075035,0.000000,-10807.006753,2911.162892
3421.075362,0.000000,-8364.327145,-306.438199
3421.075690,1554.432478,-9252.574275,-2145.067394
3421.076017,0.000000,-9326.594869,-2987.772442
3421.076345,-2146.597232,-8882.471304,-689.485948
3421.076673,-1258.350101,-8512.368333,-459.657299
3421.077000,2590.720797,-10214.842000,-1302.362347
3421.077328,2738.761985,-13471.748144,-306.438199
3421.077655,1406.391290,-11769.274478,1608.800546
3421.077983,888.247130,-6957.935855,1378.971896
3421.078310,1924.535449,-8734.430116,766.095498
3421.078638,2442.679609,-11029.068536,0.000000
3421.078965,592.164754,-9104.533087,76.609550
3421.079293,148.041188,-7698.141797,-306.438199
3421.079620,2072.576638,-9696.697840,-689.485948
3421.079948,1850.514855,-14804.118840,0.000000
3421.080275,296.082377,-12583.501014,-383.047749
3421.080603,-2368.659014,-9474.636058,-995.924147
3421.080930,-2738.761985,-9696.697840,-1532.190996
3421.081258,-1184.329507,-10214.842000,-2528.115143
3421.081585,-518.144159,-10066.800811,-536.266849
3421.081913,0.000000,-7846.182985,1915.238745
3421.082240,296.082377,-6661.853478,1532.190996
3421.082568,1110.308913,-7846.182985,612.876398
3421.082896,592.164754,-9252.574275,-689.485948
3421.083223,-1184.329507,-10288.862594,1149.143247
3421.083551,-1036.288319,-8808.450710,919.314598
3421.083878,-296.082377,-9770.718434,0.000000
3421.084206,962.267725,-11991.336260,-459.657299
3421.084533,1406.391290,-10214.842000,536.266849
3421.084861,0.000000,-9696.697840,612.876398
3421.085188,-1776.494261,-8808.450710,0.000000
3421.085516,-1924.535449,-8438.347739,-2528.115143
3421.085843,-3108.864956,-8216.285956,-1991.848295
3421.086171,-3108.864956,-8290.306550,0.000000
3421.086498,-1480.411884,-8956.491898,1225.752797
3421.086826,1110.308913,-10658.965565,2145.067394
3421.087154,2664.741391,-10955.047942,689.485948
3421.087481,2294.638420,-10066.800811,-1838.629195
3421.087809,296.082377,-7254.018232,-2681.334243
3421.088136,-148.041188,-9178.553681,-2604.724693
3421.088464,-1850.514855,-10807.006753,-1532.190996
3421.088792,-814.226536,-10066.800811,0.000000
3421.089119,0.000000,-9252.574275,383.047749
3421.089447,1776.494261,-10955.047942,1991.848295
3421.089774,3775.050304,-12213.398043,1149.143247
3421.090102,2812.782580,-11103.089130,0.000000
3421.090429,1110.308913,-8290.306550,-1915.238745
3421.090757,814.226536,-7254.018232,-4213.525239
3421.091085,-740.205942,-9400.615463,-2451.505594
3421.091412,74.020594,-10955.047942,1072.533697
3421.091740,888.247130,-9474.636058,1532.190996
3421.092067,592.164754,-10436.903782,919.314598
3421.092395,1110.308913,-12731.542202,0.000000
3421.092722,1702.473667,-10732.986159,-1378.971896
3421.093050,814.226536,-7179.997637,-1455.581446
3421.093378,-148.041188,-7254.018232,-1378.971896
3421.093705,1110.308913,-10140.821405,-995.924147
3421.094033,592.164754,-11399.171507,229.828649
3421.094360,1406.391290,-9992.780217,1991.848295
3421.094688,888.247130,-8068.244768,766.095498
3421.095015,888.247130,-8660.409521,0.000000
3421.095343,-148.041188,-9696.697840,536.266849
3421.095671,740.205942,-9326.594869,383.047749
3421.095998,1110.308913,-7772.162391,-995.924147
3421.096326,2886.803174,-10881.027347,-842.705048
3421.096653,2368.659014,-12065.356855,459.657299
3421.096981,1110.308913,-10436.903782,1685.410096
3421.097309,148.041188,-7550.100608,229.828649
3421.097636,-1258.350101,-8512.368333,76.609550
3421.097964,-2738.761985,-9918.759623,-536.266849
3421.098291,-1998.556043,-9622.677246,-612.876398
3421.098619,-592.164754,-9548.656652,-153.219100
3421.098946,1258.350101,-10288.862594,0.000000
3421.099274,74.020594,-9326.594869,-383.047749
3421.099602,-592.164754,-8660.409521,-383.047749
3421.099929,74.020594,-8142.265362,-919.314598
3421.100257,814.226536,-10881.027347,-229.828649
3421.100584,370.102971,-11843.295072,1378.971896
3421.100912,444.123565,-10362.883188,1302.362347
3421.101239,2072.576638,-10510.924376,1455.581446
3421.101567,1850.514855,-10807.006753,842.705048
3421.101895,-740.205942,-10288.862594,-536.266849
3421.102222,-3997.112087,-8364.327145,-1838.629195
3421.102550,-2368.659014,-9400.615463,-3217.601092
3421.102877,-1184.329507,-7328.038826,-4366.744339
3421.103205,-1258.350101,-10436.903782,-229.828649
3421.103532,0.000000,-11991.336260,2298.286494
3421.103860,1258.350101,-10881.027347,2451.505594
3421.104188,1924.535449,-9770.718434,383.047749
3421.104515,1776.494261,-9326.594869,-1532.190996
3421.104843,444.123565,-8068.244768,-1378.971896
3421.105170,-518.144159,-7698.141797,-229.828649
3421.105498,-296.082377,-9030.512492,612.876398
3421.105826,0.000000,-10658.965565,842.705048
3421.106153,-592.164754,-11103.089130,459.657299
3421.106481,-592.164754,-9770.718434,1762.019645
3421.106808,1406.391290,-9622.677246,306.438199
3421.107136,3108.864956,-9474.636058,-2145.067394
3421.107463,1184.329507,-9400.615463,-1608.800546
3421.107791,-592.164754,-8882.471304,-459.657299
3421.108119,0.000000,-7994.224174,689.485948
3421.108446,1332.370696,-7846.182985,1685.410096
3421.108774,1406.391290,-10288.862594,2068.457845
3421.109101,-1776.494261,-11029.068536,1532.190996
3421.109429,-1110.308913,-10584.944971,-766.095498
3421.109756,962.267725,-9770.718434,-3830.477490
3421.110084,148.041188,-9622.677246,-2834.553343
3421.110412,-1924.535449,-8438.347739,-1225.752797
3421.110739,-1332.370696,-8956.491898,-306.438199
3421.111067,296.082377,-9992.780217,-842.705048
3421.111394,2664.741391,-12213.398043,0.000000
3421.111722,2368.659014,-11251.130318,1302.362347
3421.112049,1480.411884,-9474.636058,2451.505594
3421.112377,2294.638420,-8586.388927,1378.971896
3421.112705,2590.720797,-9104.533087,-1838.629195
3421.113032,888.247130,-9252.574275,-1991.848295
3421.113360,0.000000,-9770.718434,-1225.752797
3421.113687,-370.102971,-8808.450710,-766.095498
3421.114015,888.247130,-12879.583391,0.000000
3421.114343,2072.576638,-13767.830521,0.000000
3421.114670,666.185348,-10436.903782,-153.219100
3421.114998,-1776.494261,-8882.471304,-536.266849
3421.115325,0.000000,-8808.450710,-995.924147
3421.115653,592.164754,-9178.553681,-1608.800546
3421.115980,148.041188,-8216.285956,0.000000
3421.116308,-962.267725,-7698.141797,1838.629195
3421.116636,-888.247130,-7772.162391,1455.581446
3421.116963,962.267725,-9252.574275,0.000000
3421.117291,888.247130,-11029.068536,-1149.143247
3421.117618,740.205942,-11177.109724,153.219100
3421.117946,518.144159,-9104.533087,-383.047749
3421.118273,1776.494261,-10510.924376,-995.924147
3421.118601,1110.308913,-9918.759623,0.000000
3421.118929,-740.205942,-10732.986159,1608.800546
3421.119256,-1776.494261,-8364.327145,1378.971896
3421.119584,0.000000,-7476.080014,-766.095498
3421.119911,-592.164754,-9030.512492,-1532.190996
3421.120239,-1184.329507,-10807.006753,842.705048
3421.120566,-1406.391290,-8364.327145,1532.190996
3421.120894,518.144159,-7846.182985,-229.828649
3421.121222,1184.329507,-10214.842000,-612.876398
3421.121549,148.041188,-11695.253884,766.095498
3421.121877,-1184.329507,-8882.471304,-689.485948
3421.122204,-2072.576638,-7550.100608,-842.705048
3421.122532,-962.267725,-10362.883188,-2298.286494
3421.122860,-296.082377,-11251.130318,-153.219100
3421.123187,592.164754,-10066.800811,1608.800546
3421.123515,1850.514855,-10510.924376,1685.410096
3421.123842,2442.679609,-10510.924376,306.438199
3421.124170,888.247130,-10066.800811,-536.266849
3421.124497,-518.144159,-7624.121203,-1149.143247
3421.124825,-1776.494261,-7179.997637,-1915.238745
3421.125153,-888.247130,-9696.697840,-1149.143247
3421.125480,888.247130,-12583.501014,-153.219100
3421.125808,1998.556043,-12953.603985,0.000000
3421.126135,2812.782580,-10658.965565,-536.266849
3421.126463,2442.679609,-11177.109724,76.609550
3421.126790,1998.556043,-9844.739029,229.828649
3421.127118,370.102971,-7698.141797,229.828649
3421.127446,-2072.576638,-6291.750507,306.438199
3421.127773,-1702.473667,-8734.430116,459.657299
3421.128101,-1628.453072,-9844.739029,-689.485948
3421.128428,-296.082377,-11843.295072,-306.438199
3421.128756,-1184.329507,-9770.718434,-1302.362347
3421.129083,-370.102971,-8808.450710,-1915.238745
3421.129411,-296.082377,-9622.677246,-2528.115143
3421.129739,1628.453072,-9104.533087,-2298.286494
3421.130066,1850.514855,-8512.368333,76.609550
3421.130394,1628.453072,-10510.924376,3370.820191
3421.130721,2664.741391,-11251.130318,2681.334243
3421.131049,2886.803174,-10066.800811,612.876398
3421.131376,1332.370696,-8068.244768,0.000000
3421.131704,888.247130,-8438.347739,-612.876398
3421.132032,592.164754,-9474.636058,-1378.971896
3421.132359,-148.041188,-8438.347739,-1302.362347
3421.132687,222.061783,-10436.903782,-612.876398
3421.133014,1480.411884,-10288.862594,0.000000
3421.133342,2294.638420,-10288.862594,153.219100
3421.133670,444.123565,-9622.677246,0.000000
3421.133997,0.000000,-10066.800811,229.828649
3421.134325,-296.082377,-9326.594869,-1378.971896
3421.134652,296.082377,-10214.842000,-1838.629195
3421.134980,666.185348,-9844.739029,-1378.971896
3421.135307,888.247130,-10288.862594,306.438199
3421.135635,74.020594,-8512.368333,1225.752797
3421.135963,222.061783,-11029.068536,1685.410096
3421.136290,148.041188,-12139.377449,-459.657299
3421.136618,0.000000,-9696.697840,-1838.629195
3421.136945,0.000000,-9178.553681,-2221.676944
3421.137273,592.164754,-10436.903782,-1225.752797
3421.137600,888.247130,-11621.233289,383.047749
3421.137928,518.144159,-9252.574275,1762.019645
3421.138256,814.226536,-8216.285956,766.095498
3421.138583,-444.123565,-9030.512492,306.438199
3421.138911,148.041188,-10066.800811,-153.219100
3421.139238,-1258.350101,-8216.285956,0.000000
3421.139566,-2368.659014,-9696.697840,229.828649
3421.139893,-962.267725,-9770.718434,-306.438199
3421.140221,1258.350101,-11029.068536,-1302.362347
3421.140549,592.164754,-10955.047942,-842.705048
3421.140876,888.247130,-9030.512492,612.876398
3421.141204,518.144159,-7624.121203,229.828649
3421.141531,74.020594,-8290.306550,153.219100
3421.141859,-1850.514855,-8512.368333,689.485948
3421.142187,-1110.308913,-8438.347739,2068.457845
3421.142514,518.144159,-9178.553681,612.876398
3421.142842,1332.370696,-11843.295072,0.000000
3421.143169,814.226536,-11251.130318,-1685.410096
3421.143497,1184.329507,-10584.944971,-995.924147
3421.143824,518.144159,-9844.739029,-229.828649
3421.144152,962.267725,-9030.512492,-612.876398
3421.144480,-666.185348,-9474.636058,0.000000
3421.144807,-2072.576638,-9474.636058,1685.410096
3421.145135,-1184.329507,-10214.842000,0.000000
3421.145462,-444.123565,-10288.862594,-1455.581446
3421.145790,-148.041188,-9400.615463,-2374.896044
3421.146117,-1258.350101,-8586.388927,-1302.362347
3421.146445,-1184.329507,-8956.491898,-842.705048
3421.146773,370.102971,-8882.471304,-1149.143247
3421.147100,2368.659014,-11325.150913,306.438199
3421.147428,2294.638420,-11621.233289,306.438199
3421.147755,2072.576638,-10955.047942,1302.362347
3421.148083,2072.576638,-9400.615463,153.219100
3421.148410,1628.453072,-10436.903782,0.000000
3421.148738,444.123565,-9770.718434,-459.657299
3421.149066,888.247130,-8290.306550,-536.266849
3421.149393,222.061783,-8290.306550,0.000000
3421.149721,1998.556043,-10510.924376,1072.533697
3421.150048,2294.638420,-11029.068536,306.438199
3421.150376,888.247130,-9844.739029,1302.362347
3421.150704,-148.041188,-8660.409521,-1225.752797
3421.151031,-444.123565,-10732.986159,-1991.848295
3421.151359,-666.185348,-9992.780217,-2987.772442
3421.151686,0.000000,-9326.594869,-1762.019645
3421.152014,888.247130,-8364.327145,153.219100
3421.152341,2220.617826,-8438.347739,1685.410096
3421.152669,1702.473667,-9992.780217,2451.505594
3421.152997,666.185348,-9918.759623,2681.334243
3421.153324,888.247130,-8512.368333,-459.657299
3421.153652,1776.494261,-8068.244768,-2987.772442
3421.153979,740.205942,-10955.047942,-1378.971896
3421.154307,-518.144159,-10362.883188,-842.705048
3421.154634,148.041188,-8808.450710,536.266849
3421.154962,0.000000,-8882.471304,459.657299
3421.155290,1628.453072,-11103.089130,-612.876398
3421.155617,0.000000,-10584.944971,-153.219100
3421.155945,-296.082377,-8882.471304,1838.629195
3421.156272,-296.082377,-7550.100608,-1302.362347
3421.156600,-592.164754,-10584.944971,76.609550
3421.156927,-1332.370696,-9622.677246,306.438199
3421.157255,-370.102971,-8734.430116,76.609550
3421.157583,74.020594,-9400.615463,536.266849
3421.157910,1924.535449,-11029.068536,383.047749
3421.158238,1258.350101,-9178.553681,0.000000
3421.158565,-1110.308913,-8734.430116,766.095498
3421.158893,-1998.556043,-8438.347739,-536.266849
3421.159221,-1776.494261,-9030.512492,-612.876398
3421.159548,-444.123565,-11621.233289,-1378.971896
3421.159876,0.000000,-11177.109724,-1455.581446
3421.160203,0.000000,-9474.636058,-766.095498
3421.160531,1036.288319,-10214.842000,766.095498
3421.160858,3108.864956,-11399.171507,459.657299
3421.161186,1850.514855,-9252.574275,2068.457845
3421.161514,592.164754,-8364.327145,995.924147
3421.161841,-370.102971,-8438.347739,-229.828649
3421.162169,-740.205942,-9992.780217,0.000000
3421.162496,-1628.453072,-10732.986159,-689.485948
3421.162824,-2664.741391,-8956.491898,0.000000
3421.163151,-2516.700203,-9030.512492,-995.924147
3421.163479,-1702.473667,-10066.800811,-1915.238745
3421.163807,-2146.597232,-9104.533087,-2068.457845
3421.164134,-1036.288319,-9770.718434,-1149.143247
3421.164462,148.041188,-9474.636058,-1455.581446
3421.164789,2146.597232,-11843.295072,383.047749
3421.165117,1850.514855,-10881.027347,459.657299
3421.165444,666.185348,-9252.574275,1762.019645
3421.165772,666.185348,-9252.574275,1455.581446
3421.166100,2294.638420,-8586.388927,-995.924147
3421.166427,1924.535449,-10066.800811,-383.047749
3421.166755,1480.411884,-10214.842000,1225.752797
3421.167082,1776.494261,-8512.368333,919.314598
3421.167410,1110.308913,-8142.265362,0.000000
3421.167738,1850.514855,-11843.295072,-919.314598
3421.168065,518.144159,-11843.295072,76.609550
3421.168393,222.061783,-8438.347739,-919.314598
3421.168720,-1184.329507,-8142.265362,-842.705048
3421.169048,-148.041188,-11251.130318,-1378.971896
3421.169375,740.205942,-10066.800811,-1149.143247
3421.169703,296.082377,-9252.574275,766.095498
3421.170031,-740.205942,-10362.883188,1225.752797
3421.170358,148.041188,-11029.068536,-1225.752797
3421.170686,1110.308913,-8882.471304,-3064.381992
3421.171013,740.205942,-7994.224174,-1915.238745
3421.171341,222.061783,-9474.636058,1149.143247
3421.171668,2442.679609,-11621.233289,3064.381992
3421.171996,2812.782580,-10658.965565,1991.848295
3421.172324,2146.597232,-9030.512492,153.219100
3421.172651,814.226536,-8142.265362,-306.438199
3421.172979,666.185348,-9770.718434,-842.705048
3421.173306,-1184.329507,-9992.780217,-766.095498
3421.173634,-3478.967927,-9030.512492,-766.095498
3421.173961,-3256.906145,-7550.100608,-1149.143247
3421.174289,1110.308913,-9992.780217,-2068.457845
3421.174617,1702.473667,-11251.130318,0.000000
3421.174944,814.226536,-11399.171507,2757.943793
3421.175272,2072.576638,-8512.368333,1225.752797
3421.175599,2368.659014,-7254.018232,-995.924147
3421.175927,518.144159,-8586.388927,-1915.238745
3421.176255,-1480.411884,-8512.368333,-383.047749
3421.176582,-1924.535449,-8438.347739,1072.533697
3421.176910,296.082377,-10658.965565,0.000000
3421.177237,222.061783,-11769.274478,-1762.019645
3421.177565,444.123565,-10288.862594,-995.924147
3421.177892,1332.370696,-10436.903782,-459.657299
3421.178220,2516.700203,-10807.006753,229.828649
3421.178548,2664.741391,-11991.336260,0.000000
3421.178875,1406.391290,-10140.821405,-383.047749
3421.179203,-1110.308913,-6291.750507,229.828649
3421.179530,-1924.535449,-7179.997637,689.485948
3421.179858,-1998.556043,-10658.965565,612.876398
3421.180185,-1702.473667,-9622.677246,153.219100
3421.180513,-2072.576638,-9400.615463,-1302.362347
3421.180841,-1554.432478,-8956.491898,-3370.820191
3421.181168,-1850.514855,-9844.739029,-2221.676944
3421.181496,-740.205942,-10807.006753,-1225.752797
3421.181823,-296.082377,-9252.574275,-919.314598
3421.182151,1480.411884,-11029.068536,229.828649
3421.182478,2442.679609,-11843.295072,1455.581446
3421.182806,2516.700203,-10510.924376,2068.457845
3421.183134,2220.617826,-9104.533087,1915.238745
3421.183461,1480.411884,-8068.244768,0.000000
3421.183789,1332.370696,-9844.739029,0.000000
3421.184116,1702.473667,-8438.347739,-1302.362347
3421.184444,370.102971,-7105.977043,-689.485948
3421.184771,-518.144159,-10510.924376,76.609550
3421.185099,296.082377,-12731.542202,153.219100
3421.185427,962.267725,-11621.233289,-1149.143247
3421.185754,-962.267725,-9178.553681,-229.828649
3421.186082,-2146.597232,-9474.636058,-612.876398
3421.186409,-1702.473667,-9548.656652,-995.924147
3421.186737,740.205942,-10140.821405,-1685.410096
3421.187065,2220.617826,-9548.656652,-1225.752797
3421.187392,740.205942,-7920.203579,1838.629195
3421.187720,-1036.288319,-7624.121203,2911.162892
3421.188047,-666.185348,-10732.986159,1915.238745
3421.188375,1036.288319,-9844.739029,-2068.457845
3421.188702,1850.514855,-8660.409521,-2681.334243
3421.189030,1554.432478,-9918.759623,-689.485948
3421.189357,1998.556043,-11769.274478,1915.238745
3421.189685,3256.906145,-11103.089130,1072.533697
3421.190012,1850.514855,-9474.636058,689.485948
3421.190340,0.000000,-9030.512492,153.219100
3421.190668,-1110.308913,-8512.368333,-536.266849
3421.190995,-1332.370696,-8956.491898,0.000000
3421.191323,-1258.350101,-8216.285956,0.000000
3421.191650,-1776.494261,-9622.677246,229.828649
3421.191978,0.000000,-10288.862594,766.095498
3421.192305,2590.720797,-10436.903782,76.609550
3421.192633,1924.535449,-9474.636058,-612.876398
3421.192960,888.247130,-9844.739029,153.219100
3421.193288,296.082377,-6735.874072,0.000000
3421.193615,1554.432478,-6513.812290,-383.047749
3421.193943,-1554.432478,-9030.512492,1072.533697
3421.194271,-2146.597232,-11399.171507,2374.896044
3421.194598,296.082377,-10362.883188,0.000000
3421.194926,1998.556043,-10658.965565,-1915.238745
3421.195253,2960.823768,-11695.253884,-2221.676944
3421.195581,2442.679609,-12139.377449,-229.828649
3421.195908,1628.453072,-9770.718434,306.438199
3421.196236,1110.308913,-8290.306550,-306.438199
3421.196563,-592.164754,-9918.759623,-306.438199
3421.196891,-2886.803174,-9474.636058,383.047749
3421.197218,-2738.761985,-7698.141797,-306.438199
3421.197546,-1850.514855,-9326.594869,-842.705048
3421.197874,814.226536,-11547.212695,-2757.943793
3421.198201,-666.185348,-9770.718434,-1685.410096
3421.198529,-1776.494261,-8808.450710,-306.438199
3421.198856,-444.123565,-9548.656652,-1378.971896
3421.199184,1776.494261,-12583.501014,-383.047749
3421.199511,1332.370696,-10955.047942,0.000000
3421.199839,1406.391290,-9622.677246,689.485948
3421.200166,1480.411884,-10658.965565,612.876398
3421.200494,2738.761985,-10510.924376,536.266849
3421.200822,296.082377,-9548.656652,306.438199
3421.201149,-370.102971,-9030.512492,0.000000
3421.201477,0.000000,-6809.894666,-1991.848295
3421.201804,1110.308913,-10288.862594,-689.485948
3421.202132,1258.350101,-12139.377449,1072.533697
3421.202459,1258.350101,-9400.615463,766.095498
3421.202787,-1036.288319,-7254.018232,0.000000
3421.203114,-1924.535449,-9992.780217,-842.705048
3421.203442,-3627.009116,-9252.574275,-2068.457845
3421.203769,-2738.761985,-7402.059420,-1685.410096
3421.204097,0.000000,-8734.430116,-995.924147
3421.204425,1406.391290,-10807.006753,919.314598
3421.204752,1332.370696,-9696.697840,1762.019645
3421.205080,1628.453072,-7328.038826,2451.505594
3421.205407,1258.350101,-9622.677246,1608.800546
3421.205735,962.267725,-10584.944971,-1149.143247
3421.206062,814.226536,-9622.677246,-2681.334243
3421.206390,148.041188,-7624.121203,-1991.848295
3421.206717,666.185348,-9770.718434,536.266849
3421.207045,962.267725,-11843.295072,2221.676944
3421.207372,1184.329507,-12065.356855,2145.067394
3421.207700,0.000000,-9474.636058,-995.924147
3421.208028,-370.102971,-9326.594869,-1608.800546
3421.208355,-518.144159,-9844.739029,-2451.505594
3421.208683,518.144159,-10288.862594,-919.314598
3421.209010,-740.205942,-8512.368333,612.876398
3421.209338,-1258.350101,-8882.471304,1149.143247
3421.209665,296.082377,-10214.842000,1378.971896
3421.209993,2368.659014,-10955.047942,0.000000
3421.210320,1258.350101,-9030.512492,-995.924147
3421.210648,370.102971,-8882.471304,0.000000
3421.210975,1628.453072,-7772.162391,-306.438199
3421.211303,1924.535449,-9252.574275,-459.657299
3421.211631,0.000000,-11473.192101,842.705048
3421.211958,-1036.288319,-9252.574275,536.266849
3421.212286,1036.288319,-9474.636058,0.000000
3421.212613,4293.194464,-11769.274478,-153.219100
3421.212941,4959.379811,-11547.212695,919.314598
3421.213268,2072.576638,-8956.491898,2604.724693
3421.213596,666.185348,-9030.512492,2757.943793
3421.213923,1258.350101,-8956.491898,-1302.362347
3421.214251,-666.185348,-8512.368333,-2528.115143
3421.214578,-5181.441594,-6439.791695,-1608.800546
3421.214906,-4737.318029,-7402.059420,-1762.019645
3421.215234,-2664.741391,-9844.739029,-2987.772442
3421.215561,0.000000,-12583.501014,-1149.143247
3421.215889,1702.473667,-11029.068536,306.438199
3421.216216,3552.988522,-10955.047942,2145.067394
3421.216544,3701.029710,-11399.171507,1455.581446
3421.216871,2886.803174,-11177.109724,0.000000
3421.217199,444.123565,-7402.059420,-766.095498
3421.217526,-666.185348,-6957.935855,689.485948
3421.217854,-1036.288319,-8808.450710,536.266849
3421.218182,-814.226536,-10140.821405,612.876398
3421.218509,222.061783,-11917.315666,229.828649
3421.218837,1776.494261,-12509.480420,-1072.533697
3421.219164,1036.288319,-13175.665768,-2451.505594
3421.219492,370.102971,-9992.780217,-2221.676944
3421.219819,-370.102971,-7254.018232,-1532.190996
3421.220147,-4219.173869,-7846.182985,76.609550
3421.220474,-4367.215058,-8808.450710,306.438199
3421.220802,-2368.659014,-7994.224174,0.000000
3421.221129,370.102971,-9474.636058,76.609550
3421.221457,370.102971,-10140.821405,689.485948
3421.221785,592.164754,-9770.718434,919.314598
3421.222112,1036.288319,-8882.471304,-459.657299
3421.222440,962.267725,-10807.006753,-536.266849
3421.222767,-888.247130,-11325.150913,-536.266849
3421.223095,-444.123565,-8068.244768,-1762.019645
3421.223422,-370.102971,-7846.182985,0.000000
3421.223750,2146.597232,-11029.068536,1302.362347
3421.224077,1628.453072,-10436.903782,2374.896044
3421.224405,1332.370696,-10362.883188,3294.210641
3421.224732,148.041188,-7994.224174,-842.705048
3421.225060,518.144159,-9696.697840,-2987.772442
3421.225388,-1332.370696,-9326.594869,-1838.629195
3421.225715,-1924.535449,-7772.162391,-306.438199
3421.226043,-1628.453072,-7846.182985,459.657299
3421.226370,0.000000,-10881.027347,995.924147
3421.226698,1406.391290,-12435.459826,1302.362347
3421.227025,2664.741391,-11251.130318,842.705048
3421.227353,2738.761985,-7994.224174,-306.438199
3421.227680,666.185348,-9696.697840,-995.924147
3421.228008,740.205942,-8364.327145,-1072.533697
3421.228335,-888.247130,-5847.626942,-1302.362347
3421.228663,-2664.741391,-7920.203579,536.266849
3421.228991,-1110.308913,-10955.047942,536.266849
3421.229318,1406.391290,-12213.398043,-536.266849
3421.229646,3404.947333,-12805.562797,383.047749
3421.229973,3034.844362,-10584.944971,-536.266849
3421.230301,2072.576638,-9252.574275,0.000000
3421.230628,1628.453072,-9992.780217,689.485948
3421.230956,-148.041188,-8882.471304,-689.485948
3421.231283,-1850.514855,-8438.347739,-229.828649
3421.231611,-2516.700203,-7994.224174,-842.705048
3421.231938,-1480.411884,-8660.409521,-1149.143247
3421.232266,-1258.350101,-10066.800811,-1149.143247
3421.232594,-666.185348,-11029.068536,383.047749
3421.232921,1110.308913,-10436.903782,-1149.143247
3421.233249,3627.009116,-11177.109724,-2298.286494
3421.233576,1850.514855,-10658.965565,-1149.143247
3421.233904,222.061783,-9474.636058,306.438199
3421.234231,592.164754,-7402.059420,76.609550
3421.234559,1332.370696,-9474.636058,1302.362347
3421.234886,962.267725,-10584.944971,2221.676944
3421.235214,888.247130,-9474.636058,2145.067394
3421.235542,1850.514855,-8808.450710,1455.581446
3421.235869,3627.009116,-11399.171507,-766.095498
3421.236197,2294.638420,-12583.501014,-2068.457845
3421.236524,-888.247130,-8956.491898,-842.705048
3421.236852,-2220.617826,-7254.018232,-1608.800546
3421.237179,-2664.741391,-8660.409521,-1762.019645
3421.237507,-1924.535449,-11547.212695,-612.876398
3421.237834,-1554.432478,-10066.800811,229.828649
3421.238162,-888.247130,-9252.574275,1455.581446
3421.238489,814.226536,-8956.491898,383.047749
3421.238817,1776.494261,-8216.285956,-689.485948
3421.239145,1110.308913,-7920.203579,-689.485948
3421.239472,0.000000,-8142.265362,1685.410096
3421.239800,-1332.370696,-8882.471304,919.314598
3421.240127,222.061783,-10807.006753,-229.828649
3421.240455,296.082377,-11251.130318,-612.876398
3421.240782,888.247130,-10436.903782,76.609550
3421.241110,814.226536,-10214.842000,1149.143247
3421.241437,1480.411884,-11177.109724,1378.971896
3421.241765,814.226536,-9918.759623,-1378.971896
3421.242092,-370.102971,-8956.491898,-1915.238745
3421.242420,-1998.556043,-7846.182985,-1072.533697
3421.242748,-1184.329507,-9178.553681,0.000000
3421.243075,148.041188,-10436.903782,1149.143247
3421.243403,444.123565,-9400.615463,1838.629195
3421.243730,370.102971,-10288.862594,612.876398
3421.244058,2220.617826,-11177.109724,-995.924147
3421.244385,2590.720797,-10658.965565,-2451.505594
3421.244713,-740.205942,-8808.450710,-995.924147
3421.245040,-1036.288319,-8586.388927,0.000000
3421.245368,0.000000,-7994.224174,-842.705048
3421.245695,0.000000,-11177.109724,229.828649
3421.246023,592.164754,-11029.068536,1072.533697
3421.246351,1036.288319,-9918.759623,1378.971896
3421.246678,2368.659014,-10732.986159,1072.533697
3421.247006,2886.803174,-11843.295072,-153.219100
3421.247333,-148.041188,-7476.080014,-1302.362347
3421.247661,-1998.556043,-7328.038826,383.047749
3421.247988,-1628.453072,-8586.388927,-383.047749
3421.248316,-370.102971,-10732.986159,-383.047749
3421.248643,-2368.659014,-9770.718434,0.000000
3421.248971,-1406.391290,-9178.553681,-766.095498
3421.249298,0.000000,-9770.718434,-1915.238745
3421.249626,888.247130,-10288.862594,-1838.629195
3421.249954,370.102971,-9104.533087,-612.876398
3421.250281,1628.453072,-9474.636058,766.095498
3421.250609,1998.556043,-10510.924376,153.219100
3421.250936,1850.514855,-10436.903782,536.266849
3421.251264,1776.494261,-9622.677246,-689.485948
3421.251591,148.041188,-9104.533087,-306.438199
3421.251919,0.000000,-10510.924376,536.266849
3421.252246,888.247130,-9918.759623,-1225.752797
3421.252574,2368.659014,-9770.718434,-2451.505594
3421.252902,888.247130,-11177.109724,0.000000
3421.253229,1776.494261,-10732.986159,306.438199
3421.253557,1258.350101,-9770.718434,-383.047749
3421.253884,888.247130,-9918.759623,-229.828649
3421.254212,-592.164754,-10362.883188,-1302.362347
3421.254539,-1480.411884,-9252.574275,-612.876398
3421.254867,0.000000,-8734.430116,-1532.190996
3421.255194,444.123565,-10436.903782,-689.485948
3421.255522,-740.205942,-9474.636058,-919.314598
3421.255849,0.000000,-8660.409521,-306.438199
3421.256177,-296.082377,-9770.718434,-689.485948
3421.256505,1332.370696,-11251.130318,-612.876398
3421.256832,1110.308913,-9548.656652,-612.876398
3421.257160,1406.391290,-9548.656652,1378.971896
3421.257487,1036.288319,-9844.739029,1302.362347
3421.257815,1628.453072,-9844.739029,0.000000
3421.258142,814.226536,-9474.636058,-459.657299
3421.258470,-1184.329507,-8290.306550,0.000000
3421.258797,-1184.329507,-9326.594869,-459.657299
3421.259125,-592.164754,-9844.739029,-459.657299
3421.259452,-518.144159,-10362.883188,-383.047749
3421.259780,-296.082377,-10140.821405,-383.047749
3421.260108,0.000000,-9326.594869,153.219100
3421.260435,444.123565,-9474.636058,0.000000
3421.260763,444.123565,-9474.636058,459.657299
3421.261090,0.000000,-8808.450710,612.876398
3421.261418,-370.102971,-8882.471304,0.000000
3421.261745,740.205942,-8808.450710,-919.314598
3421.262073,888.247130,-9844.739029,612.876398
3421.262400,222.061783,-10362.883188,153.219100
3421.262728,296.082377,-10066.800811,0.000000
3421.263055,814.226536,-9992.780217,-842.705048
3421.263383,1554.432478,-10658.965565,-1608.800546
3421.263711,0.000000,-11325.150913,0.000000
3421.264038,296.082377,-10066.800811,995.924147
3421.264366,1110.308913,-8438.347739,-229.828649
3421.264693,592.164754,-9104.533087,306.438199
3421.265021,0.000000,-10584.944971,306.438199
3421.265348,-1036.288319,-10066.800811,919.314598
3421.265676,-740.205942,-9104.533087,-459.657299
3421.266003,0.000000,-8734.430116,-2528.115143
3421.266331,-1184.329507,-9992.780217,-2221.676944
3421.266658,-2886.803174,-8660.409521,-536.266849
3421.266986,-1184.329507,-8956.491898,0.000000
3421.267314,1332.370696,-10807.006753,-842.705048
3421.267641,3478.967927,-13175.665768,0.000000
3421.267969,1924.535449,-11399.171507,1685.410096
3421.268296,962.267725,-9992.780217,2681.334243
3421.268624,1776.494261,-8734.430116,0.000000
3421.268951,370.102971,-8734.430116,-919.314598
3421.269279,-518.144159,-7920.203579,0.000000
3421.269606,-296.082377,-7179.997637,842.705048
3421.269934,370.102971,-9104.533087,919.314598
3421.270262,2738.761985,-12509.480420,229.828649
3421.270589,1998.556043,-11029.068536,-842.705048
3421.270917,-296.082377,-8882.471304,-306.438199
3421.271244,-740.205942,-8512.368333,-2298.286494
3421.271572,222.061783,-10362.883188,-2298.286494
3421.271899,0.000000,-9992.780217,-1915.238745
3421.272227,222.061783,-8512.368333,76.609550
3421.272554,222.061783,-7550.100608,1378.971896
3421.272882,1776.494261,-10436.903782,1838.629195
3421.273209,2146.597232,-10732.986159,536.266849
3421.273537,0.000000,-9474.636058,0.000000
3421.273865,-444.123565,-9178.553681,-612.876398
3421.274192,1036.288319,-9622.677246,-2528.115143
3421.274520,1258.350101,-10955.047942,-1532.190996
3421.274847,1628.453072,-9918.759623,306.438199
3421.275175,74.020594,-9178.553681,2068.457845
3421.275502,-444.123565,-9844.739029,1685.410096
3421.275830,1184.329507,-11103.089130,-1072.533697
3421.276157,-370.102971,-9548.656652,-2757.943793
3421.276485,-1554.432478,-9030.512492,-612.876398
3421.276812,-296.082377,-9400.615463,-919.314598
3421.277140,1628.453072,-11177.109724,-612.876398
3421.277468,740.205942,-9844.739029,383.047749
3421.277795,296.082377,-9326.594869,1378.971896
3421.278123,518.144159,-8364.327145,153.219100
3421.278450,1332.370696,-10214.842000,-995.924147
3421.278778,0.000000,-9992.780217,-995.924147
3421.279105,-2220.617826,-8068.244768,306.438199
3421.279433,-1554.432478,-8956.491898,153.219100
3421.279760,2146.597232,-11473.192101,-1302.362347
3421.280088,2146.597232,-10658.965565,-383.047749
3421.280415,814.226536,-10658.965565,1378.971896
3421.280743,592.164754,-7698.141797,995.924147
3421.281071,740.205942,-7031.956449,153.219100
3421.281398,-740.205942,-9992.780217,-306.438199
3421.281726,-1924.535449,-10955.047942,0.000000
3421.282053,-1480.411884,-8808.450710,-995.924147
3421.282381,370.102971,-8290.306550,-689.485948
3421.282708,0.000000,-11251.130318,0.000000
3421.283036,0.000000,-10881.027347,689.485948
3421.283363,-962.267725,-8808.450710,0.000000
3421.283691,-370.102971,-8068.244768,-842.705048
3421.284018,148.041188,-8586.388927,-1991.848295
3421.284346,-2294.638420,-8808.450710,153.219100
3421.284674,-1258.350101,-8956.491898,1149.143247
3421.285001,1628.453072,-10214.842000,-1072.533697
3421.285329,2516.700203,-13027.624579,-842.705048
3421.285656,1776.494261,-11769.274478,306.438199
3421.285984,1110.308913,-9400.615463,229.828649
3421.286311,296.082377,-8364.327145,-229.828649
3421.286639,1702.473667,-10214.842000,-153.219100
3421.286966,1480.411884,-9696.697840,-383.047749
3421.287294,666.185348,-8660.409521,459.657299
3421.287622,222.061783,-8956.491898,383.047749
3421.287949,1702.473667,-11991.336260,-229.828649
3421.288277,666.185348,-11621.233289,-306.438199
3421.288604,-740.205942,-9474.636058,-1072.533697
3421.288932,-1628.453072,-8142.265362,-2374.896044
3421.289259,-1036.288319,-9918.759623,-1532.190996
3421.289587,814.226536,-9474.636058,-766.095498
3421.289914,1332.370696,-9548.656652,1225.752797
3421.290242,0.000000,-9474.636058,1532.190996
3421.290570,444.123565,-8882.471304,612.876398
3421.290897,592.164754,-9474.636058,0.000000
3421.291225,0.000000,-9400.615463,76.609550
3421.291552,2368.659014,-9178.553681,306.438199
3421.291880,2590.720797,-7698.141797,766.095498
3421.292207,1628.453072,-9696.697840,1532.190996
3421.292535,-444.123565,-10362.883188,1685.410096
3421.292863,-518.144159,-10658.965565,-612.876398
3421.293190,-962.267725,-7994.224174,-3447.429741
3421.293518,-1332.370696,-10140.821405,-2987.772442
3421.293845,-2368.659014,-11251.130318,-536.266849
3421.294173,-148.041188,-10807.006753,1225.752797
3421.294500,1554.432478,-8290.306550,995.924147
3421.294828,2368.659014,-9400.615463,1072.533697
3421.295156,1184.329507,-9326.594869,995.924147
3421.295483,-370.102971,-8290.306550,1915.238745
3421.295811,-592.164754,-7994.224174,-842.705048
3421.296138,-592.164754,-9252.574275,-2451.505594
3421.296466,-1776.494261,-11251.130318,-1608.800546
3421.296793,-888.247130,-11251.130318,0.000000
3421.297121,370.102971,-9844.739029,383.047749
3421.297449,2146.597232,-11177.109724,842.705048
3421.297776,2664.741391,-10807.006753,-306.438199
3421.298104,1702.473667,-8808.450710,-153.219100
3421.298431,1406.391290,-8956.491898,459.657299
3421.298759,296.082377,-9178.553681,0.000000
3421.299086,-592.164754,-9992.780217,1378.971896
3421.299414,-1332.370696,-8364.327145,689.485948
3421.299741,-1184.329507,-9252.574275,-76.609550
3421.300069,-592.164754,-9104.533087,-383.047749
3421.300397,-518.144159,-10732.986159,0.000000
3421.300724,-1184.329507,-10140.821405,-612.876398
3421.301052,-148.041188,-9252.574275,-1532.190996
3421.301379,-1480.411884,-7254.018232,-2528.115143
3421.301707,-814.226536,-9474.636058,-1072.533697
3421.302034,-370.102971,-11177.109724,-842.705048
3421.302362,1036.288319,-11621.233289,612.876398
3421.302690,2072.576638,-10881.027347,1608.800546
3421.303017,2812.782580,-9548.656652,1378.971896
3421.303345,1998.556043,-8512.368333,612.876398
3421.303672,814.226536,-8734.430116,1225.752797
3421.304000,1776.494261,-9252.574275,-2374.896044
3421.304327,74.020594,-9474.636058,-2604.724693
3421.304655,74.020594,-9844.739029,-1149.143247
3421.304983,0.000000,-11325.150913,383.047749
3421.305310,1036.288319,-12879.583391,1532.190996
3421.305638,1702.473667,-10510.924376,153.219100
3421.305965,1554.432478,-10288.862594,-766.095498
3421.306293,-1184.329507,-8882.471304,-1225.752797
3421.306620,-740.205942,-8808.450710,-766.095498
3421.306948,74.020594,-7846.182985,-1149.143247
3421.307276,-222.061783,-9622.677246,0.000000
3421.307603,-1998.556043,-10066.800811,0.000000
3421.307931,-2220.617826,-8734.430116,76.609550
3421.308258,-296.082377,-9104.533087,-459.657299
3421.308586,4071.132681,-11399.171507,-1302.362347
3421.308913,3034.844362,-9992.780217,229.828649
3421.309241,740.205942,-9770.718434,2987.772442
3421.309569,1036.288319,-9252.574275,1991.848295
3421.309896,2960.823768,-9474.636058,-919.314598
3421.310224,444.123565,-8364.327145,-1532.190996
3421.310551,-2368.659014,-8956.491898,612.876398
3421.310879,-1998.556043,-9400.615463,1915.238745
3421.311206,888.247130,-9992.780217,229.828649
3421.311534,2442.679609,-10510.924376,-1072.533697
3421.311862,0.000000,-9844.739029,0.000000
3421.312189,0.000000,-9252.574275,0.000000
3421.312517,666.185348,-8290.306550,-459.657299
3421.312844,592.164754,-8956.491898,-1378.971896
3421.313172,-1406.391290,-8290.306550,-1915.238745
3421.313499,-1850.514855,-9474.636058,0.000000
3421.313827,518.144159,-9918.759623,459.657299
3421.314155,2738.761985,-10955.047942,76.609550
3421.314482,888.247130,-9992.780217,2145.067394
3421.314810,1036.288319,-8438.347739,1838.629195
3421.315137,1776.494261,-8068.244768,-2757.943793
3421.315465,518.144159,-12213.398043,-2221.676944
3421.315792,-814.226536,-11917.315666,-1762.019645
3421.316120,-962.267725,-9548.656652,-153.219100
3421.316448,-296.082377,-8882.471304,0.000000
3421.316775,592.164754,-10732.986159,0.000000
3421.317103,-222.061783,-10584.944971,766.095498
3421.317430,-1110.308913,-10066.800811,612.876398
3421.317758,-370.102971,-8660.409521,-1532.190996
3421.318085,0.000000,-7920.203579,-3370.820191
3421.318413,-2442.679609,-8438.347739,-2374.896044
3421.318741,-3552.988522,-10362.883188,76.609550
3421.319068,-962.267725,-9474.636058,-689.485948
3421.319396,2664.741391,-11399.171507,-1225.752797
3421.319723,2738.761985,-12879.583391,919.314598
3421.320051,1776.494261,-9770.718434,2681.334243
3421.320378,1776.494261,-8586.388927,2298.286494
3421.320706,1628.453072,-8660.409521,0.000000
3421.321033,1332.370696,-9992.780217,-1149.143247
3421.321361,-888.247130,-7105.977043,-1149.143247
3421.321689,-666.185348,-7846.182985,766.095498
3421.322016,1110.308913,-10955.047942,383.047749
3421.322344,3108.864956,-13471.748144,383.047749
3421.322671,444.123565,-11029.068536,766.095498
3421.322999,-1554.432478,-9252.574275,0.000000
3421.323326,-1110.308913,-7994.224174,-2757.943793
3421.323654,74.020594,-8956.491898,-2068.457845
3421.323982,518.144159,-9400.615463,-536.266849
3421.324309,-1184.329507,-8142.265362,1762.019645
3421.324637,-444.123565,-7772.162391,2374.896044
3421.324964,1628.453072,-9178.553681,689.485948
3421.325292,1184.329507,-10510.924376,919.314598
3421.325619,2220.617826,-9474.636058,-383.047749
3421.325947,814.226536,-7476.080014,-459.657299
