#time,accel_x,accel_y,accel_z
2702.629722,814.226536,-10066.800811,-612.876398
2702.630050,222.061783,-10140.821405,-229.828649
2702.630377,0.000000,-9844.739029,-612.876398
2702.630705,-148.041188,-9696.697840,-536.266849
2702.631033,-148.041188,-9770.718434,-229.828649
2702.631360,0.000000,-9770.718434,-612.876398
2702.631688,370.102971,-9992.780217,0.000000
2702.632015,148.041188,-9622.677246,-306.438199
2702.632343,296.082377,-9844.739029,0.000000
2702.632671,370.102971,-9844.739029,76.609550
2702.632998,518.144159,-9622.677246,383.047749
2702.633326,518.144159,-9104.533087,383.047749
2702.633653,666.185348,-9400.615463,919.314598
2702.633981,-148.041188,-8882.471304,0.000000
2702.634309,0.000000,-8956.491898,229.828649
2702.634636,-148.041188,-9104.533087,76.609550
2702.634964,-296.082377,-9030.512492,0.000000
2702.635291,0.000000,-9252.574275,-229.828649
2702.635619,148.041188,-9770.718434,-229.828649
2702.635947,74.020594,-9548.656652,229.828649
2702.636274,740.205942,-9474.636058,0.000000
2702.636602,592.164754,-9918.759623,229.828649
2702.636929,814.226536,-9770.718434,0.000000
2702.637257,740.205942,-9474.636058,0.000000
2702.637585,518.144159,-9400.615463,-383.047749
2702.637912,444.123565,-9474.636058,-536.266849
2702.638240,222.061783,-9622.677246,-536.266849
2702.638567,0.000000,-9548.656652,0.000000
2702.638895,74.020594,-9770.718434,-919.314598
2702.639223,222.061783,-10214.842000,-919.314598
2702.639550,518.144159,-10510.924376,-766.095498
2702.639878,518.144159,-10732.986159,-612.876398
2702.640205,740.205942,-10362.883188,-383.047749
2702.640533,666.185348,-10288.862594,0.000000
2702.640861,592.164754,-9844.739029,0.000000
2702.641188,296.082377,-9696.697840,0.000000
2702.641516,222.061783,-9992.780217,-306.438199
2702.641843,0.000000,-9474.636058,-306.438199
2702.642171,0.000000,-9622.677246,-459.657299
2702.642499,0.000000,-9474.636058,-1149.143247
2702.642826,-296.082377,-9400.615463,0.000000
2702.643154,0.000000,-9548.656652,-153.219100
2702.643481,0.000000,-9474.636058,0.000000
2702.643809,370.102971,-9474.636058,153.219100
2702.644137,666.185348,-9622.677246,383.047749
2702.644464,370.102971,-9326.594869,459.657299
2702.644792,296.082377,-9104.533087,536.266849
2702.645119,666.185348,-8660.409521,0.000000
2702.645447,592.164754,-8882.471304,229.828649
2702.645774,1110.308913,-8216.285956,0.000000
2702.646102,2220.617826,-8660.409521,0.000000
2702.646430,2960.823768,-8290.306550,-383.047749
2702.646757,4145.153275,-9252.574275,-459.657299
2702.647085,4885.359217,-10288.862594,-306.438199
2702.647412,6365.771101,-10066.800811,0.000000
2702.647740,7328.038826,-9548.656652,-689.485948
2702.648068,7994.224174,-10436.903782,0.000000
2702.648395,8734.430116,-10807.006753,-153.219100
2702.648723,8142.265362,-10658.965565,383.047749
2702.649050,7772.162391,-9918.759623,536.266849
2702.649378,8438.347739,-9252.574275,-306.438199
2702.649706,9104.533087,-9178.553681,-383.047749
2702.650033,9548.656652,-9400.615463,-689.485948
2702.650361,10584.944971,-9104.533087,-766.095498
2702.650688,11473.192101,-9474.636058,-306.438199
2702.651016,12287.418637,-10881.027347,0.000000
2702.651344,12139.377449,-10436.903782,76.609550
2702.651671,11473.192101,-9918.759623,76.609550
2702.651999,11621.233289,-9326.594869,-536.266849
2702.652326,12361.439231,-10362.883188,-153.219100
2702.652654,13915.871710,-10510.924376,-383.047749
2702.652982,13841.851115,-10214.842000,612.876398
2702.653309,14508.036463,-9326.594869,919.314598
2702.653637,14211.954086,-9622.677246,689.485948
2702.653964,12731.542202,-9474.636058,536.266849
2702.654292,11769.274478,-9474.636058,0.000000
2702.654620,10732.986159,-9178.553681,0.000000
2702.654947,10214.842000,-9992.780217,306.438199
2702.655275,9696.697840,-10214.842000,766.095498
2702.655602,8734.430116,-9252.574275,1762.019645
2702.655930,7624.121203,-9030.512492,1915.238745
2702.656258,6069.688724,-9548.656652,1072.533697
2702.656585,4589.276840,-9474.636058,153.219100
2702.656913,3182.885551,-8142.265362,153.219100
2702.657240,2886.803174,-7402.059420,0.000000
2702.657568,2516.700203,-8216.285956,-842.705048
2702.657896,2368.659014,-9622.677246,689.485948
2702.658223,2590.720797,-9178.553681,306.438199
2702.658551,3923.091493,-9030.512492,-612.876398
2702.658878,4589.276840,-11029.068536,0.000000
2702.659206,5255.462188,-11695.253884,919.314598
2702.659534,4071.132681,-12065.356855,459.657299
2702.659861,1702.473667,-12139.377449,842.705048
2702.660189,-370.102971,-10732.986159,229.828649
2702.660516,-2072.576638,-7772.162391,-919.314598
2702.660844,-2960.823768,-8364.327145,-229.828649
2702.661172,-2960.823768,-8882.471304,0.000000
2702.661499,-3256.906145,-7846.182985,0.000000
2702.661827,-3404.947333,-10214.842000,-229.828649
2702.662154,-3701.029710,-11769.274478,-612.876398
2702.662482,-4515.256246,-8734.430116,-1608.800546
2702.662810,-4293.194464,-7550.100608,-2757.943793
2702.663137,-3182.885551,-8364.327145,-1685.410096
2702.663465,222.061783,-10214.842000,-1149.143247
2702.663792,2886.803174,-11991.336260,-229.828649
2702.664120,1554.432478,-12583.501014,1532.190996
2702.664447,74.020594,-10288.862594,842.705048
2702.664775,-1628.453072,-8734.430116,-919.314598
2702.665103,-2960.823768,-9474.636058,-1532.190996
2702.665430,-1776.494261,-9770.718434,-2451.505594
2702.665758,0.000000,-10214.842000,-1838.629195
2702.666085,0.000000,-9918.759623,536.266849
2702.666413,666.185348,-7698.141797,1532.190996
2702.666741,-222.061783,-5921.647536,1225.752797
2702.667068,-2220.617826,-6809.894666,995.924147
2702.667396,-888.247130,-8660.409521,0.000000
2702.667723,1332.370696,-9178.553681,-1991.848295
2702.668051,2368.659014,-9770.718434,-1378.971896
2702.668379,2886.803174,-9030.512492,76.609550
2702.668706,2960.823768,-9030.512492,306.438199
2702.669034,1628.453072,-10436.903782,306.438199
2702.669361,2072.576638,-11991.336260,-383.047749
2702.669689,3627.009116,-12731.542202,-2451.505594
2702.670017,3256.906145,-12361.439231,-1838.629195
2702.670344,2368.659014,-10140.821405,306.438199
2702.670672,2146.597232,-6883.915261,1685.410096
2702.670999,1480.411884,-6661.853478,2145.067394
2702.671327,1554.432478,-8734.430116,1685.410096
2702.671655,3701.029710,-9844.739029,153.219100
2702.671982,4441.235652,-9992.780217,-842.705048
2702.672310,3849.070898,-9474.636058,-153.219100
2702.672637,2812.782580,-9030.512492,-383.047749
2702.672965,1036.288319,-10066.800811,0.000000
2702.673293,2664.741391,-12435.459826,-153.219100
2702.673620,3478.967927,-13693.809927,-1072.533697
2702.673948,3182.885551,-13767.830521,-1225.752797
2702.674275,1850.514855,-11769.274478,-766.095498
2702.674603,222.061783,-9622.677246,-459.657299
2702.674931,-2590.720797,-9474.636058,612.876398
2702.675258,-2072.576638,-10510.924376,612.876398
2702.675586,-1184.329507,-9474.636058,-383.047749
2702.675913,-444.123565,-8586.388927,-689.485948
2702.676241,148.041188,-6883.915261,76.609550
2702.676569,74.020594,-6661.853478,1608.800546
2702.676896,-1332.370696,-7402.059420,2987.772442
2702.677224,-888.247130,-9696.697840,1455.581446
2702.677551,666.185348,-11843.295072,-1302.362347
2702.677879,0.000000,-10955.047942,-1378.971896
2702.678207,-148.041188,-9548.656652,0.000000
2702.678534,-814.226536,-9178.553681,842.705048
2702.678862,-2294.638420,-10658.965565,1378.971896
2702.679189,-2960.823768,-11177.109724,536.266849
2702.679517,-3478.967927,-9992.780217,-689.485948
2702.679845,-3701.029710,-7994.224174,-1072.533697
2702.680172,-2812.782580,-6439.791695,-1072.533697
2702.680500,-3627.009116,-6513.812290,0.000000
2702.680827,-4219.173869,-7105.977043,1608.800546
2702.681155,-1702.473667,-8660.409521,612.876398
2702.681483,-370.102971,-9844.739029,-995.924147
2702.681810,370.102971,-10214.842000,-689.485948
2702.682138,1258.350101,-10362.883188,-1991.848295
2702.682465,0.000000,-10807.006753,-842.705048
2702.682793,-666.185348,-12879.583391,-689.485948
2702.683120,222.061783,-13619.789333,-1455.581446
2702.683448,74.020594,-12435.459826,-2298.286494
2702.683776,296.082377,-10362.883188,-2298.286494
2702.684103,74.020594,-8660.409521,-1608.800546
2702.684431,-1258.350101,-8364.327145,-995.924147
2702.684758,-740.205942,-9030.512492,536.266849
2702.685086,1036.288319,-9474.636058,-383.047749
2702.685414,1850.514855,-9104.533087,-612.876398
2702.685741,3108.864956,-8660.409521,-766.095498
2702.686069,3404.947333,-8882.471304,0.000000
2702.686396,2072.576638,-9326.594869,766.095498
2702.686724,2442.679609,-11621.233289,0.000000
2702.687052,2442.679609,-12435.459826,-919.314598
2702.687379,2886.803174,-13249.686362,-1149.143247
2702.687707,3034.844362,-11621.233289,-1532.190996
2702.688034,2664.741391,-9474.636058,-1072.533697
2702.688362,666.185348,-9178.553681,536.266849
2702.688690,740.205942,-9474.636058,2145.067394
2702.689017,2590.720797,-9326.594869,919.314598
2702.689345,3256.906145,-7550.100608,1072.533697
2702.689672,2294.638420,-5477.523971,1532.190996
2702.690000,1850.514855,-6069.688724,2145.067394
2702.690328,444.123565,-7994.224174,2757.943793
2702.690655,1036.288319,-9622.677246,1991.848295
2702.690983,1628.453072,-10955.047942,-383.047749
2702.691310,1998.556043,-11177.109724,-1225.752797
2702.691638,1480.411884,-9844.739029,-995.924147
2702.691966,148.041188,-10214.842000,-612.876398
2702.692293,-1258.350101,-11769.274478,536.266849
2702.692621,-1258.350101,-11843.295072,0.000000
2702.692948,-222.061783,-10584.944971,-1302.362347
2702.693276,-518.144159,-9252.574275,-919.314598
2702.693604,-592.164754,-7402.059420,766.095498
2702.693931,-1036.288319,-6735.874072,689.485948
2702.694259,-1628.453072,-8142.265362,1149.143247
2702.694587,-1110.308913,-9918.759623,153.219100
2702.694914,222.061783,-10584.944971,-1149.143247
2702.695242,1036.288319,-10362.883188,-1149.143247
2702.695569,1110.308913,-9474.636058,-689.485948
2702.695897,-888.247130,-9844.739029,-306.438199
2702.696225,-1554.432478,-11843.295072,-612.876398
2702.696552,-814.226536,-12583.501014,-1225.752797
2702.696880,-888.247130,-11695.253884,-2604.724693
2702.697208,-1480.411884,-10288.862594,-2604.724693
2702.697535,-1998.556043,-8512.368333,-1991.848295
2702.697863,-2664.741391,-7624.121203,-459.657299
2702.698190,-2220.617826,-9252.574275,536.266849
2702.698518,-1184.329507,-9326.594869,0.000000
2702.698846,592.164754,-9252.574275,-306.438199
2702.699173,148.041188,-8364.327145,153.219100
2702.699501,0.000000,-6587.832884,842.705048
2702.699829,-592.164754,-7624.121203,919.314598
2702.700156,-888.247130,-11029.068536,459.657299
2702.700484,-222.061783,-12435.459826,-995.924147
2702.700811,518.144159,-10732.986159,-1149.143247
2702.701139,1184.329507,-9548.656652,-2068.457845
2702.701467,-296.082377,-8734.430116,-536.266849
2702.701794,-1406.391290,-9326.594869,153.219100
2702.702122,-1406.391290,-10066.800811,0.000000
2702.702450,0.000000,-10362.883188,-919.314598
2702.702777,1998.556043,-9474.636058,-1225.752797
2702.703105,2368.659014,-7624.121203,-1378.971896
2702.703432,1776.494261,-6661.853478,995.924147
2702.703760,1776.494261,-8660.409521,2221.676944
2702.704088,2368.659014,-10436.903782,1532.190996
2702.704415,3034.844362,-11399.171507,0.000000
2702.704743,2960.823768,-10658.965565,-306.438199
2702.705071,3108.864956,-9992.780217,-842.705048
2702.705398,1258.350101,-10214.842000,0.000000
2702.705726,0.000000,-11547.212695,0.000000
2702.706054,0.000000,-12583.501014,-689.485948
2702.706381,1258.350101,-11843.295072,-1608.800546
2702.706709,2146.597232,-10066.800811,-1149.143247
2702.707036,1998.556043,-8734.430116,459.657299
2702.707364,1184.329507,-7550.100608,1915.238745
2702.707692,370.102971,-8364.327145,1532.190996
2702.708019,666.185348,-9400.615463,-153.219100
2702.708347,444.123565,-9918.759623,-766.095498
2702.708675,962.267725,-9474.636058,-689.485948
2702.709002,1480.411884,-8956.491898,-383.047749
2702.709330,518.144159,-8956.491898,383.047749
2702.709657,-518.144159,-10955.047942,153.219100
2702.709985,-222.061783,-12509.480420,-153.219100
2702.710313,148.041188,-11917.315666,-919.314598
2702.710640,666.185348,-9770.718434,-1225.752797
2702.710968,740.205942,-8216.285956,-459.657299
2702.711296,0.000000,-7920.203579,1225.752797
2702.711623,-1110.308913,-8142.265362,1608.800546
2702.711951,518.144159,-8956.491898,1149.143247
2702.712278,370.102971,-9400.615463,0.000000
2702.712606,0.000000,-8734.430116,-306.438199
2702.712934,-444.123565,-7994.224174,-995.924147
2702.713261,-1554.432478,-8438.347739,-383.047749
2702.713589,-2368.659014,-10436.903782,0.000000
2702.713917,-1554.432478,-11917.315666,-842.705048
2702.714244,-740.205942,-11695.253884,-1532.190996
2702.714572,518.144159,-9992.780217,-995.924147
2702.714899,0.000000,-8734.430116,-766.095498
2702.715227,-2146.597232,-9178.553681,536.266849
2702.715555,-2442.679609,-9770.718434,766.095498
2702.715882,-1776.494261,-9844.739029,-229.828649
2702.716210,-1184.329507,-9252.574275,-1302.362347
2702.716538,-444.123565,-8512.368333,-766.095498
2702.716865,-1258.350101,-7772.162391,-229.828649
2702.717193,-1554.432478,-8660.409521,76.609550
2702.717520,-1332.370696,-11325.150913,-306.438199
2702.717848,-148.041188,-12139.377449,-1302.362347
2702.718176,592.164754,-11103.089130,-1455.581446
2702.718503,1332.370696,-8734.430116,-612.876398
2702.718831,1554.432478,-8216.285956,0.000000
2702.719159,370.102971,-9474.636058,919.314598
2702.719486,740.205942,-10807.006753,1072.533697
2702.719814,740.205942,-9844.739029,0.000000
2702.720141,1332.370696,-9252.574275,-995.924147
2702.720469,1702.473667,-8364.327145,-689.485948
2702.720797,666.185348,-8438.347739,0.000000
2702.721124,666.185348,-9474.636058,1685.410096
2702.721452,1480.411884,-10584.944971,306.438199
2702.721780,2072.576638,-11547.212695,0.000000
2702.722107,2146.597232,-10288.862594,-306.438199
2702.722435,1628.453072,-8660.409521,-383.047749
2702.722762,518.144159,-8142.265362,229.828649
2702.723090,888.247130,-9844.739029,459.657299
2702.723418,1406.391290,-10807.006753,229.828649
2702.723745,2294.638420,-10436.903782,-306.438199
2702.724073,2368.659014,-9770.718434,-1225.752797
2702.724401,1480.411884,-8808.450710,-689.485948
2702.724728,148.041188,-8586.388927,-229.828649
2702.725056,0.000000,-9844.739029,0.000000
2702.725383,1036.288319,-11103.089130,-383.047749
2702.725711,2590.720797,-10658.965565,-766.095498
2702.726039,3627.009116,-9474.636058,153.219100
2702.726366,3627.009116,-8808.450710,306.438199
2702.726694,2220.617826,-8956.491898,1302.362347
2702.727022,222.061783,-9474.636058,1532.190996
2702.727349,-518.144159,-10658.965565,76.609550
2702.727677,-370.102971,-10955.047942,-1838.629195
2702.728004,-296.082377,-9326.594869,-1685.410096
2702.728332,-1036.288319,-8290.306550,-1455.581446
2702.728660,-2220.617826,-8956.491898,612.876398
2702.728987,-2294.638420,-11029.068536,842.705048
2702.729315,-1332.370696,-11769.274478,-383.047749
2702.729643,-592.164754,-10658.965565,-1532.190996
2702.729970,-296.082377,-8956.491898,-2068.457845
2702.730298,0.000000,-7402.059420,-1378.971896
2702.730625,-962.267725,-8660.409521,459.657299
2702.730953,-888.247130,-10584.944971,919.314598
2702.731281,0.000000,-11399.171507,229.828649
2702.731608,814.226536,-10732.986159,-919.314598
2702.731936,592.164754,-9326.594869,-1685.410096
2702.732264,-444.123565,-8142.265362,-612.876398
2702.732591,-1554.432478,-8956.491898,306.438199
2702.732919,-2072.576638,-10881.027347,306.438199
2702.733246,-1036.288319,-11769.274478,-689.485948
2702.733574,740.205942,-10288.862594,-1072.533697
2702.733902,1332.370696,-8290.306550,-306.438199
2702.734229,1036.288319,-7698.141797,689.485948
2702.734557,-370.102971,-8808.450710,1608.800546
2702.734885,-740.205942,-9474.636058,766.095498
2702.735212,0.000000,-10584.944971,-842.705048
2702.735540,296.082377,-10510.924376,-2221.676944
2702.735867,592.164754,-9030.512492,-1608.800546
2702.736195,74.020594,-8882.471304,0.000000
2702.736523,-962.267725,-10658.965565,1378.971896
2702.736850,-370.102971,-11547.212695,689.485948
2702.737178,814.226536,-11177.109724,-1455.581446
2702.737506,1110.308913,-9474.636058,-1302.362347
2702.737833,1036.288319,-8142.265362,0.000000
2702.738161,518.144159,-7624.121203,536.266849
2702.738488,0.000000,-8660.409521,1072.533697
2702.738816,592.164754,-10362.883188,459.657299
2702.739144,2146.597232,-11103.089130,0.000000
2702.739471,2812.782580,-9696.697840,-612.876398
2702.739799,2368.659014,-8586.388927,-612.876398
2702.740127,888.247130,-9474.636058,229.828649
2702.740454,148.041188,-10658.965565,306.438199
2702.740782,592.164754,-11695.253884,-229.828649
2702.741110,1628.453072,-11325.150913,-995.924147
2702.741437,2146.597232,-9326.594869,-766.095498
2702.741765,2146.597232,-7179.997637,76.609550
2702.742092,1036.288319,-7179.997637,689.485948
2702.742420,222.061783,-8734.430116,1225.752797
2702.742748,1406.391290,-10510.924376,383.047749
2702.743075,2146.597232,-10362.883188,-766.095498
2702.743403,3182.885551,-9696.697840,-1378.971896
2702.743731,2368.659014,-9474.636058,-842.705048
2702.744058,518.144159,-9992.780217,536.266849
2702.744386,0.000000,-11473.192101,2068.457845
2702.744713,0.000000,-11695.253884,-612.876398
2702.745041,148.041188,-11029.068536,-1685.410096
2702.745369,-296.082377,-9104.533087,-1225.752797
2702.745696,-1258.350101,-7550.100608,-766.095498
2702.746024,-2442.679609,-8068.244768,-153.219100
2702.746352,-2516.700203,-9400.615463,76.609550
2702.746679,-1258.350101,-10066.800811,-229.828649
2702.747007,0.000000,-9844.739029,-612.876398
2702.747334,888.247130,-8660.409521,-689.485948
2702.747662,296.082377,-9104.533087,0.000000
2702.747990,-1036.288319,-10658.965565,612.876398
2702.748317,-1258.350101,-11473.192101,383.047749
2702.748645,0.000000,-11917.315666,-383.047749
2702.748973,296.082377,-10288.862594,-689.485948
2702.749300,518.144159,-8956.491898,0.000000
2702.749628,-370.102971,-7179.997637,383.047749
2702.749955,-1332.370696,-8586.388927,766.095498
2702.750283,-1554.432478,-9918.759623,689.485948
2702.750611,-1258.350101,-9992.780217,-383.047749
2702.750938,-296.082377,-9178.553681,-1225.752797
2702.751266,0.000000,-8586.388927,-1302.362347
2702.751594,666.185348,-9104.533087,689.485948
2702.751921,222.061783,-10362.883188,1762.019645
2702.752249,740.205942,-11325.150913,1225.752797
2702.752576,1110.308913,-11103.089130,-536.266849
2702.752904,740.205942,-10584.944971,-1532.190996
2702.753232,0.000000,-8364.327145,-1608.800546
2702.753559,-1332.370696,-7254.018232,-689.485948
2702.753887,-888.247130,-9030.512492,229.828649
2702.754215,518.144159,-11103.089130,-229.828649
2702.754542,1110.308913,-11325.150913,-383.047749
2702.754870,1702.473667,-9474.636058,-383.047749
2702.755197,1776.494261,-7920.203579,-383.047749
2702.755525,666.185348,-8586.388927,612.876398
2702.755853,222.061783,-10510.924376,612.876398
2702.756180,814.226536,-11177.109724,459.657299
2702.756508,1924.535449,-10584.944971,-689.485948
2702.756836,2516.700203,-9622.677246,-766.095498
2702.757163,1998.556043,-9104.533087,-536.266849
2702.757491,148.041188,-9178.553681,229.828649
2702.757818,-666.185348,-10362.883188,229.828649
2702.758146,74.020594,-11325.150913,-1072.533697
2702.758474,1332.370696,-11473.192101,-1915.238745
2702.758801,2220.617826,-9622.677246,-842.705048
2702.759129,2294.638420,-8438.347739,612.876398
2702.759457,1184.329507,-9178.553681,1762.019645
2702.759784,1184.329507,-11103.089130,1991.848295
2702.760112,2294.638420,-10881.027347,612.876398
2702.760439,1184.329507,-8734.430116,-383.047749
2702.760767,1110.308913,-8142.265362,-919.314598
2702.761095,222.061783,-7920.203579,-459.657299
2702.761422,-888.247130,-8660.409521,612.876398
2702.761750,-962.267725,-10140.821405,229.828649
2702.762078,148.041188,-11177.109724,-842.705048
2702.762405,1258.350101,-10807.006753,-689.485948
2702.762733,1332.370696,-8882.471304,-536.266849
2702.763060,444.123565,-8882.471304,-459.657299
2702.763388,-1184.329507,-9178.553681,995.924147
2702.763716,-1184.329507,-10288.862594,766.095498
2702.764043,-296.082377,-10658.965565,0.000000
2702.764371,296.082377,-9474.636058,-766.095498
2702.764699,592.164754,-8142.265362,-383.047749
2702.765026,-1184.329507,-7772.162391,0.000000
2702.765354,-2294.638420,-8956.491898,229.828649
2702.765681,-1480.411884,-10436.903782,-612.876398
2702.766009,-666.185348,-10881.027347,-2221.676944
2702.766337,-370.102971,-10658.965565,-1532.190996
2702.766664,148.041188,-9326.594869,-766.095498
2702.766992,592.164754,-9030.512492,229.828649
2702.767320,370.102971,-10140.821405,1149.143247
2702.767647,0.000000,-11473.192101,689.485948
2702.767975,0.000000,-11029.068536,-383.047749
2702.768302,-592.164754,-9252.574275,-1302.362347
2702.768630,-962.267725,-8068.244768,-1608.800546
2702.768958,-2220.617826,-8290.306550,-995.924147
2702.769285,-2368.659014,-9918.759623,0.000000
2702.769613,-444.123565,-11251.130318,76.609550
2702.769941,666.185348,-11325.150913,-536.266849
2702.770268,1110.308913,-9548.656652,-383.047749
2702.770596,740.205942,-8364.327145,0.000000
2702.770923,-592.164754,-8586.388927,459.657299
2702.771251,-888.247130,-9918.759623,842.705048
2702.771579,370.102971,-10658.965565,0.000000
2702.771906,1332.370696,-9918.759623,0.000000
2702.772234,2072.576638,-8882.471304,76.609550
2702.772562,1480.411884,-7994.224174,306.438199
2702.772889,592.164754,-8364.327145,612.876398
2702.773217,222.061783,-9992.780217,306.438199
2702.773545,1406.391290,-11325.150913,-995.924147
2702.773872,2590.720797,-10955.047942,-1072.533697
2702.774200,3108.864956,-9548.656652,76.609550
2702.774527,2368.659014,-7920.203579,1302.362347
2702.774855,1480.411884,-8586.388927,1915.238745
2702.775183,222.061783,-10066.800811,2221.676944
2702.775510,-296.082377,-10584.944971,76.609550
2702.775838,-666.185348,-9548.656652,-2374.896044
2702.776166,-1184.329507,-8438.347739,-2451.505594
2702.776493,-1332.370696,-7772.162391,-1225.752797
2702.776821,-1184.329507,-8956.491898,0.000000
2702.777148,0.000000,-10955.047942,306.438199
2702.777476,1332.370696,-11991.336260,0.000000
2702.777804,2294.638420,-11621.233289,-1072.533697
2702.778131,2072.576638,-9844.739029,-1072.533697
2702.778459,1702.473667,-8586.388927,-306.438199
2702.778787,0.000000,-9104.533087,383.047749
2702.779114,-740.205942,-11399.171507,919.314598
2702.779442,1184.329507,-12065.356855,-842.705048
2702.779769,2294.638420,-10214.842000,-1608.800546
2702.780097,1776.494261,-8660.409521,-1149.143247
2702.780425,370.102971,-8808.450710,0.000000
2702.780752,-222.061783,-9252.574275,766.095498
2702.781080,-518.144159,-9918.759623,-383.047749
2702.781408,222.061783,-9770.718434,-612.876398
2702.781735,740.205942,-10510.924376,-459.657299
2702.782063,1406.391290,-8438.347739,0.000000
2702.782390,1258.350101,-7920.203579,1072.533697
2702.782718,0.000000,-9992.780217,1608.800546
2702.783046,-592.164754,-11251.130318,612.876398
2702.783373,-888.247130,-10658.965565,-842.705048
2702.783701,-888.247130,-8586.388927,-1838.629195
2702.784029,-1480.411884,-7476.080014,-1072.533697
2702.784356,-1406.391290,-7772.162391,229.828649
2702.784684,-1554.432478,-9178.553681,1378.971896
2702.785011,-592.164754,-10510.924376,995.924147
2702.785339,1110.308913,-9992.780217,-153.219100
2702.785667,888.247130,-9252.574275,-459.657299
2702.785994,0.000000,-7920.203579,-459.657299
2702.786322,-1480.411884,-7698.141797,306.438199
2702.786650,-2146.597232,-9770.718434,153.219100
2702.786977,-518.144159,-11843.295072,-459.657299
2702.787305,740.205942,-11473.192101,-1608.800546
2702.787632,740.205942,-9474.636058,-766.095498
2702.787960,814.226536,-8734.430116,-229.828649
2702.788288,-444.123565,-9918.759623,-229.828649
2702.788615,-1406.391290,-11325.150913,76.609550
2702.788943,-222.061783,-11547.212695,-995.924147
2702.789271,1184.329507,-10584.944971,-1762.019645
2702.789598,1258.350101,-9104.533087,-842.705048
2702.789926,1332.370696,-8216.285956,919.314598
2702.790253,444.123565,-9030.512492,2068.457845
2702.790581,518.144159,-10584.944971,459.657299
2702.790909,1406.391290,-11473.192101,-306.438199
2702.791236,1702.473667,-10955.047942,-1915.238745
2702.791564,1702.473667,-9918.759623,-1838.629195
2702.791892,888.247130,-9030.512492,-383.047749
2702.792219,-370.102971,-9548.656652,229.828649
2702.792547,-1036.288319,-10140.821405,229.828649
2702.792874,1332.370696,-11251.130318,-383.047749
2702.793202,1628.453072,-9622.677246,-612.876398
2702.793530,1036.288319,-7476.080014,-153.219100
2702.793857,0.000000,-6439.791695,995.924147
2702.794184,-1258.350101,-7550.100608,1302.362347
2702.794512,-518.144159,-9696.697840,766.095498
2702.794839,888.247130,-10066.800811,-383.047749
2702.795167,1702.473667,-9252.574275,-766.095498
2702.795495,2072.576638,-8364.327145,383.047749
2702.795822,1110.308913,-9030.512492,689.485948
2702.796150,0.000000,-10436.903782,842.705048
2702.796478,444.123565,-11621.233289,76.609550
2702.796805,1036.288319,-11325.150913,-919.314598
2702.797133,1258.350101,-9770.718434,-766.095498
2702.797461,1036.288319,-8068.244768,229.828649
2702.797788,-148.041188,-8068.244768,383.047749
2702.798116,-1776.494261,-9400.615463,766.095498
2702.798444,-1184.329507,-10288.862594,0.000000
2702.798771,-518.144159,-10066.800811,-1608.800546
2702.799099,74.020594,-9178.553681,-2221.676944
2702.799427,0.000000,-9104.533087,-919.314598
2702.799754,-296.082377,-9326.594869,-76.609550
2702.800082,-888.247130,-10807.006753,459.657299
2702.800410,296.082377,-11843.295072,-383.047749
2702.800737,962.267725,-11621.233289,-1455.581446
2702.801065,1110.308913,-10288.862594,-1455.581446
2702.801393,370.102971,-8364.327145,-689.485948
2702.801720,-740.205942,-8956.491898,0.000000
2702.802048,-444.123565,-11029.068536,76.609550
2702.802376,-444.123565,-11103.089130,0.000000
2702.802703,518.144159,-10436.903782,-766.095498
2702.803031,1258.350101,-9252.574275,-1302.362347
2702.803359,740.205942,-7920.203579,-306.438199
2702.803686,0.000000,-8068.244768,995.924147
2702.804014,-444.123565,-9622.677246,1685.410096
2702.804342,222.061783,-10288.862594,689.485948
2702.804669,814.226536,-10066.800811,-383.047749
2702.804997,962.267725,-8734.430116,-383.047749
2702.805325,74.020594,-8068.244768,383.047749
2702.805652,-962.267725,-9252.574275,995.924147
2702.805980,-814.226536,-11325.150913,919.314598
2702.806307,-592.164754,-11029.068536,-919.314598
2702.806635,370.102971,-9474.636058,-1302.362347
2702.806963,-148.041188,-8142.265362,-766.095498
2702.807290,-148.041188,-7920.203579,459.657299
2702.807618,-444.123565,-8956.491898,1378.971896
2702.807946,518.144159,-9992.780217,842.705048
2702.808273,1258.350101,-10288.862594,-306.438199
2702.808601,1998.556043,-10510.924376,-612.876398
2702.808929,1332.370696,-8734.430116,-612.876398
2702.809256,0.000000,-8364.327145,383.047749
2702.809584,-666.185348,-10362.883188,0.000000
2702.809912,0.000000,-11991.336260,-1072.533697
2702.810239,666.185348,-12435.459826,-1608.800546
2702.810567,1998.556043,-11029.068536,-1149.143247
2702.810895,2072.576638,-8438.347739,-1378.971896
2702.811222,962.267725,-8586.388927,1225.752797
2702.811550,444.123565,-10066.800811,1455.581446
2702.811878,666.185348,-10955.047942,383.047749
2702.812205,1776.494261,-10436.903782,-842.705048
2702.812533,1924.535449,-9178.553681,-1072.533697
2702.812861,1554.432478,-7698.141797,-459.657299
2702.813188,370.102971,-7846.182985,919.314598
2702.813516,-592.164754,-10066.800811,1455.581446
2702.813844,-518.144159,-11399.171507,-459.657299
2702.814171,296.082377,-11103.089130,-2604.724693
2702.814499,518.144159,-10066.800811,-2145.067394
2702.814827,0.000000,-8512.368333,-459.657299
2702.815154,-370.102971,-8290.306550,919.314598
2702.815482,0.000000,-9474.636058,1762.019645
2702.815810,296.082377,-9918.759623,0.000000
2702.816137,1258.350101,-9770.718434,-306.438199
2702.816465,888.247130,-8290.306550,-612.876398
2702.816793,-370.102971,-7624.121203,0.000000
2702.817120,-1110.308913,-9030.512492,229.828649
2702.817448,-1480.411884,-10214.842000,229.828649
2702.817775,-740.205942,-11029.068536,-383.047749
2702.818103,740.205942,-10955.047942,-1072.533697
2702.818431,2072.576638,-9474.636058,-1149.143247
2702.818758,962.267725,-8660.409521,153.219100
2702.819086,-518.144159,-9696.697840,919.314598
2702.819414,-1184.329507,-10140.821405,689.485948
2702.819741,-222.061783,-10362.883188,-536.266849
2702.820069,740.205942,-9474.636058,-1302.362347
2702.820397,1110.308913,-8512.368333,306.438199
2702.820724,592.164754,-8660.409521,459.657299
2702.821052,74.020594,-9696.697840,842.705048
2702.821380,-148.041188,-11251.130318,306.438199
2702.821707,74.020594,-11991.336260,-919.314598
2702.822035,814.226536,-10955.047942,-1915.238745
2702.822363,1184.329507,-8808.450710,-766.095498
2702.822690,814.226536,-8438.347739,153.219100
2702.823018,222.061783,-9474.636058,919.314598
2702.823346,0.000000,-9548.656652,1149.143247
2702.823673,-222.061783,-9992.780217,0.000000
2702.824001,-740.205942,-9474.636058,-995.924147
2702.824329,-1110.308913,-8512.368333,-689.485948
2702.824656,-1110.308913,-7624.121203,-995.924147
2702.824984,-1036.288319,-8734.430116,153.219100
2702.825312,-222.061783,-11103.089130,153.219100
2702.825639,1184.329507,-11843.295072,153.219100
2702.825967,1998.556043,-10584.944971,-459.657299
2702.826295,2220.617826,-9104.533087,-919.314598
2702.826622,1258.350101,-9104.533087,-383.047749
2702.826950,-296.082377,-9474.636058,459.657299
2702.827278,814.226536,-10807.006753,306.438199
2702.827605,2368.659014,-10732.986159,0.000000
2702.827933,2590.720797,-9030.512492,-306.438199
2702.828261,1110.308913,-8068.244768,76.609550
2702.828588,-370.102971,-8512.368333,536.266849
2702.828916,-592.164754,-9474.636058,536.266849
2702.829243,-148.041188,-10881.027347,-995.924147
2702.829571,0.000000,-10732.986159,-1225.752797
2702.829899,962.267725,-9918.759623,-536.266849
2702.830226,1110.308913,-8734.430116,0.000000
2702.830554,222.061783,-8734.430116,919.314598
2702.830882,-444.123565,-9918.759623,842.705048
2702.831209,0.000000,-10955.047942,-536.266849
2702.831537,370.102971,-10436.903782,-1915.238745
2702.831865,-296.082377,-9474.636058,-1225.752797
2702.832192,-222.061783,-8364.327145,0.000000
2702.832520,-1184.329507,-8882.471304,612.876398
2702.832848,-1036.288319,-10658.965565,536.266849
2702.833175,296.082377,-11769.274478,0.000000
2702.833503,1258.350101,-10732.986159,-153.219100
2702.833831,1480.411884,-9474.636058,-612.876398
2702.834158,814.226536,-7920.203579,612.876398
2702.834486,0.000000,-7846.182985,995.924147
2702.834814,-592.164754,-9400.615463,1225.752797
2702.835141,222.061783,-10510.924376,153.219100
2702.835469,888.247130,-10510.924376,-1149.143247
2702.835797,1258.350101,-9770.718434,-919.314598
2702.836124,148.041188,-8660.409521,0.000000
2702.836452,-518.144159,-10066.800811,0.000000
2702.836780,-1184.329507,-10955.047942,842.705048
2702.837107,-222.061783,-11029.068536,-689.485948
2702.837435,518.144159,-10658.965565,-1532.190996
2702.837763,518.144159,-8586.388927,-766.095498
2702.838090,148.041188,-7031.956449,383.047749
2702.838418,148.041188,-7994.224174,1532.190996
2702.838746,0.000000,-9326.594869,1072.533697
2702.839073,518.144159,-10288.862594,-229.828649
2702.839401,962.267725,-10214.842000,-1378.971896
2702.839729,962.267725,-9474.636058,-1378.971896
2702.840056,444.123565,-9178.553681,-766.095498
2702.840384,0.000000,-10584.944971,229.828649
2702.840712,370.102971,-12657.521608,842.705048
2702.841039,1628.453072,-12287.418637,-536.266849
2702.841367,1332.370696,-9474.636058,-842.705048
2702.841694,592.164754,-7994.224174,-995.924147
2702.842022,-518.144159,-7328.038826,0.000000
2702.842350,-1480.411884,-8068.244768,919.314598
2702.842677,-962.267725,-9030.512492,0.000000
2702.843005,74.020594,-9474.636058,-1225.752797
2702.843333,0.000000,-9400.615463,-612.876398
2702.843660,222.061783,-9400.615463,-229.828649
2702.843988,814.226536,-10140.821405,0.000000
2702.844316,518.144159,-11547.212695,383.047749
2702.844643,592.164754,-12509.480420,306.438199
2702.844971,962.267725,-11695.253884,0.000000
2702.845299,1036.288319,-9622.677246,-459.657299
2702.845626,518.144159,-7698.141797,0.000000
2702.845954,-888.247130,-6883.915261,459.657299
2702.846282,-1554.432478,-8586.388927,995.924147
2702.846609,-740.205942,-9622.677246,0.000000
2702.846937,74.020594,-9992.780217,-689.485948
2702.847265,-444.123565,-9918.759623,-229.828649
2702.847592,444.123565,-9104.533087,0.000000
2702.847920,592.164754,-9030.512492,0.000000
2702.848248,296.082377,-10436.903782,0.000000
2702.848575,1110.308913,-11917.315666,0.000000
2702.848903,1776.494261,-11769.274478,-612.876398
2702.849231,1702.473667,-9326.594869,-766.095498
2702.849558,1036.288319,-7772.162391,-459.657299
2702.849886,-370.102971,-8586.388927,306.438199
2702.850214,-1184.329507,-9992.780217,919.314598
2702.850541,444.123565,-11325.150913,-689.485948
2702.850869,1480.411884,-10732.986159,-2145.067394
2702.851197,1110.308913,-9252.574275,-1532.190996
2702.851524,444.123565,-8142.265362,0.000000
2702.851852,-444.123565,-8882.471304,1378.971896
2702.852180,-740.205942,-10584.944971,1225.752797
2702.852507,0.000000,-11177.109724,-689.485948
2702.852835,222.061783,-11029.068536,-1685.410096
2702.853162,0.000000,-9474.636058,-1149.143247
2702.853490,-222.061783,-8364.327145,-383.047749
2702.853818,-1480.411884,-9252.574275,459.657299
2702.854145,-1110.308913,-11029.068536,459.657299
2702.854473,0.000000,-10807.006753,-1455.581446
2702.854801,370.102971,-10436.903782,-1532.190996
2702.855128,0.000000,-8438.347739,-1072.533697
2702.855456,296.082377,-8438.347739,383.047749
2702.855784,0.000000,-9252.574275,1838.629195
2702.856111,666.185348,-10584.944971,1838.629195
2702.856439,1998.556043,-10955.047942,229.828649
2702.856767,2368.659014,-10140.821405,0.000000
2702.857094,1998.556043,-8142.265362,-612.876398
2702.857422,1184.329507,-7179.997637,0.000000
2702.857750,-814.226536,-8956.491898,1072.533697
2702.858077,-814.226536,-11029.068536,459.657299
2702.858405,444.123565,-11103.089130,-919.314598
2702.858733,1406.391290,-10584.944971,-1455.581446
2702.859060,1702.473667,-8512.368333,-153.219100
2702.859388,740.205942,-8512.368333,153.219100
2702.859716,0.000000,-10288.862594,1455.581446
2702.860043,814.226536,-11251.130318,383.047749
2702.860371,518.144159,-10436.903782,-766.095498
2702.860699,222.061783,-8956.491898,-689.485948
2702.861026,296.082377,-7846.182985,-383.047749
2702.861354,-666.185348,-7846.182985,383.047749
2702.861682,-814.226536,-9474.636058,383.047749
2702.862009,-296.082377,-11103.089130,-383.047749
2702.862337,518.144159,-11843.295072,-1532.190996
2702.862665,814.226536,-10658.965565,-1455.581446
2702.862992,814.226536,-8956.491898,-919.314598
2702.863320,74.020594,-8808.450710,0.000000
2702.863648,-740.205942,-10658.965565,1608.800546
2702.863975,1258.350101,-11103.089130,0.000000
2702.864303,1406.391290,-10658.965565,-153.219100
2702.864630,1036.288319,-9104.533087,-1072.533697
2702.864958,222.061783,-7846.182985,-1225.752797
2702.865286,-1628.453072,-9178.553681,-459.657299
2702.865613,-1554.432478,-10807.006753,0.000000
2702.865941,-518.144159,-10732.986159,0.000000
2702.866269,444.123565,-9548.656652,-1608.800546
2702.866596,1702.473667,-9548.656652,-919.314598
2702.866924,962.267725,-8512.368333,306.438199
2702.867252,-444.123565,-9178.553681,1762.019645
2702.867579,-666.185348,-10658.965565,1378.971896
2702.867907,0.000000,-10436.903782,-229.828649
2702.868235,296.082377,-9696.697840,-689.485948
2702.868562,296.082377,-8364.327145,-383.047749
2702.868890,-370.102971,-7031.956449,-383.047749
2702.869218,-592.164754,-8734.430116,459.657299
2702.869545,0.000000,-10362.883188,0.000000
2702.869873,666.185348,-10584.944971,-1072.533697
2702.870201,1628.453072,-10807.006753,-1455.581446
2702.870528,1702.473667,-9030.512492,229.828649
2702.870856,666.185348,-8142.265362,536.266849
2702.871184,370.102971,-8808.450710,1455.581446
2702.871511,296.082377,-10214.842000,1225.752797
2702.871839,222.061783,-10807.006753,383.047749
2702.872167,518.144159,-9844.739029,-766.095498
2702.872494,370.102971,-8512.368333,-1378.971896
2702.872822,-1036.288319,-7994.224174,-536.266849
2702.873150,-2220.617826,-9622.677246,0.000000
2702.873477,-1036.288319,-11029.068536,-689.485948
2702.873805,518.144159,-11769.274478,-2145.067394
2702.874133,1628.453072,-10214.842000,-2221.676944
2702.874460,1628.453072,-9252.574275,-995.924147
2702.874788,1258.350101,-9992.780217,842.705048
2702.875116,814.226536,-10807.006753,1838.629195
2702.875443,1924.535449,-11843.295072,459.657299
2702.875771,1850.514855,-10955.047942,-919.314598
2702.876098,1110.308913,-9770.718434,-1608.800546
2702.876426,518.144159,-7920.203579,-842.705048
2702.876754,-592.164754,-7105.977043,0.000000
2702.877081,-814.226536,-9326.594869,383.047749
2702.877409,-888.247130,-11103.089130,76.609550
2702.877737,814.226536,-10807.006753,-306.438199
2702.878064,518.144159,-9474.636058,-306.438199
2702.878392,0.000000,-7920.203579,0.000000
2702.878720,-592.164754,-8068.244768,229.828649
2702.879047,-814.226536,-10140.821405,689.485948
2702.879375,-222.061783,-11325.150913,306.438199
2702.879703,148.041188,-10288.862594,536.266849
2702.880030,592.164754,-8438.347739,229.828649
2702.880358,-740.205942,-7920.203579,229.828649
2702.880686,-2368.659014,-8438.347739,383.047749
2702.881013,-2368.659014,-9918.759623,536.266849
2702.881341,-296.082377,-11029.068536,-459.657299
2702.881669,888.247130,-10066.800811,-1532.190996
2702.881996,1480.411884,-8660.409521,0.000000
2702.882324,1184.329507,-7254.018232,1225.752797
2702.882652,666.185348,-9104.533087,1532.190996
2702.882979,296.082377,-11251.130318,1149.143247
2702.883307,592.164754,-11547.212695,-842.705048
2702.883635,666.185348,-10584.944971,-2221.676944
2702.883962,518.144159,-9252.574275,-1455.581446
2702.884290,0.000000,-8364.327145,-689.485948
2702.884618,-592.164754,-9474.636058,0.000000
2702.884945,148.041188,-11547.212695,-612.876398
2702.885273,592.164754,-12065.356855,-1378.971896
2702.885601,888.247130,-10955.047942,-1455.581446
2702.885928,740.205942,-8734.430116,-995.924147
2702.886256,592.164754,-7402.059420,-459.657299
2702.886584,148.041188,-9400.615463,536.266849
2702.886911,1332.370696,-11325.150913,995.924147
2702.887239,1776.494261,-10955.047942,383.047749
2702.887566,2146.597232,-10214.842000,-536.266849
2702.887894,2516.700203,-9400.615463,-1455.581446
2702.888222,1554.432478,-9178.553681,-689.485948
2702.888549,222.061783,-10214.842000,689.485948
2702.888877,1332.370696,-11399.171507,995.924147
2702.889205,2812.782580,-11325.150913,0.000000
2702.889532,1924.535449,-9252.574275,-689.485948
2702.889860,1110.308913,-6587.832884,0.000000
2702.890188,0.000000,-6513.812290,919.314598
2702.890515,-888.247130,-8734.430116,1915.238745
2702.890843,-740.205942,-9474.636058,1225.752797
2702.891171,-222.061783,-8882.471304,-459.657299
2702.891498,0.000000,-9104.533087,-1149.143247
2702.891826,0.000000,-8512.368333,-995.924147
2702.892154,444.123565,-8512.368333,-612.876398
2702.892481,518.144159,-10955.047942,612.876398
2702.892809,1998.556043,-12879.583391,536.266849
2702.893136,2220.617826,-11769.274478,0.000000
2702.893464,1554.432478,-9400.615463,-459.657299
2702.893791,1110.308913,-8290.306550,76.609550
2702.894119,-444.123565,-7920.203579,306.438199
2702.894446,-1406.391290,-9400.615463,612.876398
2702.894774,-814.226536,-10807.006753,0.000000
2702.895101,444.123565,-10955.047942,-1072.533697
2702.895429,888.247130,-9474.636058,-1455.581446
2702.895756,592.164754,-8808.450710,-1532.190996
2702.896084,-666.185348,-9696.697840,306.438199
2702.896411,-1258.350101,-10881.027347,0.000000
2702.896739,-222.061783,-12065.356855,-1455.581446
2702.897066,296.082377,-11029.068536,-1455.581446
2702.897394,814.226536,-9474.636058,-1072.533697
2702.897721,222.061783,-8882.471304,306.438199
2702.898049,-1258.350101,-9918.759623,1302.362347
2702.898376,-1480.411884,-11251.130318,0.000000
2702.898704,-1480.411884,-11177.109724,-1838.629195
2702.899031,-1406.391290,-9770.718434,-2068.457845
2702.899359,-1110.308913,-7328.038826,-1302.362347
2702.899686,-666.185348,-6735.874072,0.000000
2702.900014,-740.205942,-8216.285956,1455.581446
2702.900341,-592.164754,-10066.800811,1991.848295
2702.900669,0.000000,-10658.965565,459.657299
2702.900996,222.061783,-9992.780217,-536.266849
2702.901324,-296.082377,-7920.203579,-612.876398
2702.901651,-1110.308913,-8142.265362,-306.438199
2702.901979,-1998.556043,-9622.677246,766.095498
2702.902306,-888.247130,-11029.068536,76.609550
2702.902634,0.000000,-11695.253884,-612.876398
2702.902961,222.061783,-9326.594869,-1149.143247
2702.903289,0.000000,-7402.059420,-383.047749
2702.903616,74.020594,-8068.244768,-229.828649
2702.903944,-962.267725,-9474.636058,995.924147
2702.904271,148.041188,-10288.862594,153.219100
2702.904599,1850.514855,-10510.924376,-536.266849
2702.904926,2220.617826,-9030.512492,0.000000
2702.905254,2368.659014,-8216.285956,0.000000
2702.905581,1110.308913,-9030.512492,536.266849
2702.905909,0.000000,-11251.130318,689.485948
2702.906236,296.082377,-12213.398043,-766.095498
2702.906564,962.267725,-12065.356855,-2451.505594
2702.906891,592.164754,-10510.924376,-1915.238745
2702.907219,814.226536,-8438.347739,-1302.362347
2702.907546,666.185348,-8438.347739,-306.438199
2702.907874,962.267725,-10288.862594,766.095498
2702.908201,2442.679609,-11695.253884,306.438199
2702.908529,2664.741391,-10732.986159,0.000000
2702.908856,2590.720797,-9474.636058,0.000000
2702.909184,1480.411884,-7920.203579,76.609550
2702.909511,296.082377,-8068.244768,612.876398
2702.909839,-296.082377,-9696.697840,919.314598
2702.910166,444.123565,-11251.130318,-306.438199
2702.910494,1036.288319,-11399.171507,-1225.752797
2702.910821,1776.494261,-9992.780217,-1225.752797
2702.911149,1702.473667,-8512.368333,-612.876398
2702.911476,74.020594,-8956.491898,689.485948
2702.911804,-296.082377,-9622.677246,2145.067394
2702.912131,592.164754,-9400.615463,536.266849
2702.912459,1628.453072,-8734.430116,-995.924147
2702.912786,1702.473667,-7846.182985,383.047749
2702.913114,888.247130,-8142.265362,1072.533697
2702.913441,0.000000,-9400.615463,1608.800546
2702.913769,-962.267725,-11103.089130,995.924147
2702.914096,-888.247130,-11251.130318,-689.485948
2702.914424,0.000000,-9844.739029,-2298.286494
2702.914751,-222.061783,-8364.327145,-1915.238745
2702.915079,-444.123565,-7920.203579,-153.219100
2702.915406,-814.226536,-9622.677246,766.095498
2702.915734,-962.267725,-11029.068536,1072.533697
2702.916061,-370.102971,-10881.027347,-306.438199
2702.916389,0.000000,-9770.718434,-1072.533697
2702.916716,-148.041188,-7994.224174,-689.485948
2702.917044,-518.144159,-8068.244768,-383.047749
2702.917371,-1110.308913,-9696.697840,0.000000
2702.917699,-666.185348,-11547.212695,-306.438199
2702.918026,-296.082377,-11843.295072,-1225.752797
2702.918354,296.082377,-11621.233289,-1378.971896
2702.918681,0.000000,-9770.718434,-689.485948
2702.919009,0.000000,-8660.409521,-536.266849
2702.919336,-888.247130,-9400.615463,612.876398
2702.919664,-740.205942,-10807.006753,995.924147
2702.919991,74.020594,-10584.944971,76.609550
2702.920319,-592.164754,-8438.347739,-153.219100
2702.920646,-1998.556043,-7328.038826,0.000000
2702.920974,-3256.906145,-7846.182985,-536.266849
2702.921301,-3701.029710,-10140.821405,-459.657299
2702.921629,-2294.638420,-10436.903782,-1072.533697
2702.921956,0.000000,-10436.903782,-2145.067394
2702.922284,814.226536,-10214.842000,-1608.800546
2702.922611,1110.308913,-8808.450710,-383.047749
2702.922939,888.247130,-8512.368333,612.876398
2702.923266,740.205942,-10584.944971,1838.629195
2702.923594,1406.391290,-11177.109724,229.828649
2702.923921,2738.761985,-10214.842000,-306.438199
2702.924249,2146.597232,-7994.224174,0.000000
2702.924576,1184.329507,-7031.956449,536.266849
2702.924904,1110.308913,-8364.327145,919.314598
2702.925231,814.226536,-10362.883188,536.266849
2702.925559,1628.453072,-11843.295072,0.000000
2702.925886,1998.556043,-10881.027347,-995.924147
2702.926214,2516.700203,-9252.574275,-1532.190996
2702.926541,2664.741391,-7772.162391,-919.314598
2702.926869,1036.288319,-8808.450710,766.095498
2702.927196,1110.308913,-10214.842000,766.095498
2702.927524,1702.473667,-11103.089130,0.000000
2702.927851,1998.556043,-10510.924376,-919.314598
2702.928179,2368.659014,-9770.718434,-1762.019645
2702.928506,1036.288319,-8808.450710,0.000000
2702.928834,0.000000,-9474.636058,995.924147
2702.929161,-592.164754,-10732.986159,306.438199
2702.929489,518.144159,-11251.130318,-995.924147
2702.929816,962.267725,-9918.759623,-1302.362347
2702.930144,962.267725,-8216.285956,-383.047749
2702.930471,296.082377,-7402.059420,612.876398
2702.930799,666.185348,-9030.512492,1608.800546
2702.931126,1332.370696,-11251.130318,1225.752797
2702.931453,1036.288319,-11547.212695,76.609550
2702.931781,666.185348,-10436.903782,-536.266849
2702.932108,666.185348,-9030.512492,-1225.752797
2702.932436,-444.123565,-8586.388927,-766.095498
2702.932763,-1406.391290,-10066.800811,0.000000
2702.933091,-1110.308913,-11103.089130,76.609550
2702.933418,296.082377,-10807.006753,-229.828649
2702.933746,518.144159,-9844.739029,0.000000
2702.934073,444.123565,-8364.327145,-459.657299
2702.934401,-740.205942,-7328.038826,0.000000
2702.934728,-1776.494261,-8216.285956,612.876398
2702.935056,-592.164754,-9844.739029,689.485948
2702.935383,370.102971,-9992.780217,0.000000
2702.935711,1036.288319,-9252.574275,0.000000
2702.936038,740.205942,-8512.368333,0.000000
2702.936366,74.020594,-9622.677246,306.438199
2702.936693,-444.123565,-11843.295072,229.828649
2702.937021,-296.082377,-12879.583391,-459.657299
2702.937348,222.061783,-11547.212695,-1225.752797
2702.937676,-592.164754,-9030.512492,-1762.019645
2702.938003,-444.123565,-7328.038826,-1149.143247
2702.938331,-1850.514855,-7328.038826,-229.828649
2702.938658,-2516.700203,-9400.615463,459.657299
2702.938986,-1924.535449,-10214.842000,-153.219100
2702.939313,-740.205942,-10288.862594,-1762.019645
2702.939641,0.000000,-8808.450710,-1378.971896
2702.939968,444.123565,-8216.285956,-1302.362347
2702.940296,370.102971,-9622.677246,383.047749
2702.940623,814.226536,-11917.315666,842.705048
2702.940951,1480.411884,-12805.562797,0.000000
2702.941278,2072.576638,-11843.295072,-1225.752797
2702.941606,1924.535449,-9548.656652,-1225.752797
2702.941933,1036.288319,-7846.182985,0.000000
2702.942261,-370.102971,-8586.388927,383.047749
2702.942588,74.020594,-10214.842000,1685.410096
2702.942916,592.164754,-10214.842000,536.266849
2702.943243,814.226536,-8808.450710,-1149.143247
2702.943571,888.247130,-8216.285956,-1532.190996
2702.943898,444.123565,-7846.182985,-612.876398
2702.944226,-740.205942,-9030.512492,536.266849
2702.944553,-592.164754,-10658.965565,919.314598
2702.944881,2516.700203,-11325.150913,-306.438199
2702.945208,2886.803174,-10881.027347,-383.047749
2702.945536,2294.638420,-9474.636058,0.000000
2702.945863,1184.329507,-8586.388927,76.609550
2702.946191,-222.061783,-9252.574275,383.047749
2702.946518,0.000000,-10584.944971,0.000000
2702.946846,592.164754,-10732.986159,-1302.362347
2702.947173,1036.288319,-9770.718434,-459.657299
2702.947501,1332.370696,-8290.306550,76.609550
2702.947828,1036.288319,-8142.265362,229.828649
2702.948156,-296.082377,-9474.636058,612.876398
2702.948483,-222.061783,-11251.130318,383.047749
2702.948811,1258.350101,-11399.171507,-612.876398
2702.949138,1406.391290,-10510.924376,-995.924147
2702.949466,1480.411884,-9622.677246,-919.314598
2702.949793,74.020594,-8438.347739,-229.828649
2702.950121,-1480.411884,-9474.636058,536.266849
2702.950448,-1258.350101,-11029.068536,0.000000
2702.950776,-666.185348,-11325.150913,-1532.190996
2702.951103,-444.123565,-9622.677246,-1608.800546
2702.951431,-666.185348,-7846.182985,-1072.533697
2702.951758,-814.226536,-8068.244768,612.876398
2702.952086,-666.185348,-10066.800811,1149.143247
2702.952413,0.000000,-10658.965565,1302.362347
2702.952741,518.144159,-10214.842000,459.657299
2702.953068,592.164754,-8512.368333,-612.876398
2702.953396,370.102971,-7254.018232,-536.266849
2702.953723,-592.164754,-7920.203579,229.828649
2702.954051,-888.247130,-9474.636058,612.876398
2702.954378,-444.123565,-11251.130318,76.609550
2702.954706,0.000000,-11325.150913,-995.924147
2702.955033,0.000000,-9622.677246,-1762.019645
2702.955361,0.000000,-8512.368333,-995.924147
2702.955688,74.020594,-9474.636058,-383.047749
2702.956016,-296.082377,-10881.027347,459.657299
2702.956343,666.185348,-11399.171507,919.314598
2702.956671,1110.308913,-9918.759623,-306.438199
2702.956998,1184.329507,-8142.265362,-766.095498
2702.957326,370.102971,-7179.997637,0.000000
2702.957653,-592.164754,-8438.347739,689.485948
2702.957981,-962.267725,-9844.739029,995.924147
2702.958308,740.205942,-10732.986159,-1149.143247
2702.958636,1554.432478,-11103.089130,-1991.848295
2702.958963,1480.411884,-10362.883188,-1455.581446
2702.959291,1110.308913,-9548.656652,-306.438199
2702.959618,148.041188,-10436.903782,766.095498
2702.959946,148.041188,-11547.212695,689.485948
2702.960273,962.267725,-11103.089130,-383.047749
2702.960601,962.267725,-9474.636058,-1072.533697
2702.960928,1554.432478,-8142.265362,-1225.752797
2702.961256,370.102971,-7624.121203,0.000000
2702.961583,-444.123565,-8512.368333,766.095498
2702.961911,-666.185348,-10288.862594,612.876398
2702.962238,74.020594,-10881.027347,-995.924147
2702.962566,1036.288319,-10066.800811,-2298.286494
2702.962893,1110.308913,-8882.471304,-1149.143247
2702.963221,1110.308913,-8808.450710,536.266849
2702.963548,888.247130,-9992.780217,1378.971896
2702.963876,666.185348,-11399.171507,1608.800546
2702.964203,1258.350101,-11177.109724,0.000000
2702.964531,2146.597232,-9622.677246,-1149.143247
2702.964858,1998.556043,-7994.224174,-383.047749
2702.965186,666.185348,-6883.915261,383.047749
2702.965513,-444.123565,-9104.533087,1302.362347
2702.965841,0.000000,-10288.862594,612.876398
2702.966168,592.164754,-10436.903782,-842.705048
2702.966496,888.247130,-9474.636058,-1762.019645
2702.966823,592.164754,-9104.533087,-919.314598
2702.967151,-296.082377,-8956.491898,306.438199
2702.967478,-222.061783,-9918.759623,1225.752797
2702.967806,0.000000,-11103.089130,612.876398
2702.968133,-370.102971,-10584.944971,-229.828649
2702.968461,-740.205942,-8956.491898,-995.924147
2702.968788,-1702.473667,-7476.080014,-995.924147
2702.969116,-2220.617826,-8290.306550,-919.314598
2702.969443,-2220.617826,-10510.924376,-689.485948
2702.969771,-1702.473667,-11917.315666,0.000000
2702.970098,74.020594,-11177.109724,-1302.362347
2702.970426,518.144159,-9918.759623,-1915.238745
2702.970753,148.041188,-8956.491898,-1149.143247
2702.971081,-444.123565,-9548.656652,153.219100
2702.971408,0.000000,-10436.903782,689.485948
2702.971736,814.226536,-10732.986159,76.609550
2702.972063,2072.576638,-11029.068536,0.000000
2702.972391,1998.556043,-9474.636058,229.828649
2702.972718,1184.329507,-7994.224174,459.657299
2702.973046,222.061783,-8660.409521,766.095498
2702.973373,222.061783,-10807.006753,612.876398
2702.973701,888.247130,-11251.130318,-612.876398
2702.974028,1554.432478,-9548.656652,-1072.533697
2702.974356,1702.473667,-8364.327145,-689.485948
2702.974683,666.185348,-7846.182985,689.485948
2702.975011,-518.144159,-9178.553681,2145.067394
2702.975338,-296.082377,-10362.883188,1378.971896
2702.975666,74.020594,-10288.862594,-383.047749
2702.975993,148.041188,-9474.636058,-1685.410096
2702.976321,296.082377,-8216.285956,-1225.752797
2702.976648,370.102971,-8586.388927,383.047749
2702.976976,-1184.329507,-9178.553681,995.924147
2702.977303,0.000000,-10584.944971,459.657299
2702.977631,370.102971,-11325.150913,-842.705048
2702.977958,1258.350101,-10066.800811,-1608.800546
2702.978286,1480.411884,-7994.224174,-766.095498
2702.978613,888.247130,-7624.121203,689.485948
2702.978941,814.226536,-10510.924376,1991.848295
2702.979268,1332.370696,-11769.274478,1225.752797
2702.979596,1850.514855,-11769.274478,-1072.533697
2702.979923,1554.432478,-10658.965565,-1608.800546
2702.980251,888.247130,-9030.512492,-1608.800546
2702.980578,-518.144159,-8512.368333,-383.047749
2702.980906,-962.267725,-9400.615463,919.314598
2702.981233,-222.061783,-11029.068536,459.657299
2702.981561,1258.350101,-11917.315666,-995.924147
2702.981888,1628.453072,-10955.047942,-1302.362347
2702.982216,740.205942,-8882.471304,-689.485948
2702.982543,-370.102971,-8808.450710,76.609550
2702.982871,-962.267725,-10066.800811,842.705048
2702.983198,-296.082377,-10807.006753,689.485948
2702.983526,888.247130,-10214.842000,-459.657299
2702.983853,1924.535449,-9622.677246,-612.876398
2702.984181,1554.432478,-8660.409521,0.000000
2702.984508,444.123565,-8956.491898,689.485948
2702.984836,-518.144159,-10510.924376,842.705048
2702.985163,0.000000,-11621.233289,0.000000
2702.985491,740.205942,-10140.821405,-1608.800546
2702.985818,296.082377,-7624.121203,-1149.143247
2702.986146,-296.082377,-7031.956449,0.000000
2702.986473,-666.185348,-7772.162391,995.924147
2702.986801,-1628.453072,-9770.718434,1608.800546
2702.987128,-1036.288319,-10510.924376,229.828649
2702.987456,0.000000,-9696.697840,-1532.190996
2702.987783,296.082377,-8660.409521,-1455.581446
2702.988111,0.000000,-8068.244768,-229.828649
2702.988438,-666.185348,-9696.697840,919.314598
2702.988766,296.082377,-11029.068536,842.705048
2702.989093,1036.288319,-11251.130318,0.000000
2702.989421,666.185348,-10066.800811,-689.485948
2702.989748,148.041188,-9178.553681,-383.047749
2702.990076,-296.082377,-8660.409521,-612.876398
2702.990403,-148.041188,-9770.718434,689.485948
2702.990731,-666.185348,-11103.089130,229.828649
2702.991058,296.082377,-10658.965565,-919.314598
2702.991386,370.102971,-9474.636058,-1991.848295
2702.991713,-666.185348,-8808.450710,-1608.800546
2702.992041,-1258.350101,-8364.327145,-1149.143247
2702.992368,-740.205942,-9622.677246,-536.266849
2702.992696,296.082377,-11325.150913,-383.047749
2702.993023,1924.535449,-12139.377449,-689.485948
2702.993351,2368.659014,-10955.047942,-689.485948
2702.993678,1702.473667,-9474.636058,-306.438199
2702.994006,592.164754,-8808.450710,0.000000
2702.994333,0.000000,-9474.636058,153.219100
2702.994661,0.000000,-10658.965565,766.095498
2702.994988,1258.350101,-10807.006753,459.657299
2702.995316,1554.432478,-9178.553681,-383.047749
2702.995644,814.226536,-7179.997637,0.000000
2702.995971,370.102971,-7846.182985,459.657299
2702.996299,-666.185348,-9548.656652,842.705048
2702.996626,-148.041188,-10436.903782,0.000000
2702.996954,1702.473667,-10436.903782,-766.095498
2702.997281,1776.494261,-9252.574275,-1225.752797
2702.997609,444.123565,-7994.224174,306.438199
2702.997937,0.000000,-8068.244768,1762.019645
2702.998264,-814.226536,-9770.718434,1302.362347
2702.998592,-814.226536,-11029.068536,0.000000
2702.998919,-592.164754,-10066.800811,-1685.410096
2702.999247,-518.144159,-8364.327145,-1455.581446
2702.999574,-1036.288319,-7624.121203,-459.657299
2702.999902,-740.205942,-8290.306550,76.609550
2703.000229,74.020594,-10436.903782,919.314598
2703.000557,518.144159,-11251.130318,536.266849
2703.000885,1554.432478,-10807.006753,-842.705048
2703.001212,1998.556043,-9770.718434,-1302.362347
2703.001540,814.226536,-8438.347739,-689.485948
2703.001867,444.123565,-9178.553681,-383.047749
2703.002195,-592.164754,-10658.965565,612.876398
2703.002522,518.144159,-11917.315666,-919.314598
2703.002850,1036.288319,-11769.274478,-1838.629195
2703.003178,888.247130,-9770.718434,-1991.848295
2703.003505,0.000000,-8734.430116,-1532.190996
2703.003833,-740.205942,-9474.636058,0.000000
2703.004160,-740.205942,-10214.842000,153.219100
2703.004488,222.061783,-11103.089130,0.000000
2703.004815,1110.308913,-10658.965565,-612.876398
2703.005143,888.247130,-8512.368333,-153.219100
2703.005470,0.000000,-8068.244768,459.657299
2703.005798,-518.144159,-10066.800811,1378.971896
2703.006126,-1110.308913,-11399.171507,919.314598
2703.006453,-666.185348,-11029.068536,-995.924147
2703.006781,-222.061783,-9770.718434,-1915.238745
2703.007108,0.000000,-7920.203579,-1149.143247
2703.007436,-370.102971,-8438.347739,0.000000
2703.007763,-370.102971,-9252.574275,1302.362347
2703.008091,222.061783,-10066.800811,1302.362347
2703.008419,666.185348,-10066.800811,229.828649
2703.008746,296.082377,-8512.368333,0.000000
2703.009074,518.144159,-7254.018232,0.000000
2703.009401,-740.205942,-7254.018232,459.657299
2703.009729,-740.205942,-8882.471304,383.047749
2703.010056,-296.082377,-11029.068536,536.266849
2703.010384,814.226536,-11769.274478,-306.438199
2703.010711,1184.329507,-9918.759623,-1072.533697
2703.011039,888.247130,-8808.450710,-306.438199
2703.011367,-148.041188,-9178.553681,0.000000
2703.011694,-740.205942,-9844.739029,153.219100
2703.012022,444.123565,-10955.047942,76.609550
2703.012349,2146.597232,-11399.171507,-689.485948
2703.012677,1998.556043,-9548.656652,-612.876398
2703.013004,962.267725,-8290.306550,459.657299
2703.013332,370.102971,-7920.203579,919.314598
2703.013660,0.000000,-10066.800811,842.705048
2703.013987,222.061783,-11251.130318,-536.266849
2703.014315,592.164754,-10658.965565,-2374.896044
2703.014642,1036.288319,-9844.739029,-1915.238745
2703.014970,814.226536,-9252.574275,-612.876398
2703.015297,370.102971,-8734.430116,229.828649
2703.015625,518.144159,-10510.924376,842.705048
2703.015952,1406.391290,-11843.295072,-536.266849
2703.016280,2146.597232,-10436.903782,-919.314598
2703.016608,888.247130,-8734.430116,-153.219100
2703.016935,-370.102971,-7624.121203,383.047749
2703.017263,-1628.453072,-8364.327145,306.438199
2703.017590,-1702.473667,-10140.821405,229.828649
2703.017918,-1258.350101,-10807.006753,-766.095498
2703.018245,-518.144159,-10732.986159,-1378.971896
2703.018573,1406.391290,-10066.800811,-1302.362347
2703.018901,1332.370696,-8216.285956,-459.657299
2703.019228,222.061783,-8734.430116,1072.533697
2703.019556,444.123565,-10436.903782,1685.410096
2703.019883,1702.473667,-11251.130318,383.047749
2703.020211,1554.432478,-9696.697840,-1302.362347
2703.020538,1184.329507,-7402.059420,0.000000
2703.020866,296.082377,-7179.997637,306.438199
2703.021194,-296.082377,-9474.636058,1378.971896
2703.021521,-296.082377,-11251.130318,1149.143247
2703.021849,444.123565,-11029.068536,-1149.143247
2703.022176,814.226536,-9770.718434,-1991.848295
2703.022504,296.082377,-8438.347739,-1149.143247
2703.022831,0.000000,-7846.182985,-383.047749
2703.023159,-370.102971,-9030.512492,536.266849
2703.023486,0.000000,-10658.965565,766.095498
2703.023814,666.185348,-10881.027347,-229.828649
2703.024142,888.247130,-10732.986159,-536.266849
2703.024469,370.102971,-9104.533087,-612.876398
2703.024797,-592.164754,-8586.388927,-229.828649
2703.025124,-1480.411884,-10288.862594,-306.438199
2703.025452,-814.226536,-11843.295072,-842.705048
2703.025779,222.061783,-11547.212695,-1608.800546
2703.026107,888.247130,-9696.697840,-919.314598
2703.026435,1184.329507,-8216.285956,-459.657299
2703.026762,1258.350101,-8734.430116,229.828649
2703.027090,666.185348,-10140.821405,766.095498
2703.027417,518.144159,-10362.883188,1685.410096
2703.027745,1628.453072,-10955.047942,-536.266849
2703.028072,1406.391290,-9844.739029,-919.314598
2703.028400,370.102971,-8216.285956,-459.657299
2703.028727,-888.247130,-8142.265362,306.438199
2703.029055,-1258.350101,-10658.965565,995.924147
2703.029383,296.082377,-12065.356855,-153.219100
2703.029710,1036.288319,-11325.150913,-1532.190996
2703.030038,740.205942,-8956.491898,-612.876398
2703.030365,592.164754,-7402.059420,-459.657299
2703.030693,-370.102971,-7698.141797,689.485948
2703.031020,-444.123565,-9474.636058,1302.362347
2703.031348,592.164754,-9770.718434,229.828649
2703.031676,1258.350101,-9474.636058,-383.047749
2703.032003,1850.514855,-8660.409521,-383.047749
2703.032331,2294.638420,-8216.285956,153.219100
2703.032658,1776.494261,-9252.574275,995.924147
2703.032986,666.185348,-11251.130318,919.314598
2703.033313,1258.350101,-12213.398043,-919.314598
2703.033641,2072.576638,-11325.150913,-1991.848295
2703.033968,1702.473667,-8660.409521,-1378.971896
2703.034296,962.267725,-7254.018232,612.876398
2703.034624,-592.164754,-8734.430116,459.657299
2703.034951,-888.247130,-10436.903782,842.705048
2703.035279,222.061783,-10955.047942,-459.657299
2703.035606,962.267725,-10066.800811,-1608.800546
2703.035934,888.247130,-9400.615463,-995.924147
2703.036261,296.082377,-8808.450710,153.219100
2703.036589,-1332.370696,-9770.718434,383.047749
2703.036917,-1406.391290,-11325.150913,76.609550
2703.037244,-666.185348,-11621.233289,-1302.362347
2703.037572,-444.123565,-10066.800811,-1532.190996
2703.037899,-740.205942,-8216.285956,-612.876398
2703.038227,-1184.329507,-8216.285956,0.000000
2703.038554,-1628.453072,-9104.533087,459.657299
2703.038882,-1184.329507,-10288.862594,0.000000
2703.039209,-740.205942,-9844.739029,-536.266849
2703.039537,0.000000,-9252.574275,-1225.752797
2703.039865,-296.082377,-8142.265362,-995.924147
2703.040192,-444.123565,-8216.285956,0.000000
2703.040520,-222.061783,-9992.780217,689.485948
2703.040847,888.247130,-11177.109724,919.314598
2703.041175,1110.308913,-11621.233289,0.000000
2703.041502,1332.370696,-9918.759623,-1532.190996
2703.041830,666.185348,-8068.244768,-842.705048
2703.042158,0.000000,-8364.327145,-306.438199
2703.042485,-444.123565,-9770.718434,689.485948
2703.042813,444.123565,-10658.965565,842.705048
2703.043140,1554.432478,-9844.739029,0.000000
2703.043468,814.226536,-8438.347739,-306.438199
2703.043795,222.061783,-7846.182985,-153.219100
2703.044123,-1036.288319,-8216.285956,229.828649
2703.044450,-962.267725,-9696.697840,383.047749
2703.044778,0.000000,-11621.233289,-536.266849
2703.045106,1332.370696,-11695.253884,-1225.752797
2703.045433,1628.453072,-9548.656652,-766.095498
2703.045761,592.164754,-8364.327145,306.438199
2703.046088,-1110.308913,-9104.533087,1072.533697
2703.046416,0.000000,-10881.027347,459.657299
2703.046743,148.041188,-11103.089130,-766.095498
2703.047071,592.164754,-10436.903782,-995.924147
2703.047399,814.226536,-8882.471304,-536.266849
2703.047726,740.205942,-7550.100608,229.828649
2703.048054,592.164754,-8808.450710,1838.629195
2703.048381,814.226536,-11103.089130,1225.752797
2703.048709,1628.453072,-10955.047942,-229.828649
2703.049036,2072.576638,-10214.842000,-995.924147
2703.049364,2146.597232,-8956.491898,-536.266849
2703.049692,1850.514855,-7846.182985,0.000000
2703.050019,592.164754,-8216.285956,995.924147
2703.050347,518.144159,-10436.903782,842.705048
2703.050674,1036.288319,-11325.150913,-689.485948
2703.051002,1628.453072,-10066.800811,-1378.971896
2703.051329,814.226536,-9178.553681,-1072.533697
2703.051657,-444.123565,-8364.327145,306.438199
2703.051984,-740.205942,-9696.697840,1302.362347
2703.052312,-222.061783,-10584.944971,306.438199
2703.052640,0.000000,-10362.883188,-766.095498
2703.052967,1480.411884,-9918.759623,-1378.971896
2703.053295,1036.288319,-8290.306550,-1225.752797
2703.053622,-296.082377,-7846.182985,383.047749
2703.053950,-1332.370696,-9474.636058,842.705048
2703.054277,-962.267725,-10658.965565,153.219100
2703.054605,0.000000,-10658.965565,-919.314598
2703.054933,444.123565,-10214.842000,-2145.067394
2703.055260,-370.102971,-8660.409521,-766.095498
2703.055588,-518.144159,-8586.388927,-383.047749
2703.055915,-740.205942,-10140.821405,229.828649
2703.056243,-148.041188,-11325.150913,229.828649
2703.056570,444.123565,-11251.130318,-612.876398
2703.056898,1110.308913,-10140.821405,-842.705048
2703.057225,962.267725,-8808.450710,-459.657299
2703.057553,148.041188,-8586.388927,0.000000
2703.057881,-370.102971,-10066.800811,1225.752797
2703.058208,-592.164754,-10288.862594,229.828649
2703.058536,0.000000,-10362.883188,-995.924147
2703.058863,222.061783,-9918.759623,-1838.629195
2703.059191,222.061783,-8956.491898,-1455.581446
2703.059518,-814.226536,-9326.594869,689.485948
2703.059846,-1480.411884,-10288.862594,1378.971896
2703.060174,222.061783,-11621.233289,306.438199
2703.060501,888.247130,-10584.944971,-842.705048
2703.060829,518.144159,-8364.327145,-459.657299
2703.061156,222.061783,-7105.977043,0.000000
2703.061484,0.000000,-7698.141797,689.485948
2703.061811,-666.185348,-9400.615463,612.876398
2703.062139,-444.123565,-10140.821405,0.000000
2703.062466,888.247130,-10288.862594,-689.485948
2703.062794,814.226536,-8956.491898,-919.314598
2703.063122,1110.308913,-8660.409521,-459.657299
2703.063449,814.226536,-9400.615463,306.438199
2703.063777,0.000000,-10807.006753,1072.533697
2703.064104,740.205942,-11991.336260,612.876398
2703.064432,962.267725,-10658.965565,-842.705048
2703.064759,740.205942,-9178.553681,-919.314598
2703.065087,888.247130,-8882.471304,-689.485948
2703.065415,444.123565,-9326.594869,689.485948
2703.065742,370.102971,-10732.986159,1149.143247
2703.066070,1332.370696,-11103.089130,-612.876398
2703.066397,1628.453072,-10436.903782,-1378.971896
2703.066725,888.247130,-8586.388927,-1532.190996
2703.067052,0.000000,-8882.471304,-153.219100
2703.067380,-962.267725,-9696.697840,536.266849
2703.067707,-222.061783,-10955.047942,383.047749
2703.068035,1184.329507,-11029.068536,-766.095498
2703.068363,1850.514855,-10214.842000,-306.438199
2703.068690,1332.370696,-8734.430116,0.000000
2703.069018,296.082377,-7920.203579,842.705048
2703.069345,0.000000,-9474.636058,459.657299
2703.069673,0.000000,-10955.047942,153.219100
2703.070000,1110.308913,-11029.068536,-1072.533697
2703.070328,1628.453072,-9548.656652,-1225.752797
2703.070656,1406.391290,-8364.327145,229.828649
2703.070983,592.164754,-8438.347739,1532.190996
2703.071311,148.041188,-9474.636058,1455.581446
2703.071638,222.061783,-10732.986159,536.266849
2703.071966,370.102971,-10732.986159,-1072.533697
2703.072293,592.164754,-9178.553681,-1532.190996
2703.072621,222.061783,-7179.997637,-536.266849
2703.072948,-666.185348,-6957.935855,306.438199
2703.073276,-1258.350101,-8956.491898,1685.410096
2703.073604,-370.102971,-10362.883188,-153.219100
2703.073931,592.164754,-10584.944971,-1991.848295
2703.074259,740.205942,-9474.636058,-1685.410096
2703.074586,296.082377,-9030.512492,-689.485948
2703.074914,-370.102971,-9474.636058,689.485948
2703.075241,-370.102971,-11177.109724,995.924147
2703.075569,592.164754,-11843.295072,-919.314598
2703.075897,370.102971,-10362.883188,-1072.533697
2703.076224,518.144159,-9178.553681,-1302.362347
2703.076552,-370.102971,-8364.327145,0.000000
2703.076879,-1480.411884,-8882.471304,459.657299
2703.077207,-1998.556043,-10214.842000,383.047749
2703.077534,-1036.288319,-10881.027347,-842.705048
2703.077862,0.000000,-10807.006753,-2298.286494
2703.078190,222.061783,-9400.615463,-1532.190996
2703.078517,0.000000,-8216.285956,0.000000
2703.078845,0.000000,-9696.697840,919.314598
2703.079172,370.102971,-11399.171507,842.705048
2703.079500,740.205942,-11695.253884,153.219100
2703.079827,1184.329507,-10436.903782,-689.485948
2703.080155,1406.391290,-8586.388927,-995.924147
2703.080482,1036.288319,-7772.162391,-306.438199
2703.080810,222.061783,-8808.450710,689.485948
2703.081138,888.247130,-10658.965565,1455.581446
2703.081465,2146.597232,-10732.986159,536.266849
2703.081793,2294.638420,-10066.800811,-383.047749
2703.082120,1406.391290,-8734.430116,306.438199
2703.082448,0.000000,-7698.141797,306.438199
2703.082775,-1554.432478,-8808.450710,612.876398
2703.083103,-1776.494261,-10658.965565,536.266849
2703.083431,518.144159,-10658.965565,-383.047749
2703.083758,1258.350101,-9474.636058,-1072.533697
2703.084086,74.020594,-8734.430116,-229.828649
2703.084413,-592.164754,-8216.285956,0.000000
2703.084741,-962.267725,-8956.491898,0.000000
2703.085068,-222.061783,-10658.965565,-306.438199
2703.085396,-148.041188,-10955.047942,-1225.752797
2703.085723,1036.288319,-9326.594869,-995.924147
2703.086051,1036.288319,-8216.285956,0.000000
2703.086379,666.185348,-9252.574275,766.095498
2703.086706,518.144159,-10510.924376,1072.533697
2703.087034,74.020594,-11177.109724,306.438199
2703.087361,962.267725,-10658.965565,-459.657299
2703.087689,1702.473667,-9474.636058,-1991.848295
2703.088016,1258.350101,-9104.533087,-1302.362347
2703.088344,0.000000,-8660.409521,383.047749
2703.088672,74.020594,-10140.821405,612.876398
2703.088999,1184.329507,-11251.130318,0.000000
2703.089327,1924.535449,-11843.295072,-1838.629195
2703.089654,1480.411884,-10066.800811,-842.705048
2703.089982,592.164754,-8660.409521,-153.219100
2703.090309,-592.164754,-8882.471304,842.705048
2703.090637,-666.185348,-10436.903782,766.095498
2703.090964,-444.123565,-10807.006753,-153.219100
2703.091292,-814.226536,-9548.656652,-383.047749
2703.091620,0.000000,-8216.285956,-766.095498
2703.091947,-814.226536,-7772.162391,306.438199
2703.092275,-1702.473667,-8438.347739,612.876398
2703.092602,-1184.329507,-9992.780217,76.609550
2703.092930,-370.102971,-11473.192101,-612.876398
2703.093257,296.082377,-10807.006753,-995.924147
2703.093585,666.185348,-8956.491898,-383.047749
2703.093913,444.123565,-7846.182985,306.438199
2703.094240,-370.102971,-8364.327145,1532.190996
2703.094568,0.000000,-10658.965565,1378.971896
2703.094895,74.020594,-11177.109724,153.219100
2703.095223,148.041188,-10066.800811,-1149.143247
2703.095550,0.000000,-8734.430116,-1302.362347
2703.095878,-666.185348,-7476.080014,-612.876398
2703.096205,-592.164754,-8808.450710,306.438199
2703.096533,518.144159,-10510.924376,536.266849
2703.096860,2072.576638,-11547.212695,-536.266849
2703.097188,2072.576638,-10066.800811,-995.924147
2703.097516,1184.329507,-8956.491898,-459.657299
2703.097843,1036.288319,-9252.574275,0.000000
2703.098171,74.020594,-9622.677246,1072.533697
2703.098498,-518.144159,-10732.986159,306.438199
2703.098826,518.144159,-11547.212695,-689.485948
2703.099153,888.247130,-10436.903782,-1378.971896
2703.099481,296.082377,-9104.533087,-1225.752797
2703.099808,-740.205942,-8142.265362,-306.438199
2703.100136,-814.226536,-9992.780217,0.000000
2703.100463,-222.061783,-11103.089130,229.828649
2703.100791,592.164754,-10955.047942,-1608.800546
2703.101118,814.226536,-8956.491898,-689.485948
2703.101446,1332.370696,-8290.306550,-919.314598
2703.101774,148.041188,-8216.285956,995.924147
2703.102101,74.020594,-9918.759623,1455.581446
2703.102429,296.082377,-10732.986159,383.047749
2703.102756,1332.370696,-11029.068536,-1608.800546
2703.103084,1332.370696,-9992.780217,-1915.238745
2703.103411,518.144159,-8512.368333,-1149.143247
2703.103739,518.144159,-8438.347739,0.000000
2703.104066,666.185348,-9474.636058,1072.533697
2703.104394,1184.329507,-10510.924376,536.266849
2703.104721,2220.617826,-10732.986159,-306.438199
2703.105049,1628.453072,-8956.491898,-383.047749
2703.105376,1184.329507,-8142.265362,229.828649
2703.105704,-370.102971,-7846.182985,766.095498
2703.106032,-666.185348,-9918.759623,1455.581446
2703.106359,-222.061783,-11029.068536,76.609550
2703.106687,814.226536,-10584.944971,-1532.190996
2703.107014,74.020594,-9252.574275,-1685.410096
2703.107342,-666.185348,-8586.388927,-612.876398
2703.107669,-1036.288319,-9252.574275,0.000000
2703.107997,-1184.329507,-10362.883188,229.828649
2703.108324,0.000000,-11473.192101,-689.485948
2703.108652,1036.288319,-10584.944971,-1302.362347
2703.108979,888.247130,-9030.512492,-229.828649
2703.109307,592.164754,-7994.224174,842.705048
2703.109634,-666.185348,-8660.409521,1225.752797
2703.109962,-814.226536,-10140.821405,842.705048
2703.110289,296.082377,-11325.150913,-612.876398
2703.110617,1480.411884,-11251.130318,-2298.286494
2703.110945,1184.329507,-9326.594869,-1378.971896
2703.111272,740.205942,-8808.450710,459.657299
2703.111600,-222.061783,-9474.636058,1608.800546
2703.111927,-1036.288319,-10584.944971,1302.362347
2703.112255,-1332.370696,-10807.006753,-1072.533697
2703.112582,-740.205942,-9326.594869,-1838.629195
2703.112910,296.082377,-8438.347739,-1532.190996
2703.113237,0.000000,-8956.491898,689.485948
2703.113565,-148.041188,-9844.739029,1915.238745
2703.113892,0.000000,-11177.109724,1149.143247
2703.114220,0.000000,-11251.130318,-536.266849
2703.114547,222.061783,-9326.594869,-1608.800546
2703.114875,-1110.308913,-7550.100608,-2451.505594
2703.115203,-1702.473667,-7179.997637,0.000000
2703.115530,-962.267725,-9326.594869,0.000000
2703.115858,222.061783,-11251.130318,612.876398
2703.116185,1554.432478,-11251.130318,229.828649
2703.116513,1554.432478,-9622.677246,536.266849
2703.116840,1110.308913,-8142.265362,0.000000
2703.117168,1036.288319,-8216.285956,0.000000
2703.117495,-296.082377,-9770.718434,0.000000
2703.117823,518.144159,-11399.171507,0.000000
2703.118150,1776.494261,-10584.944971,-842.705048
2703.118478,2368.659014,-9844.739029,-1225.752797
2703.118805,1998.556043,-9474.636058,0.000000
2703.119133,1258.350101,-9326.594869,459.657299
2703.119461,222.061783,-9992.780217,0.000000
2703.119788,296.082377,-10807.006753,-689.485948
2703.120116,1406.391290,-11029.068536,-1838.629195
2703.120443,2072.576638,-9474.636058,-1225.752797
2703.120771,444.123565,-8068.244768,919.314598
2703.121098,-370.102971,-8512.368333,1608.800546
2703.121426,0.000000,-10066.800811,689.485948
2703.121753,222.061783,-11325.150913,-612.876398
2703.122081,222.061783,-9918.759623,-1838.629195
2703.122408,0.000000,-9178.553681,-1378.971896
2703.122736,-444.123565,-8660.409521,0.000000
2703.123063,-592.164754,-8586.388927,229.828649
2703.123391,0.000000,-9844.739029,919.314598
2703.123718,666.185348,-10807.006753,0.000000
2703.124046,1406.391290,-10362.883188,-536.266849
2703.124374,1184.329507,-8660.409521,229.828649
2703.124701,-148.041188,-7846.182985,689.485948
2703.125029,-1184.329507,-8290.306550,842.705048
2703.125356,-1258.350101,-10066.800811,536.266849
2703.125684,-222.061783,-10732.986159,-383.047749
2703.126011,962.267725,-10140.821405,-1378.971896
2703.126339,1184.329507,-9178.553681,-306.438199
2703.126666,370.102971,-8290.306550,1302.362347
2703.126994,0.000000,-9178.553681,1149.143247
2703.127321,-222.061783,-10584.944971,459.657299
2703.127649,592.164754,-10807.006753,-383.047749
2703.127976,1332.370696,-9844.739029,-1302.362347
2703.128304,814.226536,-8660.409521,-995.924147
2703.128632,74.020594,-8438.347739,536.266849
2703.128959,0.000000,-10362.883188,459.657299
2703.129287,-296.082377,-11695.253884,842.705048
2703.129614,444.123565,-10881.027347,-1302.362347
2703.129942,1258.350101,-9770.718434,-2298.286494
2703.130269,370.102971,-8808.450710,-919.314598
2703.130597,-888.247130,-8142.265362,-306.438199
2703.130924,-518.144159,-9400.615463,459.657299
2703.131252,0.000000,-11621.233289,-306.438199
2703.131579,74.020594,-10881.027347,-689.485948
2703.131907,444.123565,-9918.759623,-1225.752797
2703.132234,-370.102971,-8438.347739,-383.047749
2703.132562,-1036.288319,-8586.388927,459.657299
2703.132890,-1702.473667,-9844.739029,612.876398
2703.133217,-1554.432478,-10955.047942,0.000000
2703.133545,74.020594,-10732.986159,-1378.971896
2703.133872,814.226536,-9622.677246,-1225.752797
2703.134200,666.185348,-8438.347739,0.000000
2703.134527,444.123565,-8660.409521,689.485948
2703.134855,518.144159,-9770.718434,1302.362347
2703.135182,74.020594,-10362.883188,1149.143247
2703.135510,1184.329507,-9770.718434,-995.924147
2703.135837,962.267725,-8438.347739,-1149.143247
2703.136165,296.082377,-7698.141797,-383.047749
2703.136492,0.000000,-8956.491898,842.705048
2703.136820,0.000000,-10732.986159,1072.533697
2703.137148,888.247130,-11325.150913,-689.485948
2703.137475,1702.473667,-9770.718434,-1225.752797
2703.137803,1036.288319,-9474.636058,-919.314598
2703.138130,148.041188,-8882.471304,383.047749
2703.138458,-370.102971,-8512.368333,383.047749
2703.138785,370.102971,-10436.903782,0.000000
2703.139113,740.205942,-11621.233289,-459.657299
2703.139440,1480.411884,-10510.924376,-306.438199
2703.139768,592.164754,-8438.347739,-306.438199
2703.140095,592.164754,-8216.285956,76.609550
2703.140423,0.000000,-9326.594869,0.000000
2703.140750,0.000000,-11325.150913,-383.047749
2703.141078,740.205942,-11843.295072,-1225.752797
2703.141405,1554.432478,-11029.068536,-1608.800546
2703.141733,2220.617826,-9400.615463,-766.095498
2703.142061,1110.308913,-8956.491898,612.876398
2703.142388,592.164754,-9474.636058,1149.143247
2703.142716,592.164754,-9622.677246,1532.190996
2703.143043,444.123565,-10362.883188,0.000000
2703.143371,666.185348,-10066.800811,-1455.581446
2703.143698,0.000000,-8882.471304,-919.314598
2703.144026,-740.205942,-7994.224174,536.266849
2703.144353,-518.144159,-9844.739029,1302.362347
2703.144681,222.061783,-11843.295072,383.047749
2703.145008,1110.308913,-10658.965565,-1072.533697
2703.145336,1258.350101,-9178.553681,-1149.143247
2703.145663,518.144159,-8586.388927,-153.219100
2703.145991,-296.082377,-8290.306550,689.485948
2703.146319,-888.247130,-8660.409521,842.705048
2703.146646,74.020594,-10288.862594,459.657299
2703.146974,296.082377,-9918.759623,-306.438199
2703.147301,518.144159,-8808.450710,-612.876398
2703.147629,-296.082377,-8068.244768,-153.219100
2703.147956,-1184.329507,-8068.244768,-306.438199
2703.148284,-1184.329507,-10066.800811,0.000000
2703.148611,-1110.308913,-11029.068536,76.609550
2703.148939,962.267725,-11177.109724,-1302.362347
2703.149266,1776.494261,-9474.636058,-842.705048
2703.149594,1036.288319,-7994.224174,459.657299
2703.149921,296.082377,-8882.471304,1225.752797
2703.150249,0.000000,-10288.862594,1225.752797
2703.150577,74.020594,-11029.068536,-76.609550
2703.150904,518.144159,-10288.862594,-1762.019645
2703.151232,444.123565,-9252.574275,-1685.410096
2703.151559,296.082377,-8956.491898,689.485948
2703.151887,222.061783,-9474.636058,919.314598
2703.152214,0.000000,-10807.006753,689.485948
2703.152542,296.082377,-11547.212695,-689.485948
2703.152869,740.205942,-10436.903782,-1762.019645
2703.153197,222.061783,-8808.450710,-1225.752797
2703.153524,0.000000,-8290.306550,76.609550
2703.153852,-370.102971,-8956.491898,306.438199
2703.154179,-148.041188,-10807.006753,612.876398
2703.154507,222.061783,-10955.047942,-383.047749
2703.154834,518.144159,-9474.636058,-1225.752797
2703.155162,148.041188,-8734.430116,-689.485948
2703.155490,-222.061783,-8438.347739,459.657299
2703.155817,-666.185348,-10066.800811,689.485948
2703.156145,222.061783,-11251.130318,612.876398
2703.156472,1406.391290,-11399.171507,-842.705048
2703.156800,2072.576638,-10288.862594,-766.095498
2703.157127,1998.556043,-8586.388927,0.000000
2703.157455,1036.288319,-7105.977043,612.876398
2703.157782,370.102971,-8660.409521,1455.581446
2703.158110,814.226536,-9770.718434,1532.190996
2703.158437,1776.494261,-10214.842000,-306.438199
2703.158765,2146.597232,-9770.718434,-1302.362347
2703.159092,592.164754,-8808.450710,-612.876398
2703.159420,296.082377,-9030.512492,76.609550
2703.159748,-148.041188,-10436.903782,306.438199
2703.160075,518.144159,-11473.192101,0.000000
2703.160403,1036.288319,-11177.109724,-1149.143247
2703.160730,-148.041188,-8660.409521,-229.828649
2703.161058,-1554.432478,-7772.162391,-536.266849
2703.161385,-2368.659014,-7994.224174,-459.657299
2703.161713,-2146.597232,-9252.574275,-842.705048
2703.162040,-1480.411884,-10881.027347,-1225.752797
2703.162368,74.020594,-11843.295072,-1378.971896
2703.162695,1406.391290,-10955.047942,-842.705048
2703.163023,1184.329507,-9030.512492,-306.438199
2703.163350,296.082377,-9104.533087,383.047749
2703.163678,-592.164754,-10807.006753,689.485948
2703.164006,370.102971,-11769.274478,0.000000
2703.164333,1480.411884,-10658.965565,-1302.362347
2703.164661,1110.308913,-8808.450710,-766.095498
2703.164988,74.020594,-7179.997637,919.314598
2703.165316,-814.226536,-7846.182985,1302.362347
2703.165643,0.000000,-9474.636058,1225.752797
2703.165971,148.041188,-10362.883188,-153.219100
2703.166298,1480.411884,-10140.821405,-1838.629195
2703.166626,1554.432478,-9548.656652,-1455.581446
2703.166953,1332.370696,-8438.347739,306.438199
2703.167281,1110.308913,-9252.574275,1608.800546
2703.167608,1406.391290,-11473.192101,1915.238745
2703.167936,1628.453072,-11843.295072,153.219100
2703.168263,1332.370696,-10140.821405,-1378.971896
2703.168591,0.000000,-8068.244768,-842.705048
2703.168919,-1110.308913,-7476.080014,0.000000
2703.169246,-962.267725,-8586.388927,0.000000
2703.169574,-888.247130,-9474.636058,536.266849
2703.169901,-370.102971,-9918.759623,-766.095498
2703.170229,962.267725,-9622.677246,-1302.362347
2703.170556,518.144159,-8364.327145,-536.266849
2703.170884,74.020594,-8364.327145,229.828649
2703.171211,-296.082377,-9992.780217,459.657299
2703.171539,74.020594,-11547.212695,76.609550
2703.171866,1332.370696,-11991.336260,-1225.752797
2703.172194,2072.576638,-11103.089130,-1455.581446
2703.172521,1628.453072,-8882.471304,-919.314598
2703.172849,444.123565,-8586.388927,76.609550
2703.173177,-444.123565,-9918.759623,459.657299
2703.173504,-666.185348,-11251.130318,459.657299
2703.173832,74.020594,-10362.883188,-1302.362347
2703.174159,0.000000,-9104.533087,-1991.848295
2703.174487,74.020594,-7994.224174,-612.876398
2703.174814,148.041188,-7698.141797,689.485948
2703.175142,0.000000,-9696.697840,1225.752797
2703.175469,222.061783,-11103.089130,995.924147
2703.175797,1110.308913,-11029.068536,-459.657299
2703.176124,1110.308913,-9548.656652,-995.924147
2703.176452,-222.061783,-8142.265362,-612.876398
2703.176779,-1406.391290,-7105.977043,919.314598
2703.177107,-740.205942,-9622.677246,0.000000
2703.177435,-296.082377,-11769.274478,-1072.533697
2703.177762,740.205942,-11399.171507,-1532.190996
2703.178090,888.247130,-8808.450710,-229.828649
2703.178417,296.082377,-6809.894666,842.705048
2703.178745,0.000000,-7846.182985,995.924147
2703.179072,-814.226536,-10066.800811,306.438199
2703.179400,-370.102971,-10584.944971,0.000000
2703.179727,1258.350101,-10510.924376,-1302.362347
2703.180055,1702.473667,-9844.739029,-995.924147
2703.180382,1258.350101,-9474.636058,0.000000
2703.180710,-444.123565,-8216.285956,995.924147
2703.181037,-962.267725,-9770.718434,229.828649
2703.181365,0.000000,-12361.439231,-1225.752797
2703.181693,370.102971,-10732.986159,-2757.943793
2703.182020,0.000000,-8068.244768,-1838.629195
2703.182348,-222.061783,-7846.182985,0.000000
2703.182675,0.000000,-9474.636058,1225.752797
2703.183003,666.185348,-11621.233289,1225.752797
2703.183330,1036.288319,-11473.192101,0.000000
2703.183658,2146.597232,-9622.677246,-1072.533697
2703.183985,1110.308913,-7624.121203,-995.924147
2703.184313,-592.164754,-8142.265362,-383.047749
2703.184640,-1554.432478,-8734.430116,229.828649
2703.184968,0.000000,-10362.883188,-306.438199
2703.185295,1332.370696,-11103.089130,-1225.752797
2703.185623,1998.556043,-11769.274478,-689.485948
2703.185950,1184.329507,-10140.821405,-383.047749
2703.186278,222.061783,-8142.265362,842.705048
2703.186606,0.000000,-9622.677246,229.828649
2703.186933,0.000000,-11473.192101,76.609550
2703.187261,666.185348,-10362.883188,0.000000
2703.187588,1850.514855,-8956.491898,-306.438199
2703.187916,1406.391290,-7920.203579,612.876398
2703.188243,444.123565,-7772.162391,612.876398
2703.188571,-888.247130,-9326.594869,383.047749
2703.188898,-1554.432478,-10288.862594,-229.828649
2703.189226,0.000000,-10436.903782,-1762.019645
2703.189553,888.247130,-10510.924376,-2221.676944
2703.189881,1036.288319,-9696.697840,-383.047749
2703.190208,518.144159,-8660.409521,1685.410096
2703.190536,0.000000,-9992.780217,2451.505594
2703.190864,0.000000,-11325.150913,1838.629195
2703.191191,592.164754,-11251.130318,-229.828649
2703.191519,296.082377,-8512.368333,-1455.581446
2703.191846,-888.247130,-7179.997637,-612.876398
2703.192174,-1184.329507,-8364.327145,0.000000
2703.192501,-666.185348,-9548.656652,459.657299
2703.192829,-296.082377,-10214.842000,0.000000
2703.193156,518.144159,-10436.903782,-995.924147
2703.193484,1332.370696,-10584.944971,-689.485948
2703.193811,592.164754,-9030.512492,0.000000
2703.194139,74.020594,-8808.450710,229.828649
2703.194466,0.000000,-10584.944971,383.047749
2703.194794,444.123565,-11621.233289,76.609550
2703.195122,1554.432478,-11547.212695,-612.876398
2703.195449,1554.432478,-9622.677246,-612.876398
2703.195777,666.185348,-8660.409521,-459.657299
2703.196104,-222.061783,-8956.491898,153.219100
2703.196432,-888.247130,-9992.780217,229.828649
2703.196759,-666.185348,-11029.068536,-612.876398
2703.197087,1184.329507,-10436.903782,-1838.629195
2703.197414,1036.288319,-8290.306550,-1225.752797
2703.197742,0.000000,-8364.327145,76.609550
2703.198069,0.000000,-9474.636058,1302.362347
2703.198397,-296.082377,-10510.924376,919.314598
2703.198724,0.000000,-10955.047942,-306.438199
2703.199052,0.000000,-9474.636058,-1762.019645
2703.199379,-518.144159,-8290.306550,-1302.362347
2703.199707,-888.247130,-7550.100608,-612.876398
2703.200034,-888.247130,-8734.430116,-306.438199
2703.200362,0.000000,-10510.924376,-229.828649
2703.200690,1110.308913,-11695.253884,-1072.533697
2703.201017,1628.453072,-10510.924376,-1149.143247
2703.201345,888.247130,-8660.409521,-229.828649
2703.201672,0.000000,-8290.306550,536.266849
2703.202000,0.000000,-9918.759623,459.657299
2703.202327,0.000000,-10955.047942,459.657299
2703.202655,1110.308913,-11325.150913,-383.047749
2703.202982,1628.453072,-9844.739029,-919.314598
2703.203310,1332.370696,-9104.533087,-689.485948
2703.203637,222.061783,-8364.327145,229.828649
2703.203965,-592.164754,-9104.533087,0.000000
2703.204292,0.000000,-11251.130318,-459.657299
2703.204620,1258.350101,-11695.253884,-919.314598
2703.204947,1998.556043,-10362.883188,-995.924147
2703.205275,1850.514855,-8808.450710,0.000000
2703.205602,814.226536,-8882.471304,1225.752797
2703.205930,296.082377,-10288.862594,1608.800546
2703.206258,148.041188,-10362.883188,536.266849
2703.206585,370.102971,-9992.780217,-1302.362347
2703.206913,0.000000,-9030.512492,-1378.971896
2703.207240,-370.102971,-7994.224174,-536.266849
2703.207568,-518.144159,-8438.347739,536.266849
2703.207895,-740.205942,-10066.800811,1455.581446
2703.208223,-962.267725,-11251.130318,536.266849
2703.208550,-592.164754,-11029.068536,-1685.410096
2703.208878,-1110.308913,-9326.594869,-2298.286494
2703.209205,-1110.308913,-7550.100608,-1532.190996
2703.209533,-888.247130,-8660.409521,0.000000
2703.209860,-444.123565,-10732.986159,1225.752797
2703.210188,370.102971,-11547.212695,612.876398
2703.210515,1406.391290,-11029.068536,-995.924147
2703.210843,1258.350101,-9326.594869,-842.705048
2703.211170,74.020594,-7624.121203,-842.705048
2703.211498,-222.061783,-7994.224174,-383.047749
2703.211826,-444.123565,-9770.718434,383.047749
2703.212153,962.267725,-10881.027347,76.609550
2703.212481,2590.720797,-11251.130318,0.000000
2703.212808,2072.576638,-9844.739029,536.266849
2703.213136,962.267725,-8068.244768,1762.019645
2703.213463,-296.082377,-9104.533087,1608.800546
2703.213791,-962.267725,-10066.800811,0.000000
2703.214118,-518.144159,-10510.924376,-1225.752797
2703.214446,0.000000,-9400.615463,-2221.676944
2703.214773,296.082377,-8734.430116,-1149.143247
2703.215101,518.144159,-8438.347739,383.047749
2703.215428,444.123565,-9326.594869,766.095498
2703.215756,1036.288319,-11251.130318,0.000000
2703.216083,1406.391290,-11843.295072,-1302.362347
2703.216411,1850.514855,-10066.800811,-1302.362347
2703.216738,1110.308913,-8660.409521,-306.438199
2703.217066,666.185348,-7994.224174,842.705048
2703.217393,222.061783,-9474.636058,1532.190996
2703.217721,-148.041188,-10658.965565,766.095498
2703.218049,814.226536,-10881.027347,-536.266849
2703.218376,1628.453072,-10584.944971,-1915.238745
2703.218704,222.061783,-8364.327145,-995.924147
2703.219031,-518.144159,-8142.265362,-306.438199
2703.219359,-296.082377,-9770.718434,0.000000
2703.219686,296.082377,-11177.109724,0.000000
2703.220014,1036.288319,-11177.109724,-995.924147
2703.220341,1850.514855,-10140.821405,-459.657299
2703.220669,370.102971,-8586.388927,76.609550
2703.220996,-148.041188,-8068.244768,1072.533697
2703.221324,-814.226536,-9844.739029,995.924147
2703.221651,-962.267725,-11029.068536,-306.438199
2703.221979,0.000000,-10214.842000,-1685.410096
2703.222306,222.061783,-8586.388927,-1072.533697
2703.222634,-518.144159,-7698.141797,-536.266849
2703.222961,-518.144159,-7920.203579,536.266849
2703.223289,-222.061783,-9548.656652,459.657299
2703.223617,444.123565,-11103.089130,-153.219100
2703.223944,1110.308913,-11251.130318,-459.657299
2703.224272,740.205942,-9474.636058,-383.047749
2703.224599,0.000000,-8364.327145,229.828649
2703.224927,-814.226536,-8216.285956,383.047749
2703.225254,-888.247130,-10510.924376,153.219100
2703.225582,0.000000,-11917.315666,-153.219100
2703.225909,666.185348,-10881.027347,-995.924147
2703.226237,592.164754,-9104.533087,-1072.533697
2703.226564,0.000000,-7772.162391,0.000000
2703.226892,-1184.329507,-8438.347739,0.000000
2703.227219,-1036.288319,-10584.944971,383.047749
2703.227547,666.185348,-11399.171507,-689.485948
2703.227874,1998.556043,-10436.903782,-842.705048
2703.228202,2072.576638,-9622.677246,229.828649
2703.228529,1258.350101,-8734.430116,1762.019645
2703.228857,0.000000,-9400.615463,1915.238745
2703.229185,-518.144159,-10436.903782,1685.410096
2703.229512,-962.267725,-10807.006753,-1838.629195
2703.229840,-222.061783,-10288.862594,-2298.286494
2703.230167,-1702.473667,-8438.347739,-1149.143247
2703.230495,-962.267725,-7994.224174,-229.828649
2703.230822,-222.061783,-9178.553681,459.657299
2703.231150,518.144159,-10732.986159,306.438199
2703.231477,962.267725,-10955.047942,-766.095498
2703.231805,1406.391290,-9548.656652,-766.095498
2703.232132,1110.308913,-8512.368333,-1685.410096
2703.232460,-148.041188,-7624.121203,-306.438199
2703.232787,0.000000,-9400.615463,306.438199
2703.233115,814.226536,-11251.130318,306.438199
2703.233442,2072.576638,-11547.212695,-536.266849
2703.233770,2590.720797,-10732.986159,-995.924147
2703.234097,1850.514855,-9770.718434,306.438199
2703.234425,814.226536,-8660.409521,-153.219100
2703.234752,-222.061783,-8882.471304,-612.876398
2703.235080,0.000000,-10066.800811,153.219100
2703.235408,962.267725,-10436.903782,-229.828649
2703.235735,1554.432478,-9400.615463,-459.657299
2703.236063,888.247130,-8142.265362,0.000000
2703.236390,296.082377,-8290.306550,842.705048
2703.236718,0.000000,-10658.965565,995.924147
2703.237045,-592.164754,-11399.171507,-536.266849
2703.237373,-370.102971,-10584.944971,-1915.238745
2703.237700,888.247130,-9992.780217,-1991.848295
2703.238028,370.102971,-8808.450710,-689.485948
2703.238355,148.041188,-8734.430116,689.485948
2703.238683,296.082377,-10066.800811,995.924147
2703.239010,296.082377,-10214.842000,1608.800546
2703.239338,518.144159,-10214.842000,-459.657299
2703.239665,296.082377,-9474.636058,-842.705048
2703.239993,-1110.308913,-7698.141797,0.000000
2703.240320,-740.205942,-7624.121203,0.000000
2703.240648,-222.061783,-10362.883188,536.266849
2703.240976,666.185348,-12287.418637,306.438199
2703.241303,1702.473667,-10807.006753,-306.438199
2703.241631,1110.308913,-9030.512492,-995.924147
2703.241958,444.123565,-8068.244768,-383.047749
2703.242286,-148.041188,-8586.388927,0.000000
2703.242613,-518.144159,-10732.986159,76.609550
2703.242941,222.061783,-11621.233289,306.438199
2703.243268,1776.494261,-10214.842000,-1072.533697
2703.243596,1110.308913,-8734.430116,-383.047749
2703.243923,0.000000,-8364.327145,612.876398
2703.244251,-592.164754,-9030.512492,1225.752797
2703.244578,-1258.350101,-10584.944971,76.609550
2703.244906,-962.267725,-11325.150913,-1608.800546
2703.245233,-296.082377,-10214.842000,-2068.457845
2703.245561,0.000000,-8068.244768,-842.705048
2703.245888,0.000000,-7846.182985,766.095498
2703.246216,444.123565,-9400.615463,1378.971896
2703.246544,518.144159,-11251.130318,76.609550
2703.246871,370.102971,-11547.212695,-1225.752797
2703.247199,74.020594,-10066.800811,-1378.971896
2703.247526,-592.164754,-7994.224174,-842.705048
2703.247854,-444.123565,-8438.347739,229.828649
2703.248181,-370.102971,-9474.636058,1149.143247
2703.248509,222.061783,-11621.233289,153.219100
2703.248836,1406.391290,-11769.274478,-842.705048
2703.249164,1332.370696,-10214.842000,-1378.971896
2703.249491,740.205942,-8438.347739,-919.314598
2703.249819,0.000000,-7920.203579,612.876398
2703.250146,-222.061783,-8882.471304,766.095498
2703.250474,888.247130,-10584.944971,612.876398
2703.250801,2516.700203,-11177.109724,229.828649
2703.251129,2072.576638,-9622.677246,-612.876398
2703.251456,592.164754,-8068.244768,383.047749
2703.251784,-370.102971,-8586.388927,842.705048
2703.252111,-962.267725,-10140.821405,536.266849
2703.252439,-148.041188,-11547.212695,0.000000
2703.252767,888.247130,-10881.027347,-1378.971896
2703.253094,1184.329507,-9178.553681,-1149.143247
2703.253422,962.267725,-7920.203579,153.219100
2703.253749,0.000000,-8068.244768,1302.362347
2703.254077,0.000000,-9918.759623,1149.143247
2703.254404,74.020594,-10066.800811,0.000000
2703.254732,1110.308913,-10362.883188,-1762.019645
2703.255059,1406.391290,-9252.574275,-1072.533697
2703.255387,962.267725,-8068.244768,383.047749
2703.255714,-222.061783,-8512.368333,919.314598
2703.256042,-666.185348,-11029.068536,383.047749
2703.256369,-592.164754,-12139.377449,-612.876398
2703.256697,444.123565,-10362.883188,-2451.505594
2703.257024,814.226536,-8956.491898,-2451.505594
2703.257352,0.000000,-8512.368333,153.219100
2703.257679,0.000000,-8956.491898,842.705048
2703.258007,296.082377,-10732.986159,919.314598
2703.258335,740.205942,-11325.150913,0.000000
2703.258662,888.247130,-10510.924376,-1532.190996
2703.258990,592.164754,-8512.368333,-1149.143247
2703.259317,74.020594,-7698.141797,-229.828649
2703.259645,-148.041188,-9104.533087,1149.143247
2703.259972,74.020594,-11103.089130,919.314598
2703.260300,1184.329507,-11843.295072,-153.219100
2703.260627,1850.514855,-10955.047942,-689.485948
2703.260955,1110.308913,-8734.430116,0.000000
2703.261282,222.061783,-7476.080014,842.705048
2703.261610,-666.185348,-8142.265362,1532.190996
2703.261937,-370.102971,-9844.739029,689.485948
2703.262265,0.000000,-9992.780217,-306.438199
2703.262592,296.082377,-9474.636058,-229.828649
2703.262920,-370.102971,-8216.285956,76.609550
2703.263247,-1258.350101,-7846.182985,383.047749
2703.263575,-1628.453072,-9622.677246,0.000000
2703.263903,-1554.432478,-11251.130318,-842.705048
2703.264230,222.061783,-11029.068536,-1072.533697
2703.264558,1998.556043,-9696.697840,-689.485948
2703.264885,1480.411884,-8882.471304,536.266849
2703.265213,740.205942,-8956.491898,1838.629195
2703.265540,444.123565,-9770.718434,1378.971896
2703.265868,592.164754,-10584.944971,0.000000
2703.266195,1258.350101,-10807.006753,-995.924147
2703.266523,1480.411884,-9770.718434,-1455.581446
2703.266850,1036.288319,-8290.306550,-842.705048
2703.267178,370.102971,-8660.409521,536.266849
2703.267505,370.102971,-10436.903782,689.485948
2703.267833,518.144159,-11843.295072,-383.047749
2703.268160,1258.350101,-11547.212695,-1532.190996
2703.268488,962.267725,-9844.739029,-1378.971896
2703.268815,370.102971,-7624.121203,76.609550
2703.269143,-148.041188,-7698.141797,536.266849
2703.269471,0.000000,-9770.718434,153.219100
2703.269798,0.000000,-11325.150913,-766.095498
2703.270126,370.102971,-10955.047942,-1302.362347
2703.270453,148.041188,-8882.471304,-1685.410096
2703.270781,0.000000,-8216.285956,0.000000
2703.271108,666.185348,-9252.574275,306.438199
2703.271436,0.000000,-10214.842000,1455.581446
2703.271763,666.185348,-11769.274478,766.095498
2703.272091,1480.411884,-10362.883188,-459.657299
2703.272418,1406.391290,-8290.306550,-842.705048
2703.272746,592.164754,-7624.121203,76.609550
2703.273073,-740.205942,-8512.368333,1762.019645
2703.273401,0.000000,-10066.800811,689.485948
2703.273728,0.000000,-9918.759623,0.000000
2703.274056,444.123565,-9696.697840,-1072.533697
2703.274383,0.000000,-8586.388927,-919.314598
2703.274711,-962.267725,-7476.080014,-153.219100
2703.275038,-1554.432478,-9474.636058,536.266849
2703.275366,-592.164754,-11991.336260,-229.828649
2703.275694,888.247130,-12435.459826,-1225.752797
2703.276021,888.247130,-10658.965565,-919.314598
2703.276349,296.082377,-8734.430116,-153.219100
2703.276676,-888.247130,-7920.203579,536.266849
2703.277004,-1110.308913,-8956.491898,153.219100
2703.277331,-1036.288319,-10584.944971,-459.657299
2703.277659,-666.185348,-10881.027347,-919.314598
2703.277986,370.102971,-10214.842000,-1302.362347
2703.278314,74.020594,-9104.533087,0.000000
2703.278641,370.102971,-9548.656652,153.219100
2703.278969,74.020594,-10807.006753,229.828649
2703.279296,370.102971,-11843.295072,0.000000
2703.279624,1850.514855,-11843.295072,-766.095498
2703.279951,1924.535449,-9770.718434,-766.095498
2703.280279,1036.288319,-8808.450710,0.000000
2703.280606,-518.144159,-7698.141797,1149.143247
2703.280934,-962.267725,-9030.512492,536.266849
2703.281262,-296.082377,-10436.903782,-536.266849
2703.281589,888.247130,-10510.924376,-1455.581446
2703.281917,1258.350101,-9326.594869,-919.314598
2703.282244,1332.370696,-8438.347739,-459.657299
2703.282572,1184.329507,-8882.471304,842.705048
2703.282899,1036.288319,-10214.842000,1915.238745
2703.283227,444.123565,-10658.965565,612.876398
2703.283554,1184.329507,-10584.944971,-459.657299
2703.283882,1110.308913,-9030.512492,-536.266849
2703.284209,370.102971,-7402.059420,612.876398
2703.284537,-222.061783,-7550.100608,536.266849
2703.284864,-370.102971,-9474.636058,842.705048
2703.285192,-666.185348,-10510.924376,-612.876398
2703.285519,0.000000,-10510.924376,-1608.800546
2703.285847,0.000000,-9030.512492,-1302.362347
2703.286174,0.000000,-7994.224174,0.000000
2703.286502,0.000000,-8586.388927,919.314598
2703.286830,814.226536,-10584.944971,766.095498
2703.287157,1628.453072,-12509.480420,919.314598
2703.287485,1702.473667,-10881.027347,-995.924147
2703.287812,1110.308913,-9548.656652,-766.095498
2703.288140,444.123565,-8364.327145,-459.657299
2703.288467,-444.123565,-8660.409521,0.000000
2703.288795,0.000000,-10066.800811,0.000000
2703.289122,666.185348,-11251.130318,-766.095498
2703.289450,2590.720797,-11547.212695,-995.924147
2703.289777,1924.535449,-10362.883188,-689.485948
2703.290105,814.226536,-8734.430116,383.047749
2703.290432,0.000000,-9548.656652,459.657299
2703.290760,0.000000,-11103.089130,0.000000
2703.291087,222.061783,-11029.068536,-536.266849
2703.291415,888.247130,-9622.677246,-153.219100
2703.291742,74.020594,-8660.409521,-383.047749
2703.292070,-592.164754,-8364.327145,536.266849
2703.292397,-1332.370696,-8956.491898,0.000000
2703.292725,-1480.411884,-10140.821405,-766.095498
2703.293053,-740.205942,-10955.047942,-1991.848295
2703.293380,148.041188,-10066.800811,-1608.800546
2703.293708,0.000000,-8660.409521,-306.438199
2703.294035,0.000000,-8660.409521,229.828649
2703.294363,370.102971,-9770.718434,842.705048
2703.294690,666.185348,-11103.089130,995.924147
2703.295018,518.144159,-10658.965565,229.828649
2703.295345,888.247130,-9178.553681,-995.924147
2703.295673,444.123565,-7772.162391,-689.485948
2703.296000,-518.144159,-7994.224174,689.485948
2703.296328,-592.164754,-9548.656652,1072.533697
2703.296655,-1110.308913,-10362.883188,229.828649
2703.296983,-296.082377,-9770.718434,-1149.143247
2703.297310,444.123565,-9770.718434,-1991.848295
2703.297638,444.123565,-9474.636058,-689.485948
2703.297965,0.000000,-9326.594869,536.266849
2703.298293,296.082377,-10362.883188,842.705048
2703.298620,1554.432478,-12065.356855,0.000000
2703.298948,1184.329507,-10881.027347,-766.095498
2703.299275,592.164754,-9178.553681,-459.657299
2703.299603,-370.102971,-7772.162391,0.000000
2703.299930,-592.164754,-8364.327145,-383.047749
2703.300258,-444.123565,-10214.842000,-612.876398
2703.300585,296.082377,-11843.295072,-1225.752797
2703.300913,1258.350101,-10881.027347,-1072.533697
2703.301240,1776.494261,-9400.615463,0.000000
2703.301568,296.082377,-8216.285956,0.000000
2703.301895,222.061783,-9252.574275,229.828649
2703.302223,1258.350101,-10584.944971,76.609550
2703.302550,1628.453072,-10955.047942,306.438199
2703.302878,2294.638420,-10436.903782,76.609550
2703.303205,2368.659014,-9326.594869,-689.485948
2703.303533,1036.288319,-7698.141797,842.705048
2703.303860,-296.082377,-8882.471304,1072.533697
2703.304188,-1110.308913,-10288.862594,0.000000
2703.304515,-1184.329507,-10658.965565,-1532.190996
2703.304843,-296.082377,-9548.656652,-2374.896044
2703.305170,222.061783,-8882.471304,-1225.752797
2703.305498,296.082377,-8882.471304,536.266849
2703.305825,0.000000,-9400.615463,2681.334243
2703.306153,0.000000,-10584.944971,995.924147
2703.306480,370.102971,-10732.986159,-689.485948
2703.306808,0.000000,-9474.636058,-1378.971896
2703.307135,-370.102971,-7476.080014,-612.876398
2703.307462,-888.247130,-7179.997637,76.609550
2703.307790,-888.247130,-8660.409521,229.828649
2703.308117,-296.082377,-10955.047942,383.047749
2703.308445,1036.288319,-12435.459826,-153.219100
2703.308772,1702.473667,-11251.130318,-459.657299
2703.309100,740.205942,-9030.512492,-383.047749
2703.309427,74.020594,-8068.244768,0.000000
2703.309755,370.102971,-9474.636058,-306.438199
2703.310082,370.102971,-10732.986159,612.876398
2703.310410,1406.391290,-10066.800811,-383.047749
2703.310737,1702.473667,-9474.636058,-612.876398
2703.311065,962.267725,-9030.512492,-153.219100
2703.311392,-370.102971,-8734.430116,76.609550
2703.311720,-518.144159,-9844.739029,0.000000
2703.312047,0.000000,-11103.089130,-1532.190996
2703.312375,666.185348,-11325.150913,-2068.457845
2703.312702,814.226536,-10362.883188,-1838.629195
2703.313030,592.164754,-8882.471304,306.438199
2703.313357,-222.061783,-8882.471304,1762.019645
2703.313685,518.144159,-10584.944971,1149.143247
2703.314012,370.102971,-11103.089130,383.047749
2703.314340,1110.308913,-10288.862594,-536.266849
2703.314667,518.144159,-7920.203579,-766.095498
2703.314995,0.000000,-7402.059420,0.000000
2703.315322,-444.123565,-8290.306550,-229.828649
2703.315650,0.000000,-9770.718434,0.000000
2703.315977,74.020594,-10955.047942,-383.047749
2703.316305,1258.350101,-10732.986159,-306.438199
2703.316632,1258.350101,-9474.636058,-306.438199
2703.316959,444.123565,-8364.327145,459.657299
2703.317287,-666.185348,-8660.409521,1072.533697
2703.317614,-222.061783,-10362.883188,536.266849
2703.317942,0.000000,-10732.986159,-612.876398
2703.318269,740.205942,-10362.883188,-1608.800546
2703.318597,222.061783,-8882.471304,-919.314598
2703.318924,0.000000,-8364.327145,229.828649
2703.319252,148.041188,-9622.677246,612.876398
2703.319579,740.205942,-10362.883188,0.000000
2703.319907,518.144159,-11029.068536,-536.266849
2703.320234,1628.453072,-10658.965565,-1149.143247
2703.320562,1110.308913,-8956.491898,-383.047749
2703.320889,1036.288319,-8660.409521,612.876398
2703.321217,518.144159,-9474.636058,1072.533697
2703.321544,1036.288319,-11029.068536,229.828649
2703.321872,296.082377,-11251.130318,-536.266849
2703.322199,888.247130,-10658.965565,-1302.362347
2703.322527,0.000000,-8734.430116,-842.705048
2703.322854,-666.185348,-7031.956449,-766.095498
2703.323182,-1554.432478,-8438.347739,-766.095498
2703.323509,-1480.411884,-11029.068536,-306.438199
2703.323837,296.082377,-11917.315666,-229.828649
2703.324164,1998.556043,-11251.130318,-536.266849
2703.324492,1036.288319,-9474.636058,536.266849
2703.324819,74.020594,-8808.450710,995.924147
2703.325147,-296.082377,-9474.636058,842.705048
2703.325474,-518.144159,-9992.780217,0.000000
2703.325801,-592.164754,-10436.903782,-1149.143247
2703.326129,0.000000,-9622.677246,-1378.971896
2703.326456,296.082377,-8364.327145,0.000000
2703.326784,0.000000,-8512.368333,766.095498
2703.327111,296.082377,-10140.821405,689.485948
2703.327439,592.164754,-11251.130318,-229.828649
2703.327766,814.226536,-11029.068536,-919.314598
2703.328094,1036.288319,-9252.574275,-1838.629195
2703.328421,0.000000,-7179.997637,459.657299
2703.328749,-740.205942,-7920.203579,919.314598
2703.329076,0.000000,-10066.800811,1072.533697
2703.329404,74.020594,-10881.027347,229.828649
2703.329731,0.000000,-10214.842000,-995.924147
2703.330059,0.000000,-9474.636058,-995.924147
2703.330386,0.000000,-8290.306550,-919.314598
2703.330714,-666.185348,-8068.244768,-766.095498
2703.331041,296.082377,-10066.800811,0.000000
2703.331369,666.185348,-11473.192101,76.609550
2703.331696,1110.308913,-10807.006753,0.000000
2703.332024,814.226536,-9326.594869,-229.828649
2703.332351,0.000000,-8512.368333,-229.828649
2703.332679,-592.164754,-9400.615463,153.219100
2703.333006,0.000000,-10584.944971,383.047749
2703.333334,0.000000,-10807.006753,-612.876398
2703.333661,370.102971,-10510.924376,-1455.581446
2703.333989,518.144159,-9696.697840,-1149.143247
2703.334316,0.000000,-8734.430116,0.000000
2703.334643,-148.041188,-9474.636058,612.876398
2703.334971,-296.082377,-10288.862594,919.314598
2703.335298,518.144159,-10584.944971,-153.219100
2703.335626,1036.288319,-10510.924376,0.000000
2703.335953,962.267725,-9474.636058,229.828649
2703.336281,-296.082377,-9030.512492,995.924147
2703.336608,-148.041188,-8956.491898,842.705048
2703.336936,-222.061783,-9696.697840,-612.876398
2703.337263,-370.102971,-10807.006753,153.219100
2703.337591,888.247130,-9252.574275,229.828649
2703.337918,740.205942,-8364.327145,-229.828649
2703.338246,444.123565,-8216.285956,383.047749
2703.338573,1036.288319,-9474.636058,-459.657299
2703.338901,222.061783,-10658.965565,0.000000
2703.339228,814.226536,-11251.130318,306.438199
2703.339556,1258.350101,-9992.780217,-612.876398
2703.339883,1036.288319,-8734.430116,-1149.143247
2703.340211,0.000000,-7772.162391,0.000000
2703.340538,74.020594,-9622.677246,76.609550
2703.340866,-222.061783,-10881.027347,306.438199
2703.341193,222.061783,-11177.109724,-1149.143247
2703.341521,1332.370696,-10658.965565,-1838.629195
2703.341848,592.164754,-8438.347739,-995.924147
2703.342176,592.164754,-8068.244768,-689.485948
2703.342503,518.144159,-9918.759623,689.485948
2703.342831,592.164754,-11103.089130,459.657299
2703.343158,962.267725,-10881.027347,-306.438199
2703.343486,592.164754,-9474.636058,-842.705048
2703.343813,370.102971,-8290.306550,-383.047749
2703.344140,-222.061783,-8734.430116,229.828649
2703.344468,0.000000,-10658.965565,-153.219100
2703.344795,-740.205942,-11325.150913,-612.876398
2703.345123,0.000000,-10214.842000,-1455.581446
2703.345450,-370.102971,-9252.574275,-1838.629195
2703.345778,-888.247130,-8068.244768,-766.095498
2703.346105,-370.102971,-7550.100608,0.000000
2703.346433,222.061783,-9474.636058,153.219100
2703.346760,962.267725,-11917.315666,383.047749
2703.347088,1480.411884,-10955.047942,-612.876398
2703.347415,518.144159,-8734.430116,-383.047749
2703.347743,-444.123565,-7550.100608,0.000000
2703.348070,-296.082377,-8586.388927,0.000000
2703.348398,0.000000,-11029.068536,153.219100
2703.348725,296.082377,-11325.150913,0.000000
2703.349053,1184.329507,-11251.130318,-919.314598
2703.349380,888.247130,-9474.636058,-766.095498
2703.349708,148.041188,-8142.265362,229.828649
2703.350035,-518.144159,-8438.347739,306.438199
2703.350363,-148.041188,-9548.656652,0.000000
2703.350690,444.123565,-10584.944971,-536.266849
2703.351018,1332.370696,-10140.821405,-459.657299
2703.351345,814.226536,-8956.491898,383.047749
2703.351673,74.020594,-8586.388927,1072.533697
2703.352000,-888.247130,-9622.677246,459.657299
2703.352328,-1332.370696,-10955.047942,-612.876398
2703.352655,-814.226536,-11325.150913,-1838.629195
2703.352982,222.061783,-10214.842000,-1685.410096
2703.353310,0.000000,-8290.306550,-995.924147
2703.353637,0.000000,-7698.141797,842.705048
2703.353965,444.123565,-9548.656652,995.924147
2703.354292,0.000000,-10955.047942,612.876398
2703.354620,-148.041188,-11177.109724,-306.438199
2703.354947,0.000000,-9474.636058,-995.924147
2703.355275,-444.123565,-7624.121203,-766.095498
2703.355602,0.000000,-7698.141797,0.000000
2703.355930,296.082377,-9992.780217,919.314598
2703.356257,444.123565,-11177.109724,229.828649
2703.356585,1480.411884,-11769.274478,-536.266849
2703.356912,1924.535449,-10955.047942,-1302.362347
2703.357240,1480.411884,-8364.327145,-536.266849
2703.357567,444.123565,-7402.059420,689.485948
2703.357895,592.164754,-9178.553681,1455.581446
2703.358222,1110.308913,-10510.924376,689.485948
2703.358550,2368.659014,-10658.965565,0.000000
2703.358877,1406.391290,-9326.594869,0.000000
2703.359205,0.000000,-8290.306550,306.438199
2703.359532,-1110.308913,-8734.430116,0.000000
2703.359860,-1850.514855,-10214.842000,-612.876398
2703.360187,-1406.391290,-11177.109724,-1149.143247
2703.360515,74.020594,-10732.986159,-1762.019645
2703.360842,444.123565,-9474.636058,-689.485948
2703.361170,740.205942,-8586.388927,0.000000
2703.361497,962.267725,-9252.574275,536.266849
2703.361824,740.205942,-10436.903782,612.876398
2703.362152,592.164754,-11177.109724,76.609550
2703.362479,962.267725,-10658.965565,-919.314598
2703.362807,1110.308913,-9400.615463,-1608.800546
2703.363134,0.000000,-7698.141797,-383.047749
2703.363462,0.000000,-8586.388927,0.000000
2703.363789,518.144159,-10955.047942,306.438199
2703.364117,1184.329507,-11769.274478,-153.219100
2703.364444,1480.411884,-11769.274478,-919.314598
2703.364772,1554.432478,-9474.636058,-383.047749
2703.365099,814.226536,-8068.244768,229.828649
2703.365427,296.082377,-8364.327145,995.924147
2703.365754,222.061783,-9474.636058,1072.533697
2703.366082,296.082377,-10436.903782,689.485948
2703.366409,888.247130,-10288.862594,0.000000
2703.366737,518.144159,-8586.388927,-306.438199
2703.367064,-518.144159,-7920.203579,-459.657299
2703.367392,-740.205942,-9844.739029,459.657299
2703.367719,-1110.308913,-10288.862594,76.609550
2703.368047,-370.102971,-10732.986159,-1455.581446
2703.368374,888.247130,-9844.739029,-995.924147
2703.368702,296.082377,-8068.244768,0.000000
2703.369029,-296.082377,-7179.997637,1532.190996
2703.369357,-296.082377,-8882.471304,766.095498
2703.369684,0.000000,-10658.965565,0.000000
2703.370012,0.000000,-11103.089130,-306.438199
2703.370339,222.061783,-10066.800811,-1455.581446
2703.370667,0.000000,-8438.347739,-919.314598
2703.370994,0.000000,-8290.306550,-459.657299
2703.371321,444.123565,-10436.903782,76.609550
2703.371649,592.164754,-11991.336260,689.485948
2703.371976,1110.308913,-12361.439231,-612.876398
2703.372304,1110.308913,-10288.862594,-1455.581446
2703.372631,444.123565,-7846.182985,-766.095498
2703.372959,-222.061783,-7994.224174,153.219100
2703.373286,-296.082377,-9474.636058,459.657299
2703.373614,222.061783,-10955.047942,76.609550
2703.373941,1110.308913,-10881.027347,-383.047749
2703.374269,1110.308913,-9992.780217,-1532.190996
2703.374596,444.123565,-9030.512492,-383.047749
2703.374924,518.144159,-9104.533087,229.828649
2703.375251,0.000000,-10584.944971,76.609550
2703.375579,222.061783,-11843.295072,0.000000
2703.375906,1924.535449,-11325.150913,-1149.143247
2703.376234,1332.370696,-8290.306550,-229.828649
2703.376561,666.185348,-7179.997637,1685.410096
2703.376889,0.000000,-7550.100608,1072.533697
2703.377216,518.144159,-9030.512492,842.705048
2703.377544,222.061783,-9622.677246,0.000000
2703.377871,222.061783,-9178.553681,-689.485948
2703.378199,74.020594,-8734.430116,-459.657299
2703.378526,518.144159,-8586.388927,766.095498
2703.378854,518.144159,-9474.636058,612.876398
2703.379181,1258.350101,-10955.047942,459.657299
2703.379509,1480.411884,-11843.295072,229.828649
2703.379836,1998.556043,-11843.295072,-229.828649
2703.380163,1776.494261,-9178.553681,0.000000
2703.380491,222.061783,-6883.915261,383.047749
2703.380818,-1332.370696,-7105.977043,1149.143247
2703.381146,-1628.453072,-8882.471304,1072.533697
2703.381473,-962.267725,-10362.883188,-153.219100
2703.381801,0.000000,-10658.965565,-1532.190996
2703.382128,-222.061783,-9178.553681,-1225.752797
2703.382456,-592.164754,-9252.574275,76.609550
2703.382783,-666.185348,-10658.965565,306.438199
2703.383111,-592.164754,-11695.253884,-306.438199
2703.383438,-370.102971,-11325.150913,-536.266849
2703.383766,296.082377,-9770.718434,-2757.943793
2703.384093,0.000000,-8142.265362,-612.876398
2703.384421,-296.082377,-8512.368333,76.609550
2703.384748,-814.226536,-9770.718434,612.876398
2703.385076,-666.185348,-11325.150913,-306.438199
2703.385403,-222.061783,-11547.212695,-1455.581446
2703.385731,296.082377,-10362.883188,-2451.505594
2703.386058,0.000000,-7994.224174,-1225.752797
2703.386386,0.000000,-8364.327145,153.219100
2703.386713,740.205942,-10658.965565,919.314598
2703.387041,962.267725,-11695.253884,919.314598
2703.387368,1332.370696,-11029.068536,383.047749
2703.387696,1406.391290,-10066.800811,-383.047749
2703.388023,740.205942,-8438.347739,-306.438199
2703.388351,0.000000,-8068.244768,995.924147
2703.388678,-518.144159,-9252.574275,766.095498
2703.389005,-814.226536,-10436.903782,-153.219100
2703.389333,370.102971,-10510.924376,-995.924147
2703.389660,962.267725,-9400.615463,-995.924147
2703.389988,296.082377,-8142.265362,459.657299
2703.390315,0.000000,-8512.368333,1378.971896
2703.390643,-370.102971,-9844.739029,766.095498
2703.390970,0.000000,-9622.677246,0.000000
2703.391298,962.267725,-9252.574275,-536.266849
2703.391625,740.205942,-8068.244768,0.000000
2703.391953,74.020594,-7772.162391,919.314598
2703.392280,148.041188,-7846.182985,1072.533697
2703.392608,370.102971,-9992.780217,0.000000
2703.392935,-518.144159,-11177.109724,-1532.190996
2703.393263,222.061783,-11325.150913,-2145.067394
2703.393590,592.164754,-9400.615463,-1915.238745
2703.393918,592.164754,-8882.471304,-612.876398
2703.394245,888.247130,-10066.800811,229.828649
2703.394573,1184.329507,-11769.274478,229.828649
2703.394900,1184.329507,-11917.315666,-536.266849
2703.395228,1924.535449,-11029.068536,-229.828649
2703.395555,2294.638420,-9178.553681,-1532.190996
2703.395883,444.123565,-7698.141797,153.219100
2703.396210,-370.102971,-8512.368333,612.876398
2703.396538,222.061783,-10658.965565,0.000000
2703.396865,666.185348,-11991.336260,-612.876398
2703.397193,1184.329507,-11103.089130,-1302.362347
2703.397520,888.247130,-9770.718434,-1991.848295
2703.397848,370.102971,-8734.430116,0.000000
2703.398175,222.061783,-9770.718434,689.485948
2703.398503,148.041188,-10955.047942,1072.533697
2703.398830,888.247130,-10658.965565,383.047749
2703.399158,1036.288319,-9104.533087,0.000000
2703.399485,148.041188,-7698.141797,76.609550
2703.399813,-666.185348,-7550.100608,306.438199
2703.400140,-962.267725,-8956.491898,306.438199
2703.400468,-1480.411884,-9474.636058,0.000000
2703.400795,-592.164754,-10436.903782,-919.314598
2703.401123,0.000000,-9992.780217,-536.266849
2703.401450,0.000000,-8512.368333,0.000000
2703.401778,0.000000,-8216.285956,842.705048
2703.402105,0.000000,-9326.594869,-842.705048
2703.402433,-444.123565,-10066.800811,383.047749
2703.402760,518.144159,-10658.965565,0.000000
2703.403088,814.226536,-9030.512492,-536.266849
2703.403415,296.082377,-7846.182985,0.000000
2703.403743,0.000000,-8364.327145,229.828649
2703.404070,-518.144159,-9622.677246,0.000000
2703.404398,-370.102971,-10807.006753,-1149.143247
2703.404725,740.205942,-11991.336260,-1685.410096
2703.405053,1184.329507,-11103.089130,-1915.238745
2703.405380,740.205942,-8808.450710,-842.705048
2703.405708,74.020594,-8956.491898,383.047749
2703.406035,74.020594,-11325.150913,842.705048
2703.406363,1036.288319,-11843.295072,0.000000
2703.406690,814.226536,-10658.965565,-919.314598
2703.407018,-296.082377,-8734.430116,-919.314598
2703.407345,-1184.329507,-7846.182985,-995.924147
2703.407673,-1258.350101,-8882.471304,-766.095498
2703.408000,-1406.391290,-9844.739029,-842.705048
2703.408328,-962.267725,-12065.356855,-1608.800546
2703.408655,-296.082377,-11843.295072,-1302.362347
2703.408983,0.000000,-9770.718434,-1302.362347
2703.409310,592.164754,-8068.244768,-383.047749
2703.409638,962.267725,-9178.553681,536.266849
2703.409965,962.267725,-10732.986159,1225.752797
2703.410293,1332.370696,-10584.944971,612.876398
2703.410620,1702.473667,-9622.677246,0.000000
2703.410948,1554.432478,-8068.244768,-306.438199
2703.411275,1480.411884,-6809.894666,76.609550
2703.411603,518.144159,-8438.347739,1302.362347
2703.411930,962.267725,-10807.006753,612.876398
2703.412258,1924.535449,-11695.253884,-995.924147
2703.412585,2368.659014,-10658.965565,-1378.971896
2703.412913,1776.494261,-8956.491898,0.000000
2703.413240,814.226536,-8290.306550,1378.971896
2703.413568,-296.082377,-8956.491898,2451.505594
2703.413895,444.123565,-10214.842000,1685.410096
2703.414223,518.144159,-9844.739029,-383.047749
2703.414550,370.102971,-9622.677246,-919.314598
2703.414878,0.000000,-7846.182985,-612.876398
2703.415205,-740.205942,-7920.203579,-153.219100
2703.415533,-888.247130,-9104.533087,-459.657299
2703.415860,74.020594,-10881.027347,-919.314598
2703.416188,814.226536,-11917.315666,-919.314598
2703.416515,1554.432478,-10658.965565,-766.095498
2703.416843,1258.350101,-9400.615463,0.000000
2703.417170,1110.308913,-9326.594869,153.219100
2703.417498,592.164754,-10140.821405,689.485948
2703.417825,740.205942,-11399.171507,0.000000
2703.418153,1110.308913,-11251.130318,-689.485948
2703.418480,1776.494261,-9770.718434,-1302.362347
2703.418808,1258.350101,-8438.347739,-689.485948
2703.419135,-740.205942,-8216.285956,0.000000
2703.419463,-1258.350101,-9622.677246,0.000000
2703.419790,-666.185348,-11251.130318,-459.657299
2703.420118,296.082377,-12139.377449,-919.314598
2703.420445,740.205942,-10436.903782,-1608.800546
2703.420773,518.144159,-7994.224174,-229.828649
2703.421100,-296.082377,-8068.244768,1225.752797
2703.421428,-740.205942,-9918.759623,1762.019645
2703.421755,-592.164754,-10436.903782,536.266849
2703.422083,-592.164754,-9770.718434,-459.657299
2703.422410,-444.123565,-8142.265362,-383.047749
2703.422738,-444.123565,-7772.162391,0.000000
2703.423065,-1332.370696,-8660.409521,0.000000
2703.423393,-1258.350101,-10214.842000,459.657299
2703.423720,-444.123565,-10510.924376,-612.876398
2703.424048,-148.041188,-10288.862594,-842.705048
2703.424375,0.000000,-8364.327145,-612.876398
2703.424703,0.000000,-7105.977043,-306.438199
2703.425031,-518.144159,-8586.388927,76.609550
2703.425358,592.164754,-11325.150913,0.000000
2703.425686,1480.411884,-11621.233289,0.000000
2703.426013,1850.514855,-10732.986159,-306.438199
2703.426341,1554.432478,-9400.615463,0.000000
2703.426668,1110.308913,-8438.347739,-306.438199
2703.426996,0.000000,-9622.677246,-842.705048
2703.427323,-222.061783,-10362.883188,0.000000
2703.427651,222.061783,-11029.068536,-1072.533697
2703.427978,518.144159,-10955.047942,-1378.971896
2703.428306,666.185348,-9030.512492,76.609550
2703.428633,74.020594,-7772.162391,689.485948
2703.428961,148.041188,-9696.697840,1149.143247
2703.429288,148.041188,-11547.212695,153.219100
2703.429616,888.247130,-11251.130318,-1072.533697
2703.429943,592.164754,-10362.883188,-2221.676944
2703.430271,222.061783,-8364.327145,-1072.533697
2703.430598,-444.123565,-7772.162391,-383.047749
2703.430926,-1110.308913,-9474.636058,536.266849
2703.431253,666.185348,-11547.212695,76.609550
2703.431581,1258.350101,-11991.336260,-459.657299
2703.431908,1184.329507,-10436.903782,-306.438199
2703.432236,518.144159,-8216.285956,76.609550
2703.432563,148.041188,-6957.935855,0.000000
2703.432891,74.020594,-8290.306550,1072.533697
2703.433218,666.185348,-9548.656652,919.314598
2703.433546,888.247130,-9770.718434,383.047749
2703.433873,1554.432478,-9252.574275,-229.828649
2703.434201,1850.514855,-7994.224174,76.609550
2703.434528,888.247130,-9104.533087,536.266849
2703.434856,74.020594,-10584.944971,306.438199
2703.435183,592.164754,-11769.274478,-306.438199
2703.435511,1184.329507,-11621.233289,-919.314598
2703.435838,1406.391290,-9474.636058,-995.924147
2703.436166,888.247130,-7920.203579,383.047749
2703.436493,-814.226536,-8734.430116,1838.629195
2703.436821,-888.247130,-10510.924376,1532.190996
2703.437148,-888.247130,-10066.800811,-306.438199
2703.437476,-1480.411884,-9918.759623,-1762.019645
2703.437803,-666.185348,-8660.409521,-2068.457845
2703.438131,-592.164754,-7476.080014,-1378.971896
2703.438458,-1258.350101,-8956.491898,-229.828649
2703.438786,-296.082377,-11547.212695,-153.219100
2703.439113,1258.350101,-11843.295072,-153.219100
2703.439441,814.226536,-11621.233289,-536.266849
2703.439768,74.020594,-9918.759623,-306.438199
2703.440096,0.000000,-7846.182985,-306.438199
2703.440423,-370.102971,-8660.409521,153.219100
2703.440751,296.082377,-11029.068536,612.876398
2703.441078,148.041188,-10955.047942,-536.266849
2703.441406,592.164754,-10140.821405,-995.924147
2703.441733,740.205942,-8364.327145,-612.876398
2703.442061,740.205942,-8068.244768,-919.314598
2703.442388,-518.144159,-9252.574275,153.219100
