#time,accel_x,accel_y,accel_z
2990.571855,444.123565,-9548.656652,-306.438199
2990.572182,518.144159,-9696.697840,0.000000
2990.572510,74.020594,-9474.636058,0.000000
2990.572837,0.000000,-9622.677246,-612.876398
2990.573165,0.000000,-10214.842000,-919.314598
2990.573492,74.020594,-10140.821405,-842.705048
2990.573820,222.061783,-10510.924376,-1072.533697
2990.574147,370.102971,-10807.006753,-842.705048
2990.574475,592.164754,-10584.944971,-383.047749
2990.574802,444.123565,-10066.800811,-383.047749
2990.575130,814.226536,-9844.739029,-153.219100
2990.575458,518.144159,-9474.636058,76.609550
2990.575785,222.061783,-9770.718434,-306.438199
2990.576113,74.020594,-9474.636058,0.000000
2990.576440,0.000000,-9252.574275,-306.438199
2990.576768,0.000000,-9474.636058,-536.266849
2990.577095,0.000000,-9326.594869,-612.876398
2990.577423,0.000000,-9178.553681,0.000000
2990.577750,74.020594,-9474.636058,-229.828649
2990.578078,518.144159,-9992.780217,76.609550
2990.578405,666.185348,-9992.780217,459.657299
2990.578733,592.164754,-9474.636058,306.438199
2990.579060,444.123565,-8882.471304,612.876398
2990.579388,666.185348,-9178.553681,306.438199
2990.579715,222.061783,-8364.327145,689.485948
2990.580043,0.000000,-8586.388927,76.609550
2990.580371,0.000000,-9104.533087,0.000000
2990.580698,0.000000,-9326.594869,-229.828649
2990.581026,148.041188,-9474.636058,-306.438199
2990.581353,518.144159,-9474.636058,-229.828649
2990.581681,444.123565,-9622.677246,536.266849
2990.582008,666.185348,-9622.677246,0.000000
2990.582336,1036.288319,-9918.759623,76.609550
2990.582663,666.185348,-9770.718434,0.000000
2990.582991,518.144159,-9622.677246,0.000000
2990.583318,370.102971,-9622.677246,-229.828649
2990.583646,0.000000,-9548.656652,-229.828649
2990.583973,0.000000,-9918.759623,-689.485948
2990.584301,0.000000,-9696.697840,-689.485948
2990.584628,-222.061783,-9844.739029,-229.828649
2990.584956,0.000000,-10214.842000,-919.314598
2990.585284,296.082377,-10436.903782,-612.876398
2990.585611,296.082377,-10436.903782,-383.047749
2990.585939,518.144159,-10436.903782,0.000000
2990.586266,814.226536,-9844.739029,-689.485948
2990.586594,1110.308913,-9770.718434,-306.438199
2990.586921,148.041188,-9474.636058,0.000000
2990.587249,370.102971,-9104.533087,-383.047749
2990.587576,666.185348,-9104.533087,-306.438199
2990.587904,1258.350101,-8956.491898,-153.219100
2990.588231,2072.576638,-8808.450710,-383.047749
2990.588559,2960.823768,-8882.471304,-306.438199
2990.588886,4589.276840,-9844.739029,-229.828649
2990.589214,5551.544565,-9918.759623,76.609550
2990.589542,6439.791695,-9548.656652,0.000000
2990.589869,6957.935855,-9548.656652,306.438199
2990.590197,7105.977043,-9918.759623,612.876398
2990.590524,7624.121203,-9622.677246,766.095498
2990.590852,7550.100608,-9622.677246,459.657299
2990.591179,7476.080014,-9474.636058,689.485948
2990.591507,8290.306550,-9104.533087,0.000000
2990.591834,9030.512492,-8956.491898,0.000000
2990.592162,9326.594869,-8882.471304,0.000000
2990.592489,10584.944971,-9178.553681,76.609550
2990.592817,11843.295072,-9178.553681,306.438199
2990.593144,11991.336260,-9548.656652,536.266849
2990.593472,11843.295072,-9548.656652,919.314598
2990.593799,11843.295072,-9770.718434,919.314598
2990.594127,11695.253884,-9696.697840,229.828649
2990.594455,12213.398043,-9474.636058,-536.266849
2990.594782,13249.686362,-10288.862594,-153.219100
2990.595110,13915.871710,-10436.903782,536.266849
2990.595437,14656.077652,-9622.677246,536.266849
2990.595765,14656.077652,-8438.347739,-383.047749
2990.596092,14434.015869,-9030.512492,-306.438199
2990.596420,13767.830521,-10140.821405,612.876398
2990.596747,13545.768739,-9548.656652,842.705048
2990.597075,13841.851115,-9918.759623,459.657299
2990.597402,13767.830521,-10584.944971,1072.533697
2990.597730,14211.954086,-10807.006753,689.485948
2990.598057,13027.624579,-9474.636058,1378.971896
2990.598385,11547.212695,-9326.594869,1608.800546
2990.598712,11177.109724,-9474.636058,153.219100
2990.599040,9992.780217,-10140.821405,-459.657299
2990.599368,9178.553681,-9992.780217,-766.095498
2990.599695,8216.285956,-9252.574275,-229.828649
2990.600023,7105.977043,-7698.141797,229.828649
2990.600350,8660.409521,-7698.141797,0.000000
2990.600678,9252.574275,-8882.471304,76.609550
2990.601005,9918.759623,-10732.986159,842.705048
2990.601333,9844.739029,-10807.006753,1455.581446
2990.601660,8586.388927,-9844.739029,1149.143247
2990.601988,7031.956449,-9474.636058,229.828649
2990.602315,5329.482782,-8808.450710,153.219100
2990.602643,4737.318029,-8734.430116,306.438199
2990.602970,4293.194464,-10140.821405,306.438199
2990.603298,3552.988522,-12065.356855,383.047749
2990.603626,2812.782580,-10214.842000,76.609550
2990.603953,2146.597232,-7698.141797,-842.705048
2990.604281,74.020594,-9400.615463,-995.924147
2990.604608,666.185348,-10732.986159,-536.266849
2990.604936,1184.329507,-10066.800811,0.000000
2990.605263,3256.906145,-8956.491898,-1149.143247
2990.605591,4737.318029,-7920.203579,-766.095498
2990.605918,3478.967927,-8142.265362,919.314598
2990.606246,814.226536,-9770.718434,2604.724693
2990.606573,666.185348,-9992.780217,1455.581446
2990.606901,2590.720797,-8882.471304,-1532.190996
2990.607228,4737.318029,-10510.924376,-4136.915689
2990.607556,3997.112087,-11177.109724,-1991.848295
2990.607883,1258.350101,-10362.883188,536.266849
2990.608211,962.267725,-9844.739029,1149.143247
2990.608539,2442.679609,-10436.903782,-459.657299
2990.608866,1036.288319,-10066.800811,-995.924147
2990.609194,-370.102971,-8512.368333,0.000000
2990.609521,444.123565,-7476.080014,0.000000
2990.609849,1628.453072,-8586.388927,153.219100
2990.610176,962.267725,-10066.800811,0.000000
2990.610504,-518.144159,-7994.224174,459.657299
2990.610831,-592.164754,-6365.771101,-766.095498
2990.611159,1110.308913,-8882.471304,-1838.629195
2990.611486,1998.556043,-11399.171507,-1532.190996
2990.611814,1554.432478,-10955.047942,-306.438199
2990.612141,1406.391290,-9252.574275,0.000000
2990.612469,1776.494261,-9844.739029,-383.047749
2990.612796,2146.597232,-12213.398043,-153.219100
2990.613124,1850.514855,-11325.150913,0.000000
2990.613452,2590.720797,-8808.450710,-459.657299
2990.613779,2442.679609,-8808.450710,-1991.848295
2990.614107,1776.494261,-10288.862594,-1072.533697
2990.614434,962.267725,-8068.244768,689.485948
2990.614762,2886.803174,-6809.894666,612.876398
2990.615089,4663.297435,-8364.327145,0.000000
2990.615417,3997.112087,-11325.150913,383.047749
2990.615744,2516.700203,-11547.212695,1302.362347
2990.616072,3997.112087,-10288.862594,153.219100
2990.616399,4145.153275,-10807.006753,-766.095498
2990.616727,888.247130,-12657.521608,153.219100
2990.617054,-666.185348,-12139.377449,1302.362347
2990.617382,1036.288319,-11029.068536,-229.828649
2990.617710,1480.411884,-10288.862594,-2221.676944
2990.618037,-1702.473667,-10510.924376,-919.314598
2990.618365,-3627.009116,-9474.636058,689.485948
2990.618692,-2664.741391,-8660.409521,229.828649
2990.619020,-1776.494261,-7105.977043,-1378.971896
2990.619347,-2812.782580,-7179.997637,-1225.752797
2990.619675,-1776.494261,-8216.285956,919.314598
2990.620002,1554.432478,-7772.162391,1762.019645
2990.620330,2368.659014,-8808.450710,1532.190996
2990.620657,518.144159,-10288.862594,2145.067394
2990.620985,0.000000,-11621.233289,1072.533697
2990.621312,592.164754,-11843.295072,-383.047749
2990.621640,-1258.350101,-11177.109724,-995.924147
2990.621967,-3182.885551,-11177.109724,-536.266849
2990.622295,-3478.967927,-10732.986159,0.000000
2990.622623,-1776.494261,-9918.759623,-459.657299
2990.622950,-2220.617826,-8364.327145,-689.485948
2990.623278,-4441.235652,-6809.894666,1072.533697
2990.623605,-2886.803174,-6587.832884,1149.143247
2990.623933,-962.267725,-6809.894666,-536.266849
2990.624260,-1776.494261,-7031.956449,-689.485948
2990.624588,-2368.659014,-7254.018232,306.438199
2990.624915,222.061783,-8956.491898,306.438199
2990.625243,2516.700203,-10807.006753,-1685.410096
2990.625570,1110.308913,-11843.295072,-919.314598
2990.625898,1258.350101,-13397.727550,459.657299
2990.626225,2738.761985,-13915.871710,-995.924147
2990.626553,1924.535449,-13693.809927,-2068.457845
2990.626880,-1184.329507,-12139.377449,-1608.800546
2990.627208,-2220.617826,-9992.780217,-1225.752797
2990.627536,-370.102971,-9252.574275,-1762.019645
2990.627863,-814.226536,-8142.265362,-1225.752797
2990.628191,-2886.803174,-6513.812290,229.828649
2990.628518,-2072.576638,-7476.080014,1302.362347
2990.628846,518.144159,-8438.347739,0.000000
2990.629173,1554.432478,-8956.491898,-2221.676944
2990.629501,518.144159,-9696.697840,-1608.800546
2990.629828,2220.617826,-11325.150913,76.609550
2990.630156,4663.297435,-12805.562797,153.219100
2990.630483,3775.050304,-12435.459826,-766.095498
2990.630811,2738.761985,-11695.253884,0.000000
2990.631138,3849.070898,-11547.212695,0.000000
2990.631466,3701.029710,-11325.150913,-383.047749
2990.631794,666.185348,-9992.780217,-383.047749
2990.632121,-666.185348,-6809.894666,612.876398
2990.632449,666.185348,-6217.729913,689.485948
2990.632776,2516.700203,-7105.977043,1072.533697
2990.633104,2368.659014,-7105.977043,2068.457845
2990.633431,2294.638420,-6957.935855,3370.820191
2990.633759,3775.050304,-9326.594869,2757.943793
2990.634086,2368.659014,-10140.821405,842.705048
2990.634414,-814.226536,-9696.697840,-153.219100
2990.634741,-592.164754,-8882.471304,766.095498
2990.635069,1184.329507,-10288.862594,0.000000
2990.635396,370.102971,-11843.295072,-1149.143247
2990.635724,-666.185348,-11103.089130,-1149.143247
2990.636051,518.144159,-10362.883188,-1378.971896
2990.636379,1998.556043,-11177.109724,-1915.238745
2990.636707,444.123565,-11177.109724,-1455.581446
2990.637034,-1702.473667,-9474.636058,0.000000
2990.637362,-740.205942,-7772.162391,306.438199
2990.637689,1628.453072,-7328.038826,-536.266849
2990.638017,962.267725,-8290.306550,306.438199
2990.638344,-962.267725,-8068.244768,2604.724693
2990.638672,148.041188,-9696.697840,2681.334243
2990.638999,370.102971,-12287.418637,-536.266849
2990.639327,-3701.029710,-10881.027347,-1072.533697
2990.639654,-5107.421000,-10140.821405,-3064.381992
2990.639982,-3404.947333,-11029.068536,-3447.429741
2990.640309,-1702.473667,-11843.295072,-3140.991542
2990.640637,-1702.473667,-11473.192101,-2068.457845
2990.640964,-666.185348,-10510.924376,-306.438199
2990.641292,1850.514855,-9770.718434,0.000000
2990.641619,2220.617826,-10066.800811,-1302.362347
2990.641947,-1332.370696,-8956.491898,-383.047749
2990.642275,-1998.556043,-7698.141797,689.485948
2990.642602,888.247130,-7476.080014,0.000000
2990.642930,888.247130,-8068.244768,-689.485948
2990.643257,-1184.329507,-7772.162391,1225.752797
2990.643585,-518.144159,-10362.883188,2528.115143
2990.643912,0.000000,-11695.253884,1991.848295
2990.644240,-1480.411884,-9844.739029,-612.876398
2990.644567,-3108.864956,-8438.347739,-2145.067394
2990.644895,-1628.453072,-9474.636058,-1685.410096
2990.645222,518.144159,-10510.924376,-1072.533697
2990.645550,1036.288319,-9770.718434,0.000000
2990.645877,2220.617826,-8216.285956,1302.362347
2990.646205,3849.070898,-8808.450710,1302.362347
2990.646532,4145.153275,-10436.903782,76.609550
2990.646860,0.000000,-10436.903782,-689.485948
2990.647187,-814.226536,-10288.862594,-536.266849
2990.647515,1628.453072,-9918.759623,-1149.143247
2990.647842,1702.473667,-9548.656652,-1225.752797
2990.648170,0.000000,-8734.430116,612.876398
2990.648498,222.061783,-10510.924376,1455.581446
2990.648825,1776.494261,-11177.109724,766.095498
2990.649153,1110.308913,-10362.883188,-612.876398
2990.649480,-1406.391290,-7920.203579,-383.047749
2990.649808,296.082377,-8068.244768,0.000000
2990.650135,2886.803174,-10214.842000,-306.438199
2990.650463,2812.782580,-10881.027347,0.000000
2990.650790,2294.638420,-10066.800811,-306.438199
2990.651118,3627.009116,-9992.780217,-536.266849
2990.651445,3404.947333,-10955.047942,-1225.752797
2990.651773,1258.350101,-12361.439231,-1149.143247
2990.652100,-1184.329507,-11251.130318,-306.438199
2990.652428,222.061783,-10732.986159,-919.314598
2990.652755,1258.350101,-9178.553681,-1455.581446
2990.653083,-962.267725,-7772.162391,0.000000
2990.653410,-2738.761985,-6661.853478,2451.505594
2990.653738,-444.123565,-8068.244768,2987.772442
2990.654066,0.000000,-8956.491898,459.657299
2990.654393,-1628.453072,-7772.162391,-689.485948
2990.654721,-1406.391290,-7105.977043,306.438199
2990.655048,1332.370696,-9104.533087,0.000000
2990.655376,2220.617826,-10362.883188,459.657299
2990.655703,888.247130,-11029.068536,383.047749
2990.656031,1184.329507,-11621.233289,0.000000
2990.656358,2664.741391,-12435.459826,-689.485948
2990.656686,888.247130,-11695.253884,-919.314598
2990.657013,-2220.617826,-9696.697840,229.828649
2990.657341,-2886.803174,-8808.450710,1072.533697
2990.657668,-814.226536,-9104.533087,-1149.143247
2990.657996,-2960.823768,-6365.771101,-306.438199
2990.658323,-4293.194464,-5773.606348,612.876398
2990.658651,-3849.070898,-7550.100608,1225.752797
2990.658978,-1776.494261,-8882.471304,-306.438199
2990.659306,-2960.823768,-7328.038826,-1225.752797
2990.659634,-2516.700203,-8142.265362,-842.705048
2990.659961,888.247130,-11621.233289,229.828649
2990.660289,3108.864956,-13619.789333,-383.047749
2990.660616,2442.679609,-12361.439231,-306.438199
2990.660944,2664.741391,-11547.212695,-383.047749
2990.661271,2886.803174,-12509.480420,-689.485948
2990.661599,0.000000,-12953.603985,-229.828649
2990.661926,-3330.926739,-9844.739029,-383.047749
2990.662254,-2664.741391,-7402.059420,-2068.457845
2990.662581,-444.123565,-8216.285956,-1991.848295
2990.662909,0.000000,-8068.244768,-2068.457845
2990.663236,-1776.494261,-6513.812290,612.876398
2990.663564,-518.144159,-7031.956449,1685.410096
2990.663891,2294.638420,-9326.594869,766.095498
2990.664219,2368.659014,-9918.759623,0.000000
2990.664546,1184.329507,-8808.450710,536.266849
2990.664874,3256.906145,-8882.471304,1149.143247
2990.665202,5625.565159,-12583.501014,-153.219100
2990.665529,2516.700203,-13841.851115,-306.438199
2990.665857,222.061783,-11399.171507,-229.828649
2990.666184,1554.432478,-9400.615463,-1302.362347
2990.666512,666.185348,-9918.759623,-1072.533697
2990.666839,-1850.514855,-9770.718434,-1072.533697
2990.667167,-1554.432478,-7105.977043,-612.876398
2990.667494,2368.659014,-7476.080014,-919.314598
2990.667822,4663.297435,-8734.430116,-536.266849
2990.668149,2516.700203,-8512.368333,1838.629195
2990.668477,1850.514855,-8142.265362,3907.087040
2990.668804,2960.823768,-8734.430116,1991.848295
2990.669132,2368.659014,-9770.718434,-1915.238745
2990.669459,-1258.350101,-9400.615463,-1762.019645
2990.669787,-666.185348,-9844.739029,612.876398
2990.670114,2072.576638,-11843.295072,383.047749
2990.670442,1258.350101,-12361.439231,-536.266849
2990.670769,-1406.391290,-10510.924376,-842.705048
2990.671097,-1258.350101,-10140.821405,-1149.143247
2990.671425,148.041188,-10955.047942,-1915.238745
2990.671752,-1258.350101,-10584.944971,76.609550
2990.672080,-1554.432478,-7402.059420,842.705048
2990.672407,888.247130,-7772.162391,995.924147
2990.672735,2294.638420,-9474.636058,689.485948
2990.673062,444.123565,-8512.368333,76.609550
2990.673390,-2220.617826,-7772.162391,1225.752797
2990.673717,-1554.432478,-9474.636058,995.924147
2990.674045,-296.082377,-9918.759623,-2604.724693
2990.674372,-2294.638420,-9326.594869,-2451.505594
2990.674700,-3256.906145,-9474.636058,76.609550
2990.675027,-814.226536,-11843.295072,1532.190996
2990.675355,1924.535449,-13323.706956,536.266849
2990.675682,148.041188,-9844.739029,0.000000
2990.676010,-222.061783,-7920.203579,0.000000
2990.676337,148.041188,-9622.677246,0.000000
2990.676665,-1332.370696,-10732.986159,-229.828649
2990.676993,-2664.741391,-8142.265362,-995.924147
2990.677320,-1480.411884,-7550.100608,-1532.190996
2990.677648,222.061783,-9770.718434,-1685.410096
2990.677975,740.205942,-10510.924376,-1532.190996
2990.678303,-296.082377,-9992.780217,-995.924147
2990.678630,-222.061783,-10807.006753,689.485948
2990.678958,1110.308913,-10362.883188,-536.266849
2990.679285,0.000000,-8882.471304,-1225.752797
2990.679613,-2516.700203,-8438.347739,766.095498
2990.679940,-592.164754,-9252.574275,1685.410096
2990.680268,1850.514855,-9622.677246,612.876398
2990.680595,1628.453072,-9770.718434,0.000000
2990.680923,1332.370696,-8660.409521,-689.485948
2990.681250,2072.576638,-9400.615463,-306.438199
2990.681578,1258.350101,-12139.377449,-842.705048
2990.681905,0.000000,-12139.377449,-1915.238745
2990.682233,1184.329507,-10510.924376,-3217.601092
2990.682561,3256.906145,-9548.656652,-2145.067394
2990.682888,2960.823768,-9252.574275,0.000000
2990.683216,1110.308913,-8882.471304,1838.629195
2990.683543,740.205942,-9474.636058,2528.115143
2990.683871,1480.411884,-10288.862594,1532.190996
2990.684198,518.144159,-7550.100608,-383.047749
2990.684526,-2516.700203,-5181.441594,0.000000
2990.684853,-1702.473667,-7328.038826,919.314598
2990.685181,2072.576638,-10510.924376,536.266849
2990.685508,2220.617826,-11103.089130,-383.047749
2990.685836,2220.617826,-9400.615463,612.876398
2990.686163,3849.070898,-10066.800811,0.000000
2990.686491,3478.967927,-12361.439231,-536.266849
2990.686818,592.164754,-12879.583391,-536.266849
2990.687146,-1184.329507,-10288.862594,-842.705048
2990.687473,518.144159,-9178.553681,-1608.800546
2990.687801,1110.308913,-9030.512492,-1149.143247
2990.688129,74.020594,-7920.203579,0.000000
2990.688456,-1480.411884,-8216.285956,2221.676944
2990.688784,0.000000,-9770.718434,1532.190996
2990.689111,0.000000,-8882.471304,-536.266849
2990.689439,-2368.659014,-7328.038826,-842.705048
2990.689766,-2442.679609,-7179.997637,1072.533697
2990.690094,370.102971,-9770.718434,229.828649
2990.690421,740.205942,-11399.171507,-459.657299
2990.690749,-518.144159,-10881.027347,0.000000
2990.691076,888.247130,-9992.780217,-536.266849
2990.691404,2146.597232,-13175.665768,-1532.190996
2990.691731,74.020594,-14804.118840,-1378.971896
2990.692059,-740.205942,-11991.336260,-1991.848295
2990.692386,-1110.308913,-9548.656652,-2757.943793
2990.692714,-666.185348,-10066.800811,-1149.143247
2990.693041,-1332.370696,-9178.553681,0.000000
2990.693369,-2294.638420,-7402.059420,1225.752797
2990.693697,-1406.391290,-7698.141797,1608.800546
2990.694024,296.082377,-8290.306550,76.609550
2990.694352,-814.226536,-6513.812290,-842.705048
2990.694679,-2072.576638,-6069.688724,1378.971896
2990.695007,0.000000,-9104.533087,766.095498
2990.695334,2220.617826,-11547.212695,-153.219100
2990.695662,2442.679609,-11621.233289,76.609550
2990.695989,3182.885551,-10732.986159,0.000000
2990.696317,3775.050304,-12139.377449,0.000000
2990.696644,1184.329507,-13249.686362,689.485948
2990.696972,-1850.514855,-11325.150913,-306.438199
2990.697299,-1850.514855,-8364.327145,-1685.410096
2990.697627,-592.164754,-7698.141797,-1532.190996
2990.697954,-518.144159,-7179.997637,0.000000
2990.698282,-1702.473667,-6291.750507,1838.629195
2990.698609,74.020594,-7328.038826,2145.067394
2990.698937,2812.782580,-8068.244768,459.657299
2990.699264,2072.576638,-8364.327145,-842.705048
2990.699592,814.226536,-8512.368333,383.047749
2990.699920,2146.597232,-10658.965565,536.266849
2990.700247,4367.215058,-12805.562797,-1149.143247
2990.700575,3775.050304,-13249.686362,-1915.238745
2990.700902,1998.556043,-12583.501014,-766.095498
2990.701230,2516.700203,-11917.315666,229.828649
2990.701557,1998.556043,-12879.583391,459.657299
2990.701885,-1850.514855,-9992.780217,-229.828649
2990.702212,-4219.173869,-7105.977043,-1608.800546
2990.702540,-3034.844362,-7698.141797,-2374.896044
2990.702867,-1480.411884,-7920.203579,-2451.505594
2990.703195,-444.123565,-7994.224174,-383.047749
2990.703522,370.102971,-7920.203579,1455.581446
2990.703850,2738.761985,-9252.574275,1608.800546
2990.704177,2664.741391,-10140.821405,-229.828649
2990.704505,814.226536,-10140.821405,-536.266849
2990.704832,518.144159,-10140.821405,0.000000
2990.705160,2664.741391,-10881.027347,-536.266849
2990.705488,1850.514855,-11103.089130,-689.485948
2990.705815,444.123565,-10584.944971,459.657299
2990.706143,592.164754,-10510.924376,1378.971896
2990.706470,592.164754,-10955.047942,995.924147
2990.706798,-1258.350101,-10436.903782,0.000000
2990.707125,-2886.803174,-7994.224174,-1532.190996
2990.707453,-2368.659014,-7179.997637,-1915.238745
2990.707780,-1258.350101,-7402.059420,-2145.067394
2990.708108,-888.247130,-8068.244768,-383.047749
2990.708435,-666.185348,-7698.141797,2374.896044
2990.708763,1184.329507,-8586.388927,1532.190996
2990.709090,2368.659014,-10510.924376,-459.657299
2990.709418,296.082377,-10362.883188,-995.924147
2990.709745,-1406.391290,-9992.780217,-612.876398
2990.710073,-222.061783,-11399.171507,-766.095498
2990.710400,1036.288319,-10658.965565,-459.657299
2990.710728,222.061783,-8882.471304,0.000000
2990.711056,-592.164754,-9548.656652,1225.752797
2990.711383,-148.041188,-11473.192101,689.485948
2990.711711,-814.226536,-10807.006753,-459.657299
2990.712038,-2220.617826,-8438.347739,-1455.581446
2990.712366,-1480.411884,-8142.265362,-1378.971896
2990.712693,666.185348,-9696.697840,-2298.286494
2990.713021,888.247130,-9548.656652,-1532.190996
2990.713348,296.082377,-9400.615463,-689.485948
2990.713676,1036.288319,-10066.800811,-766.095498
2990.714003,1702.473667,-10955.047942,-1149.143247
2990.714331,-518.144159,-9548.656652,-1149.143247
2990.714658,-1850.514855,-9400.615463,689.485948
2990.714986,-444.123565,-10288.862594,76.609550
2990.715313,2368.659014,-10510.924376,-229.828649
2990.715641,1776.494261,-9474.636058,-842.705048
2990.715968,1184.329507,-8216.285956,1685.410096
2990.716296,2220.617826,-9770.718434,1991.848295
2990.716624,1702.473667,-11399.171507,1225.752797
2990.716951,-370.102971,-9918.759623,-459.657299
2990.717279,-222.061783,-7920.203579,-995.924147
2990.717606,2072.576638,-8956.491898,-2451.505594
2990.717934,2220.617826,-10584.944971,-842.705048
2990.718261,222.061783,-10362.883188,306.438199
2990.718589,518.144159,-9992.780217,459.657299
2990.718916,814.226536,-10214.842000,-766.095498
2990.719244,-222.061783,-9104.533087,-766.095498
2990.719571,-1702.473667,-7179.997637,-536.266849
2990.719899,222.061783,-8216.285956,1608.800546
2990.720226,3256.906145,-9326.594869,1225.752797
2990.720554,2294.638420,-9104.533087,1838.629195
2990.720881,888.247130,-7920.203579,2451.505594
2990.721209,2072.576638,-9178.553681,1378.971896
2990.721536,740.205942,-11103.089130,-306.438199
2990.721864,-2072.576638,-11473.192101,-1838.629195
2990.722191,-3034.844362,-10288.862594,-2451.505594
2990.722519,-962.267725,-10732.986159,-3140.991542
2990.722847,1258.350101,-11991.336260,-3064.381992
2990.723174,1480.411884,-10732.986159,-1762.019645
2990.723502,296.082377,-10807.006753,1455.581446
2990.723829,592.164754,-10807.006753,1685.410096
2990.724157,0.000000,-8808.450710,76.609550
2990.724484,-2442.679609,-6587.832884,-995.924147
2990.724812,-2516.700203,-6661.853478,766.095498
2990.725139,74.020594,-8142.265362,0.000000
2990.725467,1628.453072,-9400.615463,0.000000
2990.725794,1110.308913,-8956.491898,766.095498
2990.726122,1406.391290,-10584.944971,1072.533697
2990.726449,1406.391290,-12953.603985,-536.266849
2990.726777,148.041188,-13323.706956,-2374.896044
2990.727104,-962.267725,-11029.068536,-2757.943793
2990.727432,222.061783,-10955.047942,-2221.676944
2990.727759,1110.308913,-11843.295072,-459.657299
2990.728087,74.020594,-8660.409521,1149.143247
2990.728415,-1258.350101,-7328.038826,2681.334243
2990.728742,-1480.411884,-7846.182985,2451.505594
2990.729070,-2072.576638,-6957.935855,76.609550
2990.729397,-3256.906145,-5773.606348,-1149.143247
2990.729725,-3108.864956,-5329.482782,-612.876398
2990.730052,962.267725,-8734.430116,-459.657299
2990.730380,3923.091493,-12139.377449,229.828649
2990.730707,3923.091493,-11029.068536,1455.581446
2990.731035,4663.297435,-10881.027347,1608.800546
2990.731362,4885.359217,-14285.974681,0.000000
2990.731690,2442.679609,-13989.892304,-842.705048
2990.732017,-296.082377,-10436.903782,-2221.676944
2990.732345,-1258.350101,-9622.677246,-1455.581446
2990.732672,0.000000,-10214.842000,0.000000
2990.733000,-296.082377,-7846.182985,1455.581446
2990.733327,-2738.761985,-4737.318029,919.314598
2990.733655,-3627.009116,-6957.935855,-306.438199
2990.733983,-3330.926739,-9992.780217,-1302.362347
2990.734310,-2664.741391,-7994.224174,-2298.286494
2990.734638,-962.267725,-6513.812290,-689.485948
2990.734965,2886.803174,-9918.759623,1532.190996
2990.735293,4959.379811,-13027.624579,2221.676944
2990.735620,5255.462188,-13101.645173,919.314598
2990.735948,3552.988522,-11325.150913,0.000000
2990.736275,2738.761985,-11547.212695,-1225.752797
2990.736603,370.102971,-12361.439231,-2068.457845
2990.736930,-3627.009116,-9770.718434,-1072.533697
2990.737258,-3552.988522,-8438.347739,-1225.752797
2990.737585,0.000000,-10214.842000,-1302.362347
2990.737913,518.144159,-9770.718434,612.876398
2990.738241,-740.205942,-6587.832884,1991.848295
2990.738568,0.000000,-5995.668130,1762.019645
2990.738896,148.041188,-8660.409521,383.047749
2990.739223,222.061783,-9400.615463,-1302.362347
2990.739551,-370.102971,-7328.038826,-766.095498
2990.739879,592.164754,-7402.059420,842.705048
2990.740206,3627.009116,-10732.986159,536.266849
2990.740534,3330.926739,-14063.912898,-229.828649
2990.740862,296.082377,-13471.748144,-919.314598
2990.741189,0.000000,-11695.253884,-1915.238745
2990.741517,74.020594,-12139.377449,-2834.553343
2990.741844,-1850.514855,-10881.027347,-1838.629195
2990.742172,-2294.638420,-8290.306550,0.000000
2990.742500,-962.267725,-7105.977043,766.095498
2990.742827,740.205942,-7772.162391,1149.143247
2990.743155,74.020594,-7105.977043,1991.848295
2990.743482,0.000000,-6957.935855,2298.286494
2990.743810,296.082377,-7994.224174,1225.752797
2990.744138,888.247130,-9770.718434,-995.924147
2990.744465,-592.164754,-10732.986159,-2221.676944
2990.744793,0.000000,-10214.842000,-1532.190996
2990.745121,2960.823768,-12065.356855,-919.314598
2990.745448,3552.988522,-12805.562797,-1149.143247
2990.745776,1110.308913,-11917.315666,536.266849
2990.746103,0.000000,-11547.212695,1149.143247
2990.746431,222.061783,-10658.965565,153.219100
2990.746759,-962.267725,-8512.368333,-766.095498
2990.747086,-2368.659014,-6513.812290,-229.828649
2990.747414,-962.267725,-7031.956449,689.485948
2990.747741,518.144159,-8142.265362,1225.752797
2990.748069,962.267725,-8438.347739,612.876398
2990.748397,370.102971,-7698.141797,689.485948
2990.748724,814.226536,-9622.677246,0.000000
2990.749052,1554.432478,-12657.521608,-919.314598
2990.749380,-296.082377,-11029.068536,-1378.971896
2990.749707,-1258.350101,-9548.656652,-1378.971896
2990.750035,1850.514855,-11695.253884,-1455.581446
2990.750362,2146.597232,-11547.212695,-536.266849
2990.750690,370.102971,-9474.636058,1378.971896
2990.751018,-592.164754,-9252.574275,2451.505594
2990.751345,888.247130,-9252.574275,995.924147
2990.751673,222.061783,-8438.347739,-1378.971896
2990.752000,-1258.350101,-8290.306550,-1072.533697
2990.752328,-518.144159,-7846.182985,919.314598
2990.752656,2146.597232,-9252.574275,536.266849
2990.752983,1628.453072,-10584.944971,76.609550
2990.753311,-222.061783,-9696.697840,306.438199
2990.753639,-370.102971,-9992.780217,-459.657299
2990.753966,814.226536,-11029.068536,-1378.971896
2990.754294,-962.267725,-11029.068536,-2987.772442
2990.754621,-2590.720797,-10140.821405,-1072.533697
2990.754949,-1332.370696,-9622.677246,0.000000
2990.755277,1110.308913,-9770.718434,-612.876398
2990.755604,1332.370696,-9770.718434,-153.219100
2990.755932,148.041188,-8808.450710,1072.533697
2990.756259,1628.453072,-9622.677246,842.705048
2990.756587,740.205942,-9252.574275,-612.876398
2990.756915,-814.226536,-9030.512492,-383.047749
2990.757242,-148.041188,-9030.512492,383.047749
2990.757570,1702.473667,-10436.903782,306.438199
2990.757897,2220.617826,-11103.089130,-536.266849
2990.758225,1480.411884,-9548.656652,-383.047749
2990.758553,518.144159,-8956.491898,995.924147
2990.758880,-370.102971,-9844.739029,536.266849
2990.759208,-370.102971,-10066.800811,-1302.362347
2990.759536,-2664.741391,-8438.347739,-1225.752797
2990.759863,-2072.576638,-7550.100608,-383.047749
2990.760191,0.000000,-9548.656652,0.000000
2990.760518,666.185348,-9992.780217,306.438199
2990.760846,296.082377,-8142.265362,1685.410096
2990.761174,2294.638420,-9252.574275,536.266849
2990.761501,2368.659014,-10955.047942,-306.438199
2990.761829,1110.308913,-10140.821405,-383.047749
2990.762156,148.041188,-8956.491898,-612.876398
2990.762484,1998.556043,-10881.027347,-689.485948
2990.762812,4145.153275,-13101.645173,-1072.533697
2990.763139,3478.967927,-10807.006753,-383.047749
2990.763467,962.267725,-8956.491898,1455.581446
2990.763795,1406.391290,-10584.944971,919.314598
2990.764122,444.123565,-10584.944971,-919.314598
2990.764450,-3997.112087,-6735.874072,-842.705048
2990.764777,-5181.441594,-6069.688724,-919.314598
2990.765105,-1850.514855,-8068.244768,-1072.533697
2990.765433,296.082377,-9844.739029,-766.095498
2990.765760,0.000000,-9918.759623,1378.971896
2990.766088,1480.411884,-10584.944971,1838.629195
2990.766415,4071.132681,-12139.377449,-995.924147
2990.766743,2590.720797,-12805.562797,-2987.772442
2990.767071,-592.164754,-11103.089130,-2757.943793
2990.767398,-962.267725,-10584.944971,-1685.410096
2990.767726,1850.514855,-10807.006753,-612.876398
2990.768054,2146.597232,-8734.430116,-536.266849
2990.768381,-370.102971,-7550.100608,1685.410096
2990.768709,-296.082377,-8956.491898,3217.601092
2990.769036,666.185348,-9622.677246,2068.457845
2990.769364,-1184.329507,-7179.997637,-306.438199
2990.769692,-2664.741391,-5107.421000,-459.657299
2990.770019,-1406.391290,-7105.977043,-306.438199
2990.770347,0.000000,-9474.636058,306.438199
2990.770674,-296.082377,-10510.924376,0.000000
2990.771002,1332.370696,-10881.027347,-459.657299
2990.771330,3478.967927,-12657.521608,-1762.019645
2990.771657,2220.617826,-14434.015869,-2298.286494
2990.771985,-1332.370696,-12139.377449,-1838.629195
2990.772312,-2294.638420,-9252.574275,-766.095498
2990.772640,148.041188,-9622.677246,-1532.190996
2990.772968,592.164754,-8512.368333,-842.705048
2990.773295,-1184.329507,-5551.544565,919.314598
2990.773623,-1332.370696,-6217.729913,2834.553343
2990.773951,-222.061783,-9400.615463,2145.067394
2990.774278,-1554.432478,-8956.491898,0.000000
2990.774606,-2368.659014,-6217.729913,-689.485948
2990.774933,0.000000,-8142.265362,-1302.362347
2990.775261,1776.494261,-12287.418637,-1378.971896
2990.775589,2220.617826,-13989.892304,-689.485948
2990.775916,2220.617826,-11917.315666,-306.438199
2990.776244,3775.050304,-11769.274478,-1455.581446
2990.776571,2590.720797,-14137.933492,-1762.019645
2990.776899,-1924.535449,-12139.377449,-536.266849
2990.777227,-3552.988522,-8586.388927,-842.705048
2990.777554,-1110.308913,-8660.409521,-1685.410096
2990.777882,0.000000,-8364.327145,-2068.457845
2990.778210,-2220.617826,-5625.565159,306.438199
2990.778537,-1702.473667,-5995.668130,2911.162892
2990.778865,592.164754,-9474.636058,2451.505594
2990.779192,1554.432478,-10066.800811,-459.657299
2990.779520,444.123565,-7550.100608,-383.047749
2990.779848,1776.494261,-8290.306550,459.657299
2990.780175,3701.029710,-11399.171507,536.266849
2990.780503,3923.091493,-14285.974681,76.609550
2990.780830,1924.535449,-12953.603985,383.047749
2990.781158,1924.535449,-11325.150913,-459.657299
2990.781486,2294.638420,-11547.212695,-1762.019645
2990.781813,-1184.329507,-9992.780217,-842.705048
2990.782141,-3701.029710,-7476.080014,0.000000
2990.782469,-1702.473667,-7179.997637,0.000000
2990.782796,592.164754,-6587.832884,-689.485948
2990.783124,1406.391290,-5773.606348,766.095498
2990.783451,296.082377,-6143.709319,3983.696590
2990.783779,1702.473667,-8216.285956,4290.134789
2990.784107,1110.308913,-10140.821405,919.314598
2990.784434,-1332.370696,-9844.739029,-1838.629195
2990.784762,-666.185348,-9474.636058,-2068.457845
2990.785089,2294.638420,-11843.295072,-1608.800546
2990.785417,2072.576638,-14434.015869,-689.485948
2990.785745,74.020594,-14211.954086,0.000000
2990.786072,518.144159,-11695.253884,-766.095498
2990.786400,1480.411884,-10955.047942,-2298.286494
2990.786728,-1258.350101,-10214.842000,-919.314598
2990.787055,-4071.132681,-7105.977043,919.314598
2990.787383,-2664.741391,-5995.668130,919.314598
2990.787710,740.205942,-7402.059420,-459.657299
2990.788038,1406.391290,-7772.162391,-229.828649
2990.788366,0.000000,-7476.080014,1685.410096
2990.788693,1258.350101,-10140.821405,995.924147
2990.789021,2368.659014,-11769.274478,-612.876398
2990.789348,0.000000,-11103.089130,-3217.601092
2990.789676,-1110.308913,-10214.842000,-2528.115143
2990.790004,888.247130,-11769.274478,-1608.800546
2990.790331,2220.617826,-13545.768739,-383.047749
2990.790659,1036.288319,-12065.356855,0.000000
2990.790986,-296.082377,-9030.512492,1762.019645
2990.791314,-444.123565,-9326.594869,766.095498
2990.791642,-1258.350101,-9770.718434,-306.438199
2990.791969,-3404.947333,-7179.997637,-766.095498
2990.792297,-2368.659014,-5847.626942,-536.266849
2990.792625,592.164754,-7698.141797,-1072.533697
2990.792952,2294.638420,-8216.285956,-612.876398
2990.793280,1258.350101,-7920.203579,2145.067394
2990.793607,814.226536,-9030.512492,2374.896044
2990.793935,3478.967927,-12657.521608,229.828649
2990.794263,3701.029710,-11991.336260,-1915.238745
2990.794590,1480.411884,-9400.615463,-842.705048
2990.794918,1480.411884,-10584.944971,1149.143247
2990.795245,2442.679609,-11547.212695,766.095498
2990.795573,1036.288319,-12287.418637,76.609550
2990.795901,-1924.535449,-9178.553681,0.000000
2990.796228,-1480.411884,-8216.285956,-1302.362347
2990.796556,-814.226536,-9104.533087,-2068.457845
2990.796884,-2368.659014,-9770.718434,-766.095498
2990.797211,-2738.761985,-7846.182985,229.828649
2990.797539,222.061783,-9252.574275,-536.266849
2990.797866,2590.720797,-9252.574275,-1302.362347
2990.798194,1332.370696,-9178.553681,-383.047749
2990.798522,296.082377,-9178.553681,1072.533697
2990.798849,2368.659014,-12139.377449,842.705048
2990.799177,2368.659014,-11769.274478,-842.705048
2990.799504,0.000000,-9104.533087,-919.314598
2990.799832,-518.144159,-9696.697840,766.095498
2990.800160,1184.329507,-11399.171507,1149.143247
2990.800487,518.144159,-10732.986159,-536.266849
2990.800815,-1850.514855,-8512.368333,-766.095498
2990.801143,-888.247130,-7402.059420,-995.924147
2990.801470,814.226536,-9474.636058,-842.705048
2990.801798,-296.082377,-11251.130318,1072.533697
2990.802125,-1924.535449,-9770.718434,1915.238745
2990.802453,666.185348,-9252.574275,-842.705048
2990.802781,2072.576638,-9474.636058,-2911.162892
2990.803108,370.102971,-9548.656652,-2068.457845
2990.803436,-1480.411884,-9104.533087,153.219100
2990.803763,-518.144159,-10807.006753,1532.190996
2990.804091,222.061783,-10066.800811,153.219100
2990.804419,-592.164754,-6735.874072,-2221.676944
2990.804746,-1702.473667,-7402.059420,0.000000
2990.805074,-370.102971,-10436.903782,1532.190996
2990.805401,1480.411884,-11251.130318,995.924147
2990.805729,814.226536,-8586.388927,0.000000
2990.806057,814.226536,-7846.182985,-229.828649
2990.806384,1406.391290,-10436.903782,-229.828649
2990.806712,370.102971,-12361.439231,229.828649
2990.807040,-814.226536,-10807.006753,76.609550
2990.807367,296.082377,-9992.780217,-2451.505594
2990.807695,2072.576638,-11473.192101,-2834.553343
2990.808022,1110.308913,-10436.903782,-1225.752797
2990.808350,-1184.329507,-8586.388927,612.876398
2990.808678,-814.226536,-9918.759623,1302.362347
2990.809005,296.082377,-10140.821405,-459.657299
2990.809333,-592.164754,-7031.956449,-919.314598
2990.809660,-1776.494261,-5699.585753,766.095498
2990.809988,74.020594,-8808.450710,1915.238745
2990.810316,1702.473667,-11399.171507,1915.238745
2990.810643,1480.411884,-10436.903782,76.609550
2990.810971,1036.288319,-9252.574275,-995.924147
2990.811299,2368.659014,-10436.903782,-1455.581446
2990.811626,1110.308913,-12361.439231,-842.705048
2990.811954,-888.247130,-13767.830521,-995.924147
2990.812281,-148.041188,-11769.274478,-1685.410096
2990.812609,1998.556043,-10362.883188,-2451.505594
2990.812937,1480.411884,-9474.636058,-612.876398
2990.813264,-1184.329507,-6957.935855,1608.800546
2990.813592,-1110.308913,-6957.935855,2145.067394
2990.813919,296.082377,-7920.203579,919.314598
2990.814247,222.061783,-6439.791695,-229.828649
2990.814575,-1480.411884,-4737.318029,306.438199
2990.814902,-222.061783,-7105.977043,2145.067394
2990.815230,1924.535449,-11695.253884,1762.019645
2990.815558,1776.494261,-13249.686362,-229.828649
2990.815885,1480.411884,-11769.274478,-1991.848295
2990.816213,2812.782580,-12361.439231,-2528.115143
2990.816540,2146.597232,-14211.954086,-1685.410096
2990.816868,-1110.308913,-13915.871710,76.609550
2990.817196,-2516.700203,-10214.842000,-383.047749
2990.817523,-222.061783,-8956.491898,-1762.019645
2990.817851,222.061783,-8142.265362,-1685.410096
2990.818178,-1924.535449,-5699.585753,919.314598
2990.818506,-2738.761985,-4515.256246,2374.896044
2990.818834,-296.082377,-7846.182985,1302.362347
2990.819161,1554.432478,-9252.574275,-766.095498
2990.819489,740.205942,-7994.224174,-995.924147
2990.819817,666.185348,-8882.471304,842.705048
2990.820144,3404.947333,-12879.583391,995.924147
2990.820472,4885.359217,-14582.057057,-995.924147
2990.820799,2886.803174,-12731.542202,-995.924147
2990.821127,2590.720797,-11251.130318,-612.876398
2990.821455,1776.494261,-12139.377449,-383.047749
2990.821782,-1036.288319,-12657.521608,76.609550
2990.822110,-4515.256246,-8956.491898,0.000000
2990.822437,-3923.091493,-6587.832884,-1072.533697
2990.822765,-2368.659014,-7031.956449,-1608.800546
2990.823093,-2516.700203,-6439.791695,-689.485948
2990.823420,-2886.803174,-6587.832884,1685.410096
2990.823748,148.041188,-7846.182985,1685.410096
2990.824075,2590.720797,-8734.430116,76.609550
2990.824403,1924.535449,-8808.450710,-383.047749
2990.824731,888.247130,-8512.368333,842.705048
2990.825058,3256.906145,-11029.068536,995.924147
2990.825386,6143.709319,-14063.912898,-919.314598
2990.825714,4441.235652,-12879.583391,0.000000
2990.826041,2664.741391,-11843.295072,689.485948
2990.826369,1776.494261,-12213.398043,229.828649
2990.826696,-1554.432478,-11695.253884,-1378.971896
2990.827024,-5699.585753,-9178.553681,-2604.724693
2990.827352,-5329.482782,-7698.141797,-2528.115143
2990.827679,-2368.659014,-7624.121203,-2221.676944
2990.828007,-296.082377,-7550.100608,0.000000
2990.828334,-740.205942,-6513.812290,1991.848295
2990.828662,666.185348,-7179.997637,1762.019645
2990.828990,2590.720797,-10214.842000,0.000000
2990.829317,2146.597232,-9548.656652,-1685.410096
2990.829645,0.000000,-8734.430116,-1378.971896
2990.829973,1332.370696,-11769.274478,153.219100
2990.830300,2738.761985,-13989.892304,-995.924147
2990.830628,2812.782580,-13249.686362,-689.485948
2990.830955,1850.514855,-11843.295072,0.000000
2990.831283,1406.391290,-11991.336260,919.314598
2990.831611,74.020594,-11843.295072,-153.219100
2990.831938,-2442.679609,-8808.450710,-1302.362347
2990.832266,-4441.235652,-5625.565159,-766.095498
2990.832593,-1554.432478,-5773.606348,-383.047749
2990.832921,888.247130,-7402.059420,919.314598
2990.833249,-518.144159,-7476.080014,3140.991542
2990.833576,0.000000,-7994.224174,2528.115143
2990.833904,2220.617826,-11621.233289,-689.485948
2990.834232,1998.556043,-11991.336260,-2757.943793
2990.834559,-592.164754,-9326.594869,-1991.848295
2990.834887,0.000000,-9252.574275,-153.219100
2990.835214,1702.473667,-12361.439231,919.314598
2990.835542,1554.432478,-11695.253884,612.876398
2990.835870,814.226536,-8586.388927,612.876398
2990.836197,444.123565,-8364.327145,1532.190996
2990.836525,0.000000,-10288.862594,1149.143247
2990.836852,-1480.411884,-9918.759623,0.000000
2990.837180,-3256.906145,-6291.750507,-995.924147
2990.837508,-1406.391290,-7920.203579,-1532.190996
2990.837835,1924.535449,-9548.656652,-1608.800546
2990.838163,1480.411884,-8734.430116,-383.047749
2990.838491,592.164754,-10140.821405,1455.581446
2990.838818,2368.659014,-11769.274478,919.314598
2990.839146,1998.556043,-11843.295072,-2145.067394
2990.839473,-222.061783,-9992.780217,-2068.457845
2990.839801,-1406.391290,-8660.409521,-689.485948
2990.840128,222.061783,-11029.068536,612.876398
2990.840456,1554.432478,-11103.089130,536.266849
2990.840784,518.144159,-8364.327145,-229.828649
2990.841111,592.164754,-8956.491898,-612.876398
2990.841439,1110.308913,-10658.965565,76.609550
2990.841766,-518.144159,-11547.212695,-612.876398
2990.842094,-1850.514855,-9622.677246,-1149.143247
2990.842421,-592.164754,-8512.368333,-1685.410096
2990.842749,1850.514855,-10436.903782,-1762.019645
2990.843077,2294.638420,-10732.986159,-536.266849
2990.843404,518.144159,-9178.553681,1149.143247
2990.843732,962.267725,-10807.006753,1685.410096
2990.844059,1332.370696,-11177.109724,306.438199
2990.844387,-962.267725,-7846.182985,-1225.752797
2990.844714,-3108.864956,-6291.750507,0.000000
2990.845042,-1184.329507,-8882.471304,842.705048
2990.845370,1776.494261,-10066.800811,306.438199
2990.845697,2072.576638,-8364.327145,76.609550
2990.846025,888.247130,-8068.244768,2451.505594
2990.846352,1628.453072,-10436.903782,1915.238745
2990.846680,1332.370696,-12435.459826,0.000000
2990.847007,-740.205942,-9770.718434,-995.924147
2990.847335,-666.185348,-8882.471304,-1685.410096
2990.847663,1554.432478,-10732.986159,-995.924147
2990.847990,1036.288319,-11547.212695,1302.362347
2990.848318,-1184.329507,-9474.636058,919.314598
2990.848645,-1702.473667,-9844.739029,-536.266849
2990.848973,-1480.411884,-10288.862594,-1838.629195
2990.849300,-2590.720797,-7254.018232,-2298.286494
2990.849628,-3552.988522,-5773.606348,-1225.752797
2990.849956,-518.144159,-7476.080014,306.438199
2990.850283,3034.844362,-10584.944971,1608.800546
2990.850611,4441.235652,-11399.171507,1225.752797
2990.850938,4071.132681,-10658.965565,1532.190996
2990.851266,3627.009116,-11843.295072,229.828649
2990.851593,3108.864956,-13841.851115,-1225.752797
2990.851921,-370.102971,-11621.233289,-2221.676944
2990.852249,-1776.494261,-9622.677246,-2604.724693
2990.852576,740.205942,-10066.800811,-1608.800546
2990.852904,666.185348,-11103.089130,0.000000
2990.853231,-1628.453072,-9030.512492,919.314598
2990.853559,-2368.659014,-7402.059420,612.876398
2990.853886,-962.267725,-9548.656652,-383.047749
2990.854214,-1110.308913,-8512.368333,-1378.971896
2990.854542,-2516.700203,-4885.359217,-689.485948
2990.854869,-1184.329507,-5625.565159,1455.581446
2990.855197,3256.906145,-9326.594869,1608.800546
2990.855524,4589.276840,-11399.171507,1302.362347
2990.855852,2886.803174,-10288.862594,1378.971896
2990.856179,3182.885551,-11251.130318,153.219100
2990.856507,3701.029710,-13767.830521,-1225.752797
2990.856835,1406.391290,-13323.706956,-842.705048
2990.857162,-1184.329507,-10436.903782,-459.657299
2990.857490,0.000000,-8956.491898,-383.047749
2990.857817,370.102971,-9178.553681,-383.047749
2990.858145,-2220.617826,-7994.224174,612.876398
2990.858472,-4515.256246,-5773.606348,2145.067394
2990.858800,-2442.679609,-6217.729913,1225.752797
2990.859128,-1184.329507,-7476.080014,-383.047749
2990.859455,-2072.576638,-6143.709319,-919.314598
2990.859783,-592.164754,-7179.997637,-1762.019645
2990.860110,2664.741391,-10288.862594,0.000000
2990.860438,4589.276840,-13397.727550,-766.095498
2990.860765,2442.679609,-12953.603985,-459.657299
2990.861093,1924.535449,-12065.356855,-766.095498
2990.861421,1998.556043,-13397.727550,-1225.752797
2990.861748,518.144159,-13989.892304,-1149.143247
2990.862076,-1702.473667,-10436.903782,0.000000
2990.862403,-1258.350101,-9104.533087,0.000000
2990.862731,-666.185348,-9992.780217,-842.705048
2990.863058,-2590.720797,-8586.388927,153.219100
2990.863386,-3552.988522,-4737.318029,0.000000
2990.863714,-2368.659014,-6143.709319,-153.219100
2990.864041,-296.082377,-10066.800811,-612.876398
2990.864369,-666.185348,-9918.759623,-612.876398
2990.864696,-444.123565,-9252.574275,76.609550
2990.865024,1850.514855,-9474.636058,-612.876398
2990.865351,4663.297435,-13545.768739,-1762.019645
2990.865679,3330.926739,-13397.727550,-919.314598
2990.866007,814.226536,-10881.027347,459.657299
2990.866334,1406.391290,-10584.944971,229.828649
2990.866662,888.247130,-11769.274478,-842.705048
2990.866989,-2590.720797,-8068.244768,-459.657299
2990.867317,-2590.720797,-6661.853478,306.438199
2990.867644,-1332.370696,-7624.121203,1072.533697
2990.867972,-370.102971,-8734.430116,1072.533697
2990.868300,-888.247130,-6661.853478,459.657299
2990.868627,222.061783,-6143.709319,842.705048
2990.868955,1702.473667,-8734.430116,0.000000
2990.869282,2368.659014,-9844.739029,229.828649
2990.869610,444.123565,-8882.471304,459.657299
2990.869937,1776.494261,-10584.944971,306.438199
2990.870265,4441.235652,-13175.665768,-1225.752797
2990.870593,2516.700203,-12657.521608,-766.095498
2990.870920,-296.082377,-10214.842000,153.219100
2990.871248,296.082377,-10510.924376,-689.485948
2990.871575,666.185348,-11917.315666,-2451.505594
2990.871903,-1406.391290,-9474.636058,-1302.362347
2990.872230,-2738.761985,-7254.018232,0.000000
2990.872558,74.020594,-8586.388927,459.657299
2990.872886,1406.391290,-9474.636058,306.438199
2990.873213,814.226536,-7105.977043,0.000000
2990.873541,-592.164754,-6883.915261,1225.752797
2990.873868,1628.453072,-10807.006753,689.485948
2990.874196,2368.659014,-11473.192101,-383.047749
2990.874523,518.144159,-10807.006753,-1762.019645
2990.874851,222.061783,-11177.109724,-1149.143247
2990.875179,1776.494261,-12731.542202,-842.705048
2990.875506,1554.432478,-12139.377449,-1378.971896
2990.875834,296.082377,-10066.800811,-383.047749
2990.876161,-814.226536,-9252.574275,689.485948
2990.876489,888.247130,-10362.883188,0.000000
2990.876816,-740.205942,-8734.430116,153.219100
2990.877144,-2368.659014,-6439.791695,459.657299
2990.877472,-1554.432478,-7476.080014,842.705048
2990.877799,-296.082377,-9030.512492,229.828649
2990.878127,0.000000,-8364.327145,-1532.190996
2990.878454,-370.102971,-7105.977043,-766.095498
2990.878782,1036.288319,-9770.718434,0.000000
2990.879109,2368.659014,-13101.645173,306.438199
2990.879437,444.123565,-11547.212695,536.266849
2990.879765,-592.164754,-9178.553681,536.266849
2990.880092,370.102971,-11473.192101,0.000000
2990.880420,-592.164754,-10732.986159,-1072.533697
2990.880747,-2516.700203,-6809.894666,-1225.752797
2990.881075,-2368.659014,-6143.709319,-153.219100
2990.881403,0.000000,-9770.718434,0.000000
2990.881730,1110.308913,-10658.965565,0.000000
2990.882058,296.082377,-9030.512492,0.000000
2990.882385,740.205942,-8808.450710,-229.828649
2990.882713,2294.638420,-11103.089130,-1225.752797
2990.883040,1554.432478,-10510.924376,-536.266849
2990.883368,222.061783,-9252.574275,-229.828649
2990.883696,1184.329507,-10658.965565,459.657299
2990.884023,1924.535449,-11917.315666,612.876398
2990.884351,0.000000,-10214.842000,383.047749
2990.884678,-1554.432478,-8068.244768,153.219100
2990.885006,-1332.370696,-9104.533087,-536.266849
2990.885333,-962.267725,-9918.759623,-842.705048
2990.885661,-1332.370696,-8808.450710,-995.924147
2990.885989,-740.205942,-7846.182985,-1149.143247
2990.886316,1924.535449,-9696.697840,-612.876398
2990.886644,2442.679609,-11399.171507,-383.047749
2990.886971,1258.350101,-11029.068536,0.000000
2990.887299,1628.453072,-10584.944971,1225.752797
2990.887626,3256.906145,-10214.842000,-612.876398
2990.887954,3182.885551,-11103.089130,-995.924147
2990.888282,1036.288319,-9400.615463,306.438199
2990.888609,0.000000,-7920.203579,1532.190996
2990.888937,296.082377,-9178.553681,919.314598
2990.889264,-1776.494261,-9326.594869,229.828649
2990.889592,-3256.906145,-7254.018232,-306.438199
2990.889919,-2146.597232,-7772.162391,0.000000
2990.890247,518.144159,-9696.697840,-153.219100
2990.890575,888.247130,-10436.903782,-995.924147
2990.890902,370.102971,-9104.533087,-306.438199
2990.891230,2516.700203,-9178.553681,0.000000
2990.891557,3108.864956,-11695.253884,-459.657299
2990.891885,814.226536,-11843.295072,612.876398
2990.892212,-1258.350101,-9474.636058,0.000000
2990.892540,0.000000,-9474.636058,-1838.629195
2990.892868,1628.453072,-11843.295072,-1378.971896
2990.893195,518.144159,-10288.862594,459.657299
2990.893523,-1332.370696,-8660.409521,2145.067394
2990.893850,-1036.288319,-9992.780217,1455.581446
2990.894178,0.000000,-9252.574275,-1149.143247
2990.894505,-1480.411884,-7328.038826,-2298.286494
2990.894833,-2812.782580,-6365.771101,229.828649
2990.895161,296.082377,-8808.450710,842.705048
2990.895488,1924.535449,-10955.047942,229.828649
2990.895816,2220.617826,-11103.089130,306.438199
2990.896143,2368.659014,-10140.821405,536.266849
2990.896471,2886.803174,-11695.253884,-919.314598
2990.896798,296.082377,-12213.398043,-2068.457845
2990.897126,-2516.700203,-11695.253884,-2145.067394
2990.897454,-1184.329507,-9844.739029,-2374.896044
2990.897781,888.247130,-9622.677246,-1225.752797
2990.898109,222.061783,-8586.388927,1072.533697
2990.898436,-1702.473667,-7105.977043,3064.381992
2990.898764,-1628.453072,-7402.059420,3753.867940
2990.899091,-518.144159,-8290.306550,919.314598
2990.899419,-814.226536,-6365.771101,-2451.505594
2990.899747,-2072.576638,-6291.750507,-612.876398
2990.900074,148.041188,-9178.553681,229.828649
2990.900402,3182.885551,-11917.315666,0.000000
2990.900729,3256.906145,-11769.274478,-612.876398
2990.901057,2516.700203,-11547.212695,-689.485948
2990.901384,3182.885551,-13175.665768,-2604.724693
2990.901712,1628.453072,-13619.789333,-2068.457845
2990.902040,-1036.288319,-10807.006753,-1838.629195
2990.902367,-1702.473667,-8882.471304,-1378.971896
2990.902695,0.000000,-8956.491898,0.000000
2990.903022,370.102971,-7179.997637,1685.410096
2990.903350,-1036.288319,-5403.503377,2374.896044
2990.903677,-962.267725,-6809.894666,2374.896044
2990.904005,-518.144159,-9622.677246,766.095498
2990.904333,-444.123565,-8734.430116,-1378.971896
2990.904660,-814.226536,-7031.956449,-1532.190996
2990.904988,296.082377,-9474.636058,-842.705048
2990.905315,3775.050304,-13915.871710,-536.266849
2990.905643,4811.338623,-15174.221811,-919.314598
2990.905970,3923.091493,-13323.706956,-842.705048
2990.906298,2960.823768,-11547.212695,0.000000
2990.906626,1480.411884,-11621.233289,-306.438199
2990.906953,-1924.535449,-9326.594869,76.609550
2990.907281,-2960.823768,-6957.935855,0.000000
2990.907608,-666.185348,-6735.874072,-229.828649
2990.907936,444.123565,-7550.100608,612.876398
2990.908263,-1406.391290,-5995.668130,1455.581446
2990.908591,-888.247130,-6957.935855,2145.067394
2990.908919,0.000000,-9104.533087,919.314598
2990.909246,-296.082377,-9770.718434,0.000000
2990.909574,-1036.288319,-8364.327145,-919.314598
2990.909901,222.061783,-10140.821405,-842.705048
2990.910229,3775.050304,-13767.830521,-1378.971896
2990.910556,4737.318029,-14211.954086,-536.266849
2990.910884,2146.597232,-11769.274478,689.485948
2990.911212,0.000000,-10362.883188,995.924147
2990.911539,-962.267725,-10732.986159,-383.047749
2990.911867,-3034.844362,-9474.636058,-2298.286494
2990.912194,-4737.318029,-7550.100608,-2451.505594
2990.912522,-2516.700203,-6587.832884,-2145.067394
2990.912849,222.061783,-7031.956449,-842.705048
2990.913177,296.082377,-6069.688724,766.095498
2990.913505,74.020594,-7550.100608,2298.286494
2990.913832,1702.473667,-10140.821405,2374.896044
2990.914160,3108.864956,-11769.274478,0.000000
2990.914487,2368.659014,-10584.944971,-1608.800546
2990.914815,1628.453072,-10288.862594,-995.924147
2990.915142,2146.597232,-11917.315666,919.314598
2990.915470,2516.700203,-13323.706956,689.485948
2990.915798,222.061783,-10955.047942,-536.266849
2990.916125,-1184.329507,-9178.553681,-919.314598
2990.916453,-1554.432478,-10288.862594,-1149.143247
2990.916780,-2220.617826,-10436.903782,-1608.800546
2990.917108,-2960.823768,-8290.306550,-1838.629195
2990.917435,-962.267725,-7402.059420,-1225.752797
2990.917763,962.267725,-8142.265362,0.000000
2990.918091,2368.659014,-8586.388927,383.047749
2990.918418,2072.576638,-8142.265362,1072.533697
2990.918746,1850.514855,-9548.656652,1915.238745
2990.919073,1924.535449,-10955.047942,-306.438199
2990.919401,1258.350101,-10510.924376,-995.924147
2990.919728,296.082377,-9770.718434,-459.657299
2990.920056,1332.370696,-10732.986159,766.095498
2990.920384,2146.597232,-11843.295072,1302.362347
2990.920711,666.185348,-10066.800811,153.219100
2990.921039,-1258.350101,-8808.450710,0.000000
2990.921366,-1702.473667,-10214.842000,-536.266849
2990.921694,-962.267725,-10066.800811,-766.095498
2990.922021,-740.205942,-8290.306550,-612.876398
2990.922349,148.041188,-8586.388927,689.485948
2990.922677,1258.350101,-8882.471304,229.828649
2990.923004,2146.597232,-9030.512492,-536.266849
2990.923332,74.020594,-9030.512492,-459.657299
2990.923659,-1850.514855,-8956.491898,-459.657299
2990.923987,0.000000,-11029.068536,-1608.800546
2990.924314,296.082377,-10362.883188,-2068.457845
2990.924642,-518.144159,-9030.512492,76.609550
2990.924970,592.164754,-11547.212695,2298.286494
2990.925297,1924.535449,-12287.418637,2757.943793
2990.925625,1998.556043,-10510.924376,689.485948
2990.925952,740.205942,-8512.368333,-1378.971896
2990.926280,-592.164754,-9178.553681,-1915.238745
2990.926607,-962.267725,-9474.636058,-1072.533697
2990.926935,-888.247130,-9696.697840,-1455.581446
2990.927263,-814.226536,-8956.491898,-1225.752797
2990.927590,592.164754,-10807.006753,-1302.362347
2990.927918,2072.576638,-11399.171507,-919.314598
2990.928245,518.144159,-9918.759623,-536.266849
2990.928573,-1258.350101,-8882.471304,-1072.533697
2990.928900,-740.205942,-10510.924376,-1378.971896
2990.929228,-592.164754,-9030.512492,229.828649
2990.929556,-1332.370696,-6069.688724,1225.752797
2990.929883,-1332.370696,-6883.915261,2451.505594
2990.930211,0.000000,-10214.842000,2604.724693
2990.930538,1036.288319,-11251.130318,1149.143247
2990.930866,814.226536,-8364.327145,-919.314598
2990.931193,666.185348,-7254.018232,-1685.410096
2990.931521,1110.308913,-12213.398043,-766.095498
2990.931849,740.205942,-12805.562797,-842.705048
2990.932176,518.144159,-10288.862594,-1302.362347
2990.932504,2146.597232,-9474.636058,-1838.629195
2990.932831,2590.720797,-10140.821405,-536.266849
2990.933159,740.205942,-8956.491898,1532.190996
2990.933486,-518.144159,-7772.162391,1915.238745
2990.933814,-1258.350101,-7772.162391,1302.362347
2990.934142,-1110.308913,-9104.533087,-459.657299
2990.934469,-2072.576638,-6587.832884,-383.047749
2990.934797,-1776.494261,-6809.894666,612.876398
2990.935124,814.226536,-10658.965565,1149.143247
2990.935452,1998.556043,-12657.521608,306.438199
2990.935779,2368.659014,-11843.295072,0.000000
2990.936107,2886.803174,-11029.068536,-842.705048
2990.936435,3108.864956,-12213.398043,-1455.581446
2990.936762,1332.370696,-13397.727550,-1072.533697
2990.937090,-444.123565,-12139.377449,-842.705048
2990.937418,74.020594,-9622.677246,-1915.238745
2990.937745,1554.432478,-9104.533087,-2298.286494
2990.938073,0.000000,-7772.162391,459.657299
2990.938401,-1998.556043,-6513.812290,1838.629195
2990.938728,-1850.514855,-8068.244768,1838.629195
2990.939056,-1184.329507,-8364.327145,536.266849
2990.939384,-370.102971,-6735.874072,-1225.752797
2990.939712,-740.205942,-6513.812290,0.000000
2990.940039,-296.082377,-10066.800811,2987.772442
2990.940367,740.205942,-12065.356855,1915.238745
2990.940695,1850.514855,-11769.274478,-995.924147
2990.941023,1406.391290,-11621.233289,-2604.724693
2990.941350,1924.535449,-12213.398043,-2528.115143
2990.941678,1480.411884,-13767.830521,-1532.190996
2990.942006,0.000000,-12361.439231,0.000000
2990.942333,-296.082377,-8512.368333,-306.438199
2990.942661,222.061783,-8586.388927,-306.438199
2990.942989,-1776.494261,-7179.997637,766.095498
2990.943317,-2886.803174,-5255.462188,1149.143247
2990.943644,-2960.823768,-5403.503377,306.438199
2990.943972,-1924.535449,-7698.141797,0.000000
2990.944300,-740.205942,-7698.141797,-306.438199
2990.944628,296.082377,-7550.100608,229.828649
2990.944955,1776.494261,-9474.636058,2068.457845
2990.945283,3775.050304,-13545.768739,0.000000
2990.945611,4219.173869,-14359.995275,-1378.971896
2990.945939,2442.679609,-12805.562797,-2068.457845
2990.946266,2664.741391,-11621.233289,-2145.067394
2990.946594,1776.494261,-13027.624579,-689.485948
2990.946922,-962.267725,-12213.398043,459.657299
2990.947249,-1332.370696,-8956.491898,0.000000
2990.947577,-1184.329507,-7179.997637,-612.876398
2990.947905,-1184.329507,-7846.182985,-383.047749
2990.948233,-2664.741391,-6439.791695,229.828649
2990.948560,-2442.679609,-5255.462188,153.219100
2990.948888,-962.267725,-7105.977043,-229.828649
2990.949216,1036.288319,-9252.574275,-612.876398
2990.949544,1332.370696,-8808.450710,229.828649
2990.949871,2294.638420,-10807.006753,1149.143247
2990.950199,3627.009116,-13175.665768,842.705048
2990.950527,4885.359217,-14878.139434,-1225.752797
2990.950854,3330.926739,-11991.336260,-995.924147
2990.951182,2072.576638,-10362.883188,0.000000
2990.951510,296.082377,-11473.192101,919.314598
2990.951838,-1480.411884,-9622.677246,766.095498
2990.952165,-2812.782580,-6883.915261,-306.438199
2990.952493,-3552.988522,-7105.977043,-919.314598
2990.952821,-2368.659014,-7846.182985,-306.438199
2990.953149,-1036.288319,-6809.894666,0.000000
2990.953476,0.000000,-7105.977043,459.657299
2990.953804,1036.288319,-9252.574275,0.000000
2990.954132,2664.741391,-10807.006753,-536.266849
2990.954460,2442.679609,-8290.306550,-689.485948
2990.954787,1258.350101,-8956.491898,0.000000
2990.955115,1332.370696,-12065.356855,536.266849
2990.955443,1702.473667,-12953.603985,-383.047749
2990.955770,814.226536,-10881.027347,-995.924147
2990.956098,666.185348,-10214.842000,-1225.752797
2990.956426,-222.061783,-12583.501014,0.000000
2990.956754,-1406.391290,-11843.295072,0.000000
2990.957081,-2294.638420,-7994.224174,-1455.581446
2990.957409,-1554.432478,-7402.059420,-2528.115143
2990.957737,-666.185348,-8882.471304,-1302.362347
2990.958065,296.082377,-8512.368333,153.219100
2990.958392,740.205942,-6957.935855,1762.019645
2990.958720,1554.432478,-8586.388927,383.047749
2990.959048,2072.576638,-11103.089130,-383.047749
2990.959375,444.123565,-10807.006753,-995.924147
2990.959703,-1554.432478,-9030.512492,-612.876398
2990.960031,0.000000,-10658.965565,-1072.533697
2990.960359,1258.350101,-11917.315666,-1302.362347
2990.960686,740.205942,-10362.883188,-689.485948
2990.961014,-296.082377,-9326.594869,1302.362347
2990.961342,-296.082377,-10658.965565,1685.410096
2990.961670,-740.205942,-11103.089130,1149.143247
2990.961997,-1480.411884,-8882.471304,-689.485948
2990.962325,-1554.432478,-6587.832884,-919.314598
2990.962653,962.267725,-8512.368333,-689.485948
2990.962980,2516.700203,-9844.739029,-229.828649
2990.963308,1480.411884,-8512.368333,1455.581446
2990.963636,1184.329507,-8364.327145,0.000000
2990.963964,2146.597232,-10584.944971,-842.705048
2990.964291,222.061783,-10066.800811,-1378.971896
2990.964619,-1850.514855,-7846.182985,-1225.752797
2990.964947,-1332.370696,-9400.615463,153.219100
2990.965275,1110.308913,-11843.295072,306.438199
2990.965602,2368.659014,-10214.842000,229.828649
2990.965930,1480.411884,-8438.347739,1072.533697
2990.966258,1258.350101,-9844.739029,1685.410096
2990.966586,1628.453072,-11695.253884,459.657299
2990.966913,740.205942,-10955.047942,-766.095498
2990.967241,-666.185348,-8734.430116,-1378.971896
2990.967569,1110.308913,-9400.615463,-1838.629195
2990.967896,2146.597232,-11251.130318,-2528.115143
2990.968224,370.102971,-9918.759623,-766.095498
2990.968552,1036.288319,-9548.656652,-766.095498
2990.968880,1184.329507,-11769.274478,-995.924147
2990.969207,148.041188,-10436.903782,-459.657299
2990.969535,-1258.350101,-6735.874072,-229.828649
2990.969863,-2072.576638,-6365.771101,995.924147
2990.970191,-518.144159,-9474.636058,1915.238745
2990.970518,1480.411884,-9696.697840,1302.362347
2990.970846,1628.453072,-7846.182985,0.000000
2990.971174,1332.370696,-9548.656652,1072.533697
2990.971501,2294.638420,-12509.480420,306.438199
2990.971829,222.061783,-12657.521608,0.000000
2990.972157,-2294.638420,-9326.594869,-1072.533697
2990.972485,-1036.288319,-9770.718434,-3064.381992
2990.972812,0.000000,-11621.233289,-2987.772442
2990.973140,740.205942,-10436.903782,-2068.457845
2990.973468,444.123565,-8290.306550,459.657299
2990.973796,592.164754,-9548.656652,2374.896044
2990.974123,0.000000,-9474.636058,2604.724693
2990.974451,-1702.473667,-5699.585753,689.485948
2990.974779,-3182.885551,-4219.173869,-459.657299
2990.975107,-1924.535449,-7624.121203,76.609550
2990.975434,740.205942,-10140.821405,-536.266849
2990.975762,1184.329507,-9474.636058,-919.314598
2990.976090,888.247130,-9918.759623,612.876398
2990.976417,2072.576638,-12879.583391,0.000000
2990.976745,2220.617826,-14211.954086,-766.095498
2990.977073,888.247130,-12509.480420,-1532.190996
2990.977401,814.226536,-10584.944971,-2681.334243
2990.977728,1554.432478,-11103.089130,-2604.724693
2990.978056,740.205942,-10288.862594,0.000000
2990.978384,-444.123565,-7105.977043,1302.362347
2990.978712,-1554.432478,-7031.956449,1838.629195
2990.979039,-888.247130,-8216.285956,919.314598
2990.979367,-1776.494261,-7624.121203,-1762.019645
2990.979695,-2072.576638,-7105.977043,-842.705048
2990.980022,-148.041188,-9030.512492,-919.314598
2990.980350,2368.659014,-11177.109724,-383.047749
2990.980678,3404.947333,-11843.295072,-229.828649
2990.981006,2960.823768,-11769.274478,383.047749
2990.981333,3478.967927,-13323.706956,-153.219100
2990.981661,2960.823768,-13397.727550,-1149.143247
2990.981989,518.144159,-11547.212695,-1532.190996
2990.982317,0.000000,-9178.553681,-1072.533697
2990.982644,148.041188,-9548.656652,153.219100
2990.982972,-222.061783,-9030.512492,1455.581446
2990.983300,-1924.535449,-5625.565159,995.924147
2990.983628,-2294.638420,-4071.132681,229.828649
2990.983955,-2294.638420,-7105.977043,0.000000
2990.984283,-2220.617826,-9178.553681,306.438199
2990.984611,-592.164754,-7698.141797,229.828649
2990.984938,1702.473667,-9178.553681,1149.143247
2990.985266,4663.297435,-12287.418637,612.876398
2990.985594,4663.297435,-12583.501014,0.000000
2990.985922,2664.741391,-11621.233289,-306.438199
2990.986249,1406.391290,-10584.944971,-1072.533697
2990.986577,370.102971,-11843.295072,-2528.115143
2990.986905,-2368.659014,-10584.944971,-1991.848295
2990.987233,-3478.967927,-8290.306550,-1149.143247
2990.987560,-1110.308913,-9178.553681,-383.047749
2990.987888,0.000000,-10436.903782,766.095498
2990.988216,0.000000,-8956.491898,612.876398
2990.988543,-518.144159,-7105.977043,306.438199
2990.988871,148.041188,-7254.018232,76.609550
2990.989199,592.164754,-9030.512492,0.000000
2990.989527,740.205942,-9104.533087,-383.047749
2990.989854,666.185348,-8956.491898,459.657299
2990.990182,2294.638420,-11103.089130,-153.219100
2990.990510,2590.720797,-13323.706956,-1302.362347
2990.990838,666.185348,-13323.706956,-1149.143247
2990.991165,-148.041188,-11325.150913,-1532.190996
2990.991493,74.020594,-11621.233289,-2221.676944
2990.991821,-888.247130,-10807.006753,-1378.971896
2990.992149,-2072.576638,-8290.306550,0.000000
2990.992476,-1258.350101,-7254.018232,919.314598
2990.992804,0.000000,-8290.306550,1838.629195
2990.993132,-296.082377,-6809.894666,2145.067394
2990.993459,-370.102971,-5921.647536,919.314598
2990.993787,-1258.350101,-7254.018232,1302.362347
2990.994115,370.102971,-9696.697840,-383.047749
2990.994443,814.226536,-9548.656652,-995.924147
2990.994770,148.041188,-9844.739029,-766.095498
2990.995098,2294.638420,-11473.192101,-229.828649
2990.995426,3849.070898,-13397.727550,-919.314598
2990.995754,1258.350101,-11103.089130,-229.828649
2990.996081,0.000000,-9770.718434,76.609550
2990.996409,222.061783,-10140.821405,0.000000
2990.996737,-222.061783,-10214.842000,229.828649
2990.997064,-1258.350101,-7550.100608,306.438199
2990.997392,-1554.432478,-6957.935855,459.657299
2990.997720,148.041188,-8956.491898,-383.047749
2990.998048,370.102971,-9104.533087,-766.095498
2990.998375,148.041188,-7698.141797,-612.876398
2990.998703,518.144159,-8512.368333,-383.047749
2990.999031,1702.473667,-11769.274478,-766.095498
2990.999359,2072.576638,-12805.562797,-1532.190996
2990.999686,1480.411884,-11029.068536,-383.047749
2991.000014,1184.329507,-10066.800811,-459.657299
2991.000342,1110.308913,-11251.130318,766.095498
2991.000670,0.000000,-10584.944971,-459.657299
2991.000997,-296.082377,-8956.491898,0.000000
2991.001325,-740.205942,-8956.491898,76.609550
2991.001653,-444.123565,-10214.842000,0.000000
2991.001980,-1258.350101,-8956.491898,0.000000
2991.002308,-1776.494261,-7698.141797,229.828649
2991.002636,-1258.350101,-9548.656652,-689.485948
2991.002964,888.247130,-9770.718434,-536.266849
2991.003291,1184.329507,-7476.080014,-919.314598
2991.003619,518.144159,-8586.388927,459.657299
2991.003947,888.247130,-11843.295072,995.924147
2991.004275,0.000000,-11621.233289,0.000000
2991.004602,-888.247130,-8364.327145,-1149.143247
2991.004930,222.061783,-8216.285956,-1991.848295
2991.005258,666.185348,-10955.047942,-229.828649
2991.005585,1406.391290,-9992.780217,1302.362347
2991.005913,888.247130,-8216.285956,1149.143247
2991.006241,962.267725,-9844.739029,766.095498
2991.006569,1184.329507,-11325.150913,0.000000
2991.006896,0.000000,-9696.697840,-536.266849
2991.007224,-1628.453072,-7105.977043,-1302.362347
2991.007552,-518.144159,-8364.327145,-689.485948
2991.007880,1406.391290,-10881.027347,-766.095498
2991.008207,1184.329507,-9400.615463,-153.219100
2991.008535,1702.473667,-9770.718434,383.047749
2991.008863,2072.576638,-11843.295072,306.438199
2991.009191,888.247130,-11621.233289,-689.485948
2991.009518,-1332.370696,-8586.388927,-1302.362347
2991.009846,-1628.453072,-7179.997637,-842.705048
2991.010174,-444.123565,-8216.285956,0.000000
2991.010501,1036.288319,-10214.842000,919.314598
2991.010829,740.205942,-9252.574275,1302.362347
2991.011157,1628.453072,-9474.636058,995.924147
2991.011485,2220.617826,-12065.356855,0.000000
2991.011812,370.102971,-12213.398043,-842.705048
2991.012140,-1924.535449,-9548.656652,-1302.362347
2991.012468,0.000000,-9178.553681,-2451.505594
2991.012796,1480.411884,-11251.130318,-1838.629195
2991.013123,1554.432478,-11103.089130,0.000000
2991.013451,814.226536,-8882.471304,536.266849
2991.013779,1184.329507,-9844.739029,1302.362347
2991.014106,370.102971,-10732.986159,1149.143247
2991.014434,-1480.411884,-7328.038826,689.485948
2991.014762,-2886.803174,-5033.400406,766.095498
2991.015090,-1406.391290,-6439.791695,1608.800546
2991.015417,1110.308913,-8216.285956,1455.581446
2991.015745,1110.308913,-9104.533087,842.705048
2991.016073,-296.082377,-9918.759623,1225.752797
2991.016401,962.267725,-12879.583391,153.219100
2991.016728,1184.329507,-12583.501014,-2528.115143
2991.017056,-518.144159,-10955.047942,-3217.601092
2991.017384,-1110.308913,-10658.965565,-2528.115143
2991.017712,666.185348,-11473.192101,-1149.143247
2991.018039,1258.350101,-9400.615463,0.000000
2991.018367,296.082377,-8068.244768,842.705048
2991.018695,-518.144159,-7476.080014,612.876398
2991.019022,-1628.453072,-8586.388927,1149.143247
2991.019350,-1480.411884,-8068.244768,0.000000
2991.019678,-1850.514855,-7179.997637,-306.438199
2991.020006,-592.164754,-9178.553681,0.000000
2991.020333,2072.576638,-11991.336260,536.266849
2991.020661,2812.782580,-12879.583391,-612.876398
2991.020989,1850.514855,-11547.212695,-306.438199
2991.021317,3627.009116,-12731.542202,-3064.381992
2991.021644,2220.617826,-12509.480420,-2681.334243
2991.021972,-814.226536,-10881.027347,-1685.410096
2991.022300,-1998.556043,-9622.677246,-536.266849
2991.022627,370.102971,-9844.739029,0.000000
2991.022955,444.123565,-9030.512492,306.438199
2991.023283,-592.164754,-6809.894666,612.876398
2991.023611,-1998.556043,-6143.709319,1302.362347
2991.023938,-1776.494261,-7476.080014,1149.143247
2991.024266,-962.267725,-7476.080014,0.000000
2991.024594,-814.226536,-7179.997637,-306.438199
2991.024922,0.000000,-7920.203579,1302.362347
2991.025249,2664.741391,-10732.986159,2068.457845
2991.025577,3701.029710,-11843.295072,919.314598
2991.025905,3849.070898,-13915.871710,919.314598
2991.026232,3997.112087,-11843.295072,-459.657299
2991.026560,2738.761985,-11325.150913,-1915.238745
2991.026888,-666.185348,-10732.986159,-1225.752797
2991.027216,-2368.659014,-8808.450710,-1225.752797
2991.027543,-1702.473667,-7846.182985,-536.266849
2991.027871,-222.061783,-7920.203579,229.828649
2991.028199,-296.082377,-6661.853478,536.266849
2991.028527,-1406.391290,-5847.626942,1378.971896
2991.028854,-740.205942,-8216.285956,1378.971896
2991.029182,148.041188,-10066.800811,-306.438199
2991.029510,296.082377,-8882.471304,-1991.848295
2991.029838,888.247130,-7698.141797,-536.266849
2991.030165,3182.885551,-11917.315666,0.000000
2991.030493,4959.379811,-15248.242405,-229.828649
2991.030821,3256.906145,-14137.933492,-383.047749
2991.031148,1924.535449,-12435.459826,-1378.971896
2991.031476,1110.308913,-12805.562797,-2757.943793
2991.031804,-1554.432478,-11769.274478,-2604.724693
2991.032132,-3775.050304,-8216.285956,-1915.238745
2991.032459,-3701.029710,-7105.977043,-995.924147
2991.032787,0.000000,-8364.327145,0.000000
2991.033115,962.267725,-7328.038826,995.924147
2991.033443,74.020594,-5551.544565,2298.286494
2991.033770,148.041188,-7994.224174,2528.115143
2991.034098,1258.350101,-10584.944971,459.657299
2991.034426,444.123565,-9474.636058,-1149.143247
2991.034753,0.000000,-8586.388927,-1378.971896
2991.035081,1776.494261,-11547.212695,0.000000
2991.035409,2220.617826,-13841.851115,536.266849
2991.035737,1776.494261,-13471.748144,0.000000
2991.036064,444.123565,-11473.192101,-689.485948
2991.036392,814.226536,-10584.944971,-383.047749
2991.036720,-814.226536,-9622.677246,-766.095498
2991.037048,-3552.988522,-6069.688724,689.485948
2991.037375,-3034.844362,-4515.256246,766.095498
2991.037703,-1036.288319,-6217.729913,1072.533697
2991.038031,0.000000,-7698.141797,1762.019645
2991.038359,-1628.453072,-6661.853478,1608.800546
2991.038686,-1702.473667,-7624.121203,383.047749
2991.039015,518.144159,-11325.150913,-1608.800546
2991.039342,2146.597232,-12879.583391,-3217.601092
2991.039670,814.226536,-11029.068536,-2221.676944
2991.039998,2072.576638,-11843.295072,229.828649
2991.040325,3182.885551,-14211.954086,1149.143247
2991.040653,2368.659014,-13323.706956,229.828649
2991.040980,370.102971,-10288.862594,-1225.752797
2991.041308,-1258.350101,-8586.388927,-842.705048
2991.041636,-2072.576638,-9252.574275,-919.314598
2991.041963,-3034.844362,-7624.121203,-1455.581446
2991.042291,-3330.926739,-6291.750507,-383.047749
2991.042619,-814.226536,-8068.244768,0.000000
2991.042946,2442.679609,-10214.842000,0.000000
2991.043274,2072.576638,-9030.512492,0.000000
2991.043601,1406.391290,-9178.553681,-306.438199
2991.043929,1998.556043,-12583.501014,-1532.190996
2991.044257,2590.720797,-12731.542202,-1532.190996
2991.044584,1110.308913,-9770.718434,-919.314598
2991.044912,1036.288319,-8808.450710,1149.143247
2991.045239,2146.597232,-11325.150913,1762.019645
2991.045567,1776.494261,-11695.253884,1149.143247
2991.045895,74.020594,-9474.636058,0.000000
2991.046222,-1480.411884,-7846.182985,-612.876398
2991.046550,-1332.370696,-8882.471304,-689.485948
2991.046878,-1628.453072,-8438.347739,-153.219100
2991.047205,-1110.308913,-7476.080014,842.705048
2991.047533,1110.308913,-7772.162391,1149.143247
2991.047860,4071.132681,-9770.718434,383.047749
2991.048188,3478.967927,-9474.636058,766.095498
2991.048516,1184.329507,-8512.368333,1149.143247
2991.048843,1110.308913,-8882.471304,0.000000
2991.049171,888.247130,-9844.739029,-612.876398
2991.049499,-222.061783,-8068.244768,-766.095498
2991.049826,-1332.370696,-6809.894666,0.000000
2991.050154,-1776.494261,-10436.903782,1072.533697
2991.050481,-592.164754,-13175.665768,536.266849
2991.050809,1480.411884,-10955.047942,-1378.971896
2991.051137,444.123565,-9030.512492,-995.924147
2991.051464,296.082377,-10658.965565,229.828649
2991.051792,370.102971,-11251.130318,536.266849
2991.052120,-296.082377,-8808.450710,-612.876398
2991.052447,444.123565,-9400.615463,-1608.800546
2991.052775,1406.391290,-10732.986159,-229.828649
2991.053102,-444.123565,-8808.450710,536.266849
2991.053430,-2294.638420,-8068.244768,-536.266849
2991.053758,-1776.494261,-11251.130318,-1838.629195
2991.054085,-1258.350101,-11769.274478,-2145.067394
2991.054413,-1258.350101,-9400.615463,-1149.143247
2991.054741,-814.226536,-7772.162391,-536.266849
2991.055068,0.000000,-9622.677246,229.828649
2991.055396,666.185348,-10584.944971,1685.410096
2991.055723,1406.391290,-9474.636058,-229.828649
2991.056051,814.226536,-7920.203579,612.876398
2991.056379,888.247130,-10436.903782,919.314598
2991.056706,592.164754,-13027.624579,383.047749
2991.057034,-666.185348,-11547.212695,-995.924147
2991.057362,-814.226536,-9844.739029,-1915.238745
2991.057689,0.000000,-9178.553681,-2298.286494
2991.058017,-888.247130,-9400.615463,-689.485948
2991.058344,-1924.535449,-7772.162391,536.266849
2991.058672,-1480.411884,-7031.956449,459.657299
2991.059000,-888.247130,-8734.430116,306.438199
2991.059327,-1110.308913,-7920.203579,1149.143247
2991.059655,-1554.432478,-4663.297435,1838.629195
2991.059983,-814.226536,-5551.544565,2757.943793
2991.060310,888.247130,-9770.718434,2298.286494
2991.060638,2442.679609,-11917.315666,0.000000
2991.060965,2442.679609,-11695.253884,-919.314598
2991.061293,3256.906145,-11621.233289,-1532.190996
2991.061621,2664.741391,-13323.706956,-1302.362347
2991.061948,444.123565,-12879.583391,-995.924147
2991.062276,-592.164754,-11325.150913,-1532.190996
2991.062604,444.123565,-10732.986159,-1762.019645
2991.062931,1850.514855,-9844.739029,-1302.362347
2991.063259,444.123565,-7402.059420,0.000000
2991.063586,-518.144159,-5995.668130,1455.581446
2991.063914,518.144159,-6661.853478,1378.971896
2991.064242,370.102971,-7402.059420,229.828649
2991.064569,814.226536,-6883.915261,-229.828649
2991.064897,592.164754,-7772.162391,1149.143247
2991.065225,2960.823768,-11621.233289,306.438199
2991.065552,3404.947333,-13323.706956,-1072.533697
2991.065880,2664.741391,-14211.954086,-1149.143247
2991.066207,2442.679609,-13175.665768,-1685.410096
2991.066535,2072.576638,-12879.583391,-1532.190996
2991.066863,-666.185348,-12213.398043,-1378.971896
2991.067190,-1332.370696,-9918.759623,-1455.581446
2991.067518,-296.082377,-8734.430116,-1225.752797
2991.067845,-222.061783,-7772.162391,153.219100
2991.068173,-1554.432478,-5551.544565,1302.362347
2991.068501,-2294.638420,-3849.070898,1532.190996
2991.068828,-1628.453072,-5625.565159,1991.848295
2991.069156,-518.144159,-9474.636058,0.000000
2991.069484,-1776.494261,-8142.265362,76.609550
2991.069811,-1332.370696,-8364.327145,-459.657299
2991.070139,1480.411884,-11547.212695,-536.266849
2991.070466,4219.173869,-14804.118840,-995.924147
2991.070794,3330.926739,-13915.871710,76.609550
2991.071122,2146.597232,-11769.274478,1072.533697
2991.071449,1702.473667,-12435.459826,-612.876398
2991.071777,222.061783,-12953.603985,-1149.143247
2991.072105,-3478.967927,-9474.636058,-995.924147
2991.072432,-4219.173869,-6809.894666,-919.314598
2991.072760,-2886.803174,-6365.771101,-919.314598
2991.073087,-2220.617826,-6217.729913,-459.657299
2991.073415,-2072.576638,-6291.750507,842.705048
2991.073743,-592.164754,-7179.997637,919.314598
2991.074070,2368.659014,-9474.636058,0.000000
2991.074398,2886.803174,-10140.821405,-919.314598
2991.074726,1776.494261,-9696.697840,229.828649
2991.075053,2590.720797,-11177.109724,842.705048
2991.075381,4367.215058,-13471.748144,0.000000
2991.075708,3775.050304,-13767.830521,-1915.238745
2991.076036,1110.308913,-11843.295072,76.609550
2991.076364,148.041188,-11917.315666,-536.266849
2991.076691,-1258.350101,-11991.336260,-1302.362347
2991.077019,-3701.029710,-9622.677246,-1915.238745
2991.077347,-4515.256246,-7476.080014,-1991.848295
2991.077674,-1776.494261,-6883.915261,-1685.410096
2991.078002,222.061783,-7772.162391,-383.047749
2991.078329,740.205942,-7698.141797,2145.067394
2991.078657,1776.494261,-7920.203579,2221.676944
2991.078985,3478.967927,-9548.656652,1378.971896
2991.079312,2738.761985,-8956.491898,0.000000
2991.079640,888.247130,-8660.409521,-459.657299
2991.079968,1924.535449,-10955.047942,76.609550
2991.080295,2812.782580,-12583.501014,-383.047749
2991.080623,3478.967927,-13693.809927,-1225.752797
2991.080950,2072.576638,-10658.965565,-1532.190996
2991.081278,-370.102971,-11103.089130,-842.705048
2991.081606,-1332.370696,-11991.336260,0.000000
2991.081933,-1850.514855,-9400.615463,-689.485948
2991.082261,-1332.370696,-6883.915261,-612.876398
2991.082589,666.185348,-7031.956449,153.219100
2991.082916,1406.391290,-8512.368333,1072.533697
2991.083244,2368.659014,-8068.244768,2145.067394
2991.083571,1924.535449,-7179.997637,1149.143247
2991.083899,222.061783,-9474.636058,153.219100
2991.084227,-148.041188,-11843.295072,-1532.190996
2991.084554,-740.205942,-9770.718434,-2451.505594
2991.084882,-740.205942,-9178.553681,-995.924147
2991.085210,1554.432478,-11991.336260,612.876398
2991.085537,2072.576638,-13249.686362,1378.971896
2991.085865,1110.308913,-9918.759623,1225.752797
2991.086192,-740.205942,-8660.409521,0.000000
2991.086520,-1924.535449,-11103.089130,-842.705048
2991.086848,-3330.926739,-9474.636058,-1455.581446
2991.087175,-3330.926739,-6069.688724,-1915.238745
2991.087503,-2294.638420,-7328.038826,-842.705048
2991.087831,0.000000,-10436.903782,995.924147
2991.088158,814.226536,-11251.130318,383.047749
2991.088486,222.061783,-9622.677246,-995.924147
2991.088813,296.082377,-10584.944971,-1762.019645
2991.089141,1258.350101,-10658.965565,-2068.457845
2991.089469,-592.164754,-8438.347739,-842.705048
2991.089796,-1850.514855,-7624.121203,995.924147
2991.090124,74.020594,-9400.615463,995.924147
2991.090451,1406.391290,-10362.883188,1302.362347
2991.090779,444.123565,-9622.677246,1072.533697
2991.091107,-740.205942,-9400.615463,-306.438199
2991.091434,-222.061783,-10584.944971,-1072.533697
2991.091762,-1480.411884,-11029.068536,-1225.752797
2991.092090,-2294.638420,-9252.574275,-2145.067394
2991.092417,0.000000,-8438.347739,-1302.362347
2991.092745,2294.638420,-10881.027347,-842.705048
2991.093072,2738.761985,-11991.336260,842.705048
2991.093400,962.267725,-9918.759623,1378.971896
2991.093728,0.000000,-8586.388927,0.000000
2991.094055,740.205942,-10362.883188,-1302.362347
2991.094383,-740.205942,-9326.594869,-919.314598
2991.094711,-1998.556043,-5699.585753,766.095498
2991.095038,-296.082377,-7254.018232,1302.362347
2991.095366,2516.700203,-10288.862594,383.047749
2991.095693,3256.906145,-10510.924376,0.000000
2991.096021,1998.556043,-9030.512492,1072.533697
2991.096349,3256.906145,-10807.006753,995.924147
2991.096676,2664.741391,-13693.809927,-1225.752797
2991.097004,0.000000,-11177.109724,-1225.752797
2991.097332,222.061783,-8586.388927,-1762.019645
2991.097659,1776.494261,-10066.800811,-1378.971896
2991.097987,2368.659014,-11769.274478,76.609550
2991.098314,222.061783,-9474.636058,1149.143247
2991.098642,-370.102971,-7402.059420,1072.533697
2991.098970,74.020594,-8068.244768,-1149.143247
2991.099297,-740.205942,-7846.182985,-1378.971896
2991.099625,-2738.761985,-5995.668130,459.657299
2991.099953,-1554.432478,-5625.565159,1225.752797
2991.100280,1332.370696,-9474.636058,919.314598
2991.100608,1998.556043,-11473.192101,-229.828649
2991.100935,1110.308913,-9844.739029,-306.438199
2991.101263,1998.556043,-10807.006753,-383.047749
2991.101591,2368.659014,-13323.706956,-1225.752797
2991.101918,518.144159,-13767.830521,-1455.581446
2991.102246,-888.247130,-10955.047942,-995.924147
2991.102574,0.000000,-9696.697840,-1532.190996
2991.102901,296.082377,-11991.336260,-1225.752797
2991.103229,-962.267725,-10732.986159,0.000000
2991.103556,-2072.576638,-6809.894666,76.609550
2991.103884,-2442.679609,-5773.606348,689.485948
2991.104212,-1776.494261,-7846.182985,0.000000
2991.104539,-2368.659014,-6735.874072,536.266849
2991.104867,-1332.370696,-6661.853478,1302.362347
2991.105195,2590.720797,-9844.739029,383.047749
2991.105522,3849.070898,-11991.336260,-229.828649
2991.105850,2146.597232,-11621.233289,-306.438199
2991.106177,1258.350101,-11843.295072,-919.314598
2991.106505,2072.576638,-13323.706956,-1608.800546
2991.106833,444.123565,-13175.665768,-1838.629195
2991.107160,-1850.514855,-11325.150913,-766.095498
2991.107488,-1110.308913,-10214.842000,-229.828649
2991.107816,296.082377,-9696.697840,-306.438199
2991.108143,-1332.370696,-7550.100608,689.485948
2991.108471,-2812.782580,-5033.400406,1378.971896
2991.108798,-1998.556043,-5403.503377,842.705048
2991.109126,-666.185348,-7328.038826,842.705048
2991.109454,-814.226536,-6809.894666,995.924147
2991.109781,0.000000,-7179.997637,1149.143247
2991.110109,2812.782580,-9622.677246,153.219100
2991.110437,4441.235652,-12287.418637,306.438199
2991.110764,3404.947333,-12287.418637,-536.266849
2991.111092,2146.597232,-11103.089130,0.000000
2991.111419,1480.411884,-11843.295072,-1378.971896
2991.111747,0.000000,-13027.624579,-1991.848295
2991.112075,-2368.659014,-10658.965565,-1762.019645
2991.112402,-1258.350101,-8586.388927,-1378.971896
2991.112730,0.000000,-9770.718434,0.000000
2991.113058,592.164754,-9918.759623,766.095498
2991.113385,-888.247130,-6661.853478,842.705048
2991.113713,-1332.370696,-6217.729913,0.000000
2991.114040,-666.185348,-8290.306550,-842.705048
2991.114368,222.061783,-9178.553681,-1149.143247
2991.114696,888.247130,-7920.203579,-766.095498
2991.115023,2368.659014,-10955.047942,612.876398
2991.115351,5181.441594,-14211.954086,0.000000
2991.115678,4515.256246,-13693.809927,-306.438199
2991.116006,2294.638420,-11769.274478,-536.266849
2991.116334,888.247130,-11769.274478,-1532.190996
2991.116661,-592.164754,-12287.418637,-1685.410096
2991.116989,-1998.556043,-9548.656652,-1302.362347
2991.117317,-2664.741391,-7179.997637,-1378.971896
2991.117644,-1332.370696,-8586.388927,-153.219100
2991.117972,-370.102971,-9252.574275,1149.143247
2991.118299,-148.041188,-7772.162391,1455.581446
2991.118627,-444.123565,-7179.997637,842.705048
2991.118955,370.102971,-8956.491898,-612.876398
2991.119282,1110.308913,-9918.759623,-536.266849
2991.119610,1332.370696,-8068.244768,-689.485948
2991.119938,1924.535449,-9622.677246,842.705048
2991.120265,3478.967927,-11917.315666,766.095498
2991.120593,2812.782580,-12509.480420,459.657299
2991.120920,592.164754,-10807.006753,76.609550
2991.121248,148.041188,-10066.800811,-1149.143247
2991.121576,-888.247130,-11251.130318,-1532.190996
2991.121903,-2516.700203,-9400.615463,76.609550
2991.122231,-3627.009116,-5995.668130,229.828649
2991.122559,-740.205942,-7402.059420,76.609550
2991.122886,0.000000,-9622.677246,689.485948
2991.123214,222.061783,-8512.368333,1072.533697
2991.123541,222.061783,-6217.729913,0.000000
2991.123869,888.247130,-8438.347739,-536.266849
2991.124197,740.205942,-11843.295072,-1378.971896
2991.124524,0.000000,-11103.089130,-919.314598
2991.124852,148.041188,-9474.636058,-536.266849
2991.125180,1628.453072,-11103.089130,-1149.143247
2991.125507,1702.473667,-13249.686362,-306.438199
2991.125835,592.164754,-11621.233289,229.828649
2991.126162,0.000000,-9400.615463,0.000000
2991.126490,296.082377,-10881.027347,-1225.752797
2991.126818,222.061783,-11399.171507,-1072.533697
2991.127145,-1850.514855,-7846.182985,153.219100
2991.127473,-1480.411884,-7476.080014,306.438199
2991.127801,518.144159,-9474.636058,-306.438199
2991.128128,814.226536,-9696.697840,-383.047749
2991.128456,444.123565,-8808.450710,-383.047749
2991.128783,740.205942,-9474.636058,-612.876398
2991.129111,1702.473667,-11399.171507,-1302.362347
2991.129439,148.041188,-10510.924376,-383.047749
2991.129766,222.061783,-9474.636058,229.828649
2991.130094,2146.597232,-9622.677246,536.266849
2991.130422,2368.659014,-10807.006753,995.924147
2991.130749,222.061783,-8882.471304,2221.676944
2991.131077,-518.144159,-7476.080014,1072.533697
2991.131404,-222.061783,-9400.615463,76.609550
2991.131732,-592.164754,-10436.903782,-1455.581446
2991.132060,-1850.514855,-8808.450710,-1762.019645
2991.132387,0.000000,-8734.430116,-1378.971896
2991.132715,2294.638420,-9918.759623,-536.266849
2991.133043,1406.391290,-10066.800811,229.828649
2991.133370,1332.370696,-9474.636058,919.314598
2991.133698,1110.308913,-9178.553681,919.314598
2991.134025,1184.329507,-10955.047942,0.000000
2991.134353,-518.144159,-9400.615463,-383.047749
2991.134681,-1850.514855,-6587.832884,-536.266849
2991.135008,-1702.473667,-7846.182985,459.657299
2991.135336,-370.102971,-9992.780217,536.266849
2991.135664,666.185348,-10510.924376,-536.266849
2991.135991,444.123565,-9548.656652,-995.924147
2991.136319,1776.494261,-10658.965565,-1838.629195
2991.136646,1776.494261,-11473.192101,-1762.019645
2991.136974,148.041188,-10881.027347,-842.705048
2991.137302,444.123565,-9622.677246,-536.266849
2991.137629,1850.514855,-9992.780217,-459.657299
2991.137957,1998.556043,-11547.212695,153.219100
2991.138284,1110.308913,-10881.027347,689.485948
2991.138612,222.061783,-9030.512492,306.438199
2991.138940,-444.123565,-10214.842000,0.000000
2991.139267,-2072.576638,-9400.615463,-612.876398
2991.139595,-3256.906145,-6439.791695,-383.047749
2991.139923,-2516.700203,-5773.606348,0.000000
2991.140250,0.000000,-9326.594869,153.219100
2991.140578,1480.411884,-10807.006753,1149.143247
2991.140906,1628.453072,-9696.697840,0.000000
2991.141233,2738.761985,-9622.677246,-153.219100
2991.141561,3108.864956,-11251.130318,-306.438199
2991.141889,1110.308913,-10658.965565,-459.657299
2991.142217,-1184.329507,-8660.409521,0.000000
2991.142544,-666.185348,-9548.656652,-995.924147
2991.142872,0.000000,-10732.986159,-1532.190996
2991.143200,0.000000,-9696.697840,-1149.143247
2991.143528,-814.226536,-8586.388927,536.266849
2991.143855,-518.144159,-9474.636058,1762.019645
2991.144183,-444.123565,-9992.780217,1149.143247
2991.144511,-1850.514855,-7476.080014,229.828649
2991.144839,-2294.638420,-5255.462188,-459.657299
2991.145166,222.061783,-7994.224174,229.828649
2991.145494,2146.597232,-10214.842000,-766.095498
2991.145822,1998.556043,-10584.944971,383.047749
2991.146150,2886.803174,-11843.295072,76.609550
2991.146477,3108.864956,-13101.645173,-1072.533697
2991.146805,592.164754,-12583.501014,-1608.800546
2991.147133,-1036.288319,-11325.150913,-2451.505594
2991.147461,-888.247130,-11177.109724,-2911.162892
2991.147788,0.000000,-10732.986159,-1838.629195
2991.148116,-518.144159,-8882.471304,0.000000
2991.148444,-1702.473667,-6809.894666,1915.238745
2991.148772,-888.247130,-7846.182985,2451.505594
2991.149099,-518.144159,-9104.533087,1838.629195
2991.149427,-1332.370696,-8142.265362,689.485948
2991.149755,-1702.473667,-7105.977043,-612.876398
2991.150083,1110.308913,-8734.430116,-1149.143247
2991.150410,3256.906145,-11917.315666,-1072.533697
2991.150738,3775.050304,-12213.398043,-306.438199
2991.151066,2886.803174,-11399.171507,0.000000
2991.151394,2886.803174,-12731.542202,-689.485948
2991.151721,1850.514855,-12731.542202,-1302.362347
2991.152049,-1184.329507,-10732.986159,-1225.752797
2991.152377,-2294.638420,-7994.224174,0.000000
2991.152705,148.041188,-8142.265362,0.000000
2991.153032,370.102971,-7994.224174,1302.362347
2991.153360,-1628.453072,-5625.565159,2298.286494
2991.153688,-1702.473667,-6439.791695,2068.457845
2991.154016,-962.267725,-9178.553681,612.876398
2991.154343,-1480.411884,-8290.306550,-995.924147
2991.154671,-1036.288319,-7476.080014,-1455.581446
2991.154999,1110.308913,-9918.759623,-536.266849
2991.155327,3923.091493,-13397.727550,-306.438199
2991.155654,4367.215058,-14508.036463,0.000000
2991.155982,3034.844362,-12361.439231,-459.657299
2991.156310,2590.720797,-10436.903782,-1838.629195
2991.156638,962.267725,-11695.253884,-766.095498
2991.156965,-1628.453072,-10510.924376,-842.705048
2991.157293,-2812.782580,-8290.306550,0.000000
2991.157621,-888.247130,-8438.347739,-383.047749
2991.157949,296.082377,-8734.430116,-306.438199
2991.158276,-1184.329507,-7772.162391,229.828649
2991.158604,-1998.556043,-6957.935855,919.314598
2991.158932,-1554.432478,-8882.471304,0.000000
2991.159260,666.185348,-10362.883188,-2221.676944
2991.159587,1110.308913,-9770.718434,-1838.629195
2991.159915,1776.494261,-9770.718434,459.657299
2991.160243,3701.029710,-11917.315666,2145.067394
2991.160570,3404.947333,-12805.562797,1225.752797
2991.160898,1480.411884,-11695.253884,306.438199
2991.161226,222.061783,-9474.636058,-1225.752797
2991.161554,-814.226536,-9622.677246,-842.705048
2991.161881,-2960.823768,-9030.512492,-306.438199
2991.162209,-4219.173869,-7254.018232,306.438199
2991.162537,-2590.720797,-7698.141797,153.219100
2991.162865,0.000000,-8956.491898,-536.266849
2991.163192,518.144159,-7698.141797,306.438199
2991.163520,0.000000,-6809.894666,229.828649
2991.163848,740.205942,-9178.553681,1608.800546
2991.164176,1850.514855,-10732.986159,229.828649
2991.164503,814.226536,-9474.636058,-306.438199
2991.164831,888.247130,-9252.574275,0.000000
2991.165159,1702.473667,-10955.047942,229.828649
2991.165487,2146.597232,-13027.624579,0.000000
2991.165814,0.000000,-10214.842000,-612.876398
2991.166142,-888.247130,-8808.450710,-1838.629195
2991.166470,-1332.370696,-10807.006753,-1378.971896
2991.166798,-2146.597232,-11029.068536,-459.657299
2991.167125,-1850.514855,-8660.409521,0.000000
2991.167453,518.144159,-8216.285956,-612.876398
2991.167781,2590.720797,-9696.697840,0.000000
2991.168109,2886.803174,-9104.533087,76.609550
2991.168436,1924.535449,-7105.977043,383.047749
2991.168764,1110.308913,-8438.347739,0.000000
2991.169092,740.205942,-10584.944971,0.000000
2991.169420,444.123565,-11547.212695,-919.314598
2991.169747,0.000000,-10214.842000,-995.924147
2991.170075,444.123565,-11399.171507,153.219100
2991.170403,1702.473667,-13175.665768,612.876398
2991.170731,518.144159,-10584.944971,0.000000
2991.171058,-222.061783,-8660.409521,0.000000
2991.171386,444.123565,-8956.491898,-383.047749
2991.171714,0.000000,-10658.965565,0.000000
2991.172042,-1406.391290,-9252.574275,919.314598
2991.172369,888.247130,-6957.935855,0.000000
2991.172697,2294.638420,-7994.224174,919.314598
2991.173025,1628.453072,-9326.594869,1915.238745
2991.173353,1036.288319,-8438.347739,383.047749
2991.173680,222.061783,-8438.347739,-842.705048
2991.174008,-370.102971,-9918.759623,-1991.848295
2991.174336,-1406.391290,-10732.986159,-1991.848295
2991.174664,-1554.432478,-8216.285956,0.000000
2991.174991,0.000000,-9030.512492,1072.533697
2991.175319,1924.535449,-11325.150913,2298.286494
2991.175647,1332.370696,-11029.068536,1838.629195
2991.175975,370.102971,-8734.430116,536.266849
2991.176302,1110.308913,-9400.615463,-1149.143247
2991.176630,370.102971,-10807.006753,-1532.190996
2991.176958,-2368.659014,-10140.821405,-766.095498
2991.177286,-1628.453072,-8142.265362,-919.314598
2991.177613,518.144159,-9252.574275,-2374.896044
2991.177941,1998.556043,-11473.192101,-1608.800546
2991.178269,888.247130,-10881.027347,153.219100
2991.178597,-666.185348,-9252.574275,383.047749
2991.178924,-444.123565,-9548.656652,-1225.752797
2991.179252,-1184.329507,-9622.677246,-1685.410096
2991.179580,-2072.576638,-8216.285956,-612.876398
2991.179908,-2368.659014,-7105.977043,2068.457845
2991.180235,-222.061783,-9770.718434,2374.896044
2991.180563,814.226536,-11917.315666,1225.752797
2991.180891,592.164754,-11473.192101,-459.657299
2991.181218,888.247130,-10436.903782,-1838.629195
2991.181546,1184.329507,-12139.377449,-2374.896044
2991.181874,1628.453072,-12361.439231,-842.705048
2991.182202,222.061783,-10214.842000,-689.485948
2991.182529,1258.350101,-9770.718434,-1149.143247
2991.182857,1924.535449,-9844.739029,0.000000
2991.183185,740.205942,-8142.265362,1225.752797
2991.183513,-1184.329507,-6883.915261,1685.410096
2991.183840,-1702.473667,-7179.997637,1149.143247
2991.184168,-1702.473667,-7105.977043,229.828649
2991.184496,-1702.473667,-7105.977043,76.609550
2991.184824,-1776.494261,-7105.977043,1225.752797
2991.185151,370.102971,-9252.574275,1455.581446
2991.185479,1554.432478,-11399.171507,919.314598
2991.185807,2812.782580,-11251.130318,383.047749
2991.186135,3478.967927,-11325.150913,-919.314598
2991.186462,3256.906145,-12435.459826,-766.095498
2991.186790,1628.453072,-12213.398043,-229.828649
2991.187118,0.000000,-10288.862594,-612.876398
2991.187446,518.144159,-8586.388927,-1685.410096
2991.187773,1480.411884,-9252.574275,-1762.019645
2991.188101,-222.061783,-9104.533087,76.609550
2991.188429,-2072.576638,-7254.018232,842.705048
2991.188757,-1628.453072,-5995.668130,153.219100
2991.189084,0.000000,-8956.491898,-1225.752797
2991.189412,74.020594,-9326.594869,-153.219100
2991.189740,-1110.308913,-7624.121203,1072.533697
2991.190068,740.205942,-10140.821405,1378.971896
2991.190395,3775.050304,-12953.603985,-153.219100
2991.190723,4293.194464,-13841.851115,-1838.629195
2991.191051,2886.803174,-12583.501014,-383.047749
2991.191379,2220.617826,-11473.192101,-1225.752797
2991.191706,1554.432478,-12435.459826,-1225.752797
2991.192034,-518.144159,-11547.212695,-1378.971896
2991.192362,-1406.391290,-9252.574275,-1608.800546
2991.192690,-1480.411884,-8586.388927,-536.266849
2991.193017,-1702.473667,-7254.018232,1455.581446
2991.193345,-3775.050304,-4959.379811,1072.533697
2991.193673,-3108.864956,-6069.688724,536.266849
2991.194001,-1332.370696,-8290.306550,-689.485948
2991.194328,222.061783,-8364.327145,-153.219100
2991.194656,1110.308913,-7920.203579,1072.533697
2991.194984,2220.617826,-9770.718434,2374.896044
2991.195312,3627.009116,-13101.645173,1838.629195
2991.195639,3034.844362,-13471.748144,842.705048
2991.195967,1258.350101,-11473.192101,-842.705048
2991.196295,592.164754,-10510.924376,-2451.505594
2991.196623,-222.061783,-11621.233289,-1838.629195
2991.196950,-1998.556043,-10362.883188,-1072.533697
2991.197278,-3034.844362,-7846.182985,-383.047749
2991.197606,-1628.453072,-8290.306550,842.705048
2991.197934,-666.185348,-8142.265362,1762.019645
2991.198261,-666.185348,-6661.853478,536.266849
2991.198589,-1110.308913,-5847.626942,689.485948
2991.198917,-370.102971,-6883.915261,-459.657299
2991.199245,666.185348,-9326.594869,-1072.533697
2991.199572,888.247130,-9474.636058,-612.876398
2991.199900,1258.350101,-10066.800811,229.828649
2991.200228,3404.947333,-13545.768739,-536.266849
2991.200556,4071.132681,-15618.345376,-919.314598
2991.200883,1776.494261,-13915.871710,-1225.752797
2991.201211,740.205942,-11473.192101,-1991.848295
2991.201539,0.000000,-11399.171507,-2068.457845
2991.201866,-1480.411884,-10807.006753,-919.314598
2991.202194,-2442.679609,-8068.244768,229.828649
2991.202522,-1924.535449,-6661.853478,612.876398
2991.202850,-296.082377,-7328.038826,0.000000
2991.203177,74.020594,-8512.368333,383.047749
2991.203505,-296.082377,-6661.853478,536.266849
2991.203833,740.205942,-7254.018232,-306.438199
2991.204161,2886.803174,-10066.800811,-766.095498
2991.204488,2072.576638,-9622.677246,153.219100
2991.204816,888.247130,-9326.594869,536.266849
2991.205144,2072.576638,-11917.315666,76.609550
2991.205472,2146.597232,-13249.686362,-842.705048
2991.205799,1332.370696,-11769.274478,-306.438199
2991.206127,0.000000,-9770.718434,76.609550
2991.206455,296.082377,-10732.986159,76.609550
2991.206783,-888.247130,-10362.883188,306.438199
2991.207110,-2294.638420,-8068.244768,383.047749
2991.207438,-2590.720797,-6439.791695,-306.438199
2991.207766,0.000000,-8290.306550,-1149.143247
2991.208094,1258.350101,-8660.409521,0.000000
2991.208421,888.247130,-7550.100608,919.314598
2991.208749,1702.473667,-8364.327145,612.876398
2991.209077,3182.885551,-10584.944971,0.000000
2991.209405,1924.535449,-10510.924376,0.000000
2991.209732,222.061783,-9252.574275,-1149.143247
2991.210060,-296.082377,-9252.574275,-383.047749
2991.210388,296.082377,-10955.047942,-689.485948
2991.210716,-296.082377,-11325.150913,-689.485948
2991.211043,-888.247130,-10584.944971,0.000000
2991.211371,-1110.308913,-11177.109724,0.000000
2991.211699,-888.247130,-13101.645173,0.000000
2991.212027,-962.267725,-10732.986159,-766.095498
2991.212354,-592.164754,-9252.574275,-1915.238745
2991.212682,740.205942,-9844.739029,-842.705048
2991.213010,2294.638420,-9844.739029,0.000000
2991.213338,1702.473667,-8068.244768,842.705048
2991.213665,1184.329507,-7328.038826,766.095498
2991.213993,814.226536,-9696.697840,-153.219100
2991.214321,-222.061783,-11103.089130,-459.657299
2991.214649,-1924.535449,-8956.491898,-536.266849
2991.214976,-1554.432478,-8438.347739,-612.876398
2991.215304,-222.061783,-10214.842000,536.266849
2991.215632,888.247130,-10510.924376,1302.362347
2991.215960,0.000000,-8586.388927,1455.581446
2991.216287,370.102971,-9252.574275,1378.971896
2991.216615,74.020594,-10658.965565,306.438199
2991.216943,74.020594,-10066.800811,-306.438199
2991.217271,-814.226536,-8216.285956,-383.047749
2991.217598,370.102971,-9252.574275,-919.314598
2991.217926,1702.473667,-11399.171507,0.000000
2991.218254,1332.370696,-9918.759623,-995.924147
2991.218582,370.102971,-8216.285956,-995.924147
2991.218909,296.082377,-9030.512492,-1991.848295
2991.219237,0.000000,-9770.718434,-995.924147
2991.219565,-1850.514855,-8586.388927,459.657299
2991.219893,-1628.453072,-6809.894666,1378.971896
2991.220220,148.041188,-8586.388927,1149.143247
2991.220548,2294.638420,-10066.800811,1685.410096
2991.220876,1554.432478,-10140.821405,1608.800546
2991.221204,1036.288319,-10436.903782,153.219100
2991.221531,1776.494261,-12065.356855,-1225.752797
2991.221859,1110.308913,-12509.480420,-2528.115143
2991.222187,296.082377,-11325.150913,-2298.286494
2991.222514,888.247130,-10881.027347,-1762.019645
2991.222842,2220.617826,-11843.295072,-689.485948
2991.223170,2664.741391,-11843.295072,0.000000
2991.223498,740.205942,-7920.203579,-459.657299
2991.223825,-1184.329507,-7698.141797,536.266849
2991.224153,-2664.741391,-7920.203579,1072.533697
2991.224481,-4367.215058,-6291.750507,306.438199
2991.224809,-3478.967927,-6513.812290,-306.438199
2991.225136,0.000000,-8882.471304,-919.314598
2991.225464,2294.638420,-11251.130318,612.876398
2991.225792,3478.967927,-10584.944971,1915.238745
2991.226120,3330.926739,-11103.089130,383.047749
2991.226447,3330.926739,-13841.851115,-689.485948
2991.226775,1332.370696,-13323.706956,-1532.190996
2991.227103,-962.267725,-9992.780217,-1915.238745
2991.227431,-1184.329507,-8364.327145,-1608.800546
2991.227758,296.082377,-9252.574275,-1838.629195
2991.228086,-370.102971,-8956.491898,229.828649
2991.228414,-2146.597232,-6661.853478,1838.629195
2991.228742,-1628.453072,-5921.647536,1762.019645
2991.229069,-666.185348,-8142.265362,153.219100
2991.229397,-1406.391290,-8660.409521,0.000000
2991.229725,-1998.556043,-6069.688724,0.000000
2991.230053,444.123565,-7105.977043,842.705048
2991.230380,3775.050304,-10807.006753,229.828649
2991.230708,4663.297435,-12583.501014,842.705048
2991.231036,3552.988522,-12065.356855,1149.143247
2991.231364,2886.803174,-12731.542202,-612.876398
2991.231691,2146.597232,-14285.974681,-2451.505594
2991.232019,0.000000,-12435.459826,-2528.115143
2991.232347,-2294.638420,-9252.574275,-1762.019645
2991.232675,-1184.329507,-9474.636058,-1991.848295
2991.233002,-888.247130,-9992.780217,76.609550
2991.233330,-1480.411884,-8586.388927,842.705048
2991.233658,-1850.514855,-6735.874072,612.876398
2991.233986,-962.267725,-7698.141797,536.266849
2991.234313,0.000000,-7846.182985,689.485948
2991.234641,-296.082377,-6513.812290,919.314598
2991.234969,2220.617826,-7476.080014,1225.752797
2991.235297,4885.359217,-10955.047942,919.314598
2991.235624,4959.379811,-11991.336260,612.876398
2991.235952,2960.823768,-12879.583391,0.000000
2991.236280,1554.432478,-12435.459826,-1762.019645
2991.236608,370.102971,-12583.501014,-2604.724693
2991.236935,-1702.473667,-11991.336260,-2604.724693
2991.237263,-3034.844362,-9252.574275,-1762.019645
2991.237591,-1628.453072,-8438.347739,-612.876398
2991.237919,148.041188,-8512.368333,306.438199
2991.238246,-1554.432478,-6513.812290,1915.238745
2991.238574,-2442.679609,-5551.544565,2451.505594
2991.238902,-1110.308913,-6143.709319,1838.629195
2991.239229,-740.205942,-7624.121203,0.000000
2991.239557,-666.185348,-8956.491898,229.828649
2991.239885,1924.535449,-9474.636058,612.876398
2991.240212,4737.318029,-11843.295072,0.000000
2991.240540,4663.297435,-13989.892304,-229.828649
2991.240867,1850.514855,-13101.645173,-612.876398
2991.241195,-370.102971,-10584.944971,-1762.019645
2991.241523,-370.102971,-9992.780217,-2374.896044
2991.241850,-2072.576638,-10214.842000,-1532.190996
2991.242178,-3404.947333,-9474.636058,-459.657299
2991.242505,-2220.617826,-9178.553681,1149.143247
2991.242833,74.020594,-9770.718434,1149.143247
2991.243161,0.000000,-8956.491898,995.924147
2991.243488,-1184.329507,-6809.894666,-383.047749
2991.243816,-518.144159,-7254.018232,-1072.533697
2991.244144,1110.308913,-10288.862594,-919.314598
2991.244471,1480.411884,-10362.883188,-1072.533697
2991.244799,1332.370696,-9474.636058,76.609550
2991.245126,2220.617826,-11177.109724,995.924147
2991.245454,3182.885551,-13101.645173,76.609550
2991.245782,1628.453072,-12139.377449,0.000000
2991.246109,-592.164754,-9548.656652,-1225.752797
2991.246437,-740.205942,-9844.739029,-2834.553343
2991.246765,-1406.391290,-9622.677246,-995.924147
2991.247092,-2146.597232,-7105.977043,229.828649
2991.247420,-1184.329507,-7105.977043,1378.971896
2991.247747,-370.102971,-8660.409521,1532.190996
2991.248075,814.226536,-9622.677246,306.438199
2991.248403,-518.144159,-8142.265362,-229.828649
2991.248730,74.020594,-7772.162391,-1149.143247
2991.249058,1258.350101,-9326.594869,-1532.190996
2991.249386,1406.391290,-11325.150913,0.000000
2991.249713,1332.370696,-9992.780217,383.047749
2991.250041,2812.782580,-9844.739029,0.000000
2991.250368,2960.823768,-11621.233289,689.485948
2991.250696,370.102971,-10510.924376,1225.752797
2991.251024,-1628.453072,-8216.285956,689.485948
2991.251351,0.000000,-8808.450710,-536.266849
2991.251679,-296.082377,-10510.924376,-1608.800546
2991.252006,-1850.514855,-9474.636058,-459.657299
2991.252334,-1406.391290,-8364.327145,0.000000
2991.252662,888.247130,-9844.739029,-153.219100
2991.252989,2590.720797,-11103.089130,-306.438199
2991.253317,1406.391290,-9770.718434,536.266849
2991.253645,1332.370696,-8438.347739,689.485948
2991.253972,2368.659014,-10658.965565,-766.095498
2991.254300,2072.576638,-11843.295072,-1072.533697
2991.254627,-1110.308913,-9474.636058,153.219100
2991.254955,-1702.473667,-8734.430116,536.266849
2991.255283,-1480.411884,-10436.903782,-536.266849
2991.255610,-1332.370696,-11177.109724,-995.924147
2991.255938,-888.247130,-9474.636058,-1455.581446
2991.256266,74.020594,-9474.636058,-306.438199
2991.256593,2294.638420,-11991.336260,459.657299
2991.256921,1924.535449,-10881.027347,766.095498
2991.257248,666.185348,-8734.430116,1072.533697
2991.257576,666.185348,-8290.306550,306.438199
2991.257904,1332.370696,-10288.862594,-459.657299
2991.258231,0.000000,-9030.512492,-766.095498
2991.258559,-962.267725,-6513.812290,-383.047749
2991.258886,-1702.473667,-8660.409521,-995.924147
2991.259214,-1258.350101,-11917.315666,-919.314598
2991.259542,-1406.391290,-10214.842000,153.219100
2991.259869,-1110.308913,-7031.956449,153.219100
2991.260197,518.144159,-7772.162391,0.000000
2991.260525,518.144159,-10140.821405,1072.533697
2991.260852,740.205942,-9030.512492,1072.533697
2991.261180,1628.453072,-8216.285956,1072.533697
2991.261507,2812.782580,-10732.986159,689.485948
2991.261835,3256.906145,-12287.418637,459.657299
2991.262163,888.247130,-10066.800811,766.095498
2991.262490,444.123565,-9918.759623,-1302.362347
2991.262818,1554.432478,-11769.274478,-2221.676944
2991.263146,370.102971,-11029.068536,-2604.724693
2991.263473,-1554.432478,-8734.430116,-1608.800546
2991.263801,-1036.288319,-9104.533087,-1378.971896
2991.264128,-888.247130,-10066.800811,-612.876398
2991.264456,-1554.432478,-9770.718434,1225.752797
2991.264784,-1998.556043,-7328.038826,1762.019645
2991.265111,666.185348,-7254.018232,2068.457845
2991.265439,2368.659014,-8956.491898,1685.410096
2991.265767,1850.514855,-9622.677246,1378.971896
2991.266094,1628.453072,-9474.636058,536.266849
2991.266422,2220.617826,-10510.924376,-1225.752797
2991.266749,1628.453072,-13767.830521,-2528.115143
2991.267077,-666.185348,-12953.603985,-2987.772442
2991.267405,-296.082377,-10658.965565,-2221.676944
2991.267732,1184.329507,-11029.068536,-1838.629195
2991.268060,1258.350101,-11251.130318,-766.095498
2991.268387,-1258.350101,-8290.306550,1072.533697
2991.268715,-1332.370696,-5181.441594,1149.143247
2991.269043,-1554.432478,-5329.482782,1455.581446
2991.269370,-2442.679609,-6809.894666,842.705048
2991.269698,-3034.844362,-6069.688724,1225.752797
2991.270026,-1554.432478,-7031.956449,1532.190996
2991.270353,1776.494261,-11029.068536,995.924147
2991.270681,3923.091493,-13619.789333,-536.266849
2991.271008,3997.112087,-13693.809927,-689.485948
2991.271336,3256.906145,-12731.542202,-1149.143247
2991.271664,2590.720797,-13249.686362,-1302.362347
2991.271991,-518.144159,-9992.780217,-1378.971896
2991.272319,-1924.535449,-7994.224174,-1455.581446
2991.272647,-1850.514855,-8956.491898,-689.485948
2991.272974,-666.185348,-9474.636058,612.876398
2991.273302,-1924.535449,-7328.038826,1762.019645
2991.273629,-2368.659014,-5921.647536,536.266849
2991.273957,-1924.535449,-7994.224174,-689.485948
2991.274285,-2072.576638,-9178.553681,-1608.800546
2991.274612,-1702.473667,-8068.244768,0.000000
2991.274940,1036.288319,-9030.512492,229.828649
2991.275267,4293.194464,-12065.356855,0.000000
2991.275595,4811.338623,-14211.954086,229.828649
2991.275923,3701.029710,-14063.912898,383.047749
2991.276250,3108.864956,-12435.459826,76.609550
2991.276578,1998.556043,-11251.130318,-1685.410096
2991.276906,-1628.453072,-10214.842000,-1915.238745
2991.277233,-4367.215058,-7772.162391,-1225.752797
2991.277561,-2812.782580,-6809.894666,-1915.238745
2991.277888,-888.247130,-7994.224174,-1378.971896
2991.278216,-888.247130,-7772.162391,0.000000
2991.278544,-1480.411884,-6661.853478,2145.067394
2991.278871,-740.205942,-8068.244768,919.314598
2991.279199,592.164754,-9030.512492,383.047749
2991.279527,1406.391290,-8586.388927,0.000000
2991.279854,2442.679609,-9030.512492,0.000000
2991.280182,4737.318029,-11769.274478,1072.533697
2991.280509,5921.647536,-13101.645173,1072.533697
2991.280837,4589.276840,-12509.480420,612.876398
2991.281165,1998.556043,-11325.150913,-1378.971896
2991.281492,-296.082377,-11325.150913,-2068.457845
2991.281820,-2812.782580,-10584.944971,-2451.505594
2991.282148,-5477.523971,-7846.182985,-2068.457845
2991.282475,-3923.091493,-7105.977043,-1532.190996
2991.282803,0.000000,-8290.306550,-536.266849
2991.283130,1036.288319,-8512.368333,766.095498
2991.283458,296.082377,-6661.853478,2604.724693
2991.283786,1776.494261,-7105.977043,1991.848295
2991.284113,2590.720797,-9844.739029,229.828649
2991.284441,1332.370696,-11029.068536,-229.828649
2991.284768,1036.288319,-10214.842000,0.000000
2991.285096,2886.803174,-10955.047942,-383.047749
2991.285424,3627.009116,-13693.809927,-919.314598
2991.285751,962.267725,-13915.871710,306.438199
2991.286079,-1332.370696,-11399.171507,-1072.533697
2991.286407,-2368.659014,-10140.821405,-2834.553343
2991.286734,-3330.926739,-9770.718434,-3753.867940
2991.287062,-4885.359217,-7476.080014,-1991.848295
2991.287389,-3478.967927,-6439.791695,689.485948
2991.287717,370.102971,-7994.224174,2145.067394
2991.288045,3256.906145,-9178.553681,1532.190996
2991.288372,2294.638420,-8142.265362,1915.238745
2991.288700,1776.494261,-7920.203579,995.924147
2991.289028,2146.597232,-9474.636058,-766.095498
2991.289355,666.185348,-10436.903782,-1762.019645
2991.289683,-1480.411884,-10214.842000,-1225.752797
2991.290010,-592.164754,-10140.821405,383.047749
2991.290338,1480.411884,-11991.336260,1762.019645
2991.290666,1628.453072,-11843.295072,995.924147
2991.290993,-592.164754,-9400.615463,0.000000
2991.291321,-1628.453072,-8068.244768,-612.876398
2991.291648,-1850.514855,-8068.244768,-1225.752797
2991.291976,-2738.761985,-7402.059420,-919.314598
2991.292304,-1850.514855,-6439.791695,-306.438199
2991.292631,1480.411884,-8586.388927,919.314598
2991.292959,3478.967927,-11325.150913,1532.190996
2991.293287,2664.741391,-10732.986159,919.314598
2991.293614,1776.494261,-9326.594869,-766.095498
2991.293942,1924.535449,-10436.903782,-2451.505594
2991.294269,1184.329507,-11473.192101,-2451.505594
2991.294597,814.226536,-10807.006753,-1532.190996
2991.294925,370.102971,-9474.636058,0.000000
2991.295252,1184.329507,-10732.986159,766.095498
2991.295580,962.267725,-11695.253884,1302.362347
2991.295908,-518.144159,-9622.677246,1455.581446
2991.296235,-296.082377,-8290.306550,-306.438199
2991.296563,444.123565,-9918.759623,-1532.190996
2991.296890,-1998.556043,-9696.697840,-383.047749
2991.297218,-1480.411884,-9030.512492,-383.047749
2991.297546,-148.041188,-9104.533087,-1072.533697
2991.297873,1110.308913,-10584.944971,-842.705048
2991.298201,1406.391290,-10955.047942,-612.876398
2991.298529,1480.411884,-9844.739029,0.000000
2991.298856,2146.597232,-10140.821405,383.047749
2991.299184,1258.350101,-10732.986159,0.000000
2991.299511,-296.082377,-9548.656652,0.000000
2991.299839,-1480.411884,-7846.182985,76.609550
2991.300167,-1406.391290,-7698.141797,612.876398
2991.300494,-370.102971,-9030.512492,0.000000
2991.300822,-666.185348,-9918.759623,153.219100
2991.301149,370.102971,-9474.636058,919.314598
2991.301477,2294.638420,-10288.862594,459.657299
2991.301805,1998.556043,-11695.253884,1685.410096
2991.302132,148.041188,-10732.986159,229.828649
2991.302460,296.082377,-9104.533087,-1532.190996
2991.302788,1628.453072,-9252.574275,-2528.115143
2991.303115,518.144159,-8808.450710,-1532.190996
2991.303443,74.020594,-8956.491898,-612.876398
2991.303770,0.000000,-9400.615463,383.047749
2991.304098,-888.247130,-10362.883188,383.047749
2991.304426,-2664.741391,-8512.368333,-383.047749
2991.304753,-2368.659014,-7105.977043,-995.924147
2991.305081,-1110.308913,-7846.182985,-842.705048
2991.305409,74.020594,-9178.553681,0.000000
2991.305736,1110.308913,-9918.759623,1608.800546
2991.306064,3256.906145,-11399.171507,1762.019645
2991.306391,3256.906145,-11843.295072,459.657299
2991.306719,2442.679609,-13101.645173,-919.314598
2991.307047,296.082377,-12287.418637,-459.657299
2991.307374,-592.164754,-10732.986159,-1915.238745
2991.307702,296.082377,-10732.986159,-3447.429741
2991.308029,-518.144159,-10955.047942,-1915.238745
2991.308357,-1850.514855,-8364.327145,-689.485948
2991.308685,-1998.556043,-7105.977043,0.000000
2991.309012,-962.267725,-8142.265362,689.485948
2991.309340,-1628.453072,-8364.327145,689.485948
2991.309668,-2442.679609,-6365.771101,1149.143247
2991.309995,-814.226536,-5625.565159,919.314598
2991.310323,1554.432478,-9400.615463,1685.410096
2991.310650,2442.679609,-11029.068536,1149.143247
2991.310978,2886.803174,-11325.150913,689.485948
2991.311306,2590.720797,-11177.109724,-383.047749
2991.311633,3182.885551,-12953.603985,-1532.190996
2991.311961,740.205942,-13545.768739,-1838.629195
2991.312289,-740.205942,-10955.047942,-1378.971896
2991.312616,0.000000,-9474.636058,-1991.848295
2991.312944,74.020594,-9178.553681,-1225.752797
2991.313271,-1924.535449,-7179.997637,612.876398
2991.313599,-1702.473667,-5995.668130,1378.971896
2991.313927,-296.082377,-6291.750507,919.314598
2991.314254,444.123565,-7624.121203,383.047749
2991.314582,74.020594,-7772.162391,766.095498
2991.314909,888.247130,-7476.080014,1072.533697
2991.315237,2664.741391,-9474.636058,229.828649
2991.315565,3552.988522,-12805.562797,536.266849
2991.315892,3478.967927,-13693.809927,-919.314598
2991.316220,3330.926739,-13249.686362,-1915.238745
2991.316548,3256.906145,-13545.768739,-1915.238745
2991.316875,1480.411884,-13175.665768,-1225.752797
2991.317203,-1628.453072,-10066.800811,-306.438199
2991.317530,-2294.638420,-8956.491898,-995.924147
2991.317858,-2886.803174,-8882.471304,-766.095498
2991.318186,-3330.926739,-7179.997637,-1378.971896
2991.318513,-3923.091493,-4811.338623,-995.924147
2991.318841,-1776.494261,-6513.812290,-766.095498
2991.319169,518.144159,-9474.636058,383.047749
2991.319496,1924.535449,-9918.759623,1685.410096
2991.319824,2442.679609,-8068.244768,1302.362347
2991.320151,4293.194464,-11029.068536,1072.533697
2991.320479,5107.421000,-13397.727550,-229.828649
2991.320807,3478.967927,-12361.439231,536.266849
2991.321134,2294.638420,-10436.903782,1302.362347
2991.321462,814.226536,-10214.842000,0.000000
2991.321790,-2220.617826,-10807.006753,536.266849
2991.322117,-4959.379811,-8512.368333,842.705048
2991.322445,-5033.400406,-7179.997637,-995.924147
2991.322772,-4441.235652,-7920.203579,-2068.457845
2991.323100,-4145.153275,-7624.121203,-1608.800546
2991.323428,-4663.297435,-4737.318029,-306.438199
2991.323755,-1258.350101,-5699.585753,153.219100
2991.324083,2516.700203,-8882.471304,842.705048
2991.324410,3256.906145,-10881.027347,1608.800546
2991.324738,2664.741391,-8734.430116,2604.724693
2991.325066,4663.297435,-10658.965565,1072.533697
2991.325393,5625.565159,-14359.995275,-459.657299
2991.325721,3108.864956,-13175.665768,-995.924147
2991.326049,444.123565,-10584.944971,-536.266849
2991.326376,148.041188,-10955.047942,-2298.286494
2991.326704,-1258.350101,-12213.398043,-1685.410096
2991.327031,-3775.050304,-11695.253884,-842.705048
2991.327359,-5255.462188,-8068.244768,-1378.971896
2991.327687,-1776.494261,-7994.224174,-1838.629195
2991.328014,222.061783,-9326.594869,-612.876398
2991.328342,0.000000,-7772.162391,1455.581446
2991.328670,1850.514855,-6439.791695,1762.019645
2991.328997,4367.215058,-9178.553681,689.485948
2991.329325,4293.194464,-10362.883188,612.876398
2991.329652,2368.659014,-9474.636058,842.705048
2991.329980,1702.473667,-9548.656652,919.314598
2991.330308,1924.535449,-12065.356855,-1149.143247
2991.330635,888.247130,-13471.748144,-1915.238745
2991.330963,0.000000,-11769.274478,-1838.629195
2991.331290,592.164754,-9992.780217,-1455.581446
2991.331618,1332.370696,-11991.336260,229.828649
2991.331946,-1110.308913,-10732.986159,1072.533697
2991.332273,-2220.617826,-6883.915261,1608.800546
2991.332601,-814.226536,-4737.318029,229.828649
2991.332929,0.000000,-7402.059420,-766.095498
2991.333256,0.000000,-8586.388927,919.314598
2991.333584,-222.061783,-7105.977043,1915.238745
2991.333911,814.226536,-8068.244768,-383.047749
2991.334239,2368.659014,-11399.171507,-1915.238745
2991.334567,1406.391290,-11473.192101,-1838.629195
2991.334894,-666.185348,-9178.553681,-689.485948
2991.335222,370.102971,-9696.697840,-229.828649
2991.335550,1628.453072,-11473.192101,-995.924147
2991.335877,-444.123565,-9770.718434,459.657299
2991.336205,-1332.370696,-8956.491898,1532.190996
2991.336532,-592.164754,-10362.883188,995.924147
2991.336860,-740.205942,-11843.295072,0.000000
2991.337188,-2072.576638,-9696.697840,-995.924147
2991.337515,-444.123565,-8364.327145,-2068.457845
2991.337843,1480.411884,-10807.006753,-1455.581446
2991.338171,2072.576638,-11473.192101,-1072.533697
2991.338498,370.102971,-9548.656652,-383.047749
2991.338826,592.164754,-8216.285956,-153.219100
2991.339153,814.226536,-9400.615463,-536.266849
2991.339481,0.000000,-11029.068536,-306.438199
2991.339809,-1850.514855,-9400.615463,1149.143247
2991.340136,-518.144159,-7624.121203,766.095498
2991.340464,666.185348,-10066.800811,0.000000
2991.340791,74.020594,-10584.944971,383.047749
2991.341119,-962.267725,-8068.244768,-153.219100
2991.341446,-666.185348,-9178.553681,76.609550
2991.341774,-1184.329507,-11251.130318,0.000000
2991.342102,-1110.308913,-11473.192101,-1302.362347
2991.342429,296.082377,-10658.965565,-1302.362347
2991.342757,2294.638420,-10955.047942,-1149.143247
2991.343084,2442.679609,-10362.883188,229.828649
2991.343412,1554.432478,-9696.697840,1225.752797
2991.343739,666.185348,-7402.059420,153.219100
2991.344067,-222.061783,-8216.285956,-306.438199
2991.344395,-1554.432478,-7624.121203,306.438199
2991.344722,-2590.720797,-6883.915261,766.095498
2991.345050,-1036.288319,-7920.203579,1378.971896
2991.345377,962.267725,-9770.718434,459.657299
2991.345705,1554.432478,-10807.006753,-306.438199
2991.346032,740.205942,-10214.842000,-459.657299
2991.346360,2294.638420,-10732.986159,-1225.752797
2991.346688,2220.617826,-12657.521608,-1378.971896
2991.347015,888.247130,-11991.336260,-306.438199
2991.347343,444.123565,-9252.574275,-536.266849
2991.347670,1776.494261,-10510.924376,0.000000
2991.347998,2812.782580,-12139.377449,-306.438199
2991.348325,1554.432478,-9918.759623,153.219100
2991.348653,-888.247130,-7179.997637,229.828649
2991.348980,-1850.514855,-8290.306550,-995.924147
2991.349308,-2590.720797,-9178.553681,-1225.752797
2991.349636,-2516.700203,-8068.244768,-2451.505594
2991.349963,-1332.370696,-6291.750507,-153.219100
2991.350291,2072.576638,-9400.615463,919.314598
2991.350618,4811.338623,-11917.315666,1302.362347
2991.350946,4367.215058,-11399.171507,766.095498
2991.351273,3849.070898,-11103.089130,0.000000
2991.351601,2738.761985,-12139.377449,-536.266849
2991.351929,-370.102971,-11029.068536,-1149.143247
2991.352256,-1480.411884,-8956.491898,-1149.143247
2991.352584,-740.205942,-10066.800811,-1455.581446
2991.352911,0.000000,-11621.233289,-995.924147
2991.353239,-814.226536,-10510.924376,459.657299
2991.353566,-1258.350101,-7476.080014,1225.752797
2991.353894,-814.226536,-6809.894666,842.705048
2991.354221,-2516.700203,-8290.306550,995.924147
2991.354549,-3701.029710,-6069.688724,1225.752797
2991.354877,-3034.844362,-5033.400406,0.000000
2991.355204,1776.494261,-8364.327145,-229.828649
2991.355532,3849.070898,-12213.398043,459.657299
2991.355859,2220.617826,-12361.439231,2451.505594
2991.356187,1924.535449,-11621.233289,842.705048
2991.356514,2442.679609,-14211.954086,-2221.676944
2991.356842,0.000000,-13101.645173,-2987.772442
2991.357170,-2960.823768,-10658.965565,-1991.848295
2991.357497,-1998.556043,-9252.574275,-1608.800546
2991.357825,0.000000,-10807.006753,-383.047749
2991.358152,-1480.411884,-8586.388927,1378.971896
2991.358480,-2738.761985,-6143.709319,2221.676944
2991.358807,-2220.617826,-5773.606348,1302.362347
2991.359135,-296.082377,-7994.224174,0.000000
2991.359462,-1258.350101,-7031.956449,-995.924147
2991.359790,814.226536,-7031.956449,-306.438199
2991.360118,4293.194464,-8808.450710,-153.219100
2991.360445,5181.441594,-12435.459826,153.219100
2991.360773,3627.009116,-14730.098246,-229.828649
2991.361100,2368.659014,-13693.809927,-2528.115143
2991.361428,3478.967927,-12361.439231,-3370.820191
2991.361755,2146.597232,-12583.501014,-2451.505594
2991.362083,0.000000,-11695.253884,306.438199
2991.362411,0.000000,-9178.553681,1072.533697
2991.362738,1406.391290,-8586.388927,306.438199
2991.363066,888.247130,-8586.388927,842.705048
2991.363393,-1184.329507,-5699.585753,1225.752797
2991.363721,-1924.535449,-5181.441594,612.876398
2991.364048,-1332.370696,-7550.100608,-766.095498
2991.364376,0.000000,-9770.718434,-1072.533697
2991.364703,0.000000,-9474.636058,-766.095498
2991.365031,2442.679609,-10214.842000,-229.828649
2991.365359,4959.379811,-11621.233289,0.000000
2991.365686,4367.215058,-12879.583391,0.000000
2991.366014,1480.411884,-11399.171507,0.000000
2991.366341,-592.164754,-9252.574275,-1149.143247
2991.366669,-1554.432478,-9548.656652,-1685.410096
2991.366996,-3701.029710,-10214.842000,0.000000
2991.367324,-3256.906145,-9696.697840,1072.533697
2991.367652,-1628.453072,-9400.615463,1455.581446
2991.367979,222.061783,-9622.677246,0.000000
2991.368307,-148.041188,-8068.244768,-459.657299
2991.368634,-666.185348,-7105.977043,-306.438199
2991.368962,296.082377,-7402.059420,536.266849
2991.369289,888.247130,-9252.574275,689.485948
2991.369617,74.020594,-9326.594869,612.876398
2991.369945,1406.391290,-9770.718434,76.609550
2991.370272,1998.556043,-12361.439231,153.219100
2991.370600,1924.535449,-11843.295072,459.657299
2991.370927,-296.082377,-10066.800811,-689.485948
2991.371255,-1258.350101,-10658.965565,-1838.629195
2991.371582,-1998.556043,-10955.047942,-2604.724693
2991.371910,-2886.803174,-10214.842000,-2145.067394
2991.372237,-3034.844362,-8660.409521,-383.047749
2991.372565,-1036.288319,-9474.636058,0.000000
2991.372893,296.082377,-9326.594869,1608.800546
2991.373220,74.020594,-8364.327145,1072.533697
2991.373548,296.082377,-7402.059420,76.609550
2991.373875,1554.432478,-9252.574275,-919.314598
2991.374203,1258.350101,-10955.047942,-383.047749
