#time,accel_x,accel_y,accel_z
2593.563911,296.082377,-9548.656652,153.219100
2593.564239,370.102971,-9622.677246,0.000000
2593.564566,592.164754,-9918.759623,153.219100
2593.564894,592.164754,-9622.677246,306.438199
2593.565221,814.226536,-9844.739029,919.314598
2593.565549,444.123565,-9474.636058,383.047749
2593.565876,222.061783,-9252.574275,0.000000
2593.566204,74.020594,-9474.636058,-383.047749
2593.566531,0.000000,-9622.677246,-766.095498
2593.566859,0.000000,-9844.739029,-842.705048
2593.567186,148.041188,-9622.677246,-842.705048
2593.567514,74.020594,-10066.800811,-229.828649
2593.567841,444.123565,-10214.842000,-229.828649
2593.568169,666.185348,-10584.944971,-383.047749
2593.568496,740.205942,-10584.944971,0.000000
2593.568824,518.144159,-10140.821405,-383.047749
2593.569151,370.102971,-9992.780217,0.000000
2593.569479,74.020594,-9400.615463,-536.266849
2593.569806,222.061783,-9252.574275,-612.876398
2593.570134,0.000000,-9770.718434,0.000000
2593.570461,0.000000,-9770.718434,-459.657299
2593.570789,0.000000,-9844.739029,-689.485948
2593.571116,222.061783,-10214.842000,-536.266849
2593.571444,296.082377,-9844.739029,-383.047749
2593.571771,370.102971,-9770.718434,229.828649
2593.572099,666.185348,-9770.718434,383.047749
2593.572426,296.082377,-9178.553681,842.705048
2593.572754,666.185348,-9400.615463,0.000000
2593.573082,222.061783,-9252.574275,153.219100
2593.573409,0.000000,-9030.512492,0.000000
2593.573737,0.000000,-8956.491898,-229.828649
2593.574064,-222.061783,-8882.471304,0.000000
2593.574392,0.000000,-9400.615463,306.438199
2593.574719,-296.082377,-9400.615463,-612.876398
2593.575047,444.123565,-9548.656652,0.000000
2593.575374,518.144159,-9696.697840,0.000000
2593.575702,518.144159,-9696.697840,0.000000
2593.576029,666.185348,-9770.718434,229.828649
2593.576357,962.267725,-9622.677246,0.000000
2593.576684,370.102971,-9178.553681,306.438199
2593.577012,444.123565,-9104.533087,689.485948
2593.577339,444.123565,-8956.491898,-536.266849
2593.577667,888.247130,-9400.615463,-689.485948
2593.577994,1628.453072,-9326.594869,-536.266849
2593.578322,2516.700203,-9030.512492,-842.705048
2593.578649,3775.050304,-9178.553681,-306.438199
2593.578977,4737.318029,-10214.842000,-536.266849
2593.579304,5921.647536,-10362.883188,76.609550
2593.579632,7031.956449,-10436.903782,0.000000
2593.579959,7402.059420,-10584.944971,0.000000
2593.580287,7624.121203,-10881.027347,-306.438199
2593.580614,7624.121203,-10510.924376,-229.828649
2593.580942,7179.997637,-10436.903782,0.000000
2593.581269,7994.224174,-9844.739029,0.000000
2593.581597,9030.512492,-8956.491898,306.438199
2593.581924,9400.615463,-9178.553681,-306.438199
2593.582252,9918.759623,-8956.491898,383.047749
2593.582579,11769.274478,-9252.574275,153.219100
2593.582907,12435.459826,-9622.677246,306.438199
2593.583234,12065.356855,-9622.677246,1608.800546
2593.583562,11843.295072,-9252.574275,689.485948
2593.583889,10658.965565,-8660.409521,612.876398
2593.584217,11769.274478,-10288.862594,536.266849
2593.584545,11843.295072,-10066.800811,76.609550
2593.584872,11695.253884,-10066.800811,459.657299
2593.585200,11325.150913,-9844.739029,842.705048
2593.585527,11177.109724,-8956.491898,689.485948
2593.585855,10140.821405,-8290.306550,459.657299
2593.586182,9844.739029,-9104.533087,0.000000
2593.586510,9326.594869,-9474.636058,689.485948
2593.586837,9252.574275,-9918.759623,842.705048
2593.587165,9030.512492,-10362.883188,1225.752797
2593.587492,7846.182985,-9992.780217,1072.533697
2593.587820,6143.709319,-9770.718434,1072.533697
2593.588147,4219.173869,-9696.697840,919.314598
2593.588475,3775.050304,-9548.656652,-536.266849
2593.588802,3034.844362,-9474.636058,-1225.752797
2593.589130,2442.679609,-9030.512492,-1072.533697
2593.589457,2220.617826,-8956.491898,-459.657299
2593.589785,2516.700203,-9326.594869,-383.047749
2593.590112,2368.659014,-9844.739029,0.000000
2593.590440,1554.432478,-10288.862594,1149.143247
2593.590767,1628.453072,-10436.903782,-766.095498
2593.591095,1924.535449,-9178.553681,-1072.533697
2593.591422,2516.700203,-10362.883188,153.219100
2593.591750,2220.617826,-11473.192101,919.314598
2593.592077,0.000000,-11917.315666,2221.676944
2593.592405,-2664.741391,-10288.862594,1072.533697
2593.592732,-4367.215058,-9770.718434,-1225.752797
2593.593060,-6291.750507,-8364.327145,-2834.553343
2593.593387,-7328.038826,-6883.915261,-1225.752797
2593.593715,-6587.832884,-8586.388927,-766.095498
2593.594042,-5033.400406,-9474.636058,-306.438199
2593.594370,-2664.741391,-9992.780217,-1225.752797
2593.594697,-1850.514855,-10288.862594,-1532.190996
2593.595025,-2516.700203,-10214.842000,-1149.143247
2593.595352,-3182.885551,-9548.656652,-766.095498
2593.595680,-3034.844362,-8956.491898,-1302.362347
2593.596008,-814.226536,-9548.656652,-1225.752797
2593.596335,1924.535449,-10510.924376,-995.924147
2593.596663,2442.679609,-10584.944971,459.657299
2593.596990,1184.329507,-10510.924376,1838.629195
2593.597318,-296.082377,-10214.842000,229.828649
2593.597645,-2220.617826,-8808.450710,-2068.457845
2593.597973,-2960.823768,-6587.832884,-2528.115143
2593.598300,-1184.329507,-5699.585753,-1302.362347
2593.598628,2590.720797,-7624.121203,0.000000
2593.598955,5181.441594,-9992.780217,2221.676944
2593.599283,5995.668130,-10436.903782,2681.334243
2593.599610,3330.926739,-11029.068536,689.485948
2593.599938,-148.041188,-9622.677246,-306.438199
2593.600265,-666.185348,-8956.491898,-2298.286494
2593.600593,296.082377,-10140.821405,-3907.087040
2593.600920,2368.659014,-11621.233289,-2451.505594
2593.601248,4737.318029,-11695.253884,-229.828649
2593.601575,4959.379811,-11399.171507,2068.457845
2593.601903,2442.679609,-10510.924376,2298.286494
2593.602230,74.020594,-9400.615463,76.609550
2593.602558,-296.082377,-7624.121203,-1762.019645
2593.602885,740.205942,-6883.915261,-2987.772442
2593.603213,3923.091493,-8216.285956,-1302.362347
2593.603540,7105.977043,-9548.656652,2068.457845
2593.603868,7402.059420,-10658.965565,5745.716235
2593.604195,3997.112087,-11325.150913,4826.401637
2593.604523,1702.473667,-12139.377449,383.047749
2593.604850,-444.123565,-11695.253884,-3217.601092
2593.605178,-370.102971,-10436.903782,-4826.401637
2593.605505,1184.329507,-11029.068536,-3064.381992
2593.605833,2738.761985,-10881.027347,689.485948
2593.606160,2368.659014,-10436.903782,2834.553343
2593.606488,518.144159,-9400.615463,2145.067394
2593.606815,-1702.473667,-7920.203579,1302.362347
2593.607143,-2812.782580,-6291.750507,-1762.019645
2593.607471,-888.247130,-7105.977043,-2221.676944
2593.607798,1258.350101,-8438.347739,76.609550
2593.608126,3552.988522,-9548.656652,2221.676944
2593.608453,2738.761985,-11917.315666,3677.258390
2593.608781,222.061783,-12879.583391,2451.505594
2593.609108,-2368.659014,-11843.295072,76.609550
2593.609436,-5181.441594,-10066.800811,-2221.676944
2593.609763,-4663.297435,-9918.759623,-2911.162892
2593.610091,-3108.864956,-9474.636058,-1608.800546
2593.610418,-1850.514855,-9474.636058,229.828649
2593.610746,-2664.741391,-9548.656652,1455.581446
2593.611073,-4293.194464,-7920.203579,842.705048
2593.611401,-4515.256246,-6587.832884,-1685.410096
2593.611728,-4885.359217,-6439.791695,-1915.238745
2593.612056,-2886.803174,-7328.038826,-2221.676944
2593.612383,1036.288319,-9030.512492,-612.876398
2593.612711,3034.844362,-11325.150913,1915.238745
2593.613038,2072.576638,-12657.521608,3294.210641
2593.613366,-740.205942,-12139.377449,1302.362347
2593.613693,-3552.988522,-10955.047942,0.000000
2593.614021,-4663.297435,-9474.636058,-3447.429741
2593.614348,-3034.844362,-8882.471304,-4903.011187
2593.614676,-814.226536,-9770.718434,-3524.039291
2593.615003,666.185348,-9992.780217,76.609550
2593.615331,1110.308913,-9030.512492,2145.067394
2593.615658,296.082377,-7772.162391,1762.019645
2593.615986,-1258.350101,-7105.977043,-612.876398
2593.616313,222.061783,-7920.203579,-2834.553343
2593.616641,2960.823768,-9104.533087,-2911.162892
2593.616968,6513.812290,-10807.006753,-229.828649
2593.617296,7105.977043,-12509.480420,2911.162892
2593.617623,4367.215058,-13841.851115,3370.820191
2593.617951,1258.350101,-13249.686362,459.657299
2593.618279,-2072.576638,-10881.027347,-2374.896044
2593.618606,-3478.967927,-9030.512492,-4903.011187
2593.618934,-1036.288319,-9030.512492,-4749.792088
2593.619261,2368.659014,-8882.471304,-1991.848295
2593.619589,4071.132681,-8956.491898,2068.457845
2593.619916,3997.112087,-9252.574275,3524.039291
2593.620244,3330.926739,-8438.347739,3524.039291
2593.620571,1480.411884,-7402.059420,995.924147
2593.620899,1480.411884,-7105.977043,-383.047749
2593.621226,3997.112087,-8586.388927,-1225.752797
2593.621554,5995.668130,-10214.842000,919.314598
2593.621881,5477.523971,-11621.233289,2834.553343
2593.622209,1850.514855,-13101.645173,2681.334243
2593.622536,-222.061783,-14063.912898,766.095498
2593.622864,-2294.638420,-11843.295072,-3140.991542
2593.623191,-3997.112087,-9178.553681,-3753.867940
2593.623519,-2072.576638,-7846.182985,-3217.601092
2593.623846,1554.432478,-7550.100608,-306.438199
2593.624174,2368.659014,-7179.997637,2834.553343
2593.624501,1850.514855,-7550.100608,4060.306139
2593.624829,740.205942,-7402.059420,4213.525239
2593.625156,444.123565,-7105.977043,842.705048
2593.625484,592.164754,-7105.977043,-1532.190996
2593.625811,1406.391290,-9474.636058,-2068.457845
2593.626139,2294.638420,-12139.377449,-153.219100
2593.626466,1258.350101,-12731.542202,1838.629195
2593.626794,-1850.514855,-13397.727550,995.924147
2593.627121,-5181.441594,-12139.377449,-1532.190996
2593.627449,-6883.915261,-10584.944971,-4060.306139
2593.627776,-6661.853478,-8660.409521,-4903.011187
2593.628104,-3997.112087,-8364.327145,-3830.477490
2593.628432,-518.144159,-8586.388927,-306.438199
2593.628759,814.226536,-7846.182985,2681.334243
2593.629087,592.164754,-7920.203579,3524.039291
2593.629414,-296.082377,-8290.306550,1378.971896
2593.629742,-1258.350101,-8290.306550,-1225.752797
2593.630069,-1554.432478,-8660.409521,-3447.429741
2593.630397,518.144159,-10584.944971,-3370.820191
2593.630724,1776.494261,-12287.418637,-919.314598
2593.631052,1776.494261,-14137.933492,1302.362347
2593.631379,-148.041188,-13915.871710,2145.067394
2593.631707,-3404.947333,-12509.480420,-766.095498
2593.632034,-4737.318029,-9844.739029,-3753.867940
2593.632362,-4515.256246,-7772.162391,-4903.011187
2593.632689,-1850.514855,-7105.977043,-2451.505594
2593.633017,740.205942,-6587.832884,995.924147
2593.633344,2368.659014,-7105.977043,3677.258390
2593.633672,3034.844362,-8364.327145,4443.353888
2593.634000,1924.535449,-8438.347739,1762.019645
2593.634327,1110.308913,-7846.182985,-1455.581446
2593.634655,2368.659014,-8808.450710,-2834.553343
2593.634982,4441.235652,-11399.171507,-2528.115143
2593.635310,4811.338623,-12953.603985,153.219100
2593.635637,4145.153275,-13545.768739,2757.943793
2593.635965,2146.597232,-12139.377449,2528.115143
2593.636292,-370.102971,-10881.027347,153.219100
2593.636620,-2368.659014,-8438.347739,-1532.190996
2593.636947,-1850.514855,-7105.977043,-2834.553343
2593.637275,0.000000,-7031.956449,-1838.629195
2593.637602,2072.576638,-7402.059420,1072.533697
2593.637930,4071.132681,-8216.285956,2987.772442
2593.638257,2886.803174,-8586.388927,2987.772442
2593.638585,1406.391290,-9252.574275,1378.971896
2593.638912,888.247130,-9326.594869,-1225.752797
2593.639240,1480.411884,-9548.656652,-2757.943793
2593.639567,2960.823768,-11843.295072,-2451.505594
2593.639895,3997.112087,-13693.809927,383.047749
2593.640223,2738.761985,-13693.809927,2145.067394
2593.640550,-444.123565,-12657.521608,1455.581446
2593.640878,-2812.782580,-11843.295072,-1225.752797
2593.641205,-3701.029710,-9326.594869,-3064.381992
2593.641533,-2812.782580,-6809.894666,-3830.477490
2593.641860,-592.164754,-7254.018232,-919.314598
2593.642188,2220.617826,-8216.285956,2298.286494
2593.642515,2960.823768,-8290.306550,3677.258390
2593.642843,2294.638420,-8660.409521,2528.115143
2593.643170,370.102971,-8068.244768,1455.581446
2593.643498,-222.061783,-8142.265362,-689.485948
2593.643825,1628.453072,-9252.574275,-2451.505594
2593.644153,1776.494261,-11251.130318,-1762.019645
2593.644480,2294.638420,-12583.501014,306.438199
2593.644808,1332.370696,-13767.830521,1532.190996
2593.645135,-2146.597232,-12583.501014,842.705048
2593.645463,-4293.194464,-11029.068536,-995.924147
2593.645790,-5181.441594,-8438.347739,-3064.381992
2593.646118,-4737.318029,-6661.853478,-3370.820191
2593.646446,-2368.659014,-6957.935855,-1072.533697
2593.646773,74.020594,-7254.018232,1455.581446
2593.647101,74.020594,-7105.977043,3524.039291
2593.647428,-814.226536,-7254.018232,3064.381992
2593.647756,-1332.370696,-8068.244768,1072.533697
2593.648083,-1924.535449,-8364.327145,-2145.067394
2593.648411,-518.144159,-9030.512492,-3524.039291
2593.648738,444.123565,-10658.965565,-2298.286494
2593.649066,1332.370696,-12657.521608,459.657299
2593.649393,518.144159,-13619.789333,1532.190996
2593.649721,-1924.535449,-13175.665768,766.095498
2593.650048,-3108.864956,-11325.150913,-1532.190996
2593.650376,-4071.132681,-7846.182985,-2757.943793
2593.650703,-2590.720797,-7031.956449,-2681.334243
2593.651031,148.041188,-8290.306550,-383.047749
2593.651358,2368.659014,-8068.244768,1762.019645
2593.651686,2294.638420,-8364.327145,2528.115143
2593.652013,1628.453072,-8882.471304,1915.238745
2593.652341,1110.308913,-9252.574275,306.438199
2593.652669,888.247130,-9178.553681,-2757.943793
2593.652996,2738.761985,-10066.800811,-2834.553343
2593.653324,4811.338623,-11843.295072,-1991.848295
2593.653651,4959.379811,-13249.686362,842.705048
2593.653979,3478.967927,-14063.912898,2528.115143
2593.654306,1258.350101,-13101.645173,1915.238745
2593.654634,-888.247130,-10362.883188,-612.876398
2593.654961,-1776.494261,-7772.162391,-2604.724693
2593.655289,-222.061783,-7105.977043,-2528.115143
2593.655616,1628.453072,-8216.285956,-766.095498
2593.655944,2960.823768,-8142.265362,2451.505594
2593.656271,2368.659014,-7846.182985,3907.087040
2593.656599,1036.288319,-7179.997637,2298.286494
2593.656926,222.061783,-8586.388927,0.000000
2593.657254,222.061783,-8808.450710,-2987.772442
2593.657581,1998.556043,-8808.450710,-2451.505594
2593.657909,3627.009116,-10732.986159,76.609550
2593.658237,4367.215058,-12435.459826,2604.724693
2593.658564,1702.473667,-12953.603985,2987.772442
2593.658892,-1554.432478,-11917.315666,1532.190996
2593.659219,-3923.091493,-9992.780217,-1991.848295
2593.659547,-3627.009116,-8660.409521,-4519.963438
2593.659874,-2368.659014,-7772.162391,-4749.792088
2593.660202,-222.061783,-7994.224174,-536.266849
2593.660529,1258.350101,-8438.347739,2451.505594
2593.660857,2294.638420,-9326.594869,2681.334243
2593.661184,814.226536,-9252.574275,1685.410096
2593.661512,-740.205942,-7624.121203,-383.047749
2593.661839,888.247130,-8660.409521,-2757.943793
2593.662167,1406.391290,-9844.739029,-2374.896044
2593.662494,2886.803174,-11251.130318,0.000000
2593.662822,2960.823768,-12509.480420,1838.629195
2593.663149,1110.308913,-13323.706956,2145.067394
2593.663477,-1332.370696,-12805.562797,229.828649
2593.663804,-3108.864956,-10955.047942,-2374.896044
2593.664132,-3923.091493,-9252.574275,-4366.744339
2593.664460,-2220.617826,-9104.533087,-3064.381992
2593.664787,0.000000,-8660.409521,-1072.533697
2593.665115,518.144159,-8068.244768,2528.115143
2593.665442,296.082377,-8068.244768,3830.477490
2593.665770,-740.205942,-7328.038826,2145.067394
2593.666097,-2294.638420,-6365.771101,0.000000
2593.666425,-962.267725,-7624.121203,-1915.238745
2593.666752,814.226536,-9400.615463,-2451.505594
2593.667080,1776.494261,-11473.192101,153.219100
2593.667407,1850.514855,-12731.542202,1838.629195
2593.667735,74.020594,-13175.665768,1302.362347
2593.668062,-2072.576638,-11991.336260,0.000000
2593.668390,-3034.844362,-10140.821405,-1685.410096
2593.668717,-2368.659014,-8364.327145,-2451.505594
2593.669045,-222.061783,-8882.471304,-1532.190996
2593.669372,1850.514855,-8586.388927,1072.533697
2593.669700,2294.638420,-7846.182985,2681.334243
2593.670027,1554.432478,-7550.100608,2681.334243
2593.670355,222.061783,-7402.059420,1149.143247
2593.670683,74.020594,-6661.853478,-1915.238745
2593.671010,1628.453072,-6809.894666,-1915.238745
2593.671338,4071.132681,-8956.491898,-1378.971896
2593.671665,5403.503377,-11917.315666,536.266849
2593.671993,4441.235652,-14137.933492,2528.115143
2593.672320,1998.556043,-14211.954086,2068.457845
2593.672648,-444.123565,-12213.398043,-536.266849
2593.672975,-2368.659014,-10214.842000,-3140.991542
2593.673303,-2072.576638,-8734.430116,-3830.477490
2593.673630,0.000000,-8586.388927,-2145.067394
2593.673958,1480.411884,-8586.388927,153.219100
2593.674285,1702.473667,-8216.285956,2757.943793
2593.674613,518.144159,-7846.182985,2145.067394
2593.674940,-1036.288319,-7698.141797,0.000000
2593.675268,-666.185348,-7550.100608,-1685.410096
2593.675595,740.205942,-8068.244768,-2528.115143
2593.675923,2886.803174,-9104.533087,-1608.800546
2593.676251,5181.441594,-11843.295072,1838.629195
2593.676578,4367.215058,-13767.830521,3983.696590
2593.676906,1406.391290,-13693.809927,2681.334243
2593.677233,-2294.638420,-11843.295072,-536.266849
2593.677561,-4367.215058,-10436.903782,-3294.210641
2593.677888,-4441.235652,-9178.553681,-4443.353888
2593.678216,-2368.659014,-8808.450710,-2604.724693
2593.678543,-444.123565,-7328.038826,459.657299
2593.678871,370.102971,-7254.018232,2298.286494
2593.679198,1480.411884,-9326.594869,1991.848295
2593.679526,296.082377,-8364.327145,1378.971896
2593.679853,-592.164754,-5921.647536,0.000000
2593.680181,1924.535449,-6587.832884,-919.314598
2593.680508,3997.112087,-9474.636058,-612.876398
2593.680836,4515.256246,-12139.377449,2298.286494
2593.681163,3256.906145,-13249.686362,4136.915689
2593.681491,222.061783,-13175.665768,2451.505594
2593.681818,-2590.720797,-12657.521608,-1302.362347
2593.682146,-4145.153275,-11177.109724,-4596.572988
2593.682474,-4737.318029,-10436.903782,-4903.011187
2593.682801,-3330.926739,-9474.636058,-2221.676944
2593.683129,-1628.453072,-7254.018232,-536.266849
2593.683456,-1258.350101,-6513.812290,1455.581446
2593.683784,-1554.432478,-6883.915261,1915.238745
2593.684111,-1332.370696,-6809.894666,383.047749
2593.684439,-592.164754,-6661.853478,0.000000
2593.684766,2886.803174,-8142.265362,-919.314598
2593.685094,4959.379811,-10362.883188,0.000000
2593.685421,5255.462188,-13471.748144,2451.505594
2593.685749,3256.906145,-15248.242405,2757.943793
2593.686076,444.123565,-14952.160028,229.828649
2593.686404,-2294.638420,-13693.809927,-2451.505594
2593.686731,-3627.009116,-10955.047942,-4519.963438
2593.687059,-2664.741391,-9252.574275,-4519.963438
2593.687386,-666.185348,-8808.450710,-612.876398
2593.687714,1110.308913,-7105.977043,1685.410096
2593.688041,1998.556043,-5921.647536,1991.848295
2593.688369,1332.370696,-6661.853478,1608.800546
2593.688697,222.061783,-6439.791695,383.047749
2593.689024,1332.370696,-5995.668130,-459.657299
2593.689352,3034.844362,-7402.059420,-689.485948
2593.689679,5255.462188,-9770.718434,1072.533697
2593.690007,5699.585753,-13545.768739,2221.676944
2593.690334,3256.906145,-16062.468941,2298.286494
2593.690662,0.000000,-15396.283594,612.876398
2593.690989,-2368.659014,-13175.665768,-2451.505594
2593.691317,-4145.153275,-10288.862594,-4290.134789
2593.691644,-2960.823768,-9030.512492,-3140.991542
2593.691972,-148.041188,-7476.080014,-1455.581446
2593.692299,1110.308913,-5847.626942,1532.190996
2593.692627,1258.350101,-5847.626942,3370.820191
2593.692954,1036.288319,-6291.750507,2451.505594
2593.693282,0.000000,-5921.647536,612.876398
2593.693609,740.205942,-6217.729913,-612.876398
2593.693937,3108.864956,-8586.388927,-1225.752797
2593.694264,4811.338623,-11621.233289,536.266849
2593.694592,4737.318029,-14508.036463,1915.238745
2593.694920,2294.638420,-15914.427753,1991.848295
2593.695247,-1554.432478,-15100.201217,0.000000
2593.695575,-4663.297435,-12731.542202,-2451.505594
2593.695902,-5995.668130,-10362.883188,-4290.134789
2593.696230,-4589.276840,-8438.347739,-3217.601092
2593.696557,-2294.638420,-6217.729913,-2145.067394
2593.696885,-296.082377,-5625.565159,842.705048
2593.697212,666.185348,-6439.791695,1991.848295
2593.697540,962.267725,-7402.059420,1838.629195
2593.697867,962.267725,-6957.935855,1378.971896
2593.698195,1628.453072,-6957.935855,-536.266849
2593.698522,3923.091493,-8512.368333,-536.266849
2593.698850,5699.585753,-12139.377449,766.095498
2593.699177,3552.988522,-13767.830521,2834.553343
2593.699505,148.041188,-15026.180623,1915.238745
2593.699832,-2886.803174,-14878.139434,-1225.752797
2593.700160,-4737.318029,-12509.480420,-4213.525239
2593.700488,-5773.606348,-10362.883188,-5362.668486
2593.700815,-4515.256246,-8512.368333,-4136.915689
2593.701143,-1850.514855,-6217.729913,-766.095498
2593.701470,666.185348,-5921.647536,1378.971896
2593.701798,1628.453072,-6143.709319,2528.115143
2593.702125,1480.411884,-5921.647536,2604.724693
2593.702453,1184.329507,-6291.750507,1072.533697
2593.702780,2294.638420,-7846.182985,229.828649
2593.703108,3552.988522,-10658.965565,-995.924147
2593.703435,4663.297435,-13175.665768,766.095498
2593.703763,2442.679609,-14211.954086,1838.629195
2593.704090,-444.123565,-14508.036463,919.314598
2593.704418,-3552.988522,-13915.871710,-1072.533697
2593.704745,-5625.565159,-12065.356855,-3600.648841
2593.705073,-5773.606348,-10066.800811,-4749.792088
2593.705400,-4515.256246,-7624.121203,-3140.991542
2593.705728,0.000000,-5921.647536,-536.266849
2593.706055,2072.576638,-5551.544565,2068.457845
2593.706383,3478.967927,-6291.750507,3600.648841
2593.706711,3256.906145,-6365.771101,3447.429741
2593.707038,2812.782580,-5921.647536,1378.971896
2593.707366,3997.112087,-7772.162391,-383.047749
2593.707693,5921.647536,-11769.274478,-1149.143247
2593.708021,5255.462188,-13767.830521,612.876398
2593.708348,2368.659014,-15174.221811,1991.848295
2593.708676,-444.123565,-16062.468941,229.828649
2593.709003,-3182.885551,-14804.118840,-2068.457845
2593.709331,-5107.421000,-11325.150913,-3983.696590
2593.709658,-4959.379811,-8660.409521,-3830.477490
2593.709986,-2664.741391,-6587.832884,-1991.848295
2593.710313,0.000000,-4811.338623,0.000000
2593.710641,1628.453072,-4663.297435,2528.115143
2593.710968,2664.741391,-5107.421000,2757.943793
2593.711296,2442.679609,-5699.585753,2221.676944
2593.711623,2294.638420,-6957.935855,536.266849
2593.711951,4071.132681,-9400.615463,-1455.581446
2593.712278,5625.565159,-12583.501014,-2374.896044
2593.712606,4515.256246,-14952.160028,0.000000
2593.712934,1628.453072,-16654.633695,919.314598
2593.713261,-2146.597232,-15470.304188,0.000000
2593.713589,-4589.276840,-13249.686362,-2221.676944
2593.713916,-6587.832884,-9770.718434,-3983.696590
2593.714244,-6217.729913,-7624.121203,-3217.601092
2593.714571,-3701.029710,-4959.379811,-1378.971896
2593.714899,-888.247130,-4367.215058,1072.533697
2593.715226,1258.350101,-4885.359217,2298.286494
2593.715554,1924.535449,-6883.915261,2451.505594
2593.715881,1406.391290,-7105.977043,1838.629195
2593.716209,2220.617826,-6957.935855,0.000000
2593.716536,4071.132681,-9992.780217,-2374.896044
2593.716864,5403.503377,-14434.015869,-536.266849
2593.717191,4589.276840,-16062.468941,1838.629195
2593.717519,1776.494261,-15470.304188,2298.286494
2593.717846,-2368.659014,-15322.262999,229.828649
2593.718174,-5255.462188,-12805.562797,-2757.943793
2593.718501,-7031.956449,-7994.224174,-4366.744339
2593.718829,-6439.791695,-6217.729913,-3447.429741
2593.719157,-4145.153275,-4885.359217,-995.924147
2593.719484,0.000000,-3627.009116,1378.971896
2593.719812,2516.700203,-5255.462188,2681.334243
2593.720139,3701.029710,-6883.915261,3600.648841
2593.720467,3108.864956,-7031.956449,2451.505594
2593.720794,3849.070898,-8438.347739,229.828649
2593.721122,4885.359217,-11251.130318,-1378.971896
2593.721449,5773.606348,-13545.768739,229.828649
2593.721777,4367.215058,-14878.139434,919.314598
2593.722104,814.226536,-15618.345376,1838.629195
2593.722432,-3478.967927,-14285.974681,-383.047749
2593.722759,-6513.812290,-11621.233289,-3140.991542
2593.723087,-7846.182985,-8660.409521,-5132.839837
2593.723414,-7105.977043,-6735.874072,-4443.353888
2593.723742,-3478.967927,-5181.441594,-2604.724693
2593.724069,1776.494261,-5403.503377,536.266849
2593.724397,4367.215058,-5699.585753,3217.601092
2593.724725,5403.503377,-8142.265362,4136.915689
2593.725052,5403.503377,-8142.265362,3447.429741
2593.725380,5255.462188,-8438.347739,536.266849
2593.725707,6809.894666,-11843.295072,-1608.800546
2593.726035,6143.709319,-14952.160028,-919.314598
2593.726362,3182.885551,-15840.407159,536.266849
2593.726690,-444.123565,-15766.386565,766.095498
2593.727017,-4145.153275,-14211.954086,-1838.629195
2593.727345,-6439.791695,-11325.150913,-3907.087040
2593.727672,-7698.141797,-7476.080014,-4060.306139
2593.727999,-5699.585753,-5255.462188,-3217.601092
2593.728327,-2072.576638,-4441.235652,229.828649
2593.728655,2294.638420,-4663.297435,1991.848295
2593.728982,3997.112087,-4737.318029,3447.429741
2593.729310,3701.029710,-6217.729913,4290.134789
2593.729638,3404.947333,-7476.080014,3140.991542
2593.729965,3923.091493,-9770.718434,-306.438199
2593.730293,4811.338623,-12805.562797,-2757.943793
2593.730621,4071.132681,-14285.974681,-995.924147
2593.730948,1998.556043,-14878.139434,229.828649
2593.731276,-1702.473667,-15470.304188,229.828649
2593.731604,-5107.421000,-14359.995275,-995.924147
2593.731931,-7179.997637,-10214.842000,-2681.334243
2593.732259,-7698.141797,-6143.709319,-3447.429741
2593.732587,-5625.565159,-4293.194464,-2298.286494
2593.732914,-1628.453072,-3775.050304,153.219100
2593.733242,2442.679609,-4737.318029,2451.505594
2593.733570,3775.050304,-5921.647536,4290.134789
2593.733897,3627.009116,-7476.080014,3524.039291
2593.734225,4071.132681,-8660.409521,842.705048
2593.734553,4885.359217,-10955.047942,-2145.067394
2593.734880,5921.647536,-14285.974681,-1991.848295
2593.735208,5403.503377,-15248.242405,-1915.238745
2593.735536,2368.659014,-15988.448347,383.047749
2593.735863,-1332.370696,-16062.468941,459.657299
2593.736191,-4367.215058,-13101.645173,-842.705048
2593.736519,-6809.894666,-8142.265362,-2911.162892
2593.736846,-7550.100608,-5255.462188,-2987.772442
2593.737174,-5033.400406,-5329.482782,-2451.505594
2593.737502,-1702.473667,-4959.379811,-306.438199
2593.737829,2960.823768,-5551.544565,2145.067394
2593.738157,4441.235652,-6661.853478,4136.915689
2593.738485,4071.132681,-8660.409521,3907.087040
2593.738812,4293.194464,-10140.821405,1532.190996
2593.739140,4737.318029,-11843.295072,-1225.752797
2593.739468,5329.482782,-12805.562797,-1532.190996
2593.739795,3997.112087,-13915.871710,-995.924147
2593.740123,0.000000,-14508.036463,995.924147
2593.740451,-3997.112087,-14137.933492,383.047749
2593.740778,-6809.894666,-11103.089130,-1455.581446
2593.741106,-9178.553681,-7624.121203,-3294.210641
2593.741434,-7698.141797,-5329.482782,-4136.915689
2593.741761,-3775.050304,-4071.132681,-3140.991542
2593.742089,1332.370696,-5255.462188,459.657299
2593.742417,4885.359217,-5921.647536,3370.820191
2593.742745,6439.791695,-7920.203579,4826.401637
2593.743072,5625.565159,-9844.739029,3294.210641
2593.743400,5403.503377,-10362.883188,919.314598
2593.743728,5995.668130,-12139.377449,-1302.362347
2593.744055,5921.647536,-13767.830521,-1532.190996
2593.744383,4589.276840,-15100.201217,0.000000
2593.744711,814.226536,-14359.995275,1302.362347
2593.745038,-2590.720797,-13841.851115,-383.047749
2593.745366,-6587.832884,-11695.253884,-2987.772442
2593.745694,-8216.285956,-7846.182985,-4749.792088
2593.746021,-6883.915261,-5773.606348,-4673.182538
2593.746349,-3478.967927,-4663.297435,-1991.848295
2593.746677,1628.453072,-5551.544565,1532.190996
2593.747004,5107.421000,-6439.791695,3907.087040
2593.747332,4737.318029,-7476.080014,5822.325785
2593.747660,4737.318029,-9474.636058,2757.943793
2593.747987,3775.050304,-10658.965565,-995.924147
2593.748315,3182.885551,-11695.253884,-2757.943793
2593.748643,3478.967927,-13027.624579,-2834.553343
2593.748970,2516.700203,-14508.036463,-459.657299
2593.749298,-814.226536,-14211.954086,1072.533697
2593.749626,-3256.906145,-13619.789333,-229.828649
2593.749953,-6439.791695,-10510.924376,-1378.971896
2593.750281,-7994.224174,-7402.059420,-2834.553343
2593.750609,-5921.647536,-5477.523971,-3064.381992
2593.750936,-2812.782580,-4071.132681,-919.314598
2593.751264,2368.659014,-5255.462188,1302.362347
2593.751592,4811.338623,-5625.565159,4290.134789
2593.751919,4737.318029,-7550.100608,5745.716235
2593.752247,3108.864956,-8882.471304,3064.381992
2593.752575,3627.009116,-10881.027347,-842.705048
2593.752902,3256.906145,-12361.439231,-3447.429741
2593.753230,2294.638420,-13249.686362,-2911.162892
2593.753558,814.226536,-13915.871710,-842.705048
2593.753885,-518.144159,-15544.324782,229.828649
2593.754213,-3108.864956,-13397.727550,689.485948
2593.754541,-5255.462188,-10066.800811,-1762.019645
2593.754868,-6143.709319,-7031.956449,-2451.505594
2593.755196,-4737.318029,-5699.585753,-2681.334243
2593.755524,-296.082377,-6217.729913,-1378.971896
2593.755851,1628.453072,-5403.503377,2374.896044
2593.756179,4145.153275,-6069.688724,3370.820191
2593.756507,4293.194464,-9030.512492,3064.381992
2593.756834,3552.988522,-10881.027347,919.314598
2593.757162,3256.906145,-11399.171507,-1915.238745
2593.757490,3923.091493,-13545.768739,-3447.429741
2593.757817,3849.070898,-14211.954086,-2298.286494
2593.758145,2886.803174,-13545.768739,689.485948
2593.758473,222.061783,-13471.748144,842.705048
2593.758800,-2442.679609,-12583.501014,842.705048
2593.759128,-5181.441594,-10140.821405,-1685.410096
2593.759456,-5699.585753,-6291.750507,-3447.429741
2593.759783,-4663.297435,-5403.503377,-2757.943793
2593.760111,-962.267725,-5255.462188,-612.876398
2593.760439,2442.679609,-5699.585753,1685.410096
2593.760766,3627.009116,-7105.977043,3524.039291
2593.761094,3701.029710,-8586.388927,3294.210641
2593.761422,3034.844362,-8512.368333,919.314598
2593.761749,3034.844362,-9178.553681,-1455.581446
2593.762077,4515.256246,-11621.233289,-1838.629195
2593.762405,4589.276840,-13323.706956,-536.266849
2593.762732,3775.050304,-13619.789333,1302.362347
2593.763060,666.185348,-12879.583391,2757.943793
2593.763388,-2812.782580,-11621.233289,383.047749
2593.763716,-5921.647536,-9178.553681,-2451.505594
2593.764043,-6513.812290,-7254.018232,-3524.039291
2593.764371,-4367.215058,-6217.729913,-3217.601092
2593.764699,-666.185348,-6513.812290,-459.657299
2593.765026,2738.761985,-7402.059420,2604.724693
2593.765354,3997.112087,-7031.956449,4136.915689
2593.765682,2442.679609,-7994.224174,3294.210641
2593.766009,1480.411884,-9178.553681,1225.752797
2593.766337,888.247130,-9622.677246,-1991.848295
2593.766665,2812.782580,-11103.089130,-3217.601092
2593.766992,2812.782580,-12879.583391,-1608.800546
2593.767320,1406.391290,-12953.603985,995.924147
2593.767648,74.020594,-14656.077652,1302.362347
2593.767975,-3849.070898,-12213.398043,0.000000
2593.768303,-6069.688724,-11177.109724,-3217.601092
2593.768631,-5847.626942,-8734.430116,-4596.572988
2593.768958,-3256.906145,-7031.956449,-3600.648841
2593.769286,0.000000,-7105.977043,0.000000
2593.769614,3552.988522,-7179.997637,2604.724693
2593.769941,2738.761985,-7402.059420,3830.477490
2593.770269,2072.576638,-7920.203579,3140.991542
2593.770597,814.226536,-7328.038826,536.266849
2593.770924,1702.473667,-8512.368333,-2221.676944
2593.771252,2442.679609,-11325.150913,-2834.553343
2593.771580,2516.700203,-12287.418637,-612.876398
2593.771907,1258.350101,-13471.748144,1532.190996
2593.772235,-1258.350101,-13101.645173,2451.505594
2593.772563,-2886.803174,-12435.459826,-612.876398
2593.772890,-4441.235652,-9992.780217,-2834.553343
2593.773218,-4145.153275,-8142.265362,-3140.991542
2593.773546,-2368.659014,-7105.977043,-1915.238745
2593.773873,962.267725,-7031.956449,0.000000
2593.774201,2812.782580,-6587.832884,2757.943793
2593.774529,2072.576638,-6217.729913,3370.820191
2593.774856,1184.329507,-7105.977043,2451.505594
2593.775184,592.164754,-8290.306550,-842.705048
2593.775512,1702.473667,-8956.491898,-3524.039291
2593.775839,3552.988522,-10658.965565,-3217.601092
2593.776167,3849.070898,-12583.501014,-153.219100
2593.776495,3627.009116,-13767.830521,2528.115143
2593.776822,1036.288319,-13915.871710,2298.286494
2593.777150,-1184.329507,-12213.398043,76.609550
2593.777478,-3256.906145,-10288.862594,-3064.381992
2593.777805,-3108.864956,-8438.347739,-4060.306139
2593.778133,-1406.391290,-8216.285956,-2451.505594
2593.778461,1332.370696,-7402.059420,459.657299
2593.778788,2960.823768,-6957.935855,3217.601092
2593.779116,2442.679609,-7920.203579,2528.115143
2593.779444,1702.473667,-8882.471304,1149.143247
2593.779771,666.185348,-7698.141797,-689.485948
2593.780099,1184.329507,-8586.388927,-2451.505594
2593.780427,3182.885551,-11621.233289,-1991.848295
2593.780754,4441.235652,-13175.665768,612.876398
2593.781082,3404.947333,-13323.706956,2528.115143
2593.781410,444.123565,-13545.768739,2451.505594
2593.781737,-1924.535449,-12361.439231,-153.219100
2593.782065,-5107.421000,-10140.821405,-3064.381992
2593.782393,-4367.215058,-8734.430116,-3524.039291
2593.782720,-2294.638420,-7550.100608,-2298.286494
2593.783048,370.102971,-7476.080014,229.828649
2593.783376,2368.659014,-7328.038826,2681.334243
2593.783704,1702.473667,-7105.977043,3830.477490
2593.784031,74.020594,-6883.915261,1915.238745
2593.784359,-370.102971,-7550.100608,-689.485948
2593.784687,222.061783,-7920.203579,-2145.067394
2593.785014,2294.638420,-9252.574275,-1532.190996
2593.785342,2590.720797,-11621.233289,689.485948
2593.785670,1258.350101,-13323.706956,2221.676944
2593.785997,-1110.308913,-13323.706956,1685.410096
2593.786325,-3923.091493,-11843.295072,-919.314598
2593.786653,-5773.606348,-10955.047942,-3907.087040
2593.786980,-4663.297435,-9474.636058,-4673.182538
2593.787308,-2294.638420,-8364.327145,-2987.772442
2593.787636,0.000000,-7476.080014,459.657299
2593.787963,2294.638420,-7179.997637,3217.601092
2593.788291,1702.473667,-7254.018232,2681.334243
2593.788619,222.061783,-7328.038826,842.705048
2593.788946,-296.082377,-6513.812290,-995.924147
2593.789274,962.267725,-8142.265362,-2604.724693
2593.789602,2886.803174,-11325.150913,-2145.067394
2593.789929,3627.009116,-13545.768739,766.095498
2593.790257,2220.617826,-13767.830521,2298.286494
2593.790585,222.061783,-13693.809927,995.924147
2593.790912,-1258.350101,-14285.974681,-1991.848295
2593.791240,-3330.926739,-11399.171507,-3447.429741
2593.791568,-2664.741391,-9178.553681,-2987.772442
2593.791895,-370.102971,-8290.306550,-1608.800546
2593.792223,1554.432478,-6957.935855,842.705048
2593.792551,2146.597232,-5995.668130,3370.820191
2593.792878,1184.329507,-5477.523971,3677.258390
2593.793206,0.000000,-6143.709319,1762.019645
2593.793534,0.000000,-6365.771101,-689.485948
2593.793861,1258.350101,-7994.224174,-2451.505594
2593.794189,3552.988522,-10732.986159,-1762.019645
2593.794517,4515.256246,-13471.748144,1455.581446
2593.794844,3256.906145,-14804.118840,3294.210641
2593.795172,1184.329507,-15174.221811,1685.410096
2593.795500,-1110.308913,-13545.768739,-306.438199
2593.795827,-3256.906145,-10362.883188,-1991.848295
2593.796155,-3256.906145,-8216.285956,-2757.943793
2593.796483,-1258.350101,-7698.141797,-1838.629195
2593.796810,-962.267725,-5625.565159,383.047749
2593.797138,0.000000,-5329.482782,1838.629195
2593.797466,74.020594,-6661.853478,1608.800546
2593.797793,0.000000,-7105.977043,-229.828649
2593.798121,888.247130,-6957.935855,-1838.629195
2593.798449,3478.967927,-9326.594869,-2374.896044
2593.798776,5699.585753,-12435.459826,-612.876398
2593.799104,6587.832884,-15174.221811,1838.629195
2593.799432,4367.215058,-15914.427753,2834.553343
2593.799759,444.123565,-14656.077652,1302.362347
2593.800087,-2146.597232,-13027.624579,-1072.533697
2593.800415,-3923.091493,-10658.965565,-3753.867940
2593.800742,-3627.009116,-9474.636058,-4060.306139
2593.801070,-2294.638420,-8438.347739,-2374.896044
2593.801398,-444.123565,-6365.771101,-229.828649
2593.801725,74.020594,-5477.523971,1455.581446
2593.802053,148.041188,-6587.832884,3064.381992
2593.802381,-592.164754,-5995.668130,766.095498
2593.802708,222.061783,-6291.750507,-1225.752797
2593.803036,2516.700203,-9030.512492,-1608.800546
2593.803364,4293.194464,-11029.068536,0.000000
2593.803692,4441.235652,-13767.830521,2911.162892
2593.804019,1258.350101,-15174.221811,3370.820191
2593.804347,-2368.659014,-14285.974681,229.828649
2593.804675,-4959.379811,-11843.295072,-2451.505594
2593.805002,-6587.832884,-10140.821405,-5209.449386
2593.805330,-5477.523971,-8438.347739,-4826.401637
2593.805658,-2368.659014,-7179.997637,-2221.676944
2593.805985,-148.041188,-5403.503377,1072.533697
2593.806313,1850.514855,-5773.606348,3370.820191
2593.806641,1998.556043,-6069.688724,3524.039291
2593.806968,1702.473667,-5033.400406,2221.676944
2593.807296,2664.741391,-5699.585753,-306.438199
2593.807624,5033.400406,-9178.553681,-1685.410096
2593.807951,5255.462188,-12435.459826,0.000000
2593.808279,3849.070898,-14359.995275,2528.115143
2593.808607,1258.350101,-14952.160028,2298.286494
2593.808934,-2146.597232,-14434.015869,0.000000
2593.809262,-3701.029710,-14285.974681,-3753.867940
2593.809590,-5033.400406,-11695.253884,-5669.106685
2593.809917,-3997.112087,-9844.739029,-4903.011187
2593.810245,-1628.453072,-7105.977043,-2145.067394
2593.810573,814.226536,-5255.462188,842.705048
2593.810900,1776.494261,-5625.565159,3217.601092
2593.811228,1776.494261,-6217.729913,2987.772442
2593.811556,2146.597232,-5625.565159,1072.533697
2593.811883,3034.844362,-6883.915261,-766.095498
2593.812211,4885.359217,-10584.944971,-1762.019645
2593.812539,5847.626942,-13249.686362,76.609550
2593.812866,3997.112087,-15988.448347,2528.115143
2593.813194,740.205942,-15840.407159,1532.190996
2593.813522,-2516.700203,-15174.221811,-2221.676944
2593.813849,-4367.215058,-13175.665768,-4443.353888
2593.814177,-5403.503377,-9696.697840,-4443.353888
2593.814505,-3256.906145,-7328.038826,-2987.772442
2593.814832,-592.164754,-5773.606348,-536.266849
2593.815160,1702.473667,-5033.400406,2145.067394
2593.815488,2664.741391,-4515.256246,3753.867940
2593.815815,1628.453072,-5181.441594,2681.334243
2593.816143,2220.617826,-6365.771101,1072.533697
2593.816471,3108.864956,-7920.203579,-995.924147
2593.816798,4589.276840,-10584.944971,-1915.238745
2593.817126,4441.235652,-14211.954086,766.095498
2593.817454,2738.761985,-16062.468941,2834.553343
2593.817781,74.020594,-14656.077652,1991.848295
2593.818109,-3182.885551,-13471.748144,-612.876398
2593.818437,-5181.441594,-11029.068536,-3830.477490
2593.818764,-5995.668130,-9030.512492,-4903.011187
2593.819092,-4515.256246,-7105.977043,-2681.334243
2593.819420,-1480.411884,-5107.421000,0.000000
2593.819747,1184.329507,-4737.318029,1991.848295
2593.820075,1554.432478,-4811.338623,3753.867940
2593.820403,1480.411884,-6661.853478,2757.943793
2593.820730,1480.411884,-7105.977043,1302.362347
2593.821058,2886.803174,-9030.512492,-1608.800546
2593.821386,4219.173869,-12287.418637,-1685.410096
2593.821713,4293.194464,-14434.015869,536.266849
2593.822041,2072.576638,-14804.118840,2757.943793
2593.822369,-1702.473667,-14804.118840,1915.238745
2593.822696,-4145.153275,-14063.912898,-1225.752797
2593.823024,-6143.709319,-11029.068536,-3983.696590
2593.823352,-6735.874072,-8290.306550,-4596.572988
2593.823680,-4441.235652,-6957.935855,-3217.601092
2593.824007,-1332.370696,-5699.585753,-459.657299
2593.824335,1628.453072,-5329.482782,1838.629195
2593.824663,3034.844362,-5847.626942,3064.381992
2593.824990,3182.885551,-7254.018232,2451.505594
2593.825318,3849.070898,-7476.080014,306.438199
2593.825646,5329.482782,-9400.615463,-1072.533697
2593.825973,6143.709319,-12731.542202,-459.657299
2593.826301,5033.400406,-15026.180623,1225.752797
2593.826629,2146.597232,-15248.242405,2834.553343
2593.826956,-2072.576638,-13693.809927,1302.362347
2593.827284,-3849.070898,-12879.583391,-2374.896044
2593.827612,-5773.606348,-10658.965565,-5898.935335
2593.827939,-6069.688724,-7476.080014,-4443.353888
2593.828267,-3034.844362,-6661.853478,-2757.943793
2593.828595,222.061783,-5699.585753,306.438199
2593.828922,2146.597232,-4959.379811,2681.334243
2593.829250,4071.132681,-5625.565159,3753.867940
2593.829578,3256.906145,-7031.956449,2145.067394
2593.829905,2516.700203,-7698.141797,612.876398
2593.830233,4219.173869,-11251.130318,-2068.457845
2593.830561,5181.441594,-13545.768739,-1302.362347
2593.830888,3404.947333,-14730.098246,995.924147
2593.831216,666.185348,-16284.530724,1532.190996
2593.831544,-3182.885551,-15840.407159,-153.219100
2593.831871,-5477.523971,-12731.542202,-3140.991542
2593.832199,-6809.894666,-8660.409521,-4290.134789
2593.832527,-5625.565159,-6809.894666,-3524.039291
2593.832854,-2294.638420,-6069.688724,-1225.752797
2593.833182,1332.370696,-5107.421000,1225.752797
2593.833510,3108.864956,-4885.359217,2987.772442
2593.833838,4145.153275,-5847.626942,3217.601092
2593.834165,4219.173869,-7105.977043,1302.362347
2593.834493,4367.215058,-9030.512492,0.000000
2593.834821,5477.523971,-11991.336260,-766.095498
2593.835148,6513.812290,-14804.118840,-1072.533697
2593.835476,4071.132681,-15470.304188,1149.143247
2593.835804,74.020594,-14952.160028,1685.410096
2593.836131,-2886.803174,-14285.974681,-383.047749
2593.836459,-5699.585753,-12435.459826,-2374.896044
2593.836787,-7994.224174,-7920.203579,-3217.601092
2593.837114,-5403.503377,-5847.626942,-3753.867940
2593.837442,-2812.782580,-4811.338623,-1915.238745
2593.837770,-222.061783,-4663.297435,1149.143247
2593.838097,2072.576638,-4737.318029,2834.553343
2593.838425,2664.741391,-6291.750507,3140.991542
2593.838753,2664.741391,-8142.265362,1838.629195
2593.839080,4589.276840,-9844.739029,-1762.019645
2593.839408,5477.523971,-12213.398043,-1915.238745
2593.839736,5477.523971,-15100.201217,0.000000
2593.840063,3923.091493,-16432.571912,1991.848295
2593.840391,-148.041188,-15914.427753,2068.457845
2593.840719,-4367.215058,-13397.727550,-383.047749
2593.841047,-6661.853478,-10510.924376,-3907.087040
2593.841374,-8586.388927,-6957.935855,-4596.572988
2593.841702,-6587.832884,-5255.462188,-3370.820191
2593.842030,-3552.988522,-4959.379811,-995.924147
2593.842357,74.020594,-5033.400406,1302.362347
2593.842685,2886.803174,-5477.523971,3140.991542
2593.843013,4071.132681,-7105.977043,3447.429741
2593.843340,2960.823768,-8512.368333,612.876398
2593.843668,4145.153275,-10658.965565,-1378.971896
2593.843996,5699.585753,-13767.830521,-2068.457845
2593.844323,4885.359217,-14804.118840,-229.828649
2593.844651,2146.597232,-15100.201217,2298.286494
2593.844979,-1332.370696,-14582.057057,1685.410096
2593.845306,-4663.297435,-13175.665768,-383.047749
2593.845634,-7402.059420,-9474.636058,-3447.429741
2593.845962,-7994.224174,-6217.729913,-3983.696590
2593.846289,-6069.688724,-4515.256246,-3217.601092
2593.846617,-1184.329507,-5107.421000,-1149.143247
2593.846945,2368.659014,-4885.359217,2374.896044
2593.847273,3997.112087,-5255.462188,4826.401637
2593.847600,5921.647536,-7846.182985,4213.525239
2593.847928,5773.606348,-9770.718434,995.924147
2593.848256,6217.729913,-11325.150913,-1838.629195
2593.848583,6217.729913,-12583.501014,-1072.533697
2593.848911,5773.606348,-14804.118840,-919.314598
2593.849239,2368.659014,-15544.324782,536.266849
2593.849566,-1480.411884,-14434.015869,536.266849
2593.849894,-3330.926739,-11843.295072,-1608.800546
2593.850222,-6883.915261,-8808.450710,-2145.067394
2593.850549,-6291.750507,-6735.874072,-3447.429741
2593.850877,-3330.926739,-5551.544565,-3677.258390
2593.851205,74.020594,-5403.503377,-383.047749
2593.851532,4071.132681,-5995.668130,2451.505594
2593.851860,6513.812290,-6883.915261,4290.134789
2593.852188,5773.606348,-8438.347739,4213.525239
2593.852515,6143.709319,-9252.574275,1991.848295
2593.852843,6143.709319,-11917.315666,-1685.410096
2593.853171,5551.544565,-14211.954086,-2451.505594
2593.853498,3256.906145,-14952.160028,-689.485948
2593.853826,-1184.329507,-14730.098246,1149.143247
2593.854154,-4293.194464,-13989.892304,-153.219100
2593.854482,-7179.997637,-11695.253884,-2221.676944
2593.854809,-8586.388927,-7846.182985,-2757.943793
2593.855137,-7031.956449,-4885.359217,-3064.381992
2593.855465,-3256.906145,-4663.297435,-1762.019645
2593.855792,370.102971,-5921.647536,536.266849
2593.856120,3256.906145,-5477.523971,2834.553343
2593.856448,3256.906145,-5625.565159,4749.792088
2593.856775,3478.967927,-8586.388927,2681.334243
2593.857103,3404.947333,-10214.842000,0.000000
2593.857431,4145.153275,-12805.562797,-2221.676944
2593.857758,4737.318029,-14508.036463,-2374.896044
2593.858086,2664.741391,-15174.221811,-689.485948
2593.858414,-222.061783,-16580.613101,536.266849
2593.858741,-4515.256246,-13619.789333,229.828649
2593.859069,-7624.121203,-9770.718434,-1991.848295
2593.859397,-8660.409521,-6143.709319,-3140.991542
2593.859724,-6735.874072,-4885.359217,-3600.648841
2593.860052,-3552.988522,-4441.235652,-1762.019645
2593.860380,148.041188,-5329.482782,1455.581446
2593.860708,4071.132681,-6587.832884,3217.601092
2593.861035,4663.297435,-9030.512492,3677.258390
2593.861363,3330.926739,-10140.821405,2145.067394
2593.861691,3256.906145,-10732.986159,-612.876398
2593.862018,3997.112087,-12065.356855,-3600.648841
2593.862346,3256.906145,-13915.871710,-2528.115143
2593.862674,2960.823768,-14730.098246,612.876398
2593.863001,740.205942,-14211.954086,2451.505594
2593.863329,-2886.803174,-12509.480420,1608.800546
2593.863657,-5995.668130,-9622.677246,-1302.362347
2593.863984,-7031.956449,-6661.853478,-4290.134789
2593.864312,-5403.503377,-4737.318029,-4519.963438
2593.864640,-1776.494261,-4219.173869,-2681.334243
2593.864967,2442.679609,-5995.668130,1532.190996
2593.865295,4885.359217,-7846.182985,4749.792088
2593.865623,5181.441594,-8882.471304,4826.401637
2593.865950,3478.967927,-9030.512492,1915.238745
2593.866278,3182.885551,-11103.089130,-995.924147
2593.866606,4663.297435,-12879.583391,-2911.162892
2593.866934,3330.926739,-12953.603985,-2221.676944
2593.867261,2146.597232,-13249.686362,153.219100
2593.867589,74.020594,-13471.748144,1915.238745
2593.867917,-2738.761985,-11769.274478,689.485948
2593.868244,-5107.421000,-10066.800811,-1608.800546
2593.868572,-5625.565159,-6809.894666,-3524.039291
2593.868900,-3256.906145,-6439.791695,-3294.210641
2593.869227,592.164754,-7179.997637,-1378.971896
2593.869555,3404.947333,-7031.956449,1762.019645
2593.869883,5551.544565,-7254.018232,3830.477490
2593.870210,5255.462188,-9474.636058,3830.477490
2593.870538,4145.153275,-10066.800811,1149.143247
2593.870866,4737.318029,-10584.944971,-1608.800546
2593.871193,4737.318029,-11251.130318,-3753.867940
2593.871521,4515.256246,-13249.686362,-1378.971896
2593.871849,2960.823768,-14656.077652,842.705048
2593.872176,0.000000,-13619.789333,1149.143247
2593.872504,-3182.885551,-12879.583391,0.000000
2593.872832,-5033.400406,-10955.047942,-1532.190996
2593.873159,-5995.668130,-7994.224174,-3217.601092
2593.873487,-3627.009116,-7254.018232,-3064.381992
2593.873815,-1036.288319,-6735.874072,-383.047749
2593.874143,1258.350101,-6957.935855,2068.457845
2593.874470,2368.659014,-7105.977043,4596.572988
2593.874798,518.144159,-7031.956449,3677.258390
2593.875126,0.000000,-8068.244768,-229.828649
2593.875453,296.082377,-10436.903782,-2374.896044
2593.875781,888.247130,-11251.130318,-2757.943793
2593.876109,1628.453072,-12509.480420,-995.924147
2593.876436,1110.308913,-13767.830521,2068.457845
2593.876764,-1554.432478,-13989.892304,2451.505594
2593.877092,-3552.988522,-11843.295072,536.266849
2593.877419,-6143.709319,-8882.471304,-2221.676944
2593.877747,-6735.874072,-7031.956449,-3064.381992
2593.878075,-4441.235652,-6439.791695,-2298.286494
2593.878402,-814.226536,-6513.812290,383.047749
2593.878730,444.123565,-5625.565159,2987.772442
2593.879058,2146.597232,-6883.915261,3294.210641
2593.879385,1850.514855,-8882.471304,1225.752797
2593.879713,444.123565,-9252.574275,-689.485948
2593.880041,1554.432478,-9770.718434,-2451.505594
2593.880369,3404.947333,-11695.253884,-2911.162892
2593.880696,4071.132681,-13989.892304,-1608.800546
2593.881024,2442.679609,-13915.871710,1762.019645
2593.881352,740.205942,-13693.809927,2221.676944
2593.881679,-1406.391290,-12731.542202,0.000000
2593.882007,-3701.029710,-10732.986159,-2757.943793
2593.882335,-3478.967927,-8364.327145,-4290.134789
2593.882662,-2146.597232,-6661.853478,-3217.601092
2593.882990,1628.453072,-6809.894666,-306.438199
2593.883318,3108.864956,-7624.121203,2145.067394
2593.883645,3552.988522,-7698.141797,2987.772442
2593.883973,2664.741391,-8438.347739,1608.800546
2593.884301,2072.576638,-9104.533087,-459.657299
2593.884628,2294.638420,-8660.409521,-1455.581446
2593.884956,4071.132681,-10732.986159,-2451.505594
2593.885284,4145.153275,-13101.645173,153.219100
2593.885611,2516.700203,-13619.789333,2681.334243
2593.885939,444.123565,-12583.501014,1915.238745
2593.886267,-2590.720797,-11843.295072,76.609550
2593.886594,-5107.421000,-10140.821405,-2068.457845
2593.886922,-4293.194464,-7846.182985,-3677.258390
2593.887250,-2442.679609,-6809.894666,-2451.505594
2593.887578,74.020594,-6217.729913,383.047749
2593.887905,2738.761985,-7105.977043,2911.162892
2593.888233,3775.050304,-7624.121203,3677.258390
2593.888561,2294.638420,-7476.080014,2911.162892
2593.888888,1110.308913,-7179.997637,76.609550
2593.889216,1850.514855,-8068.244768,-1991.848295
2593.889544,2738.761985,-10436.903782,-2145.067394
2593.889871,3256.906145,-11843.295072,995.924147
2593.890199,1998.556043,-12879.583391,1915.238745
2593.890527,0.000000,-13989.892304,1532.190996
2593.890854,-2294.638420,-13397.727550,-1225.752797
2593.891182,-3627.009116,-11103.089130,-3983.696590
2593.891510,-3627.009116,-9252.574275,-3907.087040
2593.891837,-1480.411884,-7772.162391,-2145.067394
2593.892165,1258.350101,-7550.100608,919.314598
2593.892493,2072.576638,-7179.997637,2834.553343
2593.892820,1776.494261,-7105.977043,3140.991542
2593.893148,148.041188,-7994.224174,1149.143247
2593.893476,-740.205942,-7624.121203,-995.924147
2593.893804,-592.164754,-8290.306550,-2681.334243
2593.894131,1036.288319,-10584.944971,-2374.896044
2593.894459,1998.556043,-13027.624579,-536.266849
2593.894787,1184.329507,-13619.789333,995.924147
2593.895114,-222.061783,-14137.933492,689.485948
2593.895442,-2368.659014,-12583.501014,-612.876398
2593.895770,-4071.132681,-10288.862594,-2298.286494
2593.896097,-3552.988522,-9178.553681,-2451.505594
2593.896425,-1998.556043,-7105.977043,-1225.752797
2593.896753,666.185348,-6587.832884,689.485948
2593.897080,1702.473667,-7179.997637,2451.505594
2593.897408,888.247130,-7476.080014,2451.505594
2593.897736,-296.082377,-6957.935855,1072.533697
2593.898063,-370.102971,-7328.038826,-1302.362347
2593.898391,518.144159,-7550.100608,-2451.505594
2593.898719,3108.864956,-9400.615463,-1685.410096
2593.899046,3404.947333,-11621.233289,1455.581446
2593.899374,2368.659014,-13397.727550,3140.991542
2593.899702,740.205942,-13619.789333,2451.505594
2593.900030,-1554.432478,-11843.295072,0.000000
2593.900357,-3552.988522,-9474.636058,-2374.896044
2593.900685,-2960.823768,-8956.491898,-2987.772442
2593.901013,-1184.329507,-8586.388927,-2374.896044
2593.901340,592.164754,-7105.977043,0.000000
2593.901668,888.247130,-7105.977043,1762.019645
2593.901996,1036.288319,-7402.059420,1685.410096
2593.902323,0.000000,-7550.100608,383.047749
2593.902651,-518.144159,-7105.977043,-1455.581446
2593.902979,2072.576638,-8142.265362,-2681.334243
2593.903306,4219.173869,-11473.192101,-766.095498
2593.903634,4885.359217,-13915.871710,1378.971896
2593.903962,3775.050304,-14211.954086,2911.162892
2593.904289,1332.370696,-14063.912898,1762.019645
2593.904617,-1480.411884,-12657.521608,-1072.533697
2593.904945,-2886.803174,-10955.047942,-4213.525239
2593.905272,-2146.597232,-10584.944971,-3830.477490
2593.905600,-666.185348,-8216.285956,-1915.238745
2593.905928,1702.473667,-7476.080014,76.609550
2593.906255,2146.597232,-6735.874072,2221.676944
2593.906583,1406.391290,-7105.977043,2221.676944
2593.906911,1258.350101,-7105.977043,306.438199
2593.907239,888.247130,-7031.956449,-689.485948
2593.907566,2368.659014,-8216.285956,-919.314598
2593.907894,4811.338623,-9992.780217,-1225.752797
2593.908222,5107.421000,-11917.315666,2374.896044
2593.908549,3034.844362,-13693.809927,4290.134789
2593.908877,370.102971,-13693.809927,2374.896044
2593.909205,-2368.659014,-12879.583391,-1532.190996
2593.909532,-3923.091493,-10881.027347,-4366.744339
2593.909860,-3552.988522,-9252.574275,-4060.306139
2593.910188,-3034.844362,-7105.977043,-689.485948
2593.910515,-1332.370696,-6439.791695,1915.238745
2593.910843,0.000000,-6365.771101,2681.334243
2593.911171,-1332.370696,-5847.626942,2221.676944
2593.911498,-2072.576638,-5625.565159,919.314598
2593.911826,-962.267725,-6069.688724,-1378.971896
2593.912154,1406.391290,-8364.327145,-2757.943793
2593.912481,2886.803174,-11399.171507,-2068.457845
2593.912809,3552.988522,-13915.871710,1455.581446
2593.913137,1406.391290,-14878.139434,2451.505594
2593.913465,-888.247130,-14952.160028,842.705048
2593.913792,-2886.803174,-13545.768739,-2221.676944
2593.914120,-3923.091493,-11991.336260,-4290.134789
2593.914448,-2812.782580,-10955.047942,-3677.258390
2593.914775,-666.185348,-8660.409521,-1378.971896
2593.915103,370.102971,-6291.750507,612.876398
2593.915431,1406.391290,-6069.688724,2681.334243
2593.915758,666.185348,-6587.832884,1838.629195
2593.916086,0.000000,-5847.626942,0.000000
2593.916414,592.164754,-6661.853478,-1532.190996
2593.916741,2590.720797,-8956.491898,-1915.238745
2593.917069,4737.318029,-11843.295072,-842.705048
2593.917397,4811.338623,-14211.954086,2834.553343
2593.917724,2072.576638,-15692.365970,3140.991542
2593.918052,-740.205942,-15174.221811,766.095498
2593.918380,-2738.761985,-13471.748144,-2757.943793
2593.918707,-3923.091493,-10214.842000,-4596.572988
2593.919035,-2886.803174,-7624.121203,-3370.820191
2593.919363,-1702.473667,-6957.935855,-383.047749
2593.919691,296.082377,-5477.523971,2145.067394
2593.920018,962.267725,-4589.276840,2604.724693
2593.920346,222.061783,-5255.462188,2451.505594
2593.920674,518.144159,-5329.482782,536.266849
2593.921001,1924.535449,-6513.812290,-919.314598
2593.921329,4441.235652,-8882.471304,-1225.752797
2593.921657,5403.503377,-11917.315666,612.876398
2593.921984,5699.585753,-15470.304188,3064.381992
2593.922312,2294.638420,-15840.407159,3140.991542
2593.922640,-1406.391290,-13841.851115,383.047749
2593.922967,-4145.153275,-11695.253884,-2757.943793
2593.923295,-5699.585753,-9844.739029,-4749.792088
2593.923623,-4293.194464,-8882.471304,-3983.696590
2593.923950,-2146.597232,-7179.997637,-2145.067394
2593.924278,74.020594,-6069.688724,0.000000
2593.924606,1406.391290,-6439.791695,1532.190996
2593.924933,1850.514855,-6661.853478,1532.190996
2593.925261,2146.597232,-6513.812290,76.609550
2593.925589,3478.967927,-7846.182985,-1149.143247
2593.925916,5847.626942,-10658.965565,-919.314598
2593.926244,7105.977043,-13175.665768,1915.238745
2593.926572,5329.482782,-15174.221811,3600.648841
2593.926900,1036.288319,-15544.324782,2604.724693
2593.927227,-2368.659014,-15026.180623,-1149.143247
2593.927555,-5181.441594,-12509.480420,-5132.839837
2593.927883,-6069.688724,-9918.759623,-5975.544884
2593.928210,-4441.235652,-8512.368333,-4213.525239
2593.928538,-1332.370696,-6513.812290,-2451.505594
2593.928866,666.185348,-4959.379811,1685.410096
2593.929193,962.267725,-6069.688724,3294.210641
2593.929521,1406.391290,-5477.523971,2987.772442
2593.929848,888.247130,-5625.565159,1149.143247
2593.930176,2368.659014,-7624.121203,-612.876398
2593.930504,4219.173869,-10732.986159,-1302.362347
2593.930831,4145.153275,-13101.645173,1455.581446
2593.931159,1110.308913,-14063.912898,3600.648841
2593.931487,-1998.556043,-14137.933492,2068.457845
2593.931814,-4219.173869,-14211.954086,-1378.971896
2593.932142,-6365.771101,-11547.212695,-3983.696590
2593.932470,-6513.812290,-8660.409521,-4903.011187
2593.932797,-4737.318029,-7254.018232,-2604.724693
2593.933125,-1406.391290,-5625.565159,229.828649
2593.933453,1998.556043,-4959.379811,3064.381992
2593.933780,2368.659014,-4737.318029,4213.525239
2593.934108,1628.453072,-5551.544565,3447.429741
2593.934436,2368.659014,-6661.853478,153.219100
2593.934763,3627.009116,-9474.636058,-1991.848295
2593.935091,4219.173869,-12583.501014,-1225.752797
2593.935419,4737.318029,-14730.098246,459.657299
2593.935746,2368.659014,-15692.365970,2757.943793
2593.936074,-888.247130,-15988.448347,1608.800546
2593.936402,-2886.803174,-14285.974681,-1991.848295
2593.936729,-4589.276840,-11177.109724,-4519.963438
2593.937057,-5329.482782,-8512.368333,-4519.963438
2593.937385,-2368.659014,-7105.977043,-2528.115143
2593.937712,296.082377,-5255.462188,536.266849
2593.938040,1332.370696,-3849.070898,2911.162892
2593.938368,2960.823768,-5329.482782,2757.943793
2593.938695,2368.659014,-6365.771101,1762.019645
2593.939023,2664.741391,-7994.224174,-536.266849
2593.939351,4737.318029,-10658.965565,-2528.115143
2593.939678,6365.771101,-13619.789333,-1455.581446
2593.940006,5847.626942,-15248.242405,2068.457845
2593.940334,3108.864956,-15248.242405,2451.505594
2593.940661,-222.061783,-14878.139434,1072.533697
2593.940989,-3627.009116,-13027.624579,-1455.581446
2593.941317,-5551.544565,-9474.636058,-3753.867940
2593.941644,-5551.544565,-6735.874072,-3600.648841
2593.941972,-3478.967927,-5329.482782,-1378.971896
2593.942300,-592.164754,-5107.421000,0.000000
2593.942627,1406.391290,-4885.359217,2145.067394
2593.942955,1406.391290,-5995.668130,2451.505594
2593.943283,2368.659014,-7476.080014,1302.362347
2593.943610,3404.947333,-8364.327145,-842.705048
2593.943938,5773.606348,-11621.233289,-1685.410096
2593.944266,6217.729913,-14211.954086,536.266849
2593.944593,5403.503377,-15174.221811,2681.334243
2593.944921,2516.700203,-15248.242405,3907.087040
2593.945249,-2368.659014,-13397.727550,1532.190996
2593.945576,-5329.482782,-11177.109724,-2374.896044
2593.945904,-7105.977043,-8216.285956,-4979.620737
2593.946232,-6735.874072,-7105.977043,-4366.744339
2593.946559,-4219.173869,-5773.606348,-2757.943793
2593.946887,-740.205942,-4219.173869,766.095498
2593.947214,1554.432478,-4959.379811,2757.943793
2593.947542,2294.638420,-6661.853478,3064.381992
2593.947870,2442.679609,-7476.080014,1149.143247
2593.948197,3552.988522,-9178.553681,-995.924147
2593.948525,4663.297435,-12213.398043,-1915.238745
2593.948853,5699.585753,-14804.118840,-229.828649
2593.949180,4293.194464,-15174.221811,2374.896044
2593.949508,-148.041188,-14508.036463,3064.381992
2593.949836,-3997.112087,-13471.748144,0.000000
2593.950163,-6735.874072,-11399.171507,-3600.648841
2593.950491,-8734.430116,-7994.224174,-5209.449386
2593.950819,-7031.956449,-6439.791695,-3677.258390
2593.951146,-3034.844362,-4737.318029,-1608.800546
2593.951474,1702.473667,-4367.215058,842.705048
2593.951802,3404.947333,-5773.606348,3524.039291
2593.952129,3701.029710,-6513.812290,3600.648841
2593.952457,4293.194464,-7328.038826,1915.238745
2593.952785,5329.482782,-9326.594869,-689.485948
2593.953112,6439.791695,-12879.583391,-1532.190996
2593.953440,6217.729913,-14878.139434,-612.876398
2593.953768,3701.029710,-15322.262999,1378.971896
2593.954095,0.000000,-15618.345376,1915.238745
2593.954423,-3775.050304,-13027.624579,-306.438199
2593.954751,-5477.523971,-10658.965565,-4136.915689
2593.955078,-6883.915261,-8142.265362,-4443.353888
2593.955406,-5403.503377,-5477.523971,-3064.381992
2593.955734,-1332.370696,-4663.297435,-766.095498
2593.956061,1850.514855,-4737.318029,1991.848295
2593.956389,2738.761985,-4885.359217,4136.915689
2593.956717,4071.132681,-6587.832884,2911.162892
2593.957044,3256.906145,-7846.182985,612.876398
2593.957372,4367.215058,-10807.006753,-1838.629195
2593.957700,6217.729913,-13915.871710,-2834.553343
2593.958027,5921.647536,-15766.386565,-842.705048
2593.958355,3256.906145,-16506.592507,1532.190996
2593.958683,0.000000,-15544.324782,1608.800546
2593.959010,-4071.132681,-12361.439231,-1072.533697
2593.959338,-6883.915261,-9474.636058,-2987.772442
2593.959666,-7328.038826,-6291.750507,-3600.648841
2593.959993,-4737.318029,-4737.318029,-2451.505594
2593.960321,-1480.411884,-3923.091493,0.000000
2593.960649,2664.741391,-5255.462188,2298.286494
2593.960976,3849.070898,-5995.668130,3447.429741
2593.961304,4589.276840,-7624.121203,2145.067394
2593.961632,4885.359217,-9400.615463,459.657299
2593.961959,5329.482782,-11695.253884,-1378.971896
2593.962287,6439.791695,-13915.871710,-1455.581446
2593.962615,5847.626942,-15248.242405,536.266849
2593.962942,3182.885551,-15470.304188,2068.457845
2593.963270,-1258.350101,-14285.974681,1762.019645
2593.963597,-4737.318029,-11325.150913,-919.314598
2593.963925,-7105.977043,-8512.368333,-3907.087040
2593.964253,-7624.121203,-6217.729913,-4290.134789
2593.964580,-5033.400406,-4737.318029,-3064.381992
2593.964908,-1184.329507,-4885.359217,306.438199
2593.965236,1110.308913,-5033.400406,3447.429741
2593.965563,2738.761985,-6217.729913,4136.915689
2593.965891,2664.741391,-7920.203579,2757.943793
2593.966219,2516.700203,-9770.718434,459.657299
2593.966546,3923.091493,-11991.336260,-2451.505594
2593.966874,4737.318029,-14359.995275,-2145.067394
2593.967202,4071.132681,-15544.324782,306.438199
2593.967529,1258.350101,-15470.304188,2298.286494
2593.967857,-3701.029710,-13323.706956,1532.190996
2593.968185,-6735.874072,-10584.944971,-1455.581446
2593.968512,-9326.594869,-7624.121203,-4749.792088
2593.968840,-8660.409521,-5477.523971,-4596.572988
2593.969168,-5847.626942,-4219.173869,-3064.381992
2593.969495,444.123565,-5699.585753,-383.047749
2593.969823,3627.009116,-5699.585753,2451.505594
2593.970151,5181.441594,-7254.018232,4060.306139
2593.970478,5255.462188,-9104.533087,2757.943793
2593.970806,4959.379811,-10288.862594,-229.828649
2593.971134,5551.544565,-12213.398043,-1991.848295
2593.971461,5773.606348,-13545.768739,-1762.019645
2593.971789,3923.091493,-14359.995275,919.314598
2593.972117,814.226536,-13767.830521,2145.067394
2593.972444,-2516.700203,-13027.624579,536.266849
2593.972772,-6291.750507,-10140.821405,-2451.505594
2593.973100,-7402.059420,-8364.327145,-4596.572988
2593.973427,-5699.585753,-6291.750507,-4596.572988
2593.973755,-3182.885551,-5403.503377,-2298.286494
2593.974083,1332.370696,-6365.771101,0.000000
2593.974410,3701.029710,-6365.771101,3907.087040
2593.974738,4145.153275,-6883.915261,4519.963438
2593.975066,3627.009116,-7624.121203,2451.505594
2593.975393,3775.050304,-11103.089130,-1685.410096
2593.975721,4441.235652,-13471.748144,-2681.334243
2593.976049,5033.400406,-13989.892304,-2221.676944
2593.976376,3182.885551,-13619.789333,153.219100
2593.976704,0.000000,-14656.077652,1915.238745
2593.977032,-2368.659014,-13619.789333,612.876398
2593.977359,-4515.256246,-10288.862594,-1915.238745
2593.977687,-7031.956449,-7402.059420,-2681.334243
2593.978015,-4441.235652,-5625.565159,-2681.334243
2593.978342,-1480.411884,-5329.482782,-1149.143247
2593.978670,2442.679609,-6661.853478,2145.067394
2593.978998,4367.215058,-5995.668130,4519.963438
2593.979325,3849.070898,-7846.182985,3217.601092
2593.979653,2960.823768,-9104.533087,919.314598
2593.979980,3108.864956,-10510.924376,-1378.971896
2593.980308,4219.173869,-12139.377449,-3294.210641
2593.980636,3627.009116,-13693.809927,-1532.190996
2593.980963,2072.576638,-14656.077652,1455.581446
2593.981291,518.144159,-13471.748144,2145.067394
2593.981619,-3478.967927,-11621.233289,612.876398
2593.981946,-5477.523971,-9696.697840,-919.314598
2593.982274,-5995.668130,-6513.812290,-3064.381992
2593.982602,-4885.359217,-6143.709319,-2911.162892
2593.982929,-1776.494261,-6661.853478,-766.095498
2593.983257,1332.370696,-5477.523971,2298.286494
2593.983585,3034.844362,-6365.771101,3753.867940
2593.983912,2590.720797,-8364.327145,2987.772442
2593.984240,1850.514855,-9622.677246,536.266849
2593.984568,2294.638420,-11029.068536,-2987.772442
2593.984895,3701.029710,-13175.665768,-3217.601092
2593.985223,4367.215058,-13101.645173,-1378.971896
2593.985551,3627.009116,-13693.809927,1685.410096
2593.985878,666.185348,-14211.954086,2451.505594
2593.986206,-2886.803174,-11843.295072,383.047749
2593.986534,-5181.441594,-9474.636058,-3064.381992
2593.986861,-6143.709319,-7328.038826,-4213.525239
2593.987189,-4589.276840,-6809.894666,-3370.820191
2593.987517,-1406.391290,-6439.791695,-995.924147
2593.987844,1480.411884,-7846.182985,0.000000
2593.988172,3478.967927,-8512.368333,2298.286494
2593.988500,3108.864956,-8364.327145,2068.457845
2593.988827,1776.494261,-7328.038826,612.876398
2593.989155,2516.700203,-11029.068536,-1225.752797
2593.989483,4145.153275,-11843.295072,-2451.505594
2593.989810,3775.050304,-12287.418637,0.000000
2593.990138,2294.638420,-13101.645173,2451.505594
2593.990466,-740.205942,-12213.398043,3064.381992
2593.990793,-2812.782580,-11843.295072,459.657299
2593.991121,-5181.441594,-9474.636058,-1915.238745
2593.991449,-5921.647536,-7328.038826,-3753.867940
2593.991776,-4219.173869,-6957.935855,-3370.820191
2593.992104,-888.247130,-7179.997637,-383.047749
2593.992432,1850.514855,-6957.935855,2757.943793
2593.992759,3182.885551,-7031.956449,4903.011187
2593.993087,2072.576638,-7698.141797,3600.648841
2593.993415,518.144159,-7846.182985,0.000000
2593.993742,1998.556043,-10140.821405,-2911.162892
2593.994070,3034.844362,-11177.109724,-2987.772442
2593.994398,3256.906145,-11991.336260,-536.266849
2593.994725,2294.638420,-13323.706956,1915.238745
2593.995053,-518.144159,-12953.603985,2451.505594
2593.995381,-2960.823768,-11769.274478,-459.657299
2593.995708,-4441.235652,-10732.986159,-2681.334243
2593.996036,-3701.029710,-9326.594869,-4366.744339
2593.996364,-1480.411884,-8586.388927,-3064.381992
2593.996691,1628.453072,-8216.285956,0.000000
2593.997019,3404.947333,-7994.224174,2374.896044
2593.997346,3256.906145,-8290.306550,2834.553343
2593.997674,1702.473667,-8586.388927,1991.848295
2593.998002,1110.308913,-9104.533087,-842.705048
2593.998329,888.247130,-9104.533087,-2987.772442
2593.998657,2294.638420,-10732.986159,-2757.943793
2593.998985,2812.782580,-13101.645173,0.000000
2593.999312,1776.494261,-13989.892304,2221.676944
2593.999640,-370.102971,-13027.624579,1532.190996
2593.999968,-2886.803174,-11769.274478,-306.438199
2594.000295,-3997.112087,-9696.697840,-2451.505594
2594.000623,-3256.906145,-8586.388927,-3600.648841
2594.000951,-1924.535449,-7624.121203,-1149.143247
2594.001278,592.164754,-7031.956449,1608.800546
2594.001606,2590.720797,-7031.956449,3677.258390
2594.001934,1924.535449,-7328.038826,2911.162892
2594.002261,-222.061783,-7402.059420,1685.410096
2594.002589,148.041188,-8512.368333,-1915.238745
2594.002917,592.164754,-8660.409521,-3447.429741
2594.003244,2294.638420,-10436.903782,-2145.067394
2594.003572,3330.926739,-11325.150913,995.924147
2594.003900,2516.700203,-12509.480420,3370.820191
2594.004227,444.123565,-12583.501014,3600.648841
2594.004555,-2368.659014,-10955.047942,612.876398
2594.004883,-3330.926739,-9474.636058,-3753.867940
2594.005210,-3034.844362,-8808.450710,-3907.087040
2594.005538,-1110.308913,-8586.388927,-2374.896044
2594.005866,1702.473667,-8142.265362,766.095498
2594.006193,2590.720797,-7402.059420,2298.286494
2594.006521,1776.494261,-8438.347739,1455.581446
2594.006849,962.267725,-9030.512492,-153.219100
2594.007176,370.102971,-8216.285956,-1838.629195
2594.007504,1184.329507,-9178.553681,-2221.676944
2594.007832,3034.844362,-11029.068536,-1378.971896
2594.008159,3552.988522,-12879.583391,1378.971896
2594.008487,3256.906145,-13471.748144,2298.286494
2594.008815,592.164754,-12657.521608,1838.629195
2594.009142,-1850.514855,-12435.459826,153.219100
2594.009470,-2886.803174,-11103.089130,-3983.696590
2594.009798,-3034.844362,-9918.759623,-3677.258390
2594.010125,-1406.391290,-9696.697840,-2374.896044
2594.010453,592.164754,-8216.285956,0.000000
2594.010781,1258.350101,-7476.080014,1838.629195
2594.011108,1110.308913,-7772.162391,2528.115143
2594.011436,0.000000,-6957.935855,1302.362347
2594.011764,-740.205942,-6513.812290,-229.828649
2594.012091,1110.308913,-8364.327145,-1532.190996
2594.012419,2886.803174,-9696.697840,-1225.752797
2594.012747,2960.823768,-11029.068536,1991.848295
2594.013074,1184.329507,-11917.315666,3677.258390
2594.013402,-370.102971,-12509.480420,2374.896044
2594.013729,-2590.720797,-12139.377449,-995.924147
2594.014057,-3478.967927,-10362.883188,-3294.210641
2594.014385,-2516.700203,-9326.594869,-3140.991542
2594.014712,-518.144159,-8956.491898,-1532.190996
2594.015040,1184.329507,-8068.244768,842.705048
2594.015368,1554.432478,-6735.874072,2374.896044
2594.015695,0.000000,-5847.626942,1685.410096
2594.016023,-370.102971,-6439.791695,536.266849
2594.016351,-592.164754,-6587.832884,-1838.629195
2594.016678,740.205942,-8290.306550,-2451.505594
2594.017006,3034.844362,-11251.130318,-1378.971896
2594.017334,3775.050304,-12953.603985,1455.581446
2594.017661,3034.844362,-14434.015869,2221.676944
2594.017989,1406.391290,-14211.954086,1225.752797
2594.018317,-1110.308913,-12953.603985,-1685.410096
2594.018644,-1998.556043,-11325.150913,-3140.991542
2594.018972,-1776.494261,-10140.821405,-2834.553343
2594.019300,-148.041188,-9474.636058,-1072.533697
2594.019627,1036.288319,-7254.018232,689.485948
2594.019955,222.061783,-6291.750507,1762.019645
2594.020283,-1850.514855,-6957.935855,1072.533697
2594.020610,-2664.741391,-7476.080014,-995.924147
2594.020938,-1110.308913,-7328.038826,-3677.258390
2594.021266,1332.370696,-8882.471304,-2834.553343
2594.021593,3997.112087,-11029.068536,-459.657299
2594.021921,4811.338623,-12953.603985,3370.820191
2594.022249,2590.720797,-13545.768739,4366.744339
2594.022576,74.020594,-13175.665768,1838.629195
2594.022904,-2812.782580,-11473.192101,-1225.752797
2594.023232,-4071.132681,-9400.615463,-2451.505594
2594.023559,-2960.823768,-9030.512492,-2757.943793
2594.023887,-518.144159,-8734.430116,-919.314598
2594.024215,666.185348,-7328.038826,1378.971896
2594.024542,592.164754,-7031.956449,2298.286494
2594.024870,-888.247130,-5995.668130,1302.362347
2594.025198,-666.185348,-5847.626942,-919.314598
2594.025525,-740.205942,-5699.585753,-1991.848295
2594.025853,1776.494261,-7994.224174,-1225.752797
2594.026181,4441.235652,-11029.068536,459.657299
2594.026508,5551.544565,-13323.706956,2987.772442
2594.026836,3775.050304,-14434.015869,4213.525239
2594.027164,518.144159,-13841.851115,1762.019645
2594.027491,-2072.576638,-11991.336260,-1915.238745
2594.027819,-3775.050304,-10807.006753,-4826.401637
2594.028147,-3034.844362,-10288.862594,-5056.230287
2594.028474,-814.226536,-9030.512492,-2528.115143
2594.028802,814.226536,-7179.997637,306.438199
2594.029129,814.226536,-6883.915261,2374.896044
2594.029457,148.041188,-6809.894666,2298.286494
2594.029784,0.000000,-6661.853478,-383.047749
2594.030112,1036.288319,-7105.977043,-2221.676944
2594.030439,3034.844362,-9474.636058,-2298.286494
2594.030767,4811.338623,-11621.233289,383.047749
2594.031094,4737.318029,-13693.809927,3447.429741
2594.031422,1702.473667,-14434.015869,3294.210641
2594.031749,-1480.411884,-14582.057057,689.485948
2594.032076,-3552.988522,-13027.624579,-2834.553343
2594.032404,-4515.256246,-10807.006753,-5515.887586
2594.032731,-3552.988522,-9770.718434,-4596.572988
2594.033059,-1628.453072,-8586.388927,-1455.581446
2594.033386,518.144159,-6291.750507,919.314598
2594.033714,592.164754,-5699.585753,2528.115143
2594.034041,74.020594,-5329.482782,2145.067394
2594.034369,1036.288319,-4293.194464,612.876398
2594.034696,2220.617826,-5329.482782,-459.657299
2594.035024,3923.091493,-9104.533087,0.000000
2594.035351,6217.729913,-13027.624579,1455.581446
2594.035679,4663.297435,-14952.160028,3677.258390
2594.036006,888.247130,-14508.036463,3294.210641
2594.036334,-1628.453072,-14582.057057,76.609550
2594.036661,-3849.070898,-12583.501014,-3830.477490
2594.036988,-5551.544565,-9104.533087,-4596.572988
2594.037316,-4071.132681,-9474.636058,-3217.601092
2594.037643,-1480.411884,-7698.141797,-383.047749
2594.037971,-222.061783,-5255.462188,1608.800546
2594.038298,-222.061783,-5033.400406,2451.505594
2594.038626,-1406.391290,-5107.421000,1838.629195
2594.038953,-592.164754,-5403.503377,-995.924147
2594.039281,1776.494261,-7846.182985,-3447.429741
2594.039608,4145.153275,-10066.800811,-1532.190996
2594.039936,5477.523971,-13989.892304,842.705048
2594.040263,5255.462188,-16580.613101,3907.087040
2594.040591,1406.391290,-15692.365970,2528.115143
2594.040918,-2368.659014,-13989.892304,-842.705048
2594.041245,-4219.173869,-12879.583391,-4366.744339
2594.041573,-4737.318029,-9770.718434,-4979.620737
2594.041900,-3034.844362,-8290.306550,-3294.210641
2594.042228,-370.102971,-6957.935855,0.000000
2594.042555,1480.411884,-5477.523971,2145.067394
2594.042883,1480.411884,-6143.709319,2681.334243
2594.043210,1258.350101,-6809.894666,995.924147
2594.043538,1406.391290,-6143.709319,-995.924147
2594.043865,3701.029710,-7920.203579,-1685.410096
2594.044193,5033.400406,-10732.986159,-1149.143247
2594.044520,5625.565159,-13841.851115,1608.800546
2594.044848,4145.153275,-14804.118840,3677.258390
2594.045175,1110.308913,-14359.995275,2451.505594
2594.045502,-2664.741391,-13175.665768,0.000000
2594.045830,-4959.379811,-10214.842000,-3064.381992
2594.046157,-5625.565159,-8364.327145,-4979.620737
2594.046485,-4589.276840,-7550.100608,-3447.429741
2594.046812,-1406.391290,-6513.812290,-612.876398
2594.047140,666.185348,-5255.462188,2298.286494
2594.047467,592.164754,-5699.585753,3907.087040
2594.047795,888.247130,-6217.729913,2374.896044
2594.048122,1258.350101,-6883.915261,-536.266849
2594.048450,2590.720797,-8216.285956,-2221.676944
2594.048777,4663.297435,-11547.212695,-536.266849
2594.049105,5033.400406,-14508.036463,2451.505594
2594.049432,2294.638420,-14878.139434,3830.477490
2594.049760,-962.267725,-14211.954086,1455.581446
2594.050087,-3923.091493,-13323.706956,-2374.896044
2594.050414,-5699.585753,-11103.089130,-4826.401637
2594.050742,-5847.626942,-8438.347739,-4903.011187
2594.051069,-2590.720797,-8364.327145,-3370.820191
2594.051397,148.041188,-6809.894666,-229.828649
2594.051724,2590.720797,-5921.647536,2068.457845
2594.052052,2664.741391,-6069.688724,3217.601092
2594.052379,2294.638420,-6217.729913,2298.286494
2594.052707,2812.782580,-7624.121203,229.828649
2594.053034,4737.318029,-9992.780217,-1838.629195
2594.053362,5773.606348,-13323.706956,-459.657299
2594.053689,5329.482782,-14730.098246,2145.067394
2594.054017,2146.597232,-15174.221811,2987.772442
2594.054344,-1332.370696,-14730.098246,1072.533697
2594.054671,-3627.009116,-13101.645173,-2911.162892
2594.054999,-6143.709319,-9178.553681,-4136.915689
2594.055326,-5921.647536,-8142.265362,-3447.429741
2594.055654,-3775.050304,-7105.977043,-1762.019645
2594.055981,-1184.329507,-5477.523971,229.828649
2594.056309,1036.288319,-4515.256246,1838.629195
2594.056636,740.205942,-4811.338623,2987.772442
2594.056964,814.226536,-6661.853478,1455.581446
2594.057291,2812.782580,-7624.121203,-766.095498
2594.057619,4145.153275,-9400.615463,-2145.067394
2594.057946,4737.318029,-12805.562797,-1149.143247
2594.058274,3849.070898,-14804.118840,1762.019645
2594.058601,1258.350101,-14952.160028,2681.334243
2594.058928,-2294.638420,-13989.892304,995.924147
2594.059256,-4219.173869,-11991.336260,-1455.581446
2594.059583,-5329.482782,-8586.388927,-3294.210641
2594.059911,-4589.276840,-6883.915261,-3064.381992
2594.060238,-2072.576638,-6883.915261,-995.924147
2594.060566,592.164754,-5699.585753,919.314598
2594.060893,2146.597232,-5403.503377,2374.896044
2594.061221,2220.617826,-6217.729913,2068.457845
2594.061548,2442.679609,-7550.100608,612.876398
2594.061876,3330.926739,-8586.388927,-1532.190996
2594.062203,4959.379811,-11399.171507,-2757.943793
2594.062531,6513.812290,-15396.283594,-459.657299
2594.062858,4885.359217,-15840.407159,2221.676944
2594.063186,1332.370696,-14582.057057,2604.724693
2594.063513,-1998.556043,-14063.912898,536.266849
2594.063840,-4663.297435,-11251.130318,-2604.724693
2594.064168,-5477.523971,-7402.059420,-3677.258390
2594.064495,-4959.379811,-6661.853478,-2528.115143
2594.064823,-1850.514855,-6439.791695,-383.047749
2594.065150,888.247130,-5403.503377,1455.581446
2594.065478,1702.473667,-5699.585753,2528.115143
2594.065805,814.226536,-6735.874072,2221.676944
2594.066133,1702.473667,-7624.121203,76.609550
2594.066460,3182.885551,-9178.553681,-1915.238745
2594.066788,4441.235652,-11547.212695,-2221.676944
2594.067115,5921.647536,-14508.036463,76.609550
2594.067443,4145.153275,-14952.160028,2604.724693
2594.067770,148.041188,-14285.974681,2757.943793
2594.068097,-3627.009116,-12361.439231,612.876398
2594.068425,-6143.709319,-9622.677246,-3217.601092
2594.068752,-7328.038826,-6883.915261,-4290.134789
2594.069080,-5181.441594,-6439.791695,-3140.991542
2594.069407,-2220.617826,-5255.462188,-766.095498
2594.069735,1184.329507,-5847.626942,1838.629195
2594.070062,2590.720797,-6661.853478,3370.820191
2594.070390,3256.906145,-8216.285956,2298.286494
2594.070717,2664.741391,-8586.388927,689.485948
2594.071045,3849.070898,-9548.656652,-2145.067394
2594.071372,5773.606348,-12731.542202,-2451.505594
2594.071700,5551.544565,-14804.118840,459.657299
2594.072027,3256.906145,-15470.304188,1915.238745
2594.072354,-370.102971,-14508.036463,2298.286494
2594.072682,-3849.070898,-13027.624579,-536.266849
2594.073009,-7031.956449,-8956.491898,-3294.210641
2594.073337,-6883.915261,-7105.977043,-5132.839837
2594.073664,-4589.276840,-6883.915261,-3677.258390
2594.073992,-1332.370696,-5551.544565,-229.828649
2594.074319,1924.535449,-5107.421000,2911.162892
2594.074647,3478.967927,-6365.771101,4290.134789
2594.074974,2960.823768,-7624.121203,2834.553343
2594.075302,3182.885551,-8512.368333,612.876398
2594.075629,4071.132681,-9918.759623,-1608.800546
2594.075957,5255.462188,-12583.501014,-1838.629195
2594.076284,4441.235652,-14804.118840,229.828649
2594.076611,2442.679609,-14804.118840,2145.067394
2594.076939,-1628.453072,-13545.768739,1608.800546
2594.077266,-4885.359217,-11843.295072,-995.924147
2594.077594,-6291.750507,-9844.739029,-3524.039291
2594.077921,-5181.441594,-7698.141797,-4673.182538
2594.078249,-3627.009116,-5699.585753,-2451.505594
2594.078576,370.102971,-5329.482782,1149.143247
2594.078904,2812.782580,-5107.421000,2987.772442
2594.079231,3627.009116,-6587.832884,3524.039291
2594.079559,2442.679609,-7254.018232,2298.286494
2594.079886,2738.761985,-8290.306550,0.000000
2594.080214,4071.132681,-10362.883188,-2757.943793
2594.080541,5699.585753,-14878.139434,-2374.896044
2594.080869,4737.318029,-15544.324782,459.657299
2594.081196,2368.659014,-14952.160028,2068.457845
2594.081523,-370.102971,-14730.098246,1838.629195
2594.081851,-3478.967927,-11917.315666,-612.876398
2594.082178,-5625.565159,-7698.141797,-2757.943793
2594.082506,-5551.544565,-5477.523971,-2681.334243
2594.082833,-3775.050304,-5181.441594,-1225.752797
2594.083161,-222.061783,-6217.729913,689.485948
2594.083488,2072.576638,-6217.729913,2451.505594
2594.083816,1406.391290,-7476.080014,2987.772442
2594.084143,370.102971,-8586.388927,689.485948
2594.084471,1554.432478,-9844.739029,-2528.115143
2594.084798,2664.741391,-11251.130318,-3447.429741
2594.085126,4145.153275,-13101.645173,-2374.896044
2594.085453,4515.256246,-14508.036463,689.485948
2594.085780,1850.514855,-14582.057057,2987.772442
2594.086108,-2146.597232,-12583.501014,2221.676944
2594.086435,-4441.235652,-10288.862594,-1302.362347
2594.086763,-6587.832884,-7550.100608,-3140.991542
2594.087090,-5699.585753,-6439.791695,-3370.820191
2594.087418,-2738.761985,-5995.668130,-1915.238745
2594.087745,74.020594,-5773.606348,995.924147
2594.088073,2960.823768,-6735.874072,2298.286494
2594.088400,3701.029710,-8142.265362,2681.334243
2594.088728,2220.617826,-8364.327145,2145.067394
2594.089055,2960.823768,-9474.636058,-766.095498
2594.089383,4737.318029,-11991.336260,-2834.553343
2594.089710,5255.462188,-13767.830521,-1608.800546
2594.090037,4071.132681,-13545.768739,1302.362347
2594.090365,1480.411884,-13397.727550,2604.724693
2594.090692,-2368.659014,-12213.398043,1149.143247
2594.091020,-4589.276840,-10288.862594,-1915.238745
2594.091347,-5699.585753,-7254.018232,-3907.087040
2594.091675,-4811.338623,-6587.832884,-3753.867940
2594.092002,-1332.370696,-7179.997637,-2221.676944
2594.092330,1998.556043,-7105.977043,1149.143247
2594.092657,2812.782580,-6883.915261,3753.867940
2594.092985,2960.823768,-8216.285956,3677.258390
2594.093312,1998.556043,-9178.553681,1608.800546
2594.093640,2368.659014,-9696.697840,-1608.800546
2594.093967,3849.070898,-10658.965565,-3370.820191
2594.094295,3627.009116,-13175.665768,-842.705048
2594.094622,2072.576638,-13619.789333,1302.362347
2594.094949,-518.144159,-12509.480420,2145.067394
2594.095277,-3701.029710,-11547.212695,306.438199
2594.095604,-5995.668130,-11251.130318,-2298.286494
2594.095932,-6217.729913,-8882.471304,-4213.525239
2594.096259,-4515.256246,-6957.935855,-3140.991542
2594.096587,-962.267725,-6291.750507,-536.266849
2594.096914,2812.782580,-7328.038826,2757.943793
2594.097242,3552.988522,-7105.977043,3907.087040
2594.097569,2738.761985,-7476.080014,3370.820191
2594.097897,1332.370696,-8142.265362,689.485948
2594.098224,2368.659014,-9918.759623,-2604.724693
2594.098552,3256.906145,-11695.253884,-3140.991542
2594.098879,3627.009116,-11843.295072,-536.266849
2594.099206,2960.823768,-13619.789333,2221.676944
2594.099534,592.164754,-13397.727550,2451.505594
2594.099861,-1258.350101,-12435.459826,306.438199
2594.100189,-3627.009116,-10436.903782,-1915.238745
2594.100516,-3478.967927,-8586.388927,-3677.258390
2594.100844,-2072.576638,-7254.018232,-3140.991542
2594.101171,-1184.329507,-7402.059420,0.000000
2594.101499,1776.494261,-7550.100608,3064.381992
2594.101826,2738.761985,-7105.977043,3370.820191
2594.102154,370.102971,-7476.080014,1532.190996
2594.102481,-518.144159,-8068.244768,-1149.143247
2594.102809,518.144159,-9548.656652,-3600.648841
2594.103136,1850.514855,-11473.192101,-3447.429741
2594.103463,2812.782580,-12953.603985,-306.438199
2594.103791,2442.679609,-12583.501014,2451.505594
2594.104118,222.061783,-12953.603985,3064.381992
2594.104446,-2072.576638,-12139.377449,1762.019645
2594.104773,-3849.070898,-8882.471304,-1225.752797
2594.105101,-3849.070898,-7846.182985,-2987.772442
2594.105428,-2664.741391,-7402.059420,-1991.848295
2594.105756,0.000000,-7772.162391,153.219100
2594.106083,1924.535449,-6735.874072,2604.724693
2594.106411,1628.453072,-7476.080014,2604.724693
2594.106738,444.123565,-8512.368333,612.876398
2594.107066,-222.061783,-8882.471304,-1455.581446
2594.107393,888.247130,-8438.347739,-2834.553343
2594.107721,3182.885551,-9770.718434,-3140.991542
2594.108048,4145.153275,-12509.480420,766.095498
2594.108375,3108.864956,-13249.686362,2757.943793
2594.108703,1110.308913,-12583.501014,2681.334243
2594.109030,-1628.453072,-11547.212695,919.314598
2594.109358,-3849.070898,-9474.636058,-2298.286494
2594.109685,-3034.844362,-8808.450710,-3983.696590
2594.110013,-1036.288319,-8882.471304,-3217.601092
2594.110340,518.144159,-8438.347739,0.000000
2594.110668,1850.514855,-8438.347739,2145.067394
2594.110995,1924.535449,-8142.265362,2528.115143
2594.111323,148.041188,-8364.327145,995.924147
2594.111650,-222.061783,-8586.388927,-1608.800546
2594.111978,-518.144159,-7920.203579,-2987.772442
2594.112305,1258.350101,-9178.553681,-1762.019645
2594.112632,3330.926739,-12213.398043,689.485948
2594.112960,1998.556043,-13471.748144,2451.505594
2594.113287,-518.144159,-12805.562797,2451.505594
2594.113615,-2146.597232,-12065.356855,-1149.143247
2594.113942,-3478.967927,-11399.171507,-3753.867940
2594.114270,-3404.947333,-9992.780217,-3600.648841
2594.114597,-740.205942,-8142.265362,-1225.752797
2594.114925,1702.473667,-7328.038826,1302.362347
2594.115252,3256.906145,-7920.203579,2145.067394
2594.115580,2886.803174,-8216.285956,2374.896044
2594.115907,370.102971,-6809.894666,1302.362347
2594.116235,-222.061783,-6735.874072,-919.314598
2594.116562,1036.288319,-7550.100608,-2451.505594
2594.116889,2738.761985,-9918.759623,-1608.800546
2594.117217,4219.173869,-12139.377449,1532.190996
2594.117544,3330.926739,-12731.542202,2987.772442
2594.117872,1406.391290,-12879.583391,2298.286494
2594.118199,-888.247130,-13101.645173,0.000000
2594.118527,-3182.885551,-10510.924376,-2911.162892
2594.118854,-2812.782580,-8586.388927,-3370.820191
2594.119182,-666.185348,-8364.327145,-1915.238745
2594.119509,1332.370696,-8068.244768,612.876398
2594.119837,2072.576638,-7402.059420,2528.115143
2594.120164,592.164754,-7105.977043,2757.943793
2594.120492,-888.247130,-7179.997637,229.828649
2594.120819,-1406.391290,-8068.244768,-2451.505594
2594.121146,-592.164754,-8438.347739,-3830.477490
2594.121474,1776.494261,-9992.780217,-2834.553343
2594.121801,3627.009116,-12213.398043,459.657299
2594.122129,3552.988522,-14063.912898,2528.115143
2594.122456,1702.473667,-14434.015869,2987.772442
2594.122784,-888.247130,-13323.706956,612.876398
2594.123111,-2516.700203,-10362.883188,-2987.772442
2594.123439,-2738.761985,-9178.553681,-3983.696590
2594.123766,-1480.411884,-9104.533087,-1991.848295
2594.124094,370.102971,-7846.182985,153.219100
2594.124421,888.247130,-7031.956449,1608.800546
2594.124749,-296.082377,-7254.018232,1685.410096
2594.125076,-1480.411884,-7402.059420,76.609550
2594.125404,-888.247130,-7328.038826,-1838.629195
2594.125731,1554.432478,-8438.347739,-2604.724693
2594.126058,3849.070898,-10288.862594,-1838.629195
2594.126386,4589.276840,-11695.253884,2298.286494
2594.126713,3775.050304,-13471.748144,4596.572988
2594.127041,1258.350101,-13101.645173,3370.820191
2594.127368,-1332.370696,-11769.274478,306.438199
2594.127696,-3404.947333,-9696.697840,-2374.896044
2594.128023,-3330.926739,-9104.533087,-3600.648841
2594.128351,-1480.411884,-9400.615463,-2451.505594
2594.128678,-518.144159,-7994.224174,229.828649
2594.129006,-296.082377,-6883.915261,1685.410096
2594.129333,-1184.329507,-7105.977043,1762.019645
2594.129661,-1776.494261,-6661.853478,0.000000
2594.129988,-740.205942,-6143.709319,-2068.457845
2594.130315,1036.288319,-7772.162391,-2451.505594
2594.130643,3923.091493,-11177.109724,-689.485948
2594.130971,4737.318029,-12657.521608,3064.381992
2594.131298,2738.761985,-13027.624579,4136.915689
2594.131626,296.082377,-13841.851115,2145.067394
2594.131953,-2220.617826,-12731.542202,-1455.581446
2594.132281,-3478.967927,-10510.924376,-4290.134789
2594.132608,-2738.761985,-9918.759623,-4673.182538
2594.132936,-444.123565,-9770.718434,-2374.896044
2594.133264,814.226536,-7994.224174,689.485948
2594.133591,1332.370696,-7179.997637,1378.971896
2594.133919,0.000000,-7772.162391,1378.971896
2594.134246,0.000000,-7105.977043,0.000000
2594.134574,1184.329507,-6291.750507,-2068.457845
2594.134901,2886.803174,-8512.368333,-1455.581446
2594.135229,4589.276840,-10881.027347,306.438199
2594.135557,4885.359217,-12435.459826,3370.820191
2594.135884,2960.823768,-14582.057057,2911.162892
2594.136212,0.000000,-14211.954086,1072.533697
2594.136539,-2294.638420,-12435.459826,-1838.629195
2594.136867,-3849.070898,-10658.965565,-3677.258390
2594.137194,-2516.700203,-10140.821405,-3830.477490
2594.137522,-370.102971,-9030.512492,-1915.238745
2594.137850,888.247130,-7105.977043,459.657299
2594.138177,148.041188,-6291.750507,3064.381992
2594.138505,-296.082377,-6291.750507,2068.457845
2594.138832,-962.267725,-5477.523971,0.000000
2594.139160,-518.144159,-5773.606348,-2068.457845
2594.139487,1554.432478,-7920.203579,-2068.457845
2594.139815,3404.947333,-10881.027347,153.219100
2594.140143,4145.153275,-13915.871710,2911.162892
2594.140470,2886.803174,-15322.262999,3677.258390
2594.140798,-518.144159,-14359.995275,1149.143247
2594.141125,-2294.638420,-12953.603985,-2221.676944
2594.141453,-3108.864956,-11251.130318,-3830.477490
2594.141780,-2738.761985,-9844.739029,-3524.039291
2594.142108,-1110.308913,-8808.450710,-995.924147
2594.142436,222.061783,-6143.709319,919.314598
2594.142763,444.123565,-5847.626942,2145.067394
2594.143091,74.020594,-6735.874072,1455.581446
2594.143418,-666.185348,-5477.523971,-383.047749
2594.143746,666.185348,-6957.935855,-2298.286494
2594.144073,3256.906145,-10066.800811,-2145.067394
2594.144401,4959.379811,-11991.336260,229.828649
2594.144729,4959.379811,-13915.871710,3447.429741
2594.145056,3627.009116,-15026.180623,3140.991542
2594.145384,222.061783,-14434.015869,1378.971896
2594.145711,-2220.617826,-12657.521608,-1455.581446
2594.146039,-3849.070898,-10362.883188,-3600.648841
2594.146366,-3627.009116,-9178.553681,-3294.210641
2594.146694,-1628.453072,-7550.100608,-1915.238745
2594.147022,-888.247130,-5699.585753,0.000000
2594.147349,-1628.453072,-5181.441594,1762.019645
2594.147677,-1332.370696,-5255.462188,1455.581446
2594.148004,-444.123565,-5477.523971,-459.657299
2594.148332,666.185348,-6957.935855,-1608.800546
2594.148659,3849.070898,-9992.780217,-1072.533697
2594.148987,6217.729913,-11917.315666,919.314598
2594.149315,4811.338623,-14285.974681,4060.306139
2594.149642,2294.638420,-15322.262999,3830.477490
2594.149970,-1332.370696,-14137.933492,689.485948
2594.150297,-3775.050304,-11695.253884,-2298.286494
2594.150625,-4589.276840,-9622.677246,-4519.963438
2594.150952,-3478.967927,-9178.553681,-4136.915689
2594.151280,-1998.556043,-7402.059420,-1838.629195
2594.151607,-740.205942,-5551.544565,76.609550
2594.151935,222.061783,-6365.771101,1762.019645
2594.152263,222.061783,-5699.585753,1838.629195
2594.152590,888.247130,-5699.585753,153.219100
2594.152918,2886.803174,-7772.162391,-1302.362347
2594.153245,4737.318029,-10066.800811,-1302.362347
2594.153573,6439.791695,-12953.603985,842.705048
2594.153900,4663.297435,-15396.283594,4366.744339
2594.154228,1332.370696,-15470.304188,3064.381992
2594.154556,-1406.391290,-14582.057057,-459.657299
2594.154883,-4293.194464,-11917.315666,-4060.306139
2594.155211,-5181.441594,-10140.821405,-5439.278036
2594.155538,-3256.906145,-9400.615463,-4366.744339
2594.155866,-962.267725,-7105.977043,-919.314598
2594.156193,814.226536,-5847.626942,1991.848295
2594.156521,1110.308913,-5625.565159,2757.943793
2594.156849,296.082377,-4959.379811,2298.286494
2594.157176,518.144159,-5699.585753,0.000000
2594.157504,2812.782580,-7772.162391,-1991.848295
2594.157831,4885.359217,-10584.944971,-1302.362347
2594.158159,5847.626942,-13471.748144,1225.752797
2594.158486,4219.173869,-15396.283594,3524.039291
2594.158814,222.061783,-14730.098246,1991.848295
2594.159142,-3775.050304,-13397.727550,-612.876398
2594.159469,-5403.503377,-11547.212695,-3753.867940
2594.159797,-5773.606348,-8808.450710,-5056.230287
2594.160124,-4219.173869,-7328.038826,-3600.648841
2594.160452,-1776.494261,-5699.585753,0.000000
2594.160779,740.205942,-5033.400406,1532.190996
2594.161107,1554.432478,-5551.544565,2374.896044
2594.161435,1110.308913,-6069.688724,2145.067394
2594.161762,2072.576638,-7179.997637,153.219100
2594.162090,3923.091493,-8660.409521,-1991.848295
2594.162417,5403.503377,-11843.295072,-1762.019645
2594.162745,5699.585753,-15396.283594,1455.581446
2594.163072,4515.256246,-15766.386565,3830.477490
2594.163400,1036.288319,-15100.201217,3447.429741
2594.163728,-2368.659014,-13471.748144,-383.047749
2594.164055,-4145.153275,-10436.903782,-3753.867940
2594.164383,-4515.256246,-8438.347739,-5209.449386
2594.164710,-3552.988522,-7920.203579,-3064.381992
2594.165038,-1332.370696,-5329.482782,-919.314598
2594.165365,518.144159,-4737.318029,1915.238745
2594.165693,222.061783,-5477.523971,2681.334243
2594.166021,444.123565,-6587.832884,1302.362347
2594.166348,1554.432478,-7179.997637,-919.314598
2594.166676,3997.112087,-10066.800811,-2221.676944
2594.167003,6217.729913,-13397.727550,-1225.752797
2594.167331,6143.709319,-15396.283594,1762.019645
2594.167658,2516.700203,-15026.180623,4366.744339
2594.167986,-1184.329507,-13545.768739,2604.724693
2594.168314,-5551.544565,-12287.418637,-1149.143247
2594.168641,-7105.977043,-9400.615463,-4136.915689
2594.168969,-6291.750507,-7105.977043,-5362.668486
2594.169296,-5255.462188,-6587.832884,-2911.162892
2594.169624,-1184.329507,-6439.791695,0.000000
2594.169951,1406.391290,-5847.626942,1915.238745
2594.170279,1628.453072,-6439.791695,2068.457845
2594.170607,1998.556043,-7105.977043,1378.971896
2594.170934,3256.906145,-7476.080014,-919.314598
2594.171262,5551.544565,-9844.739029,-1608.800546
2594.171589,6439.791695,-13471.748144,536.266849
2594.171917,5403.503377,-14730.098246,3907.087040
2594.172244,2664.741391,-14804.118840,4136.915689
2594.172572,-1924.535449,-14359.995275,2298.286494
2594.172900,-4663.297435,-11991.336260,-2298.286494
2594.173227,-6143.709319,-8512.368333,-5286.058936
2594.173555,-5699.585753,-7698.141797,-5056.230287
2594.173882,-3478.967927,-6957.935855,-2451.505594
2594.174210,74.020594,-5403.503377,536.266849
2594.174537,1850.514855,-4515.256246,3600.648841
2594.174865,2590.720797,-6069.688724,3600.648841
2594.175193,2590.720797,-7994.224174,919.314598
2594.175520,3182.885551,-9252.574275,-1072.533697
2594.175848,5551.544565,-11473.192101,-2604.724693
2594.176175,6069.688724,-14508.036463,-1072.533697
2594.176503,3775.050304,-15618.345376,2068.457845
2594.176830,518.144159,-15026.180623,2298.286494
2594.177158,-2886.803174,-13101.645173,76.609550
2594.177485,-6291.750507,-11177.109724,-2451.505594
2594.177813,-7105.977043,-9104.533087,-4749.792088
2594.178141,-5699.585753,-6513.812290,-4060.306139
2594.178468,-2664.741391,-6143.709319,-1532.190996
2594.178796,370.102971,-4885.359217,1762.019645
2594.179123,3034.844362,-5773.606348,2911.162892
2594.179451,3256.906145,-6735.874072,2298.286494
2594.179778,3552.988522,-7031.956449,1838.629195
2594.180106,4663.297435,-8808.450710,-995.924147
2594.180434,6217.729913,-12657.521608,-2221.676944
2594.180761,5995.668130,-14804.118840,0.000000
2594.181089,4071.132681,-15100.201217,1685.410096
2594.181416,370.102971,-14952.160028,2221.676944
2594.181744,-3034.844362,-12879.583391,383.047749
2594.182071,-5403.503377,-9178.553681,-1991.848295
2594.182399,-6291.750507,-7105.977043,-3524.039291
2594.182727,-4737.318029,-6439.791695,-2834.553343
2594.183054,-2146.597232,-5699.585753,-842.705048
2594.183382,444.123565,-5181.441594,1608.800546
2594.183709,1776.494261,-5329.482782,2834.553343
2594.184037,2294.638420,-7105.977043,2068.457845
2594.184364,1998.556043,-8438.347739,-383.047749
2594.184692,3330.926739,-11325.150913,-2221.676944
2594.185020,5181.441594,-14211.954086,-2451.505594
2594.185347,5107.421000,-16062.468941,-612.876398
2594.185675,2590.720797,-15692.365970,1378.971896
2594.186002,-1110.308913,-14285.974681,2068.457845
2594.186330,-4293.194464,-12065.356855,229.828649
2594.186657,-7105.977043,-8438.347739,-2221.676944
2594.186985,-7105.977043,-6365.771101,-3677.258390
2594.187313,-5033.400406,-5477.523971,-3294.210641
2594.187640,-1554.432478,-5773.606348,-229.828649
2594.187968,1036.288319,-5329.482782,1378.971896
2594.188295,3256.906145,-5699.585753,2298.286494
2594.188623,3627.009116,-8660.409521,2451.505594
2594.188950,3997.112087,-8956.491898,766.095498
2594.189278,5625.565159,-10807.006753,-1608.800546
2594.189606,7328.038826,-13767.830521,-1072.533697
2594.189933,6291.750507,-15100.201217,1455.581446
2594.190261,3182.885551,-14285.974681,3524.039291
2594.190588,-1332.370696,-11843.295072,2604.724693
2594.190916,-5551.544565,-10658.965565,-459.657299
2594.191243,-7624.121203,-7550.100608,-3217.601092
2594.191571,-6291.750507,-7105.977043,-4443.353888
2594.191899,-4145.153275,-6069.688724,-2451.505594
2594.192226,-592.164754,-5403.503377,76.609550
2594.192554,2220.617826,-5921.647536,2298.286494
2594.192881,3478.967927,-7402.059420,3217.601092
2594.193209,2886.803174,-8068.244768,2298.286494
2594.193536,3034.844362,-8808.450710,-612.876398
2594.193864,4071.132681,-11399.171507,-2451.505594
2594.194192,5921.647536,-14211.954086,-1685.410096
2594.194519,4663.297435,-14878.139434,766.095498
2594.194847,1776.494261,-14434.015869,2451.505594
2594.195174,-2442.679609,-13397.727550,842.705048
2594.195502,-5477.523971,-11547.212695,-2068.457845
2594.195829,-7328.038826,-8512.368333,-4903.011187
2594.196157,-7031.956449,-6513.812290,-4366.744339
2594.196485,-3701.029710,-6143.709319,-2604.724693
2594.196812,444.123565,-5921.647536,612.876398
2594.197140,3552.988522,-6809.894666,2757.943793
2594.197467,4441.235652,-8290.306550,2987.772442
2594.197795,3182.885551,-9770.718434,1762.019645
2594.198122,3997.112087,-10066.800811,-842.705048
2594.198450,4959.379811,-11843.295072,-2757.943793
2594.198778,4441.235652,-13841.851115,-1762.019645
2594.199105,3108.864956,-13989.892304,1072.533697
2594.199433,888.247130,-13915.871710,2298.286494
2594.199760,-2664.741391,-13619.789333,919.314598
2594.200088,-5551.544565,-10214.842000,-1302.362347
2594.200415,-6291.750507,-6809.894666,-3753.867940
2594.200743,-5255.462188,-6365.771101,-3140.991542
2594.201071,-2368.659014,-6143.709319,-842.705048
2594.201398,1258.350101,-5181.441594,1838.629195
2594.201726,3478.967927,-5773.606348,4060.306139
2594.202053,2886.803174,-7328.038826,3294.210641
2594.202381,2590.720797,-8512.368333,1915.238745
2594.202708,2664.741391,-9400.615463,-1455.581446
2594.203036,3182.885551,-11251.130318,-2987.772442
2594.203363,2886.803174,-13989.892304,-2145.067394
2594.203691,2516.700203,-14359.995275,229.828649
2594.204019,-444.123565,-12879.583391,2298.286494
2594.204346,-3256.906145,-11029.068536,766.095498
2594.204674,-5329.482782,-9696.697840,-1838.629195
2594.205001,-6291.750507,-7328.038826,-2987.772442
2594.205329,-4145.153275,-5995.668130,-2757.943793
2594.205656,-666.185348,-6439.791695,-689.485948
2594.205984,2442.679609,-7402.059420,1225.752797
2594.206312,4071.132681,-8142.265362,2221.676944
2594.206639,3330.926739,-10140.821405,1762.019645
2594.206967,1998.556043,-9400.615463,229.828649
2594.207294,2812.782580,-10584.944971,-2681.334243
2594.207622,4737.318029,-12435.459826,-3677.258390
2594.207949,4589.276840,-14211.954086,-766.095498
2594.208277,3701.029710,-14137.933492,2145.067394
2594.208605,1184.329507,-12361.439231,2221.676944
2594.208932,-2664.741391,-11399.171507,1149.143247
2594.209260,-5181.441594,-9178.553681,-995.924147
2594.209587,-5403.503377,-7031.956449,-2834.553343
2594.209915,-3923.091493,-6365.771101,-2604.724693
2594.210242,-1036.288319,-7402.059420,-766.095498
2594.210570,2442.679609,-8142.265362,995.924147
2594.210898,2812.782580,-8512.368333,2604.724693
2594.211225,1702.473667,-7846.182985,2451.505594
2594.211553,2072.576638,-9178.553681,0.000000
2594.211880,1776.494261,-9696.697840,-2451.505594
2594.212208,2590.720797,-11103.089130,-2681.334243
2594.212535,3404.947333,-11399.171507,-229.828649
2594.212863,2442.679609,-11843.295072,2528.115143
2594.213191,-296.082377,-11917.315666,3447.429741
2594.213518,-2590.720797,-11029.068536,689.485948
2594.213846,-5329.482782,-9030.512492,-995.924147
2594.214173,-4811.338623,-7031.956449,-2374.896044
2594.214501,-3404.947333,-7105.977043,-2987.772442
2594.214828,0.000000,-8660.409521,-229.828649
2594.215156,2220.617826,-8364.327145,1991.848295
2594.215484,3256.906145,-8660.409521,3140.991542
2594.215811,1480.411884,-8956.491898,1685.410096
2594.216139,1036.288319,-8808.450710,-995.924147
2594.216466,1998.556043,-10214.842000,-3677.258390
2594.216794,2590.720797,-11251.130318,-2604.724693
2594.217121,2812.782580,-12435.459826,-459.657299
2594.217449,1776.494261,-13545.768739,1302.362347
2594.217777,-666.185348,-12953.603985,1455.581446
2594.218104,-2812.782580,-11103.089130,229.828649
2594.218432,-4515.256246,-9400.615463,-2604.724693
2594.218759,-3849.070898,-8660.409521,-3370.820191
2594.219087,-1702.473667,-9252.574275,-2528.115143
2594.219414,1036.288319,-8512.368333,229.828649
2594.219742,2368.659014,-7254.018232,2374.896044
2594.220070,2220.617826,-7772.162391,2834.553343
2594.220397,814.226536,-8882.471304,536.266849
2594.220725,148.041188,-8512.368333,-1225.752797
2594.221052,444.123565,-8512.368333,-3140.991542
2594.221380,1850.514855,-10140.821405,-2834.553343
2594.221707,3404.947333,-11843.295072,-306.438199
2594.222035,1924.535449,-12583.501014,1991.848295
2594.222363,-148.041188,-11917.315666,2757.943793
2594.222690,-2590.720797,-11103.089130,459.657299
2594.223018,-3478.967927,-9474.636058,-1762.019645
2594.223345,-2442.679609,-8216.285956,-3524.039291
2594.223673,-444.123565,-7624.121203,-1532.190996
2594.224000,814.226536,-7476.080014,1455.581446
2594.224328,1998.556043,-7772.162391,2681.334243
2594.224656,1406.391290,-8142.265362,1685.410096
2594.224983,-666.185348,-8142.265362,-306.438199
2594.225311,-666.185348,-7550.100608,-2451.505594
2594.225638,888.247130,-9104.533087,-3294.210641
2594.225966,2294.638420,-11621.233289,-2221.676944
2594.226293,3775.050304,-13397.727550,459.657299
2594.226621,3849.070898,-13471.748144,2145.067394
2594.226949,1184.329507,-12731.542202,2834.553343
2594.227276,-1332.370696,-11695.253884,766.095498
2594.227604,-2664.741391,-9474.636058,-2451.505594
2594.227931,-2294.638420,-8956.491898,-4213.525239
2594.228259,-1406.391290,-8364.327145,-2068.457845
2594.228586,888.247130,-7846.182985,306.438199
2594.228914,1998.556043,-7698.141797,2298.286494
2594.229241,1036.288319,-8068.244768,1455.581446
2594.229569,0.000000,-8808.450710,919.314598
2594.229896,-666.185348,-8734.430116,-2834.553343
2594.230224,296.082377,-8142.265362,-3447.429741
2594.230551,3108.864956,-10066.800811,-2451.505594
2594.230878,3923.091493,-11843.295072,1838.629195
2594.231206,3108.864956,-11843.295072,4290.134789
2594.231533,1406.391290,-12657.521608,3294.210641
2594.231861,-1702.473667,-11843.295072,536.266849
2594.232188,-3108.864956,-9844.739029,-2451.505594
2594.232516,-2516.700203,-8512.368333,-3830.477490
2594.232843,-1480.411884,-8290.306550,-1838.629195
2594.233171,518.144159,-8586.388927,0.000000
2594.233498,1702.473667,-8216.285956,1378.971896
2594.233825,370.102971,-7772.162391,1838.629195
2594.234153,0.000000,-6957.935855,612.876398
2594.234480,-592.164754,-6735.874072,-689.485948
2594.234808,518.144159,-7402.059420,-2068.457845
2594.235135,2516.700203,-10362.883188,-1302.362347
2594.235463,4219.173869,-11917.315666,612.876398
2594.235790,3182.885551,-12435.459826,2604.724693
2594.236118,1332.370696,-13175.665768,2528.115143
2594.236445,-962.267725,-12361.439231,76.609550
2594.236772,-3627.009116,-10658.965565,-2374.896044
2594.237100,-2738.761985,-10362.883188,-3294.210641
2594.237427,-1110.308913,-9622.677246,-2451.505594
2594.237755,592.164754,-8142.265362,-306.438199
2594.238082,1184.329507,-7550.100608,2374.896044
2594.238410,0.000000,-7698.141797,2374.896044
2594.238737,-1628.453072,-6957.935855,1225.752797
2594.239065,-740.205942,-6735.874072,-1685.410096
2594.239392,518.144159,-7254.018232,-2604.724693
2594.239719,2368.659014,-9918.759623,-1302.362347
2594.240047,2960.823768,-12213.398043,1455.581446
2594.240374,1924.535449,-13249.686362,2834.553343
2594.240702,444.123565,-14211.954086,2528.115143
2594.241029,-1850.514855,-12953.603985,-689.485948
2594.241357,-3182.885551,-10288.862594,-1915.238745
2594.241684,-2516.700203,-9474.636058,-2374.896044
2594.242012,-962.267725,-8882.471304,-1302.362347
2594.242339,222.061783,-7920.203579,229.828649
2594.242666,296.082377,-7179.997637,1455.581446
2594.242994,-518.144159,-6217.729913,2068.457845
2594.243321,-1702.473667,-5403.503377,842.705048
2594.243649,-1332.370696,-6217.729913,-1532.190996
2594.243976,888.247130,-8068.244768,-2145.067394
2594.244304,3478.967927,-10288.862594,-1378.971896
2594.244631,4663.297435,-12879.583391,1532.190996
2594.244958,3997.112087,-14285.974681,3217.601092
2594.245286,2368.659014,-14804.118840,2374.896044
2594.245613,-296.082377,-12287.418637,536.266849
2594.245941,-1776.494261,-10288.862594,-2374.896044
2594.246268,-1628.453072,-9622.677246,-2834.553343
2594.246596,0.000000,-9178.553681,-1608.800546
2594.246923,222.061783,-7402.059420,153.219100
2594.247251,74.020594,-6883.915261,612.876398
2594.247578,-1332.370696,-7105.977043,689.485948
2594.247905,-1998.556043,-6587.832884,-153.219100
2594.248233,0.000000,-6883.915261,-3140.991542
2594.248560,2146.597232,-8734.430116,-2681.334243
2594.248888,4515.256246,-10807.006753,-383.047749
2594.249215,5255.462188,-12805.562797,2834.553343
2594.249543,3627.009116,-14211.954086,4213.525239
2594.249870,814.226536,-13989.892304,2298.286494
2594.250198,-2368.659014,-11843.295072,-766.095498
2594.250525,-3478.967927,-10214.842000,-3140.991542
2594.250852,-2812.782580,-10214.842000,-4060.306139
2594.251180,-1110.308913,-9622.677246,-2528.115143
2594.251507,0.000000,-7698.141797,-383.047749
2594.251835,0.000000,-7254.018232,919.314598
2594.252162,0.000000,-6883.915261,536.266849
2594.252490,0.000000,-5921.647536,-306.438199
2594.252817,222.061783,-5477.523971,-1149.143247
2594.253145,2960.823768,-7254.018232,-1149.143247
2594.253472,5033.400406,-10510.924376,306.438199
2594.253799,4959.379811,-12805.562797,3600.648841
2594.254127,3330.926739,-14137.933492,4519.963438
2594.254454,444.123565,-14211.954086,1685.410096
2594.254782,-1850.514855,-13101.645173,-1302.362347
2594.255109,-3923.091493,-10288.862594,-3907.087040
2594.255437,-2664.741391,-10436.903782,-4749.792088
2594.255764,-1776.494261,-9252.574275,-1915.238745
2594.256092,-592.164754,-6957.935855,76.609550
2594.256419,-814.226536,-6291.750507,1608.800546
2594.256746,-1258.350101,-6217.729913,1762.019645
2594.257074,-370.102971,-5699.585753,306.438199
2594.257401,814.226536,-5699.585753,-995.924147
2594.257729,2590.720797,-8068.244768,-1072.533697
2594.258056,4811.338623,-11547.212695,612.876398
2594.258384,3997.112087,-13249.686362,3294.210641
2594.258711,1480.411884,-14656.077652,3217.601092
2594.259039,-962.267725,-15100.201217,459.657299
2594.259366,-2960.823768,-13101.645173,-2834.553343
2594.259693,-4663.297435,-11029.068536,-3677.258390
2594.260021,-3701.029710,-9696.697840,-3140.991542
2594.260348,-1480.411884,-8290.306550,-1149.143247
2594.260676,-444.123565,-6217.729913,689.485948
2594.261003,-444.123565,-5773.606348,1838.629195
2594.261331,-1184.329507,-5403.503377,1378.971896
2594.261658,-444.123565,-4737.318029,-306.438199
2594.261986,1850.514855,-5995.668130,-919.314598
2594.262313,4219.173869,-8956.491898,-689.485948
2594.262640,5847.626942,-12657.521608,536.266849
2594.262968,5551.544565,-15174.221811,3140.991542
2594.263295,2442.679609,-16062.468941,3294.210641
2594.263623,-592.164754,-14211.954086,229.828649
2594.263950,-2146.597232,-12287.418637,-2451.505594
2594.264278,-3108.864956,-10140.821405,-2834.553343
2594.264605,-2516.700203,-8734.430116,-2451.505594
2594.264932,-1110.308913,-7550.100608,-1225.752797
2594.265260,0.000000,-5033.400406,689.485948
2594.265587,-740.205942,-4441.235652,1838.629195
2594.265915,-1554.432478,-5033.400406,1072.533697
2594.266242,-814.226536,-5699.585753,-612.876398
2594.266570,1406.391290,-7031.956449,-2451.505594
2594.266897,5255.462188,-10436.903782,-2374.896044
2594.267225,6809.894666,-12657.521608,1302.362347
2594.267552,4885.359217,-15322.262999,4749.792088
2594.267879,2368.659014,-15988.448347,3600.648841
2594.268207,-1554.432478,-14582.057057,153.219100
2594.268534,-3997.112087,-11547.212695,-3677.258390
2594.268862,-4367.215058,-9178.553681,-4826.401637
2594.269189,-3627.009116,-8660.409521,-3370.820191
2594.269517,-1924.535449,-7105.977043,-1072.533697
2594.269844,0.000000,-6069.688724,536.266849
2594.270172,222.061783,-6439.791695,1455.581446
2594.270499,444.123565,-6217.729913,1072.533697
2594.270826,1776.494261,-5477.523971,0.000000
2594.271154,3627.009116,-8068.244768,-1455.581446
2594.271481,5847.626942,-11621.233289,0.000000
2594.271809,6439.791695,-14211.954086,2298.286494
2594.272136,3923.091493,-14730.098246,4443.353888
2594.272464,814.226536,-14063.912898,2987.772442
2594.272791,-2368.659014,-13619.789333,-229.828649
2594.273119,-5255.462188,-11695.253884,-3447.429741
2594.273446,-5477.523971,-10066.800811,-5132.839837
2594.273773,-3997.112087,-8586.388927,-4060.306139
2594.274101,-1776.494261,-6809.894666,-1608.800546
2594.274428,-444.123565,-4959.379811,1149.143247
2594.274756,0.000000,-5625.565159,2987.772442
2594.275083,592.164754,-6069.688724,1915.238745
2594.275411,1998.556043,-6957.935855,0.000000
2594.275738,3775.050304,-7772.162391,-766.095498
2594.276066,5625.565159,-10955.047942,0.000000
2594.276393,5847.626942,-13915.871710,3217.601092
2594.276720,2960.823768,-14434.015869,4060.306139
2594.277048,-740.205942,-14878.139434,1532.190996
2594.277375,-3923.091493,-13767.830521,-1838.629195
2594.277703,-5773.606348,-10140.821405,-4826.401637
2594.278030,-5995.668130,-8660.409521,-4979.620737
2594.278358,-3108.864956,-8734.430116,-3064.381992
2594.278685,-740.205942,-6439.791695,-229.828649
2594.279013,1184.329507,-5773.606348,1455.581446
2594.279340,1554.432478,-6217.729913,2068.457845
2594.279667,1702.473667,-5773.606348,1455.581446
2594.279995,2886.803174,-6661.853478,-306.438199
2594.280322,4959.379811,-8660.409521,-1225.752797
2594.280650,5477.523971,-12213.398043,-459.657299
2594.280977,5773.606348,-15100.201217,2068.457845
2594.281305,3182.885551,-15100.201217,3140.991542
2594.281632,-1480.411884,-14804.118840,2145.067394
2594.281960,-4959.379811,-12731.542202,-1608.800546
2594.282287,-6291.750507,-10362.883188,-4826.401637
2594.282614,-5403.503377,-8364.327145,-4979.620737
2594.282942,-3034.844362,-7179.997637,-2068.457845
2594.283269,74.020594,-6365.771101,842.705048
2594.283597,1628.453072,-5107.421000,3140.991542
2594.283924,1628.453072,-5699.585753,2757.943793
2594.284252,1184.329507,-6439.791695,1225.752797
2594.284579,1998.556043,-7328.038826,-995.924147
2594.284907,4219.173869,-9030.512492,-1532.190996
2594.285234,6143.709319,-12805.562797,-306.438199
2594.285561,4589.276840,-14285.974681,3217.601092
2594.285889,1776.494261,-14656.077652,3983.696590
2594.286216,-1332.370696,-13989.892304,1838.629195
2594.286544,-4959.379811,-11399.171507,-1225.752797
2594.286871,-6217.729913,-8586.388927,-4213.525239
2594.287199,-4885.359217,-7179.997637,-5286.058936
2594.287526,-3552.988522,-5847.626942,-2374.896044
2594.287853,-148.041188,-4959.379811,229.828649
2594.288181,1702.473667,-5773.606348,2068.457845
2594.288508,2294.638420,-7105.977043,2604.724693
2594.288836,2368.659014,-7476.080014,919.314598
2594.289163,3627.009116,-8808.450710,-2068.457845
2594.289491,5403.503377,-11843.295072,-2451.505594
2594.289818,6809.894666,-15100.201217,-842.705048
2594.290146,4663.297435,-14508.036463,2374.896044
2594.290473,1036.288319,-14508.036463,3677.258390
2594.290800,-2516.700203,-13323.706956,1455.581446
2594.291128,-5255.462188,-10807.006753,-1991.848295
2594.291455,-7105.977043,-7846.182985,-4443.353888
2594.291783,-6143.709319,-7179.997637,-4136.915689
2594.292110,-2886.803174,-6957.935855,-2451.505594
2594.292438,0.000000,-5847.626942,0.000000
2594.292765,1332.370696,-6217.729913,1915.238745
2594.293093,1776.494261,-7698.141797,1915.238745
2594.293420,2590.720797,-8660.409521,612.876398
2594.293747,4515.256246,-9030.512492,-1378.971896
2594.294075,5107.421000,-12139.377449,-1685.410096
2594.294402,5847.626942,-14211.954086,1225.752797
2594.294730,3552.988522,-14434.015869,3524.039291
2594.295057,-814.226536,-13545.768739,3370.820191
2594.295385,-3997.112087,-12435.459826,459.657299
2594.295712,-6957.935855,-9178.553681,-2987.772442
2594.296040,-7772.162391,-6217.729913,-3830.477490
2594.296367,-6069.688724,-5847.626942,-2681.334243
2594.296694,-2294.638420,-6069.688724,-1225.752797
2594.297022,592.164754,-5625.565159,1302.362347
2594.297349,2960.823768,-5921.647536,2451.505594
2594.297677,2960.823768,-7550.100608,2451.505594
2594.298004,3997.112087,-8734.430116,612.876398
2594.298332,5255.462188,-10436.903782,-1838.629195
2594.298659,6217.729913,-12213.398043,-919.314598
2594.298987,5181.441594,-14804.118840,306.438199
2594.299314,3404.947333,-14952.160028,2681.334243
2594.299641,-370.102971,-13471.748144,2221.676944
2594.299969,-4441.235652,-11473.192101,0.000000
2594.300296,-6513.812290,-9770.718434,-3064.381992
2594.300624,-6661.853478,-6957.935855,-5132.839837
2594.300951,-4515.256246,-6291.750507,-3600.648841
2594.301279,-666.185348,-6513.812290,-995.924147
2594.301606,2442.679609,-5921.647536,2068.457845
2594.301934,4145.153275,-6217.729913,3064.381992
2594.302261,3849.070898,-8068.244768,2528.115143
2594.302588,3552.988522,-9548.656652,-306.438199
2594.302916,4811.338623,-10955.047942,-1838.629195
2594.303243,6143.709319,-13175.665768,-1455.581446
2594.303571,5181.441594,-14804.118840,459.657299
2594.303898,1998.556043,-15544.324782,2068.457845
2594.304226,-2072.576638,-13989.892304,842.705048
2594.304553,-5921.647536,-11547.212695,-536.266849
2594.304881,-7031.956449,-8364.327145,-2604.724693
2594.305208,-5699.585753,-6365.771101,-3830.477490
2594.305535,-3849.070898,-5625.565159,-1915.238745
2594.305863,-444.123565,-5477.523971,919.314598
2594.306190,2072.576638,-5255.462188,2451.505594
2594.306518,2664.741391,-6365.771101,2834.553343
2594.306845,2516.700203,-7179.997637,1991.848295
2594.307173,2664.741391,-9252.574275,-766.095498
2594.307500,4071.132681,-11843.295072,-2604.724693
2594.307827,5477.523971,-14508.036463,-1915.238745
2594.308155,5403.503377,-15174.221811,-306.438199
2594.308482,1924.535449,-14952.160028,2451.505594
2594.308810,-1480.411884,-13323.706956,2298.286494
2594.309137,-3997.112087,-10584.944971,-1302.362347
2594.309465,-6735.874072,-7476.080014,-2987.772442
2594.309792,-5995.668130,-5995.668130,-2834.553343
2594.310120,-3182.885551,-5107.421000,-2451.505594
2594.310447,-296.082377,-6069.688724,229.828649
2594.310774,1702.473667,-6217.729913,2221.676944
2594.311102,3108.864956,-8216.285956,1762.019645
2594.311429,2146.597232,-9474.636058,459.657299
2594.311757,3182.885551,-10362.883188,-2145.067394
2594.312084,4737.318029,-11843.295072,-3294.210641
2594.312412,5255.462188,-13841.851115,-1685.410096
2594.312739,4441.235652,-15174.221811,1149.143247
2594.313067,1184.329507,-14063.912898,2834.553343
2594.313394,-2960.823768,-12065.356855,1608.800546
2594.313721,-5773.606348,-9474.636058,-995.924147
2594.314049,-7105.977043,-7105.977043,-3064.381992
2594.314376,-5847.626942,-5921.647536,-3677.258390
2594.314704,-2738.761985,-6291.750507,-2987.772442
2594.315031,0.000000,-6661.853478,-536.266849
2594.315359,3404.947333,-7772.162391,1838.629195
2594.315686,3034.844362,-8586.388927,2451.505594
2594.316014,3404.947333,-9252.574275,1762.019645
2594.316341,3701.029710,-9622.677246,-995.924147
2594.316668,4885.359217,-11103.089130,-1685.410096
2594.316996,5477.523971,-13471.748144,-306.438199
2594.317323,3701.029710,-14063.912898,1991.848295
2594.317651,0.000000,-12213.398043,2681.334243
2594.317978,-3478.967927,-10807.006753,919.314598
2594.318306,-6439.791695,-9252.574275,-1762.019645
2594.318633,-6957.935855,-7328.038826,-3217.601092
2594.318961,-4589.276840,-5995.668130,-3907.087040
2594.319288,-1184.329507,-7550.100608,-2068.457845
2594.319615,2590.720797,-7846.182985,536.266849
2594.319943,3997.112087,-7994.224174,3064.381992
2594.320270,3108.864956,-8808.450710,2604.724693
2594.320598,2664.741391,-9474.636058,383.047749
2594.320925,3108.864956,-9844.739029,-2451.505594
2594.321253,4589.276840,-11547.212695,-2987.772442
2594.321580,4441.235652,-13027.624579,-229.828649
2594.321908,2886.803174,-13915.871710,1915.238745
2594.322235,0.000000,-13027.624579,1762.019645
2594.322562,-3330.926739,-12213.398043,-306.438199
2594.322890,-6069.688724,-9548.656652,-2451.505594
2594.323217,-6365.771101,-7031.956449,-3753.867940
2594.323545,-4293.194464,-6217.729913,-2451.505594
2594.323872,740.205942,-8142.265362,-919.314598
2594.324200,2664.741391,-6883.915261,2834.553343
2594.324527,4071.132681,-7105.977043,2987.772442
2594.324855,2368.659014,-8586.388927,2528.115143
2594.325182,1998.556043,-9178.553681,76.609550
2594.325509,2442.679609,-9474.636058,-3217.601092
2594.325837,2812.782580,-10881.027347,-2911.162892
2594.326164,3256.906145,-12805.562797,-1532.190996
2594.326492,3034.844362,-13175.665768,1685.410096
2594.326819,148.041188,-12805.562797,2757.943793
2594.327147,-2516.700203,-11473.192101,1762.019645
2594.327474,-4663.297435,-8734.430116,-842.705048
2594.327801,-4811.338623,-6661.853478,-2221.676944
2594.328129,-2664.741391,-6735.874072,-2757.943793
2594.328456,0.000000,-7105.977043,459.657299
2594.328784,2072.576638,-7550.100608,2374.896044
2594.329111,2146.597232,-7328.038826,2987.772442
2594.329439,962.267725,-8734.430116,1455.581446
2594.329766,814.226536,-9252.574275,-1378.971896
2594.330094,888.247130,-9918.759623,-3064.381992
2594.330421,1998.556043,-11547.212695,-3370.820191
2594.330749,3478.967927,-12731.542202,-1225.752797
2594.331076,2590.720797,-13101.645173,536.266849
2594.331403,0.000000,-12879.583391,2528.115143
2594.331731,-2738.761985,-11621.233289,1225.752797
2594.332058,-4663.297435,-9622.677246,-1225.752797
2594.332386,-4367.215058,-8068.244768,-2681.334243
2594.332713,-2664.741391,-7698.141797,-2298.286494
2594.333041,0.000000,-8734.430116,-842.705048
2594.333368,2072.576638,-8438.347739,1225.752797
2594.333696,2368.659014,-8512.368333,1072.533697
2594.334023,1332.370696,-9474.636058,306.438199
2594.334350,1332.370696,-9252.574275,-919.314598
2594.334678,2220.617826,-8956.491898,-2298.286494
2594.335005,3552.988522,-11029.068536,-1838.629195
2594.335333,4145.153275,-12435.459826,459.657299
2594.335660,3478.967927,-12361.439231,1455.581446
2594.335988,222.061783,-12213.398043,2221.676944
2594.336315,-2072.576638,-11251.130318,766.095498
2594.336643,-3997.112087,-8660.409521,-1838.629195
2594.336970,-3404.947333,-8068.244768,-3140.991542
2594.337298,-1924.535449,-8364.327145,-2298.286494
2594.337625,814.226536,-7624.121203,0.000000
2594.337952,2664.741391,-7698.141797,919.314598
2594.338280,2072.576638,-7550.100608,1608.800546
2594.338607,666.185348,-7772.162391,1149.143247
2594.338935,888.247130,-8660.409521,-1378.971896
2594.339262,1850.514855,-8660.409521,-2145.067394
2594.339590,2812.782580,-10436.903782,-1225.752797
2594.339917,3256.906145,-11843.295072,536.266849
2594.340245,888.247130,-13027.624579,2221.676944
2594.340572,-1628.453072,-12287.418637,1455.581446
2594.340900,-4219.173869,-10955.047942,-1838.629195
2594.341227,-4885.359217,-10288.862594,-3447.429741
2594.341554,-3552.988522,-9474.636058,-3064.381992
2594.341882,-814.226536,-8734.430116,-995.924147
2594.342209,1480.411884,-8290.306550,995.924147
2594.342537,2960.823768,-8290.306550,2604.724693
2594.342864,1776.494261,-7994.224174,1838.629195
2594.343192,0.000000,-7994.224174,-153.219100
2594.343519,0.000000,-8216.285956,-1915.238745
2594.343847,1480.411884,-8438.347739,-2911.162892
2594.344174,2738.761985,-10510.924376,-1378.971896
2594.344502,3997.112087,-12139.377449,1915.238745
2594.344829,3256.906145,-13101.645173,2068.457845
2594.345156,666.185348,-12953.603985,2451.505594
2594.345484,-2220.617826,-11621.233289,229.828649
2594.345811,-2516.700203,-9474.636058,-2757.943793
2594.346139,-2294.638420,-9104.533087,-2834.553343
2594.346466,74.020594,-8438.347739,-383.047749
2594.346794,2072.576638,-7846.182985,1532.190996
2594.347121,1998.556043,-7698.141797,2757.943793
2594.347449,1036.288319,-8068.244768,1455.581446
2594.347776,-1036.288319,-7772.162391,-612.876398
2594.348104,-1924.535449,-6661.853478,-2604.724693
2594.348431,-148.041188,-8216.285956,-3600.648841
2594.348758,2368.659014,-11621.233289,-2374.896044
2594.349086,3701.029710,-11695.253884,1762.019645
2594.349413,3108.864956,-12139.377449,3064.381992
2594.349741,740.205942,-12731.542202,3370.820191
2594.350068,-1184.329507,-11917.315666,306.438199
2594.350396,-2368.659014,-9474.636058,-2374.896044
2594.350723,-2886.803174,-8882.471304,-2451.505594
2594.351051,-1332.370696,-9104.533087,-1532.190996
2594.351378,1258.350101,-8586.388927,-229.828649
2594.351705,962.267725,-7994.224174,995.924147
2594.352033,148.041188,-8512.368333,689.485948
2594.352360,-296.082377,-8882.471304,-612.876398
2594.352688,-370.102971,-8142.265362,-2451.505594
2594.353015,1332.370696,-8660.409521,-3064.381992
2594.353343,4145.153275,-10955.047942,-1378.971896
2594.353670,4663.297435,-11769.274478,2068.457845
2594.353998,3478.967927,-13619.789333,4519.963438
2594.354325,1258.350101,-12879.583391,3370.820191
2594.354653,-1702.473667,-11399.171507,0.000000
