#time,accel_x,accel_y,accel_z
3056.119686,888.247130,-10066.800811,0.000000
3056.120014,814.226536,-9770.718434,306.438199
3056.120341,666.185348,-9548.656652,153.219100
3056.120668,296.082377,-9400.615463,0.000000
3056.120996,-222.061783,-9178.553681,-153.219100
3056.121323,-296.082377,-9400.615463,-383.047749
3056.121650,-222.061783,-9548.656652,-459.657299
3056.121978,0.000000,-9474.636058,-842.705048
3056.122305,74.020594,-9400.615463,0.000000
3056.122632,222.061783,-9622.677246,229.828649
3056.122960,518.144159,-9844.739029,153.219100
3056.123287,666.185348,-9400.615463,229.828649
3056.123614,444.123565,-9400.615463,229.828649
3056.123942,370.102971,-9178.553681,229.828649
3056.124269,592.164754,-8956.491898,76.609550
3056.124596,-296.082377,-8808.450710,-306.438199
3056.124924,-148.041188,-8956.491898,-229.828649
3056.125251,-148.041188,-9178.553681,-383.047749
3056.125578,0.000000,-9548.656652,-612.876398
3056.125906,74.020594,-10066.800811,-306.438199
3056.126233,296.082377,-10214.842000,-383.047749
3056.126560,888.247130,-10584.944971,0.000000
3056.126887,962.267725,-10140.821405,-459.657299
3056.127215,296.082377,-9770.718434,153.219100
3056.127542,518.144159,-9918.759623,0.000000
3056.127869,222.061783,-9770.718434,-153.219100
3056.128197,0.000000,-9770.718434,-612.876398
3056.128524,0.000000,-9992.780217,-689.485948
3056.128851,-370.102971,-9474.636058,-766.095498
3056.129179,0.000000,-9992.780217,-919.314598
3056.129506,296.082377,-10214.842000,-766.095498
3056.129833,148.041188,-10066.800811,-459.657299
3056.130161,296.082377,-9918.759623,-383.047749
3056.130488,740.205942,-9918.759623,0.000000
3056.130815,814.226536,-9918.759623,76.609550
3056.131143,1110.308913,-9474.636058,76.609550
3056.131470,518.144159,-9252.574275,995.924147
3056.131797,518.144159,-9400.615463,689.485948
3056.132125,518.144159,-9104.533087,-689.485948
3056.132452,-296.082377,-9252.574275,-153.219100
3056.132779,-222.061783,-9326.594869,-306.438199
3056.133107,0.000000,-9474.636058,-536.266849
3056.133434,74.020594,-9474.636058,0.000000
3056.133761,592.164754,-9696.697840,-1532.190996
3056.134088,666.185348,-9918.759623,0.000000
3056.134416,962.267725,-10140.821405,229.828649
3056.134743,518.144159,-9548.656652,229.828649
3056.135070,444.123565,-9474.636058,76.609550
3056.135398,148.041188,-9474.636058,0.000000
3056.135725,148.041188,-9400.615463,0.000000
3056.136052,148.041188,-9918.759623,-842.705048
3056.136380,0.000000,-9030.512492,-612.876398
3056.136707,370.102971,-9326.594869,-1072.533697
3056.137034,888.247130,-9770.718434,-459.657299
3056.137362,1776.494261,-9918.759623,-306.438199
3056.137689,2960.823768,-9696.697840,-153.219100
3056.138016,3849.070898,-9474.636058,0.000000
3056.138344,4959.379811,-9252.574275,0.000000
3056.138671,5551.544565,-9622.677246,689.485948
3056.138998,5847.626942,-10140.821405,0.000000
3056.139326,6513.812290,-9548.656652,-459.657299
3056.139653,6661.853478,-9844.739029,-536.266849
3056.139980,7179.997637,-10362.883188,-612.876398
3056.140308,7476.080014,-10584.944971,0.000000
3056.140635,8216.285956,-11103.089130,383.047749
3056.140962,8882.471304,-9992.780217,0.000000
3056.141290,9918.759623,-9252.574275,153.219100
3056.141617,10362.883188,-9326.594869,76.609550
3056.141944,10288.862594,-8734.430116,766.095498
3056.142271,10955.047942,-8438.347739,689.485948
3056.142599,11399.171507,-9252.574275,0.000000
3056.142926,10881.027347,-8216.285956,1532.190996
3056.143253,10881.027347,-8512.368333,536.266849
3056.143581,10881.027347,-9992.780217,0.000000
3056.143908,11695.253884,-10658.965565,76.609550
3056.144235,12213.398043,-10214.842000,-612.876398
3056.144563,13175.665768,-9844.739029,-612.876398
3056.144890,14508.036463,-9622.677246,153.219100
3056.145217,14804.118840,-8808.450710,1149.143247
3056.145545,14508.036463,-7994.224174,1838.629195
3056.145872,13841.851115,-9030.512492,1762.019645
3056.146199,13915.871710,-9844.739029,1455.581446
3056.146527,13175.665768,-10066.800811,612.876398
3056.146854,12213.398043,-9400.615463,612.876398
3056.147181,11695.253884,-8956.491898,229.828649
3056.147509,11843.295072,-9474.636058,383.047749
3056.147836,11621.233289,-9548.656652,-536.266849
3056.148163,11843.295072,-10288.862594,306.438199
3056.148491,11177.109724,-10881.027347,76.609550
3056.148818,10362.883188,-10658.965565,0.000000
3056.149145,9548.656652,-10436.903782,0.000000
3056.149472,7476.080014,-8586.388927,-383.047749
3056.149800,8216.285956,-8512.368333,-842.705048
3056.150127,9474.636058,-8216.285956,0.000000
3056.150454,9992.780217,-10140.821405,536.266849
3056.150782,10584.944971,-11399.171507,1225.752797
3056.151109,8734.430116,-10658.965565,536.266849
3056.151436,7624.121203,-9696.697840,-306.438199
3056.151764,7846.182985,-9030.512492,-1072.533697
3056.152091,8512.368333,-9548.656652,-995.924147
3056.152418,8586.388927,-10510.924376,306.438199
3056.152746,7772.162391,-11621.233289,1532.190996
3056.153073,7105.977043,-10658.965565,1302.362347
3056.153400,6513.812290,-8586.388927,-153.219100
3056.153728,4367.215058,-8438.347739,-306.438199
3056.154055,2812.782580,-10140.821405,0.000000
3056.154382,2442.679609,-9326.594869,-536.266849
3056.154710,4071.132681,-8290.306550,-2221.676944
3056.155037,4589.276840,-6883.915261,-1455.581446
3056.155364,2886.803174,-8882.471304,459.657299
3056.155692,518.144159,-9844.739029,2451.505594
3056.156019,666.185348,-8808.450710,1149.143247
3056.156346,2738.761985,-8438.347739,-2221.676944
3056.156674,5255.462188,-11251.130318,-3370.820191
3056.157001,4441.235652,-10584.944971,-1225.752797
3056.157328,3627.009116,-9030.512492,1455.581446
3056.157655,3552.988522,-8734.430116,1302.362347
3056.157983,3997.112087,-9844.739029,-153.219100
3056.158310,3404.947333,-9622.677246,-1762.019645
3056.158637,2664.741391,-8512.368333,-1685.410096
3056.158965,4071.132681,-9548.656652,-1378.971896
3056.159292,5847.626942,-11843.295072,-842.705048
3056.159619,5033.400406,-11917.315666,842.705048
3056.159947,3034.844362,-9918.759623,1762.019645
3056.160274,2886.803174,-9548.656652,306.438199
3056.160601,2368.659014,-10584.944971,-306.438199
3056.160929,-666.185348,-9474.636058,-383.047749
3056.161256,-888.247130,-8068.244768,-229.828649
3056.161583,-1554.432478,-7402.059420,-995.924147
3056.161911,-2072.576638,-8290.306550,-842.705048
3056.162238,-2516.700203,-9548.656652,612.876398
3056.162565,0.000000,-9770.718434,-612.876398
3056.162893,2220.617826,-9696.697840,-2528.115143
3056.163220,1628.453072,-9918.759623,-1762.019645
3056.163547,1776.494261,-10584.944971,-536.266849
3056.163875,3849.070898,-11325.150913,842.705048
3056.164202,5033.400406,-10436.903782,1225.752797
3056.164529,3404.947333,-9474.636058,1455.581446
3056.164857,2442.679609,-10732.986159,1225.752797
3056.165184,3108.864956,-9992.780217,995.924147
3056.165511,1924.535449,-7920.203579,76.609550
3056.165838,-444.123565,-8956.491898,0.000000
3056.166166,-370.102971,-9104.533087,0.000000
3056.166493,1998.556043,-9030.512492,-306.438199
3056.166820,1998.556043,-9400.615463,-306.438199
3056.167148,666.185348,-10362.883188,0.000000
3056.167475,444.123565,-10288.862594,-612.876398
3056.167802,-592.164754,-9104.533087,-766.095498
3056.168130,-518.144159,-8734.430116,-689.485948
3056.168457,-444.123565,-9770.718434,0.000000
3056.168784,1480.411884,-11695.253884,1072.533697
3056.169112,666.185348,-11103.089130,842.705048
3056.169439,74.020594,-11029.068536,-612.876398
3056.169766,-1110.308913,-10066.800811,-995.924147
3056.170094,-2812.782580,-9178.553681,0.000000
3056.170421,-4145.153275,-8660.409521,-229.828649
3056.170748,-2886.803174,-9104.533087,-536.266849
3056.171076,-2368.659014,-9252.574275,-689.485948
3056.171403,-2738.761985,-9770.718434,-536.266849
3056.171730,-2294.638420,-10140.821405,-766.095498
3056.172058,-1258.350101,-9844.739029,-1762.019645
3056.172385,-740.205942,-11029.068536,-995.924147
3056.172712,-1184.329507,-10140.821405,383.047749
3056.173039,74.020594,-9474.636058,-383.047749
3056.173367,444.123565,-9104.533087,-536.266849
3056.173694,0.000000,-9104.533087,689.485948
3056.174021,0.000000,-10288.862594,229.828649
3056.174349,-666.185348,-9844.739029,0.000000
3056.174676,-1924.535449,-8956.491898,0.000000
3056.175003,-1258.350101,-8956.491898,-383.047749
3056.175331,740.205942,-9844.739029,0.000000
3056.175658,1332.370696,-10584.944971,612.876398
3056.175985,1406.391290,-9992.780217,1532.190996
3056.176313,1258.350101,-9474.636058,76.609550
3056.176640,444.123565,-9622.677246,-766.095498
3056.176967,-296.082377,-9400.615463,0.000000
3056.177295,74.020594,-8660.409521,-995.924147
3056.177622,592.164754,-9030.512492,0.000000
3056.177949,444.123565,-9474.636058,459.657299
3056.178277,1628.453072,-9474.636058,-229.828649
3056.178604,1628.453072,-11029.068536,-995.924147
3056.178931,1554.432478,-11325.150913,-383.047749
3056.179259,1258.350101,-10140.821405,-536.266849
3056.179586,1036.288319,-10732.986159,-689.485948
3056.179913,1850.514855,-10807.006753,-1225.752797
3056.180241,2516.700203,-8808.450710,-383.047749
3056.180568,2294.638420,-9178.553681,459.657299
3056.180895,1406.391290,-11547.212695,1225.752797
3056.181222,814.226536,-10510.924376,919.314598
3056.181550,148.041188,-8068.244768,-995.924147
3056.181877,-814.226536,-9918.759623,-1608.800546
3056.182204,0.000000,-9474.636058,-919.314598
3056.182532,1332.370696,-8068.244768,0.000000
3056.182859,2072.576638,-9252.574275,766.095498
3056.183186,2960.823768,-10807.006753,766.095498
3056.183514,2294.638420,-10955.047942,76.609550
3056.183841,148.041188,-9918.759623,0.000000
3056.184168,-888.247130,-9474.636058,-1685.410096
3056.184496,-296.082377,-10140.821405,-1991.848295
3056.184823,740.205942,-9770.718434,-1762.019645
3056.185150,592.164754,-10807.006753,-306.438199
3056.185478,1332.370696,-11547.212695,383.047749
3056.185805,666.185348,-9992.780217,842.705048
3056.186133,-1258.350101,-7698.141797,1455.581446
3056.186461,-1776.494261,-7328.038826,-612.876398
3056.186788,-1628.453072,-7328.038826,-536.266849
3056.187116,-592.164754,-7179.997637,0.000000
3056.187443,1036.288319,-8068.244768,919.314598
3056.187771,2368.659014,-9770.718434,995.924147
3056.188099,1776.494261,-10732.986159,919.314598
3056.188426,-888.247130,-10510.924376,459.657299
3056.188754,-2220.617826,-11473.192101,-1225.752797
3056.189081,-2146.597232,-11843.295072,-3524.039291
3056.189409,-1184.329507,-11769.274478,-4366.744339
3056.189736,-1702.473667,-10436.903782,-2604.724693
3056.190064,-2294.638420,-10658.965565,-459.657299
3056.190392,-1776.494261,-9400.615463,1378.971896
3056.190719,-1702.473667,-7402.059420,1762.019645
3056.191047,-1554.432478,-6513.812290,306.438199
3056.191374,-962.267725,-6513.812290,459.657299
3056.191702,962.267725,-6883.915261,153.219100
3056.192030,2072.576638,-8660.409521,229.828649
3056.192357,2590.720797,-11473.192101,536.266849
3056.192685,1850.514855,-12065.356855,383.047749
3056.193012,962.267725,-11843.295072,-689.485948
3056.193340,1406.391290,-12583.501014,-2681.334243
3056.193667,1406.391290,-12805.562797,-2528.115143
3056.193995,1332.370696,-12583.501014,-1915.238745
3056.194323,0.000000,-11769.274478,-689.485948
3056.194650,-814.226536,-9548.656652,306.438199
3056.194978,-1776.494261,-7254.018232,1608.800546
3056.195305,-2664.741391,-5033.400406,1532.190996
3056.195633,-2294.638420,-5107.421000,0.000000
3056.195961,-1110.308913,-5995.668130,0.000000
3056.196288,888.247130,-6883.915261,689.485948
3056.196616,3478.967927,-9252.574275,1225.752797
3056.196943,5033.400406,-11843.295072,919.314598
3056.197271,4441.235652,-12953.603985,842.705048
3056.197598,2886.803174,-13545.768739,0.000000
3056.197926,3701.029710,-13101.645173,-2451.505594
3056.198254,2442.679609,-11843.295072,-3294.210641
3056.198581,1332.370696,-12139.377449,-1685.410096
3056.198909,-296.082377,-10807.006753,306.438199
3056.199236,-2368.659014,-8808.450710,1838.629195
3056.199564,-3627.009116,-6069.688724,766.095498
3056.199891,-4737.318029,-4219.173869,-1532.190996
3056.200219,-3775.050304,-6291.750507,-2068.457845
3056.200547,-1036.288319,-6809.894666,-1455.581446
3056.200874,2220.617826,-7698.141797,1072.533697
3056.201202,4441.235652,-10288.862594,2528.115143
3056.201529,6069.688724,-13249.686362,1762.019645
3056.201857,4589.276840,-13175.665768,919.314598
3056.202185,2516.700203,-13175.665768,-1838.629195
3056.202512,1998.556043,-14137.933492,-2757.943793
3056.202840,1332.370696,-13175.665768,-3217.601092
3056.203167,-888.247130,-10732.986159,-1838.629195
3056.203495,-2590.720797,-9400.615463,-383.047749
3056.203822,-2960.823768,-9104.533087,1225.752797
3056.204150,-2960.823768,-7105.977043,1608.800546
3056.204478,-3330.926739,-4885.359217,995.924147
3056.204805,-2590.720797,-5033.400406,383.047749
3056.205133,-1036.288319,-5107.421000,1225.752797
3056.205460,0.000000,-6143.709319,1991.848295
3056.205788,2294.638420,-9104.533087,2221.676944
3056.206116,3182.885551,-12361.439231,1991.848295
3056.206443,1036.288319,-12139.377449,1991.848295
3056.206771,444.123565,-11695.253884,-1608.800546
3056.207098,296.082377,-13249.686362,-4519.963438
3056.207426,-592.164754,-14211.954086,-4826.401637
3056.207753,-1998.556043,-13027.624579,-2528.115143
3056.208081,-2738.761985,-10955.047942,0.000000
3056.208409,-2072.576638,-8512.368333,689.485948
3056.208736,-2072.576638,-4589.276840,1072.533697
3056.209064,-2738.761985,-1850.514855,1608.800546
3056.209391,-2960.823768,-3775.050304,2681.334243
3056.209719,-518.144159,-6439.791695,3753.867940
3056.210047,1036.288319,-7476.080014,2528.115143
3056.210374,3478.967927,-11399.171507,-459.657299
3056.210702,3923.091493,-13397.727550,-766.095498
3056.211029,1702.473667,-13471.748144,-536.266849
3056.211357,888.247130,-14582.057057,-1991.848295
3056.211684,2072.576638,-16580.613101,-5209.449386
3056.212012,2146.597232,-14137.933492,-5669.106685
3056.212340,-1184.329507,-11547.212695,-3447.429741
3056.212667,-1554.432478,-10584.944971,0.000000
3056.212995,-814.226536,-7476.080014,1072.533697
3056.213322,-1776.494261,-5699.585753,689.485948
3056.213650,-3330.926739,-4293.194464,1149.143247
3056.213978,-1776.494261,-4885.359217,1072.533697
3056.214305,2294.638420,-6069.688724,1838.629195
3056.214633,3182.885551,-7624.121203,2681.334243
3056.214960,4367.215058,-11769.274478,1991.848295
3056.215288,3552.988522,-13915.871710,459.657299
3056.215615,1776.494261,-13841.851115,459.657299
3056.215943,2738.761985,-12879.583391,-2221.676944
3056.216271,3182.885551,-12805.562797,-4443.353888
3056.216598,1110.308913,-12953.603985,-2221.676944
3056.216926,-296.082377,-11399.171507,-612.876398
3056.217253,-1702.473667,-8512.368333,0.000000
3056.217581,-3330.926739,-6143.709319,76.609550
3056.217908,-3182.885551,-3775.050304,0.000000
3056.218236,-4219.173869,-2294.638420,1302.362347
3056.218564,-2368.659014,-3404.947333,2528.115143
3056.218891,1406.391290,-5773.606348,2145.067394
3056.219219,4959.379811,-8882.471304,2757.943793
3056.219546,5625.565159,-10510.924376,3447.429741
3056.219874,4515.256246,-13101.645173,2911.162892
3056.220202,3182.885551,-15026.180623,995.924147
3056.220529,3552.988522,-14211.954086,-3370.820191
3056.220857,1924.535449,-13915.871710,-6971.469032
3056.221184,-592.164754,-13545.768739,-4366.744339
3056.221512,-1110.308913,-10658.965565,-2145.067394
3056.221839,-2072.576638,-9326.594869,76.609550
3056.222167,-2812.782580,-7105.977043,0.000000
3056.222495,-3256.906145,-4811.338623,-1455.581446
3056.222822,-3923.091493,-4515.256246,-459.657299
3056.223150,-1998.556043,-5699.585753,1149.143247
3056.223477,74.020594,-6587.832884,3064.381992
3056.223805,2368.659014,-9104.533087,2757.943793
3056.224133,4441.235652,-12139.377449,1532.190996
3056.224460,3034.844362,-14878.139434,766.095498
3056.224788,2368.659014,-15026.180623,-1072.533697
3056.225115,2516.700203,-15100.201217,-4213.525239
3056.225443,1406.391290,-15248.242405,-5592.497135
3056.225770,-1480.411884,-12731.542202,-4366.744339
3056.226098,-1628.453072,-10362.883188,-2221.676944
3056.226426,-1332.370696,-9696.697840,-459.657299
3056.226753,-1332.370696,-6217.729913,766.095498
3056.227081,-2442.679609,-3627.009116,689.485948
3056.227408,-4293.194464,-2960.823768,3064.381992
3056.227736,-3627.009116,-4219.173869,4290.134789
3056.228064,-666.185348,-4071.132681,4290.134789
3056.228391,1184.329507,-7105.977043,612.876398
3056.228719,666.185348,-10955.047942,1072.533697
3056.229046,1850.514855,-13915.871710,459.657299
3056.229374,3404.947333,-13989.892304,-612.876398
3056.229701,3108.864956,-16062.468941,-2145.067394
3056.230029,1850.514855,-14359.995275,-4136.915689
3056.230357,888.247130,-12953.603985,-4519.963438
3056.230684,-1258.350101,-9844.739029,-1455.581446
3056.231012,-1036.288319,-7772.162391,-306.438199
3056.231339,-1110.308913,-5107.421000,919.314598
3056.231667,-2960.823768,-2294.638420,1838.629195
3056.231995,-2886.803174,-2886.803174,2374.896044
3056.232322,0.000000,-5625.565159,3370.820191
3056.232650,2516.700203,-6957.935855,2374.896044
3056.232977,3404.947333,-8512.368333,2451.505594
3056.233305,4219.173869,-12657.521608,689.485948
3056.233632,2738.761985,-15470.304188,0.000000
3056.233960,1924.535449,-16136.489536,-1915.238745
3056.234288,3182.885551,-14730.098246,-4596.572988
3056.234615,2072.576638,-14359.995275,-4213.525239
3056.234943,296.082377,-12953.603985,-2528.115143
3056.235270,148.041188,-10955.047942,-1915.238745
3056.235598,-1554.432478,-8734.430116,-1302.362347
3056.235925,-1258.350101,-6365.771101,-919.314598
3056.236253,-1924.535449,-4441.235652,-306.438199
3056.236581,-2516.700203,-4885.359217,2145.067394
3056.236908,592.164754,-6439.791695,3447.429741
3056.237236,2590.720797,-5921.647536,3064.381992
3056.237563,3923.091493,-9548.656652,2374.896044
3056.237891,4885.359217,-13693.809927,2604.724693
3056.238219,3627.009116,-13841.851115,3140.991542
3056.238546,962.267725,-12361.439231,1149.143247
3056.238874,444.123565,-14063.912898,-3217.601092
3056.239201,-370.102971,-14508.036463,-6205.373534
3056.239529,-1924.535449,-10955.047942,-4213.525239
3056.239856,-1184.329507,-9178.553681,-2068.457845
3056.240184,-1702.473667,-7179.997637,995.924147
3056.240512,-1924.535449,-6143.709319,1149.143247
3056.240839,-1702.473667,-4367.215058,842.705048
3056.241167,-3034.844362,-3923.091493,995.924147
3056.241494,-1110.308913,-4811.338623,2298.286494
3056.241822,1776.494261,-7105.977043,1149.143247
3056.242150,2812.782580,-9104.533087,2681.334243
3056.242477,3404.947333,-13101.645173,2221.676944
3056.242805,2368.659014,-14878.139434,2604.724693
3056.243132,2220.617826,-14137.933492,383.047749
3056.243460,1702.473667,-14434.015869,-3600.648841
3056.243787,-740.205942,-14508.036463,-5362.668486
3056.244115,-2812.782580,-11399.171507,-4903.011187
3056.244443,-1554.432478,-8660.409521,-4290.134789
3056.244770,-1924.535449,-7105.977043,-1225.752797
3056.245098,-2442.679609,-5773.606348,383.047749
3056.245425,-3034.844362,-4737.318029,1685.410096
3056.245753,-2664.741391,-5329.482782,2451.505594
3056.246081,-148.041188,-6883.915261,1838.629195
3056.246408,2220.617826,-8734.430116,459.657299
3056.246736,2812.782580,-10807.006753,536.266849
3056.247063,2738.761985,-13545.768739,1378.971896
3056.247391,2886.803174,-14730.098246,1225.752797
3056.247718,2146.597232,-14359.995275,-1149.143247
3056.248046,1036.288319,-14804.118840,-3370.820191
3056.248374,-296.082377,-13397.727550,-4979.620737
3056.248701,-740.205942,-10584.944971,-4673.182538
3056.249029,-962.267725,-9178.553681,-3294.210641
3056.249356,-740.205942,-7105.977043,-1225.752797
3056.249684,-222.061783,-4589.276840,995.924147
3056.250012,-1332.370696,-3923.091493,3447.429741
3056.250339,296.082377,-3775.050304,4290.134789
3056.250667,2294.638420,-5329.482782,3983.696590
3056.250994,3034.844362,-8216.285956,2987.772442
3056.251322,2072.576638,-10288.862594,2757.943793
3056.251649,1406.391290,-12731.542202,2451.505594
3056.251977,0.000000,-12805.562797,1072.533697
3056.252305,666.185348,-13767.830521,-2681.334243
3056.252632,814.226536,-15396.283594,-4903.011187
3056.252960,-370.102971,-13841.851115,-4903.011187
3056.253287,296.082377,-9844.739029,-3677.258390
3056.253615,962.267725,-8438.347739,-2298.286494
3056.253942,1036.288319,-7105.977043,459.657299
3056.254270,1554.432478,-4515.256246,2451.505594
3056.254598,666.185348,-4589.276840,3600.648841
3056.254925,1036.288319,-4737.318029,2987.772442
3056.255253,2812.782580,-7105.977043,1378.971896
3056.255580,2368.659014,-8882.471304,919.314598
3056.255908,-296.082377,-10807.006753,2987.772442
3056.256236,-962.267725,-13693.809927,1762.019645
3056.256563,-2146.597232,-14508.036463,-1915.238745
3056.256891,-1924.535449,-15026.180623,-5362.668486
3056.257218,-1702.473667,-13915.871710,-7201.297681
3056.257546,-1480.411884,-12287.418637,-5669.106685
3056.257873,-370.102971,-12805.562797,-2681.334243
3056.258201,1850.514855,-9844.739029,-153.219100
3056.258529,1036.288319,-6735.874072,459.657299
3056.258856,-740.205942,-3775.050304,1838.629195
3056.259184,-370.102971,-4219.173869,1608.800546
3056.259511,518.144159,-4663.297435,1991.848295
3056.259839,1110.308913,-6069.688724,2681.334243
3056.260167,1110.308913,-8364.327145,2374.896044
3056.260494,592.164754,-12139.377449,2681.334243
3056.260822,1036.288319,-14063.912898,2374.896044
3056.261149,518.144159,-13545.768739,306.438199
3056.261477,0.000000,-12731.542202,-2298.286494
3056.261804,-1258.350101,-12213.398043,-4060.306139
3056.262132,-2294.638420,-11547.212695,-4749.792088
3056.262460,-814.226536,-10807.006753,-3830.477490
3056.262787,518.144159,-7476.080014,-995.924147
3056.263115,74.020594,-5403.503377,995.924147
3056.263442,-814.226536,-5033.400406,2681.334243
3056.263770,-1332.370696,-5403.503377,2911.162892
3056.264098,814.226536,-5181.441594,1915.238745
3056.264425,2886.803174,-6809.894666,1149.143247
3056.264753,2812.782580,-9252.574275,1532.190996
3056.265080,1776.494261,-11621.233289,3064.381992
3056.265408,1184.329507,-12879.583391,2681.334243
3056.265735,518.144159,-12805.562797,76.609550
3056.266063,444.123565,-13027.624579,-3370.820191
3056.266391,0.000000,-14211.954086,-4596.572988
3056.266718,-1110.308913,-12139.377449,-3600.648841
3056.267046,-740.205942,-10807.006753,-4290.134789
3056.267373,-2072.576638,-9548.656652,-3217.601092
3056.267701,-1702.473667,-7772.162391,-1532.190996
3056.268029,-1036.288319,-5181.441594,0.000000
3056.268356,0.000000,-5255.462188,1685.410096
3056.268684,2146.597232,-6957.935855,3064.381992
3056.269011,4293.194464,-8512.368333,2374.896044
3056.269339,3923.091493,-10140.821405,2221.676944
3056.269666,1554.432478,-11621.233289,2374.896044
3056.269994,-592.164754,-12805.562797,383.047749
3056.270322,-1924.535449,-12509.480420,-1915.238745
3056.270649,-740.205942,-14137.933492,-4366.744339
3056.270977,222.061783,-14656.077652,-4060.306139
3056.271304,0.000000,-11917.315666,-2757.943793
3056.271632,888.247130,-10955.047942,-995.924147
3056.271959,1036.288319,-10510.924376,-1378.971896
3056.272287,-518.144159,-6809.894666,306.438199
3056.272615,-1406.391290,-3849.070898,1378.971896
3056.272942,-888.247130,-2960.823768,2298.286494
3056.273270,1554.432478,-3923.091493,1915.238745
3056.273597,2368.659014,-6069.688724,3217.601092
3056.273925,1258.350101,-9030.512492,4519.963438
3056.274253,370.102971,-11843.295072,3907.087040
3056.274580,-370.102971,-13989.892304,536.266849
3056.274908,-1702.473667,-12731.542202,-3447.429741
3056.275235,-1554.432478,-13693.809927,-6052.154434
3056.275563,-444.123565,-14508.036463,-5132.839837
3056.275890,-666.185348,-11029.068536,-2528.115143
3056.276218,1406.391290,-9770.718434,-766.095498
3056.276546,1776.494261,-8438.347739,1225.752797
3056.276873,-148.041188,-6735.874072,2528.115143
3056.277201,-962.267725,-4737.318029,2298.286494
3056.277528,-592.164754,-4515.256246,689.485948
3056.277856,666.185348,-6735.874072,0.000000
3056.278184,2146.597232,-8142.265362,306.438199
3056.278511,1258.350101,-10066.800811,2451.505594
3056.278839,444.123565,-12435.459826,3140.991542
3056.279166,2072.576638,-14211.954086,153.219100
3056.279494,962.267725,-14508.036463,-2451.505594
3056.279821,-814.226536,-14952.160028,-3830.477490
3056.280149,-814.226536,-13397.727550,-4060.306139
3056.280477,-1258.350101,-10732.986159,-3524.039291
3056.280804,-740.205942,-9770.718434,-2528.115143
3056.281132,-296.082377,-8438.347739,-536.266849
3056.281459,-1184.329507,-6513.812290,842.705048
3056.281787,-1258.350101,-4737.318029,1378.971896
3056.282115,1184.329507,-5921.647536,536.266849
3056.282442,3404.947333,-7698.141797,919.314598
3056.282770,3775.050304,-8512.368333,2757.943793
3056.283097,3552.988522,-9696.697840,5362.668486
3056.283425,2590.720797,-12583.501014,4136.915689
3056.283752,1628.453072,-13249.686362,536.266849
3056.284080,222.061783,-12583.501014,-2451.505594
3056.284408,-2294.638420,-13545.768739,-3447.429741
3056.284735,-3849.070898,-12065.356855,-2681.334243
3056.285063,-3330.926739,-9622.677246,-2145.067394
3056.285390,-3330.926739,-7772.162391,-3983.696590
3056.285718,-2960.823768,-6883.915261,-2757.943793
3056.286046,-2072.576638,-6217.729913,-383.047749
3056.286373,-1258.350101,-5255.462188,2298.286494
3056.286701,1480.411884,-6143.709319,3064.381992
3056.287028,4515.256246,-7105.977043,3370.820191
3056.287356,3997.112087,-7476.080014,3983.696590
3056.287684,3182.885551,-9918.759623,3753.867940
3056.288012,2442.679609,-12435.459826,2757.943793
3056.288339,1480.411884,-13175.665768,76.609550
3056.288667,-296.082377,-13249.686362,-2834.553343
3056.288995,-2072.576638,-15026.180623,-4749.792088
3056.289323,-2664.741391,-12805.562797,-5286.058936
3056.289650,-962.267725,-9918.759623,-4136.915689
3056.289978,0.000000,-10066.800811,-1915.238745
3056.290306,-1036.288319,-9252.574275,919.314598
3056.290633,-814.226536,-5033.400406,1762.019645
3056.290961,444.123565,-4737.318029,766.095498
3056.291289,1110.308913,-6143.709319,2221.676944
3056.291617,1924.535449,-5921.647536,3677.258390
3056.291944,2960.823768,-7994.224174,3677.258390
3056.292272,2368.659014,-11103.089130,3217.601092
3056.292600,2960.823768,-14434.015869,-229.828649
3056.292928,1554.432478,-14508.036463,-2451.505594
3056.293255,-444.123565,-14211.954086,-3753.867940
3056.293583,-666.185348,-14434.015869,-4213.525239
3056.293911,-518.144159,-12361.439231,-3064.381992
3056.294239,-666.185348,-9178.553681,-1915.238745
3056.294566,1036.288319,-8882.471304,-1378.971896
3056.294894,-148.041188,-6069.688724,1915.238745
3056.295222,-2146.597232,-3404.947333,3370.820191
3056.295549,-2442.679609,-4663.297435,2451.505594
3056.295877,-1110.308913,-6143.709319,1455.581446
3056.296205,1110.308913,-5995.668130,689.485948
3056.296533,1924.535449,-8586.388927,1149.143247
3056.296860,2368.659014,-12805.562797,2145.067394
3056.297188,2146.597232,-13545.768739,1532.190996
3056.297516,1628.453072,-13175.665768,-1455.581446
3056.297844,0.000000,-14730.098246,-3600.648841
3056.298171,-1406.391290,-14359.995275,-4290.134789
3056.298499,-1258.350101,-10510.924376,-4060.306139
3056.298827,-666.185348,-9030.512492,-2451.505594
3056.299155,222.061783,-9622.677246,-842.705048
3056.299482,0.000000,-8068.244768,2451.505594
3056.299810,-814.226536,-4515.256246,2987.772442
3056.300138,-444.123565,-4811.338623,1991.848295
3056.300465,0.000000,-7476.080014,766.095498
3056.300793,592.164754,-7920.203579,919.314598
3056.301121,1036.288319,-7846.182985,1608.800546
3056.301449,1850.514855,-11473.192101,1378.971896
3056.301776,2368.659014,-13841.851115,306.438199
3056.302104,1110.308913,-14285.974681,-612.876398
3056.302432,222.061783,-14508.036463,-2834.553343
3056.302760,0.000000,-13693.809927,-4903.011187
3056.303087,-740.205942,-11473.192101,-4749.792088
3056.303415,444.123565,-10288.862594,-3294.210641
3056.303743,222.061783,-7846.182985,-536.266849
3056.304071,-666.185348,-6661.853478,2374.896044
3056.304398,-814.226536,-4663.297435,2681.334243
3056.304726,-962.267725,-4885.359217,2068.457845
3056.305054,-1036.288319,-6291.750507,1838.629195
3056.305381,-296.082377,-6291.750507,1532.190996
3056.305709,1332.370696,-7846.182985,1685.410096
3056.306037,3256.906145,-12065.356855,1225.752797
3056.306365,2812.782580,-13545.768739,229.828649
3056.306692,2590.720797,-13397.727550,-919.314598
3056.307020,1406.391290,-13397.727550,-2604.724693
3056.307348,222.061783,-13693.809927,-3830.477490
3056.307676,-444.123565,-12287.418637,-3753.867940
3056.308003,-740.205942,-9770.718434,-2528.115143
3056.308331,-888.247130,-8586.388927,-1149.143247
3056.308659,-740.205942,-5773.606348,76.609550
3056.308987,-888.247130,-4145.153275,1149.143247
3056.309314,-1184.329507,-5847.626942,2298.286494
3056.309642,74.020594,-6809.894666,2451.505594
3056.309970,1184.329507,-7105.977043,2068.457845
3056.310297,2960.823768,-9844.739029,1762.019645
3056.310625,3404.947333,-12657.521608,1685.410096
3056.310953,1924.535449,-13693.809927,919.314598
3056.311281,962.267725,-13693.809927,-459.657299
3056.311608,222.061783,-13915.871710,-3677.258390
3056.311936,-222.061783,-14211.954086,-5822.325785
3056.312264,370.102971,-12213.398043,-4519.963438
3056.312592,1036.288319,-10362.883188,-2911.162892
3056.312919,-222.061783,-8586.388927,842.705048
3056.313247,-1998.556043,-6069.688724,2604.724693
3056.313575,-1628.453072,-5699.585753,1838.629195
3056.313902,-1924.535449,-5329.482782,1149.143247
3056.314230,-370.102971,-5107.421000,1378.971896
3056.314558,444.123565,-6809.894666,1762.019645
3056.314886,1406.391290,-10955.047942,2221.676944
3056.315213,1406.391290,-12731.542202,1838.629195
3056.315541,1332.370696,-12657.521608,0.000000
3056.315869,592.164754,-13545.768739,-1608.800546
3056.316197,-370.102971,-13619.789333,-3983.696590
3056.316524,444.123565,-13915.871710,-4826.401637
3056.316852,370.102971,-10214.842000,-3447.429741
3056.317180,148.041188,-8734.430116,-995.924147
3056.317508,-1480.411884,-7698.141797,2528.115143
3056.317835,-592.164754,-5551.544565,3370.820191
3056.318163,-296.082377,-3182.885551,2221.676944
3056.318491,-518.144159,-4737.318029,1455.581446
3056.318818,-444.123565,-7105.977043,2068.457845
3056.319146,888.247130,-8068.244768,1762.019645
3056.319474,1776.494261,-10066.800811,1378.971896
3056.319802,1702.473667,-13101.645173,1455.581446
3056.320129,1184.329507,-13323.706956,459.657299
3056.320457,1332.370696,-13915.871710,-1685.410096
3056.320785,814.226536,-14211.954086,-3983.696590
3056.321113,814.226536,-13101.645173,-5439.278036
3056.321440,1258.350101,-11695.253884,-3907.087040
3056.321768,148.041188,-10584.944971,-842.705048
3056.322096,-1406.391290,-7328.038826,459.657299
3056.322424,-1480.411884,-3330.926739,1378.971896
3056.322751,-1554.432478,-2664.741391,306.438199
3056.323079,-1184.329507,-6143.709319,842.705048
3056.323407,148.041188,-9178.553681,2068.457845
3056.323734,1406.391290,-8734.430116,2451.505594
3056.324062,3478.967927,-11251.130318,536.266849
3056.324390,3034.844362,-14434.015869,995.924147
3056.324718,1036.288319,-14211.954086,0.000000
3056.325045,0.000000,-12657.521608,-1378.971896
3056.325373,370.102971,-12509.480420,-4366.744339
3056.325701,666.185348,-11621.233289,-5669.106685
3056.326029,0.000000,-10658.965565,-3830.477490
3056.326356,-1184.329507,-9474.636058,-306.438199
3056.326684,-1628.453072,-7179.997637,1072.533697
3056.327012,-740.205942,-4737.318029,0.000000
3056.327340,-962.267725,-4589.276840,0.000000
3056.327667,0.000000,-7476.080014,2298.286494
3056.327995,2146.597232,-7994.224174,2987.772442
3056.328323,3552.988522,-8956.491898,3064.381992
3056.328650,2590.720797,-12287.418637,2681.334243
3056.328978,1628.453072,-14063.912898,1378.971896
3056.329306,-296.082377,-11843.295072,-383.047749
3056.329634,-814.226536,-11621.233289,-3370.820191
3056.329961,-962.267725,-13323.706956,-5056.230287
3056.330289,-814.226536,-11843.295072,-5056.230287
3056.330617,-222.061783,-10288.862594,-2451.505594
3056.330945,-740.205942,-8808.450710,-536.266849
3056.331272,-888.247130,-6661.853478,842.705048
3056.331600,-592.164754,-4367.215058,1455.581446
3056.331928,444.123565,-4367.215058,1991.848295
3056.332256,1332.370696,-6069.688724,2911.162892
3056.332583,1998.556043,-8290.306550,4290.134789
3056.332911,2590.720797,-9326.594869,4290.134789
3056.333239,2220.617826,-12213.398043,2681.334243
3056.333566,-518.144159,-14211.954086,1072.533697
3056.333894,-2442.679609,-12065.356855,-2757.943793
3056.334222,-2368.659014,-12435.459826,-5822.325785
3056.334550,-666.185348,-14063.912898,-6894.859482
3056.334877,296.082377,-12065.356855,-4979.620737
3056.335205,814.226536,-9992.780217,-1532.190996
3056.335533,296.082377,-8068.244768,1149.143247
3056.335861,-222.061783,-6513.812290,1378.971896
3056.336188,-666.185348,-4219.173869,1532.190996
3056.336516,-592.164754,-4071.132681,1072.533697
3056.336844,592.164754,-7031.956449,2528.115143
3056.337172,2516.700203,-7994.224174,2604.724693
3056.337499,2960.823768,-9548.656652,2834.553343
3056.337827,1998.556043,-13175.665768,2145.067394
3056.338155,1258.350101,-15396.283594,-1685.410096
3056.338482,-592.164754,-14878.139434,-3677.258390
3056.338810,-888.247130,-13545.768739,-5592.497135
3056.339138,-370.102971,-12583.501014,-6052.154434
3056.339466,-370.102971,-10807.006753,-3600.648841
3056.339793,0.000000,-9844.739029,-919.314598
3056.340121,148.041188,-7846.182985,842.705048
3056.340449,0.000000,-4737.318029,1991.848295
3056.340777,0.000000,-3330.926739,1838.629195
3056.341104,-666.185348,-5181.441594,2528.115143
3056.341432,518.144159,-7698.141797,2757.943793
3056.341760,1554.432478,-9030.512492,2528.115143
3056.342088,1702.473667,-10288.862594,1762.019645
3056.342415,2368.659014,-13397.727550,612.876398
3056.342743,1332.370696,-15914.427753,-306.438199
3056.343071,-814.226536,-14730.098246,-612.876398
3056.343398,-666.185348,-12583.501014,-3140.991542
3056.343726,0.000000,-11251.130318,-5209.449386
3056.344054,-1332.370696,-9474.636058,-3830.477490
3056.344382,-1776.494261,-7254.018232,-1378.971896
3056.344709,-1628.453072,-5403.503377,1302.362347
3056.345037,-1258.350101,-4219.173869,1072.533697
3056.345365,-444.123565,-4293.194464,1838.629195
3056.345693,0.000000,-5847.626942,2451.505594
3056.346020,2072.576638,-8364.327145,3677.258390
3056.346348,2664.741391,-9474.636058,3370.820191
3056.346676,2738.761985,-11029.068536,2068.457845
3056.347004,2368.659014,-14508.036463,919.314598
3056.347331,666.185348,-15766.386565,0.000000
3056.347659,296.082377,-12953.603985,-2757.943793
3056.347987,-888.247130,-12435.459826,-3907.087040
3056.348314,-1554.432478,-11547.212695,-4136.915689
3056.348642,-1258.350101,-9992.780217,-3370.820191
3056.348970,-1332.370696,-8364.327145,-2145.067394
3056.349298,-1554.432478,-8068.244768,-1149.143247
3056.349625,222.061783,-6365.771101,-842.705048
3056.349953,518.144159,-3849.070898,0.000000
3056.350281,1258.350101,-5625.565159,2987.772442
3056.350609,2886.803174,-8512.368333,4060.306139
3056.350936,4071.132681,-8512.368333,4213.525239
3056.351264,3182.885551,-10584.944971,2987.772442
3056.351592,2738.761985,-14359.995275,2221.676944
3056.351920,-666.185348,-15174.221811,-459.657299
3056.352247,-2960.823768,-12953.603985,-2757.943793
3056.352575,-1998.556043,-13101.645173,-4979.620737
3056.352903,-740.205942,-13101.645173,-6052.154434
3056.353230,-592.164754,-10732.986159,-3753.867940
3056.353558,-814.226536,-8586.388927,-536.266849
3056.353886,888.247130,-6217.729913,0.000000
3056.354214,814.226536,-3701.029710,766.095498
3056.354541,-1036.288319,-4145.153275,2681.334243
3056.354869,-1110.308913,-4663.297435,3600.648841
3056.355197,1184.329507,-5921.647536,3140.991542
3056.355525,3182.885551,-8364.327145,2911.162892
3056.355852,3034.844362,-12435.459826,2757.943793
3056.356180,1850.514855,-16580.613101,2451.505594
3056.356508,962.267725,-15840.407159,-229.828649
3056.356836,-592.164754,-15026.180623,-4290.134789
3056.357163,-2886.803174,-15026.180623,-5898.935335
3056.357491,-2220.617826,-11547.212695,-5898.935335
3056.357819,-2368.659014,-7846.182985,-3447.429741
3056.358146,-1184.329507,-7328.038826,-842.705048
3056.358474,-740.205942,-6217.729913,1149.143247
3056.358802,-1110.308913,-3478.967927,2068.457845
3056.359130,0.000000,-3627.009116,2145.067394
3056.359457,444.123565,-7031.956449,2145.067394
3056.359785,2072.576638,-7846.182985,1915.238745
3056.360113,3256.906145,-8808.450710,1762.019645
3056.360441,3775.050304,-13101.645173,1915.238745
3056.360768,2812.782580,-16358.551318,2451.505594
3056.361096,1776.494261,-15248.242405,536.266849
3056.361424,-518.144159,-13915.871710,-1762.019645
3056.361752,-1480.411884,-13767.830521,-4443.353888
3056.362079,-2368.659014,-11251.130318,-5592.497135
3056.362407,-3478.967927,-8216.285956,-3983.696590
3056.362735,-3108.864956,-6069.688724,-2145.067394
3056.363062,-592.164754,-4737.318029,-1072.533697
3056.363390,-666.185348,-2960.823768,766.095498
3056.363718,370.102971,-3775.050304,2834.553343
3056.364046,2516.700203,-6957.935855,1991.848295
3056.364373,3997.112087,-9030.512492,3370.820191
3056.364701,4219.173869,-10066.800811,3370.820191
3056.365029,3775.050304,-13027.624579,2604.724693
3056.365357,2516.700203,-16062.468941,2145.067394
3056.365684,1406.391290,-15322.262999,153.219100
3056.366012,962.267725,-13915.871710,-3524.039291
3056.366340,-1480.411884,-11991.336260,-4290.134789
3056.366667,-2442.679609,-10436.903782,-4903.011187
3056.366995,-2590.720797,-8290.306550,-4290.134789
3056.367323,-2368.659014,-6735.874072,-2757.943793
3056.367651,-2368.659014,-4367.215058,-766.095498
3056.367978,-962.267725,-3404.947333,689.485948
3056.368306,74.020594,-4737.318029,2451.505594
3056.368634,2368.659014,-7698.141797,3294.210641
3056.368962,4293.194464,-8586.388927,3217.601092
3056.369289,4885.359217,-10436.903782,3064.381992
3056.369617,3552.988522,-14211.954086,2911.162892
3056.369945,2294.638420,-15988.448347,2451.505594
3056.370273,0.000000,-14285.974681,0.000000
3056.370600,-2368.659014,-13619.789333,-3217.601092
3056.370928,-2886.803174,-12879.583391,-6588.421283
3056.371256,-2738.761985,-11399.171507,-7124.688131
3056.371583,-3627.009116,-8956.491898,-4290.134789
3056.371911,-2664.741391,-7179.997637,-1072.533697
3056.372239,-888.247130,-4737.318029,383.047749
3056.372567,740.205942,-3849.070898,919.314598
3056.372894,666.185348,-4737.318029,2221.676944
3056.373222,1554.432478,-6069.688724,3677.258390
3056.373550,3627.009116,-7328.038826,3677.258390
3056.373878,3997.112087,-10584.944971,3524.039291
3056.374205,1998.556043,-13841.851115,3140.991542
3056.374533,814.226536,-15100.201217,2604.724693
3056.374861,74.020594,-14359.995275,-612.876398
3056.375189,0.000000,-13767.830521,-3524.039291
3056.375516,-1924.535449,-13841.851115,-4903.011187
3056.375844,-2664.741391,-11325.150913,-3907.087040
3056.376172,-2812.782580,-7994.224174,-2757.943793
3056.376499,-1554.432478,-6069.688724,-2145.067394
3056.376827,-1258.350101,-3775.050304,0.000000
3056.377155,-740.205942,-2664.741391,3217.601092
3056.377483,1036.288319,-3775.050304,3983.696590
3056.377810,2516.700203,-6217.729913,3447.429741
3056.378138,3849.070898,-8586.388927,2681.334243
3056.378466,3182.885551,-11325.150913,1838.629195
3056.378794,2590.720797,-14359.995275,1915.238745
3056.379121,2220.617826,-14285.974681,1072.533697
3056.379449,740.205942,-13693.809927,-1455.581446
3056.379777,-666.185348,-14211.954086,-3677.258390
3056.380105,-1554.432478,-13545.768739,-4290.134789
3056.380432,-2664.741391,-11029.068536,-3907.087040
3056.380760,-2886.803174,-8142.265362,-2451.505594
3056.381088,-1998.556043,-7402.059420,-1532.190996
3056.381415,-888.247130,-4737.318029,-383.047749
3056.381743,0.000000,-2664.741391,689.485948
3056.382071,1480.411884,-4663.297435,1685.410096
3056.382399,3330.926739,-8216.285956,2451.505594
3056.382726,4071.132681,-8956.491898,2911.162892
3056.383054,2664.741391,-11251.130318,2987.772442
3056.383382,1924.535449,-14137.933492,2068.457845
3056.383710,2072.576638,-15248.242405,-459.657299
3056.384037,1406.391290,-14952.160028,-3600.648841
3056.384365,222.061783,-14582.057057,-3447.429741
3056.384693,0.000000,-13619.789333,-3140.991542
3056.385021,-740.205942,-10584.944971,-2834.553343
3056.385348,-1554.432478,-9104.533087,-2911.162892
3056.385676,-2738.761985,-7105.977043,-2145.067394
3056.386004,-2590.720797,-3182.885551,0.000000
3056.386331,-1258.350101,-1184.329507,689.485948
3056.386659,0.000000,-5033.400406,1991.848295
3056.386987,1998.556043,-7624.121203,3677.258390
3056.387315,3478.967927,-7698.141797,4060.306139
3056.387642,3404.947333,-10288.862594,3600.648841
3056.387970,2442.679609,-14952.160028,1838.629195
3056.388298,2664.741391,-14878.139434,76.609550
3056.388626,1332.370696,-12657.521608,-2068.457845
3056.388953,592.164754,-14211.954086,-3294.210641
3056.389281,0.000000,-13545.768739,-3753.867940
3056.389609,-1554.432478,-10436.903782,-2374.896044
3056.389937,-2516.700203,-7698.141797,-1838.629195
3056.390265,-4293.194464,-5921.647536,-919.314598
3056.390592,-4515.256246,-4367.215058,-995.924147
3056.390920,-2738.761985,-2960.823768,-536.266849
3056.391248,-222.061783,-4293.194464,383.047749
3056.391576,2146.597232,-6439.791695,2528.115143
3056.391903,4145.153275,-8586.388927,3370.820191
3056.392231,4145.153275,-11917.315666,3983.696590
3056.392559,3478.967927,-14582.057057,2451.505594
3056.392887,2738.761985,-15100.201217,0.000000
3056.393214,1184.329507,-15248.242405,-2451.505594
3056.393542,-518.144159,-15396.283594,-4749.792088
3056.393870,-2146.597232,-13619.789333,-4749.792088
3056.394198,-1628.453072,-10955.047942,-3447.429741
3056.394526,-1924.535449,-9030.512492,-2681.334243
3056.394853,-2442.679609,-7254.018232,-1455.581446
3056.395181,-2072.576638,-4219.173869,-536.266849
3056.395509,-444.123565,-3404.947333,689.485948
3056.395837,1036.288319,-5181.441594,1915.238745
3056.396164,2072.576638,-5181.441594,4213.525239
3056.396492,3552.988522,-7476.080014,4060.306139
3056.396820,3256.906145,-11695.253884,3600.648841
3056.397148,3627.009116,-15470.304188,1608.800546
3056.397476,3182.885551,-16506.592507,-612.876398
3056.397803,740.205942,-14582.057057,-2221.676944
3056.398131,-1480.411884,-14434.015869,-2834.553343
3056.398459,-2516.700203,-13619.789333,-3983.696590
3056.398787,-3330.926739,-10362.883188,-3447.429741
3056.399114,-3182.885551,-7476.080014,-2757.943793
3056.399442,-1998.556043,-4811.338623,-1532.190996
3056.399770,-1702.473667,-3256.906145,689.485948
3056.400098,-814.226536,-4737.318029,3830.477490
3056.400426,222.061783,-4145.153275,4290.134789
3056.400753,2368.659014,-4959.379811,2987.772442
3056.401081,2960.823768,-8142.265362,1915.238745
3056.401409,2294.638420,-11547.212695,1685.410096
3056.401737,2368.659014,-13989.892304,919.314598
3056.402064,3034.844362,-15840.407159,-842.705048
3056.402392,1554.432478,-16580.613101,-2298.286494
3056.402720,74.020594,-14730.098246,-2145.067394
3056.403048,-1036.288319,-12139.377449,-2987.772442
3056.403376,-1850.514855,-9992.780217,-2987.772442
3056.403703,-2368.659014,-8438.347739,-3447.429741
3056.404031,-2886.803174,-6069.688724,-2298.286494
3056.404359,-2812.782580,-3182.885551,0.000000
3056.404687,-1184.329507,-2664.741391,1608.800546
3056.405014,814.226536,-5403.503377,1915.238745
3056.405342,2368.659014,-6587.832884,4213.525239
3056.405670,2812.782580,-8586.388927,2068.457845
3056.405998,4811.338623,-14359.995275,766.095498
3056.406326,4367.215058,-16358.551318,153.219100
3056.406653,3256.906145,-15026.180623,-689.485948
3056.406981,1702.473667,-15322.262999,-1991.848295
3056.407309,222.061783,-14804.118840,-3677.258390
3056.407637,-740.205942,-12287.418637,-3217.601092
3056.407964,-2664.741391,-8364.327145,-2528.115143
3056.408292,-3923.091493,-6587.832884,-1455.581446
3056.408620,-4441.235652,-6217.729913,-536.266849
3056.408948,-4515.256246,-3923.091493,383.047749
3056.409275,-3108.864956,-2516.700203,1455.581446
3056.409603,444.123565,-4737.318029,1838.629195
3056.409931,3182.885551,-6513.812290,3217.601092
3056.410259,4515.256246,-9326.594869,4366.744339
3056.410587,4959.379811,-12731.542202,3677.258390
3056.410914,4515.256246,-14508.036463,1072.533697
3056.411242,3701.029710,-14211.954086,-1149.143247
3056.411570,296.082377,-13841.851115,-2987.772442
3056.411898,-2294.638420,-13323.706956,-3600.648841
3056.412225,-3182.885551,-12065.356855,-3753.867940
3056.412553,-2294.638420,-9992.780217,-4673.182538
3056.412881,-2886.803174,-8660.409521,-2374.896044
3056.413209,-3182.885551,-7179.997637,0.000000
3056.413537,-2516.700203,-3404.947333,1149.143247
3056.413864,-740.205942,-4367.215058,1762.019645
3056.414192,1184.329507,-5699.585753,2298.286494
3056.414520,2072.576638,-6217.729913,2451.505594
3056.414848,4367.215058,-8882.471304,1838.629195
3056.415175,4737.318029,-13397.727550,1685.410096
3056.415503,3552.988522,-15026.180623,1072.533697
3056.415831,2442.679609,-15914.427753,-1455.581446
3056.416159,666.185348,-16210.510130,-4290.134789
3056.416487,-1036.288319,-14804.118840,-5822.325785
3056.416814,-1258.350101,-11621.233289,-6435.202183
3056.417142,-2220.617826,-9770.718434,-3524.039291
3056.417470,-3330.926739,-9104.533087,-459.657299
3056.417798,-2368.659014,-5625.565159,1149.143247
3056.418125,-2368.659014,-2516.700203,2451.505594
3056.418453,-1110.308913,-3627.009116,2757.943793
3056.418781,1998.556043,-5995.668130,3064.381992
3056.419109,2368.659014,-6143.709319,4213.525239
3056.419437,3256.906145,-8438.347739,3140.991542
3056.419764,3701.029710,-13323.706956,1225.752797
3056.420092,3404.947333,-15470.304188,-383.047749
3056.420420,1332.370696,-13545.768739,-2068.457845
3056.420748,-592.164754,-12731.542202,-3064.381992
3056.421075,-1036.288319,-13693.809927,-3600.648841
3056.421403,-888.247130,-11843.295072,-3983.696590
3056.421731,-1110.308913,-9104.533087,-2221.676944
3056.422059,-3552.988522,-7624.121203,383.047749
3056.422386,-3404.947333,-4663.297435,1838.629195
3056.422714,-2516.700203,-1850.514855,1762.019645
3056.423042,-1480.411884,-3182.885551,1608.800546
3056.423370,0.000000,-5625.565159,2681.334243
3056.423698,3552.988522,-8216.285956,2374.896044
3056.424025,4959.379811,-10955.047942,1455.581446
3056.424353,5107.421000,-14285.974681,1608.800546
3056.424681,3552.988522,-15396.283594,766.095498
3056.425009,1776.494261,-14952.160028,-1685.410096
3056.425336,518.144159,-14285.974681,-3753.867940
3056.425664,74.020594,-13323.706956,-5056.230287
3056.425992,-1406.391290,-11177.109724,-4443.353888
3056.426320,-2590.720797,-10066.800811,-1378.971896
3056.426648,-4219.173869,-8660.409521,306.438199
3056.426975,-5403.503377,-5255.462188,76.609550
3056.427303,-4219.173869,-3330.926739,-1378.971896
3056.427631,-1628.453072,-5255.462188,-1378.971896
3056.427959,592.164754,-8512.368333,766.095498
3056.428286,4663.297435,-9030.512492,4060.306139
3056.428614,7328.038826,-11621.233289,3983.696590
3056.428942,6143.709319,-13323.706956,3524.039291
3056.429270,5107.421000,-14878.139434,1072.533697
3056.429598,2072.576638,-14508.036463,-1838.629195
3056.429925,-222.061783,-12805.562797,-3140.991542
3056.430253,-1036.288319,-11029.068536,-5209.449386
3056.430581,-2294.638420,-9252.574275,-5056.230287
3056.430909,-4737.318029,-8142.265362,-1455.581446
3056.431236,-4811.338623,-7105.977043,1455.581446
3056.431564,-3552.988522,-4145.153275,1532.190996
3056.431892,-2072.576638,-3997.112087,919.314598
3056.432220,-888.247130,-5403.503377,842.705048
3056.432548,1554.432478,-6439.791695,2681.334243
3056.432875,3627.009116,-6883.915261,4443.353888
3056.433203,5551.544565,-11325.150913,3447.429741
3056.433531,5477.523971,-14582.057057,2987.772442
3056.433859,3256.906145,-14508.036463,2068.457845
3056.434186,1924.535449,-12435.459826,-1532.190996
3056.434514,148.041188,-13693.809927,-5286.058936
3056.434842,-888.247130,-14063.912898,-6052.154434
3056.435170,-2220.617826,-11251.130318,-4673.182538
3056.435498,-3330.926739,-9030.512492,-2145.067394
3056.435825,-3627.009116,-7031.956449,76.609550
3056.436153,-1998.556043,-4737.318029,689.485948
3056.436481,-962.267725,-4219.173869,1991.848295
3056.436809,-740.205942,-4959.379811,2834.553343
3056.437136,1406.391290,-6291.750507,3064.381992
3056.437464,2886.803174,-8734.430116,3064.381992
3056.437792,3849.070898,-11843.295072,1762.019645
3056.438120,3923.091493,-15322.262999,1225.752797
3056.438447,3404.947333,-16136.489536,-383.047749
3056.438775,2146.597232,-15026.180623,-3140.991542
3056.439103,2072.576638,-14656.077652,-4903.011187
3056.439431,0.000000,-13619.789333,-5669.106685
3056.439759,-2368.659014,-11251.130318,-3140.991542
3056.440086,-4589.276840,-8142.265362,-842.705048
3056.440414,-4071.132681,-5181.441594,0.000000
3056.440742,-2886.803174,-3256.906145,689.485948
3056.441070,-1924.535449,-4145.153275,2068.457845
3056.441397,-444.123565,-4959.379811,3907.087040
3056.441725,1628.453072,-6069.688724,4290.134789
3056.442053,3923.091493,-9770.718434,3140.991542
3056.442381,4071.132681,-12879.583391,2145.067394
3056.442709,2664.741391,-14211.954086,1072.533697
3056.443036,2072.576638,-14137.933492,-689.485948
3056.443364,1036.288319,-13323.706956,-2757.943793
3056.443692,444.123565,-13767.830521,-3600.648841
3056.444020,0.000000,-11843.295072,-3907.087040
3056.444347,-1184.329507,-9030.512492,-3447.429741
3056.444675,-3404.947333,-8216.285956,-1225.752797
3056.445003,-3701.029710,-6587.832884,76.609550
3056.445331,-3108.864956,-2368.659014,536.266849
3056.445659,-2072.576638,-2220.617826,995.924147
3056.445986,-740.205942,-5847.626942,2911.162892
3056.446314,1850.514855,-8290.306550,3753.867940
3056.446642,4811.338623,-9622.677246,3907.087040
3056.446970,5403.503377,-12953.603985,2374.896044
3056.447297,4219.173869,-15692.365970,1455.581446
3056.447625,3849.070898,-17172.777854,-383.047749
3056.447953,2886.803174,-13841.851115,-3447.429741
3056.448281,592.164754,-11843.295072,-4443.353888
3056.448609,-1110.308913,-11473.192101,-6281.983084
3056.448936,-2886.803174,-10732.986159,-4596.572988
3056.449264,-4959.379811,-8882.471304,-1532.190996
3056.449592,-3923.091493,-5773.606348,-1302.362347
3056.449920,-3849.070898,-2664.741391,-612.876398
3056.450247,-2516.700203,-4737.318029,1072.533697
3056.450575,0.000000,-6439.791695,2451.505594
3056.450903,3034.844362,-7920.203579,3600.648841
3056.451231,5625.565159,-9918.759623,4136.915689
3056.451558,7254.018232,-14211.954086,2911.162892
3056.451886,5403.503377,-16284.530724,1762.019645
3056.452214,4145.153275,-15174.221811,-306.438199
3056.452542,1924.535449,-13249.686362,-3140.991542
3056.452870,296.082377,-13101.645173,-5056.230287
3056.453197,-2368.659014,-11251.130318,-5745.716235
3056.453525,-3997.112087,-8438.347739,-4060.306139
3056.453853,-4663.297435,-7105.977043,-2145.067394
3056.454181,-3330.926739,-6365.771101,-536.266849
3056.454508,-2072.576638,-3849.070898,1225.752797
3056.454836,-2590.720797,-3034.844362,3600.648841
3056.455164,-1554.432478,-4885.359217,5209.449386
3056.455492,-296.082377,-6365.771101,4136.915689
3056.455820,3701.029710,-10436.903782,1838.629195
3056.456147,5107.421000,-14656.077652,612.876398
3056.456475,4441.235652,-16358.551318,1915.238745
3056.456803,3775.050304,-15026.180623,612.876398
3056.457131,3478.967927,-14730.098246,-2528.115143
3056.457458,1776.494261,-13397.727550,-5592.497135
3056.457786,-1776.494261,-11103.089130,-5822.325785
3056.458114,-4145.153275,-9178.553681,-3907.087040
3056.458442,-4811.338623,-6439.791695,-1608.800546
3056.458770,-3923.091493,-3330.926739,0.000000
3056.459097,-3182.885551,-2294.638420,2145.067394
3056.459425,-1850.514855,-4293.194464,4519.963438
3056.459753,1406.391290,-6217.729913,4979.620737
3056.460081,3775.050304,-7698.141797,2451.505594
3056.460408,5403.503377,-11177.109724,2451.505594
3056.460736,4737.318029,-15174.221811,1532.190996
3056.461064,4071.132681,-15618.345376,689.485948
3056.461392,2664.741391,-14952.160028,-612.876398
3056.461720,1332.370696,-15026.180623,-3064.381992
3056.462047,592.164754,-13175.665768,-4826.401637
3056.462375,-1702.473667,-10436.903782,-5286.058936
3056.462703,-3404.947333,-9474.636058,-3677.258390
3056.463031,-3849.070898,-7105.977043,-2068.457845
3056.463358,-3256.906145,-4219.173869,0.000000
3056.463686,-2368.659014,-2442.679609,1225.752797
3056.464014,-2220.617826,-3404.947333,2987.772442
3056.464342,518.144159,-4589.276840,3217.601092
3056.464670,4811.338623,-6957.935855,3830.477490
3056.464997,6513.812290,-13175.665768,3140.991542
3056.465325,6069.688724,-16654.633695,4136.915689
3056.465653,3627.009116,-14804.118840,2757.943793
3056.465981,1184.329507,-13397.727550,-2145.067394
3056.466308,0.000000,-16432.571912,-5898.935335
3056.466636,-1406.391290,-13175.665768,-6665.030833
3056.466964,-2442.679609,-8808.450710,-5362.668486
3056.467292,-3627.009116,-8438.347739,-2757.943793
3056.467619,-3182.885551,-8068.244768,-1302.362347
3056.467947,-2294.638420,-4515.256246,0.000000
3056.468275,-2738.761985,-2516.700203,2298.286494
3056.468603,-3256.906145,-3108.864956,2987.772442
3056.468931,592.164754,-5181.441594,2145.067394
3056.469258,3034.844362,-8142.265362,2374.896044
3056.469586,5403.503377,-11843.295072,3983.696590
3056.469914,6143.709319,-15248.242405,4749.792088
3056.470242,5403.503377,-16950.716072,3294.210641
3056.470569,3182.885551,-16728.654289,-1072.533697
3056.470897,1332.370696,-15174.221811,-4903.011187
3056.471225,-2368.659014,-11547.212695,-6665.030833
3056.471553,-4737.318029,-8882.471304,-6971.469032
3056.471881,-5477.523971,-7772.162391,-5056.230287
3056.472208,-4737.318029,-5551.544565,-1915.238745
3056.472536,-3627.009116,-3849.070898,459.657299
3056.472864,-1924.535449,-4515.256246,2451.505594
3056.473192,74.020594,-5403.503377,3064.381992
3056.473519,2886.803174,-6069.688724,3217.601092
3056.473847,4441.235652,-8734.430116,2911.162892
3056.474175,5181.441594,-12805.562797,2528.115143
3056.474503,4367.215058,-14656.077652,3447.429741
3056.474831,3552.988522,-14211.954086,2681.334243
3056.475158,2590.720797,-15100.201217,-995.924147
3056.475486,1258.350101,-16580.613101,-4136.915689
3056.475814,-1406.391290,-11843.295072,-4903.011187
3056.476142,-3923.091493,-8290.306550,-5592.497135
3056.476469,-4219.173869,-8142.265362,-4673.182538
3056.476797,-3627.009116,-6809.894666,-3140.991542
3056.477125,-4071.132681,-2664.741391,-536.266849
3056.477453,-3256.906145,-2220.617826,3140.991542
3056.477781,-222.061783,-4885.359217,3524.039291
3056.478108,3330.926739,-7402.059420,3294.210641
3056.478436,4441.235652,-9474.636058,3447.429741
3056.478764,3627.009116,-11251.130318,4290.134789
3056.479092,3182.885551,-14878.139434,2681.334243
3056.479419,4071.132681,-16950.716072,-153.219100
3056.479747,2368.659014,-15322.262999,-2528.115143
3056.480075,222.061783,-13619.789333,-3983.696590
3056.480403,0.000000,-13249.686362,-5056.230287
3056.480730,-814.226536,-11399.171507,-5056.230287
3056.481058,-2146.597232,-8290.306550,-3677.258390
3056.481386,-3478.967927,-6587.832884,-1532.190996
3056.481714,-3034.844362,-3849.070898,536.266849
3056.482042,-2146.597232,-2368.659014,1225.752797
3056.482369,518.144159,-3997.112087,2221.676944
3056.482697,2294.638420,-5847.626942,3753.867940
3056.483025,3923.091493,-10214.842000,4519.963438
3056.483353,5329.482782,-13841.851115,4213.525239
3056.483680,3404.947333,-13989.892304,3524.039291
3056.484008,1776.494261,-14582.057057,689.485948
3056.484336,-222.061783,-15470.304188,-3140.991542
3056.484664,-2368.659014,-14878.139434,-4979.620737
3056.484992,-2442.679609,-10214.842000,-7507.735880
3056.485319,-2220.617826,-9252.574275,-6971.469032
3056.485647,-3108.864956,-10214.842000,-2145.067394
3056.485975,-1702.473667,-7254.018232,612.876398
3056.486303,-962.267725,-3775.050304,1532.190996
3056.486630,-814.226536,-3923.091493,2221.676944
3056.486958,888.247130,-4737.318029,2068.457845
3056.487286,2294.638420,-5995.668130,2681.334243
3056.487614,2368.659014,-7994.224174,4060.306139
3056.487941,1776.494261,-10732.986159,4749.792088
3056.488269,3108.864956,-14285.974681,2911.162892
3056.488597,2960.823768,-15174.221811,689.485948
3056.488924,2294.638420,-15026.180623,-1685.410096
3056.489252,1554.432478,-13767.830521,-3830.477490
3056.489580,-962.267725,-12065.356855,-5056.230287
3056.489907,-2590.720797,-10066.800811,-5592.497135
3056.490235,-3627.009116,-6809.894666,-4213.525239
3056.490563,-4293.194464,-4663.297435,-2221.676944
3056.490890,-3330.926739,-4959.379811,612.876398
3056.491218,-518.144159,-5107.421000,2528.115143
3056.491546,1110.308913,-5847.626942,3830.477490
3056.491873,3923.091493,-7328.038826,3600.648841
3056.492201,4589.276840,-10066.800811,3524.039291
3056.492529,3775.050304,-12953.603985,4366.744339
3056.492857,3256.906145,-13545.768739,2298.286494
3056.493184,3478.967927,-13915.871710,0.000000
3056.493512,1850.514855,-14359.995275,-1608.800546
3056.493840,296.082377,-13619.789333,-2757.943793
3056.494167,-962.267725,-10732.986159,-4213.525239
3056.494495,-3552.988522,-8660.409521,-5439.278036
3056.494823,-5921.647536,-9622.677246,-4749.792088
3056.495150,-6883.915261,-7105.977043,-2757.943793
3056.495478,-4071.132681,-3552.988522,-2145.067394
3056.495806,-296.082377,-4219.173869,383.047749
3056.496133,2960.823768,-6809.894666,3140.991542
3056.496461,5699.585753,-7920.203579,5592.497135
3056.496789,4811.338623,-9622.677246,6894.859482
3056.497117,3552.988522,-11325.150913,5209.449386
3056.497444,1850.514855,-12361.439231,689.485948
3056.497772,1406.391290,-14211.954086,-2528.115143
3056.498100,0.000000,-14359.995275,-4136.915689
3056.498427,0.000000,-14730.098246,-4290.134789
3056.498755,-1258.350101,-12213.398043,-3677.258390
3056.499083,-2664.741391,-11103.089130,-3524.039291
3056.499410,-2368.659014,-9474.636058,-3064.381992
3056.499738,-4145.153275,-5107.421000,-2528.115143
3056.500066,-3923.091493,-3108.864956,-842.705048
3056.500393,-1850.514855,-3552.988522,919.314598
3056.500721,1628.453072,-4367.215058,2757.943793
3056.501049,2886.803174,-6217.729913,5439.278036
3056.501377,3775.050304,-10584.944971,6281.983084
3056.501704,3552.988522,-12805.562797,3983.696590
3056.502032,3849.070898,-14508.036463,0.000000
3056.502360,2590.720797,-16654.633695,-3447.429741
3056.502687,1036.288319,-16210.510130,-4519.963438
3056.503015,74.020594,-12065.356855,-3907.087040
3056.503343,-1110.308913,-9622.677246,-2604.724693
3056.503670,-1850.514855,-10881.027347,-1608.800546
3056.503998,-3330.926739,-8216.285956,-1685.410096
3056.504326,-3182.885551,-4071.132681,0.000000
3056.504653,-2220.617826,-2294.638420,536.266849
3056.504981,-444.123565,-4737.318029,1838.629195
3056.505309,1628.453072,-5921.647536,3370.820191
3056.505636,2664.741391,-5625.565159,3753.867940
3056.505964,2590.720797,-9326.594869,3677.258390
3056.506292,3182.885551,-14434.015869,1378.971896
3056.506620,3849.070898,-14508.036463,0.000000
3056.506947,3182.885551,-14137.933492,-1302.362347
3056.507275,1036.288319,-15026.180623,-2681.334243
3056.507603,592.164754,-14952.160028,-3983.696590
3056.507930,-592.164754,-11547.212695,-4519.963438
3056.508258,-2294.638420,-8438.347739,-3370.820191
3056.508586,-2738.761985,-7476.080014,-2145.067394
3056.508913,-2738.761985,-5921.647536,-1149.143247
3056.509241,-2368.659014,-4219.173869,0.000000
3056.509569,0.000000,-5329.482782,1225.752797
3056.509896,2442.679609,-5995.668130,2834.553343
3056.510224,3627.009116,-8512.368333,4366.744339
3056.510552,3701.029710,-12139.377449,4136.915689
3056.510880,3552.988522,-12361.439231,2374.896044
3056.511207,3775.050304,-12731.542202,-229.828649
3056.511535,2738.761985,-14359.995275,-2145.067394
3056.511863,222.061783,-14285.974681,-2221.676944
3056.512190,-1184.329507,-12213.398043,-2298.286494
3056.512518,-2738.761985,-10288.862594,-3370.820191
3056.512846,-4885.359217,-10140.821405,-4903.011187
3056.513173,-5107.421000,-8142.265362,-4290.134789
3056.513501,-4219.173869,-3552.988522,-3600.648841
3056.513829,-1850.514855,-5625.565159,153.219100
3056.514156,888.247130,-7105.977043,3830.477490
3056.514484,4145.153275,-7328.038826,4826.401637
3056.514812,5773.606348,-8290.306550,5822.325785
3056.515140,5255.462188,-9992.780217,4290.134789
3056.515467,4737.318029,-11695.253884,2681.334243
3056.515795,2368.659014,-13249.686362,229.828649
3056.516123,0.000000,-12435.459826,-1302.362347
3056.516450,-1258.350101,-13249.686362,-3447.429741
3056.516778,-2294.638420,-11177.109724,-4443.353888
3056.517106,-2886.803174,-9474.636058,-4826.401637
3056.517433,-2812.782580,-10436.903782,-4213.525239
3056.517761,-3330.926739,-9030.512492,-3140.991542
3056.518089,-2812.782580,-5181.441594,-1225.752797
3056.518416,-1480.411884,-4441.235652,612.876398
3056.518744,740.205942,-4885.359217,2451.505594
3056.519072,3256.906145,-6291.750507,4596.572988
3056.519399,4071.132681,-7920.203579,4826.401637
3056.519727,4145.153275,-11843.295072,4213.525239
3056.520055,4367.215058,-14285.974681,2374.896044
3056.520383,3330.926739,-14434.015869,-842.705048
3056.520710,370.102971,-14804.118840,-2528.115143
3056.521038,-1258.350101,-13545.768739,-3830.477490
3056.521366,-2146.597232,-11547.212695,-5209.449386
3056.521693,-1924.535449,-10807.006753,-4213.525239
3056.522021,-2072.576638,-9696.697840,-2834.553343
3056.522349,-2368.659014,-7254.018232,-153.219100
3056.522676,-2220.617826,-3552.988522,2298.286494
3056.523004,-1628.453072,-3849.070898,2298.286494
3056.523332,-962.267725,-5921.647536,2298.286494
3056.523659,0.000000,-6735.874072,2987.772442
3056.523987,2368.659014,-7698.141797,2451.505594
3056.524315,5329.482782,-13175.665768,2298.286494
3056.524643,4959.379811,-14952.160028,1915.238745
3056.524970,3552.988522,-15026.180623,536.266849
3056.525298,1332.370696,-13989.892304,-995.924147
3056.525626,-592.164754,-12805.562797,-3983.696590
3056.525953,-2294.638420,-10658.965565,-5286.058936
3056.526281,-3404.947333,-8956.491898,-4673.182538
3056.526609,-3997.112087,-7105.977043,-2451.505594
3056.526936,-2886.803174,-6439.791695,0.000000
3056.527264,-2146.597232,-4367.215058,1302.362347
3056.527592,-518.144159,-5773.606348,2604.724693
3056.527919,296.082377,-7105.977043,3064.381992
3056.528247,2072.576638,-7105.977043,1991.848295
3056.528575,2442.679609,-9844.739029,1225.752797
3056.528902,3330.926739,-12287.418637,1378.971896
3056.529230,3256.906145,-12953.603985,1685.410096
3056.529558,2442.679609,-14211.954086,229.828649
3056.529886,518.144159,-14285.974681,-1455.581446
3056.530213,296.082377,-13545.768739,-4673.182538
3056.530541,-1850.514855,-12361.439231,-5975.544884
3056.530869,-3182.885551,-9252.574275,-5056.230287
3056.531196,-2812.782580,-7772.162391,-2528.115143
3056.531524,-2368.659014,-6365.771101,-919.314598
3056.531852,-2368.659014,-5329.482782,1455.581446
3056.532179,-962.267725,-4737.318029,2987.772442
3056.532507,1332.370696,-5699.585753,2681.334243
3056.532835,3849.070898,-8882.471304,3370.820191
3056.533162,5107.421000,-10066.800811,3600.648841
3056.533490,5033.400406,-12361.439231,3600.648841
3056.533818,3849.070898,-13989.892304,2528.115143
3056.534146,3108.864956,-12805.562797,-536.266849
3056.534473,148.041188,-12435.459826,-3064.381992
3056.534801,-1258.350101,-11843.295072,-4596.572988
3056.535129,-2368.659014,-9548.656652,-4596.572988
3056.535456,-2886.803174,-9474.636058,-4673.182538
3056.535784,-3256.906145,-8290.306550,-2757.943793
3056.536112,-2886.803174,-5477.523971,306.438199
3056.536439,-1776.494261,-3701.029710,1532.190996
3056.536767,518.144159,-5699.585753,2145.067394
3056.537095,2960.823768,-8364.327145,3217.601092
3056.537422,4145.153275,-8290.306550,3677.258390
3056.537750,5181.441594,-9548.656652,2987.772442
3056.538078,5329.482782,-12213.398043,3370.820191
3056.538406,3775.050304,-13915.871710,1302.362347
3056.538733,1776.494261,-12583.501014,-459.657299
3056.539061,-1110.308913,-13101.645173,-3140.991542
3056.539389,-2146.597232,-12435.459826,-6435.202183
3056.539716,-1110.308913,-11769.274478,-7124.688131
3056.540044,-2738.761985,-10436.903782,-4290.134789
3056.540372,-3849.070898,-7105.977043,-766.095498
3056.540699,-3108.864956,-4811.338623,536.266849
3056.541027,-1332.370696,-5107.421000,1225.752797
3056.541355,-296.082377,-6439.791695,1378.971896
3056.541682,2368.659014,-7254.018232,2911.162892
3056.542010,3849.070898,-8512.368333,3983.696590
3056.542338,5625.565159,-11991.336260,4290.134789
3056.542665,7105.977043,-15396.283594,2221.676944
3056.542993,4145.153275,-14063.912898,1302.362347
3056.543321,518.144159,-12139.377449,-1455.581446
3056.543649,-1628.453072,-12361.439231,-4443.353888
3056.543976,-2368.659014,-13471.748144,-6894.859482
3056.544304,-3552.988522,-10732.986159,-6435.202183
3056.544632,-3182.885551,-8660.409521,-2911.162892
3056.544959,-4219.173869,-6513.812290,459.657299
3056.545287,-2590.720797,-4219.173869,2068.457845
3056.545615,-962.267725,-4219.173869,919.314598
3056.545942,370.102971,-6217.729913,1915.238745
3056.546270,1776.494261,-7402.059420,3370.820191
3056.546598,3849.070898,-7920.203579,3524.039291
3056.546925,4071.132681,-11843.295072,3677.258390
3056.547253,3552.988522,-14359.995275,3217.601092
3056.547581,2368.659014,-12435.459826,1302.362347
3056.547909,962.267725,-13471.748144,-2528.115143
3056.548236,-518.144159,-15026.180623,-4136.915689
3056.548564,-1184.329507,-10807.006753,-5439.278036
3056.548892,-2368.659014,-8808.450710,-4290.134789
3056.549219,-4293.194464,-8364.327145,-1685.410096
3056.549547,-4367.215058,-5921.647536,-536.266849
3056.549875,-3108.864956,-2220.617826,0.000000
3056.550202,-2442.679609,-3775.050304,1838.629195
3056.550530,-296.082377,-8068.244768,2681.334243
3056.550858,2590.720797,-10066.800811,2451.505594
3056.551185,4071.132681,-10584.944971,2451.505594
3056.551513,4737.318029,-13841.851115,2068.457845
3056.551841,4959.379811,-14730.098246,1455.581446
3056.552169,2886.803174,-13397.727550,153.219100
3056.552496,370.102971,-12139.377449,-1915.238745
3056.552824,1332.370696,-13323.706956,-4673.182538
3056.553152,740.205942,-11843.295072,-4903.011187
3056.553479,-1628.453072,-9030.512492,-2451.505594
3056.553807,-3256.906145,-6069.688724,-842.705048
3056.554135,-3701.029710,-5181.441594,-919.314598
3056.554462,-4293.194464,-4885.359217,-689.485948
3056.554790,-1850.514855,-5551.544565,-689.485948
3056.555118,1184.329507,-7698.141797,1455.581446
3056.555445,4219.173869,-9844.739029,3677.258390
3056.555773,6143.709319,-12361.439231,5132.839837
3056.556101,5255.462188,-13915.871710,4903.011187
3056.556428,3034.844362,-12361.439231,2757.943793
3056.556756,1184.329507,-11843.295072,-919.314598
3056.557084,-962.267725,-11769.274478,-4673.182538
3056.557412,-2812.782580,-11547.212695,-5592.497135
3056.557739,-2516.700203,-9622.677246,-4519.963438
3056.558067,-2146.597232,-8956.491898,-2757.943793
3056.558395,-1924.535449,-8438.347739,-1149.143247
3056.558722,-1406.391290,-6365.771101,-306.438199
3056.559050,-888.247130,-4219.173869,0.000000
3056.559378,0.000000,-4589.276840,459.657299
3056.559705,2368.659014,-7772.162391,2374.896044
3056.560033,3701.029710,-6883.915261,4443.353888
3056.560361,4293.194464,-9770.718434,5362.668486
3056.560688,4663.297435,-14952.160028,4903.011187
3056.561016,4145.153275,-15766.386565,2757.943793
3056.561344,1480.411884,-13175.665768,-1378.971896
3056.561672,-666.185348,-14211.954086,-5209.449386
3056.561999,-1628.453072,-13767.830521,-7737.564530
3056.562327,-2960.823768,-10140.821405,-6435.202183
3056.562655,-4367.215058,-7698.141797,-3370.820191
3056.562982,-3997.112087,-7105.977043,-1455.581446
3056.563310,-3034.844362,-4959.379811,0.000000
3056.563638,-1258.350101,-3330.926739,383.047749
3056.563965,0.000000,-5625.565159,1762.019645
3056.564293,2220.617826,-9252.574275,3907.087040
3056.564621,4737.318029,-8956.491898,4519.963438
3056.564948,5255.462188,-10510.924376,3907.087040
3056.565276,4441.235652,-14582.057057,3140.991542
3056.565604,3478.967927,-15692.365970,1302.362347
3056.565931,1036.288319,-14137.933492,-2145.067394
3056.566259,-814.226536,-13619.789333,-3753.867940
3056.566587,-1406.391290,-13323.706956,-6281.983084
3056.566915,-3849.070898,-10955.047942,-4826.401637
3056.567242,-5033.400406,-8068.244768,-2298.286494
3056.567570,-4293.194464,-5181.441594,-1838.629195
3056.567898,-3108.864956,-2294.638420,-1608.800546
3056.568225,-1924.535449,-1998.556043,1991.848295
3056.568553,-518.144159,-4737.318029,3830.477490
3056.568881,2146.597232,-7846.182985,5209.449386
3056.569208,4589.276840,-8364.327145,5056.230287
3056.569536,4885.359217,-10436.903782,3600.648841
3056.569864,4145.153275,-14878.139434,2528.115143
3056.570191,3701.029710,-15840.407159,1225.752797
3056.570519,2368.659014,-14285.974681,-1685.410096
3056.570847,1110.308913,-14582.057057,-4519.963438
3056.571175,518.144159,-14063.912898,-5362.668486
3056.571502,-1184.329507,-10140.821405,-4443.353888
3056.571830,-3552.988522,-6439.791695,-2528.115143
3056.572158,-5551.544565,-5181.441594,-2145.067394
3056.572485,-5699.585753,-3256.906145,-1915.238745
3056.572813,-3478.967927,-2886.803174,-1991.848295
3056.573141,-444.123565,-6143.709319,766.095498
3056.573468,2590.720797,-8216.285956,3524.039291
3056.573796,6143.709319,-9252.574275,5132.839837
3056.574124,7772.162391,-13323.706956,4596.572988
3056.574451,6809.894666,-16802.674883,3294.210641
3056.574779,4959.379811,-16876.695478,612.876398
3056.575107,1850.514855,-13767.830521,-1762.019645
3056.575435,-296.082377,-13693.809927,-4136.915689
3056.575762,-2294.638420,-11917.315666,-6128.763984
3056.576090,-3701.029710,-9252.574275,-5209.449386
3056.576418,-5181.441594,-7550.100608,-2757.943793
3056.576745,-3701.029710,-5921.647536,-2451.505594
3056.577073,-2590.720797,-3849.070898,-1838.629195
3056.577401,-1480.411884,-4293.194464,76.609550
3056.577728,444.123565,-4663.297435,3140.991542
3056.578056,2590.720797,-6217.729913,5439.278036
3056.578384,5773.606348,-8808.450710,6128.763984
3056.578711,6513.812290,-12139.377449,5209.449386
3056.579039,4737.318029,-14434.015869,4596.572988
3056.579367,4219.173869,-14878.139434,1378.971896
3056.579694,814.226536,-14656.077652,-1685.410096
3056.580022,-1332.370696,-14137.933492,-4903.011187
3056.580350,-3330.926739,-11399.171507,-6818.249932
3056.580678,-5403.503377,-8586.388927,-4443.353888
3056.581005,-4885.359217,-7105.977043,-3830.477490
3056.581333,-2960.823768,-4663.297435,-2681.334243
3056.581661,-1776.494261,-2664.741391,-995.924147
3056.581988,0.000000,-2738.761985,2068.457845
3056.582316,2368.659014,-5995.668130,3600.648841
3056.582644,3997.112087,-7254.018232,5515.887586
3056.582971,4737.318029,-9400.615463,4290.134789
3056.583299,5255.462188,-13175.665768,2757.943793
3056.583627,4811.338623,-17098.757260,1762.019645
3056.583954,5255.462188,-17246.798449,-612.876398
3056.584282,1332.370696,-15692.365970,-1991.848295
3056.584610,-1332.370696,-15248.242405,-5132.839837
3056.584938,-2294.638420,-13619.789333,-6741.640382
3056.585265,-4589.276840,-10658.965565,-6205.373534
3056.585593,-6439.791695,-6143.709319,-4519.963438
3056.585921,-6069.688724,-3182.885551,-3370.820191
3056.586248,-3256.906145,-2664.741391,-1838.629195
3056.586576,-1036.288319,-4071.132681,1302.362347
3056.586904,1184.329507,-6587.832884,5515.887586
3056.587231,4589.276840,-8882.471304,6358.592633
3056.587559,6809.894666,-11177.109724,4443.353888
3056.587887,5625.565159,-14285.974681,2757.943793
3056.588214,3256.906145,-15100.201217,1838.629195
3056.588542,1184.329507,-14434.015869,842.705048
3056.588870,-444.123565,-14656.077652,-1149.143247
3056.589197,-962.267725,-13693.809927,-4443.353888
3056.589525,-2738.761985,-11547.212695,-4749.792088
3056.589852,-4515.256246,-9104.533087,-2911.162892
3056.590180,-5255.462188,-6809.894666,-3064.381992
3056.590508,-4219.173869,-3849.070898,-3830.477490
3056.590835,-4441.235652,-888.247130,-1455.581446
3056.591163,-3849.070898,-1850.514855,1762.019645
3056.591491,592.164754,-5847.626942,4290.134789
3056.591818,4737.318029,-7031.956449,5975.544884
3056.592146,6587.832884,-9696.697840,5822.325785
3056.592473,5921.647536,-14211.954086,5056.230287
3056.592801,5551.544565,-16728.654289,3140.991542
3056.593129,3997.112087,-16506.592507,612.876398
3056.593456,888.247130,-13767.830521,-2528.115143
3056.593784,-814.226536,-12287.418637,-5898.935335
3056.594111,-2886.803174,-11177.109724,-5439.278036
3056.594439,-4219.173869,-9696.697840,-4596.572988
3056.594767,-4367.215058,-7476.080014,-4443.353888
3056.595094,-4367.215058,-5477.523971,-3983.696590
3056.595422,-3923.091493,-3256.906145,-2145.067394
3056.595749,-1924.535449,-4219.173869,536.266849
3056.596077,1258.350101,-6809.894666,2451.505594
3056.596405,5477.523971,-8068.244768,4290.134789
3056.596732,7105.977043,-10732.986159,4596.572988
3056.597060,6809.894666,-15026.180623,5439.278036
3056.597387,5699.585753,-15914.427753,4290.134789
3056.597715,4589.276840,-14878.139434,689.485948
3056.598043,1036.288319,-14137.933492,-3064.381992
3056.598370,-1628.453072,-13397.727550,-5975.544884
3056.598698,-3701.029710,-11843.295072,-6205.373534
3056.599026,-4145.153275,-9992.780217,-4903.011187
3056.599353,-3923.091493,-7994.224174,-4366.744339
3056.599681,-3330.926739,-5033.400406,-3140.991542
3056.600008,-3182.885551,-1332.370696,-229.828649
3056.600336,-2664.741391,-3034.844362,2681.334243
3056.600664,-74.020594,-5329.482782,4596.572988
3056.600991,4589.276840,-6513.812290,4290.134789
3056.601319,6365.771101,-8956.491898,4443.353888
3056.601646,5551.544565,-12657.521608,5745.716235
3056.601974,5033.400406,-13545.768739,5132.839837
3056.602302,3923.091493,-14285.974681,1608.800546
3056.602629,962.267725,-14804.118840,-2451.505594
3056.602957,-888.247130,-14063.912898,-6435.202183
3056.603284,-4145.153275,-11547.212695,-6358.592633
3056.603612,-5329.482782,-9178.553681,-4903.011187
3056.603940,-5107.421000,-5921.647536,-4290.134789
3056.604267,-4811.338623,-3478.967927,-2834.553343
3056.604595,-4589.276840,-2738.761985,919.314598
3056.604922,-1480.411884,-3552.988522,3140.991542
3056.605250,2812.782580,-5773.606348,4213.525239
3056.605578,5403.503377,-8068.244768,4213.525239
3056.605905,5995.668130,-11103.089130,4060.306139
3056.606233,4959.379811,-14211.954086,3983.696590
3056.606561,4219.173869,-15396.283594,2068.457845
3056.606888,2812.782580,-15766.386565,-383.047749
3056.607216,0.000000,-15174.221811,-2834.553343
3056.607543,-1406.391290,-14285.974681,-5439.278036
3056.607871,-2590.720797,-13323.706956,-6665.030833
3056.608199,-5033.400406,-10881.027347,-5056.230287
3056.608526,-5699.585753,-6365.771101,-4596.572988
3056.608854,-5033.400406,-2960.823768,-2604.724693
3056.609181,-3404.947333,-1554.432478,-536.266849
3056.609509,-444.123565,-3182.885551,1991.848295
3056.609837,2960.823768,-5625.565159,5209.449386
3056.610164,5551.544565,-7031.956449,5056.230287
3056.610492,5329.482782,-11695.253884,4903.011187
3056.610819,4737.318029,-15174.221811,3983.696590
3056.611147,4959.379811,-15026.180623,1378.971896
3056.611475,3182.885551,-14285.974681,-1072.533697
3056.611802,1998.556043,-16136.489536,-2911.162892
3056.612130,-296.082377,-13767.830521,-3983.696590
3056.612457,-2368.659014,-11103.089130,-4136.915689
3056.612785,-4811.338623,-7772.162391,-3524.039291
3056.613113,-6587.832884,-5181.441594,-3677.258390
3056.613440,-6439.791695,-2294.638420,-2834.553343
3056.613768,-5403.503377,-1110.308913,-842.705048
3056.614096,-1332.370696,-3330.926739,1838.629195
3056.614423,3552.988522,-6439.791695,4136.915689
3056.614751,6143.709319,-8660.409521,5515.887586
3056.615078,7254.018232,-12139.377449,6281.983084
3056.615406,7031.956449,-14434.015869,4443.353888
3056.615734,6217.729913,-15544.324782,919.314598
3056.616061,3775.050304,-15544.324782,-1378.971896
3056.616389,1924.535449,-15544.324782,-3447.429741
3056.616716,-1332.370696,-13101.645173,-4673.182538
3056.617044,-3997.112087,-11621.233289,-4903.011187
3056.617372,-4959.379811,-9622.677246,-4519.963438
3056.617699,-5033.400406,-7105.977043,-4213.525239
3056.618027,-5921.647536,-3627.009116,-2987.772442
3056.618354,-4589.276840,-3108.864956,-1378.971896
3056.618682,-666.185348,-4515.256246,1225.752797
3056.619010,3923.091493,-5477.523971,4213.525239
3056.619337,3997.112087,-7254.018232,5515.887586
3056.619665,5625.565159,-11325.150913,5592.497135
3056.619992,5477.523971,-14211.954086,4136.915689
3056.620320,5255.462188,-14878.139434,1302.362347
3056.620648,3108.864956,-15914.427753,-1302.362347
3056.620975,296.082377,-15026.180623,-3447.429741
3056.621303,-2294.638420,-12731.542202,-4903.011187
3056.621631,-4145.153275,-10510.924376,-5056.230287
3056.621958,-4811.338623,-8808.450710,-4519.963438
3056.622286,-5329.482782,-5847.626942,-3677.258390
3056.622613,-4589.276840,-2146.597232,-995.924147
3056.622941,-3775.050304,-3034.844362,1455.581446
3056.623269,740.205942,-5329.482782,3294.210641
3056.623596,4219.173869,-6587.832884,3830.477490
3056.623924,4959.379811,-6957.935855,4903.011187
3056.624251,5477.523971,-10066.800811,5132.839837
3056.624579,5625.565159,-13767.830521,3600.648841
3056.624907,4737.318029,-15914.427753,1455.581446
3056.625234,2072.576638,-15322.262999,-1455.581446
3056.625562,-444.123565,-13249.686362,-4443.353888
3056.625889,-2516.700203,-12657.521608,-5362.668486
3056.626217,-4663.297435,-11399.171507,-4979.620737
3056.626545,-5477.523971,-8734.430116,-4366.744339
3056.626872,-4885.359217,-5477.523971,-3447.429741
3056.627200,-3997.112087,-3701.029710,-1608.800546
3056.627527,-2146.597232,-4515.256246,766.095498
3056.627855,962.267725,-5107.421000,3370.820191
3056.628183,3182.885551,-5699.585753,4673.182538
3056.628510,4663.297435,-10362.883188,4290.134789
3056.628838,4959.379811,-13249.686362,2145.067394
3056.629165,5403.503377,-14508.036463,1149.143247
3056.629493,5403.503377,-16136.489536,-153.219100
3056.629821,3478.967927,-16432.571912,-995.924147
3056.630148,962.267725,-15174.221811,-1532.190996
3056.630476,-1406.391290,-11399.171507,-4826.401637
3056.630804,-2812.782580,-9474.636058,-4826.401637
3056.631131,-4811.338623,-8808.450710,-4290.134789
3056.631459,-5551.544565,-4737.318029,-2987.772442
3056.631786,-5107.421000,-2072.576638,-1072.533697
3056.632114,-3478.967927,-2886.803174,1149.143247
3056.632442,296.082377,-5403.503377,3064.381992
3056.632769,4367.215058,-5551.544565,4673.182538
3056.633097,5551.544565,-8734.430116,5132.839837
3056.633424,7254.018232,-13027.624579,3830.477490
3056.633752,7476.080014,-14804.118840,2221.676944
3056.634080,5551.544565,-14434.015869,459.657299
3056.634407,2294.638420,-14582.057057,-766.095498
3056.634735,370.102971,-13619.789333,-2298.286494
3056.635062,-1924.535449,-11251.130318,-4213.525239
3056.635390,-4959.379811,-8882.471304,-4213.525239
3056.635718,-5477.523971,-7550.100608,-3907.087040
3056.636045,-5995.668130,-5699.585753,-3753.867940
3056.636373,-5921.647536,-4145.153275,-1685.410096
3056.636700,-3627.009116,-4663.297435,153.219100
3056.637028,444.123565,-6143.709319,2298.286494
3056.637356,4885.359217,-6365.771101,4366.744339
3056.637683,6217.729913,-8882.471304,4903.011187
3056.638011,6957.935855,-13101.645173,4826.401637
3056.638339,6217.729913,-15470.304188,2987.772442
3056.638666,4145.153275,-16506.592507,153.219100
3056.638994,1110.308913,-15692.365970,-2911.162892
3056.639321,-370.102971,-13619.789333,-5439.278036
3056.639649,-2812.782580,-12139.377449,-5439.278036
3056.639977,-3701.029710,-10881.027347,-4136.915689
3056.640304,-5403.503377,-8882.471304,-3370.820191
3056.640632,-5403.503377,-5995.668130,-2451.505594
3056.640959,-5995.668130,-3034.844362,-995.924147
3056.641287,-4219.173869,-3849.070898,1072.533697
3056.641615,-370.102971,-5403.503377,3370.820191
3056.641942,3923.091493,-5847.626942,3983.696590
3056.642270,6883.915261,-9400.615463,4903.011187
3056.642597,7179.997637,-13101.645173,4290.134789
3056.642925,7179.997637,-14656.077652,3140.991542
3056.643253,4441.235652,-14656.077652,1072.533697
3056.643580,222.061783,-13175.665768,-2374.896044
3056.643908,-444.123565,-13841.851115,-5822.325785
3056.644235,-3034.844362,-11399.171507,-5745.716235
3056.644563,-4441.235652,-10140.821405,-3447.429741
3056.644891,-5255.462188,-7698.141797,-1455.581446
3056.645218,-4811.338623,-3997.112087,-229.828649
3056.645546,-5181.441594,-2516.700203,383.047749
3056.645874,-2812.782580,-4145.153275,1378.971896
3056.646201,1036.288319,-3108.864956,2298.286494
3056.646529,5551.544565,-6809.894666,2604.724693
3056.646856,6291.750507,-10510.924376,4519.963438
3056.647184,7254.018232,-13693.809927,3983.696590
3056.647512,5773.606348,-14211.954086,1991.848295
3056.647839,2368.659014,-14582.057057,-536.266849
3056.648167,0.000000,-15618.345376,-4290.134789
3056.648494,0.000000,-14285.974681,-6588.421283
3056.648822,-2886.803174,-11843.295072,-5286.058936
3056.649150,-4441.235652,-11029.068536,-2987.772442
3056.649477,-5181.441594,-7846.182985,-1302.362347
3056.649805,-4663.297435,-3701.029710,-766.095498
3056.650132,-4589.276840,-2812.782580,0.000000
3056.650460,-2738.761985,-4145.153275,1915.238745
3056.650788,2220.617826,-6661.853478,2451.505594
3056.651115,6513.812290,-9400.615463,2987.772442
3056.651443,7105.977043,-11473.192101,3983.696590
3056.651770,8290.306550,-14211.954086,3447.429741
3056.652098,6735.874072,-15248.242405,1915.238745
3056.652426,2960.823768,-14508.036463,-689.485948
3056.652753,222.061783,-13323.706956,-3524.039291
3056.653081,-666.185348,-12287.418637,-5745.716235
3056.653409,-3108.864956,-10881.027347,-4979.620737
3056.653736,-5699.585753,-8808.450710,-1915.238745
3056.654064,-5847.626942,-5847.626942,-995.924147
3056.654391,-5551.544565,-2590.720797,-229.828649
3056.654719,-5107.421000,-2886.803174,1149.143247
3056.655047,-1554.432478,-4737.318029,1608.800546
3056.655374,1628.453072,-5329.482782,2451.505594
3056.655702,5921.647536,-8438.347739,3907.087040
3056.656029,7846.182985,-13027.624579,4366.744339
3056.656357,8956.491898,-14508.036463,4136.915689
3056.656685,5625.565159,-13249.686362,3064.381992
3056.657012,666.185348,-13027.624579,0.000000
3056.657340,-1480.411884,-13989.892304,-4903.011187
3056.657667,-2516.700203,-12213.398043,-7660.954980
3056.657995,-5033.400406,-9844.739029,-6128.763984
3056.658323,-6809.894666,-7994.224174,-2987.772442
3056.658650,-6217.729913,-7328.038826,-1915.238745
3056.658978,-4515.256246,-4811.338623,0.000000
3056.659305,-3478.967927,-4145.153275,995.924147
3056.659633,-592.164754,-4885.359217,1378.971896
3056.659961,3478.967927,-7698.141797,1991.848295
3056.660288,5403.503377,-10066.800811,3140.991542
3056.660616,7179.997637,-12065.356855,4826.401637
3056.660944,7254.018232,-13767.830521,3217.601092
3056.661271,4663.297435,-14359.995275,2068.457845
3056.661599,592.164754,-14359.995275,-306.438199
3056.661926,74.020594,-13471.748144,-4673.182538
3056.662254,-1258.350101,-11917.315666,-7354.516781
3056.662582,-3330.926739,-11103.089130,-6818.249932
3056.662909,-5699.585753,-10066.800811,-2298.286494
3056.663237,-5995.668130,-5847.626942,-995.924147
3056.663564,-5107.421000,-1480.411884,-383.047749
3056.663892,-3256.906145,-3034.844362,2451.505594
3056.664220,888.247130,-5847.626942,3524.039291
3056.664547,3552.988522,-7105.977043,4903.011187
3056.664875,7254.018232,-11177.109724,4979.620737
3056.665202,8068.244768,-14285.974681,4519.963438
3056.665530,6883.915261,-13323.706956,2757.943793
3056.665858,4145.153275,-13175.665768,76.609550
3056.666185,1184.329507,-12731.542202,-2221.676944
3056.666513,148.041188,-13027.624579,-4673.182538
3056.666840,-1184.329507,-11399.171507,-5439.278036
3056.667168,-4367.215058,-9844.739029,-4673.182538
3056.667496,-6143.709319,-8734.430116,-1915.238745
3056.667823,-5033.400406,-5625.565159,-1378.971896
3056.668151,-4145.153275,-2664.741391,76.609550
3056.668479,-2664.741391,-4589.276840,1455.581446
3056.668806,2220.617826,-6069.688724,1915.238745
3056.669134,4959.379811,-7846.182985,4366.744339
3056.669461,6365.771101,-11103.089130,6435.202183
3056.669789,7179.997637,-14285.974681,5362.668486
3056.670117,4811.338623,-15396.283594,1915.238745
3056.670444,1850.514855,-15248.242405,-2145.067394
3056.670772,-296.082377,-13693.809927,-5362.668486
3056.671099,-666.185348,-11917.315666,-6435.202183
3056.671427,-2072.576638,-11177.109724,-5822.325785
3056.671755,-3552.988522,-10955.047942,-2987.772442
3056.672082,-4737.318029,-8364.327145,-1455.581446
3056.672410,-3923.091493,-4959.379811,-1378.971896
3056.672737,-3849.070898,-2516.700203,-689.485948
3056.673065,-2960.823768,-3478.967927,1915.238745
3056.673393,0.000000,-5699.585753,3830.477490
3056.673720,2738.761985,-7846.182985,5439.278036
3056.674048,5329.482782,-11621.233289,5515.887586
3056.674375,7920.203579,-15470.304188,3907.087040
3056.674703,7179.997637,-15988.448347,1455.581446
3056.675031,4293.194464,-15174.221811,-306.438199
3056.675358,1036.288319,-13397.727550,-2987.772442
3056.675686,-592.164754,-11473.192101,-5975.544884
3056.676014,-3182.885551,-9622.677246,-6435.202183
3056.676341,-5403.503377,-8290.306550,-3524.039291
3056.676669,-6143.709319,-6291.750507,-1532.190996
3056.676996,-5255.462188,-4737.318029,-306.438199
3056.677324,-4885.359217,-2664.741391,536.266849
3056.677652,-3552.988522,-4589.276840,1225.752797
3056.677979,-962.267725,-6439.791695,2987.772442
3056.678307,3256.906145,-8142.265362,4136.915689
3056.678634,6587.832884,-10510.924376,4136.915689
3056.678962,8290.306550,-14434.015869,4136.915689
3056.679290,7179.997637,-16432.571912,2145.067394
3056.679617,3997.112087,-15618.345376,0.000000
3056.679945,1776.494261,-14137.933492,-3600.648841
3056.680272,518.144159,-12731.542202,-6741.640382
3056.680600,-3034.844362,-11251.130318,-7277.907231
3056.680928,-5847.626942,-9474.636058,-5209.449386
3056.681255,-6291.750507,-6809.894666,-2604.724693
3056.681583,-4811.338623,-4071.132681,-1915.238745
3056.681910,-3923.091493,-2960.823768,383.047749
3056.682238,-3775.050304,-4515.256246,3217.601092
3056.682566,666.185348,-6513.812290,4290.134789
3056.682893,4737.318029,-7179.997637,4519.963438
3056.683221,7105.977043,-11991.336260,3600.648841
3056.683549,8512.368333,-14730.098246,5132.839837
3056.683876,6883.915261,-15248.242405,3600.648841
3056.684204,4589.276840,-14211.954086,229.828649
3056.684531,3034.844362,-14508.036463,-4903.011187
3056.684859,370.102971,-13249.686362,-7507.735880
3056.685187,-4071.132681,-10066.800811,-5669.106685
3056.685514,-6809.894666,-8290.306550,-3370.820191
3056.685842,-6661.853478,-7698.141797,-2451.505594
3056.686169,-5033.400406,-3627.009116,-1991.848295
3056.686497,-3330.926739,-2220.617826,76.609550
3056.686825,-2146.597232,-4145.153275,3753.867940
3056.687152,2072.576638,-6587.832884,5745.716235
3056.687480,6217.729913,-9178.553681,5286.058936
3056.687807,7624.121203,-11695.253884,3907.087040
3056.688135,6809.894666,-14804.118840,4290.134789
3056.688463,4959.379811,-15470.304188,2451.505594
3056.688790,3256.906145,-13323.706956,-689.485948
3056.689118,814.226536,-12657.521608,-5209.449386
3056.689445,-666.185348,-13693.809927,-7124.688131
3056.689773,-4367.215058,-10881.027347,-6128.763984
3056.690101,-5699.585753,-8512.368333,-4060.306139
3056.690428,-4811.338623,-6735.874072,-2757.943793
3056.690756,-3552.988522,-3256.906145,-1149.143247
3056.691084,-4071.132681,-2738.761985,995.924147
3056.691411,-2812.782580,-3923.091493,3753.867940
3056.691739,1406.391290,-6069.688724,4290.134789
3056.692067,4959.379811,-9844.739029,4290.134789
3056.692394,7402.059420,-13693.809927,4443.353888
3056.692722,6809.894666,-15766.386565,3983.696590
3056.693050,4885.359217,-16580.613101,1378.971896
3056.693377,2812.782580,-15840.407159,-1532.190996
3056.693705,1110.308913,-14359.995275,-5056.230287
3056.694033,-1702.473667,-11843.295072,-6665.030833
3056.694360,-4515.256246,-9178.553681,-5515.887586
3056.694688,-5847.626942,-7179.997637,-3753.867940
3056.695016,-5699.585753,-5329.482782,-2528.115143
3056.695343,-5033.400406,-2738.761985,-1302.362347
3056.695671,-4441.235652,-2368.659014,1072.533697
3056.695999,-1924.535449,-4737.318029,3370.820191
3056.696326,2590.720797,-7031.956449,3140.991542
3056.696654,5995.668130,-10066.800811,4443.353888
3056.696982,7698.141797,-13545.768739,5515.887586
3056.697309,7846.182985,-15248.242405,5975.544884
3056.697637,6513.812290,-17542.880825,3524.039291
3056.697965,4737.318029,-15248.242405,-766.095498
3056.698292,888.247130,-13175.665768,-4596.572988
3056.698620,-3627.009116,-10807.006753,-6052.154434
3056.698948,-6513.812290,-8216.285956,-6665.030833
3056.699275,-7994.224174,-6439.791695,-6435.202183
3056.699603,-6883.915261,-3627.009116,-4366.744339
3056.699931,-6291.750507,-2146.597232,-1225.752797
3056.700258,-3404.947333,-4219.173869,1225.752797
3056.700586,1406.391290,-7105.977043,2451.505594
3056.700914,5181.441594,-8438.347739,4290.134789
3056.701241,6883.915261,-10584.944971,5362.668486
3056.701569,7698.141797,-13767.830521,5822.325785
3056.701897,6957.935855,-15988.448347,4826.401637
3056.702224,4885.359217,-15766.386565,2834.553343
3056.702552,2590.720797,-14952.160028,-1149.143247
3056.702880,222.061783,-13323.706956,-5056.230287
3056.703208,-2516.700203,-11695.253884,-7354.516781
3056.703535,-4737.318029,-11177.109724,-6971.469032
3056.703863,-6069.688724,-8586.388927,-4979.620737
3056.704191,-5847.626942,-4515.256246,-3907.087040
3056.704518,-4959.379811,-1258.350101,-2451.505594
3056.704846,-3330.926739,-3404.947333,1838.629195
3056.705174,888.247130,-5255.462188,4596.572988
3056.705501,5107.421000,-7179.997637,6511.811733
3056.705829,6365.771101,-9474.636058,6818.249932
3056.706157,7846.182985,-14434.015869,5822.325785
3056.706484,6439.791695,-14730.098246,5209.449386
3056.706812,3775.050304,-13249.686362,2451.505594
3056.707140,1850.514855,-13767.830521,-2528.115143
3056.707467,518.144159,-14952.160028,-6358.592633
3056.707795,-2738.761985,-12361.439231,-6665.030833
3056.708123,-4367.215058,-10140.821405,-6052.154434
3056.708450,-5329.482782,-7624.121203,-4596.572988
3056.708778,-4737.318029,-4959.379811,-4060.306139
3056.709106,-3849.070898,-2442.679609,-536.266849
3056.709433,-3108.864956,-2220.617826,2068.457845
3056.709761,1850.514855,-3923.091493,3677.258390
3056.710089,5551.544565,-7254.018232,4903.011187
3056.710416,6143.709319,-10881.027347,6741.640382
3056.710744,6365.771101,-13323.706956,6435.202183
3056.711072,5329.482782,-13915.871710,3524.039291
3056.711399,3034.844362,-16432.571912,-459.657299
3056.711727,1554.432478,-15174.221811,-3447.429741
3056.712055,-740.205942,-13619.789333,-6052.154434
3056.712382,-2812.782580,-11473.192101,-7354.516781
3056.712710,-3997.112087,-11547.212695,-6818.249932
3056.713038,-4885.359217,-9548.656652,-5132.839837
3056.713365,-4737.318029,-4441.235652,-3447.429741
3056.713693,-5847.626942,-1406.391290,995.924147
3056.714021,-4145.153275,-4071.132681,2834.553343
3056.714348,-222.061783,-7105.977043,2834.553343
3056.714676,3552.988522,-7772.162391,3983.696590
3056.715004,5255.462188,-10214.842000,3907.087040
3056.715331,7105.977043,-14359.995275,4979.620737
3056.715659,6735.874072,-16432.571912,4673.182538
3056.715987,4515.256246,-13989.892304,1685.410096
3056.716314,2812.782580,-13397.727550,-1685.410096
3056.716642,1406.391290,-13989.892304,-5592.497135
3056.716970,-3034.844362,-10436.903782,-5975.544884
3056.717297,-6365.771101,-8660.409521,-4903.011187
3056.717625,-6365.771101,-5255.462188,-4903.011187
3056.717953,-6291.750507,-3404.947333,-4366.744339
3056.718280,-6069.688724,-2442.679609,-689.485948
3056.718608,-2886.803174,-4441.235652,2911.162892
3056.718936,3701.029710,-6217.729913,3524.039291
3056.719263,7105.977043,-9030.512492,4443.353888
3056.719591,6217.729913,-11399.171507,6818.249932
3056.719919,6883.915261,-12435.459826,7354.516781
3056.720246,6883.915261,-13471.748144,4673.182538
3056.720574,3478.967927,-13027.624579,1302.362347
3056.720902,1776.494261,-14211.954086,-2681.334243
3056.721229,296.082377,-13619.789333,-5822.325785
3056.721557,-2738.761985,-12213.398043,-6588.421283
3056.721885,-5329.482782,-11547.212695,-6128.763984
3056.722212,-5773.606348,-8734.430116,-6358.592633
3056.722540,-6735.874072,-3849.070898,-5286.058936
3056.722868,-5033.400406,-2368.659014,-1608.800546
3056.723195,-1924.535449,-3330.926739,1915.238745
3056.723523,3775.050304,-6439.791695,4749.792088
3056.723851,5551.544565,-8734.430116,7124.688131
3056.724178,5921.647536,-11325.150913,7048.078582
3056.724506,6661.853478,-13175.665768,4979.620737
3056.724834,7031.956449,-14656.077652,1378.971896
3056.725161,4737.318029,-15174.221811,0.000000
3056.725489,2516.700203,-16210.510130,-3064.381992
3056.725817,0.000000,-14730.098246,-5669.106685
3056.726144,-3404.947333,-11843.295072,-6971.469032
3056.726472,-5625.565159,-11103.089130,-6052.154434
3056.726800,-6957.935855,-7328.038826,-4673.182538
3056.727127,-7624.121203,-2294.638420,-3294.210641
3056.727455,-7105.977043,-1628.453072,-612.876398
3056.727783,-2072.576638,-4515.256246,1838.629195
3056.728110,3182.885551,-4737.318029,4290.134789
3056.728438,5329.482782,-6217.729913,7584.345430
3056.728766,6069.688724,-9844.739029,7584.345430
3056.729093,7772.162391,-13915.871710,4979.620737
3056.729421,6883.915261,-14508.036463,2068.457845
3056.729749,4663.297435,-15248.242405,-1149.143247
3056.730076,1702.473667,-14804.118840,-3677.258390
3056.730404,-888.247130,-14063.912898,-4673.182538
3056.730732,-4367.215058,-12065.356855,-4979.620737
3056.731059,-5773.606348,-10288.862594,-5209.449386
3056.731387,-6735.874072,-5107.421000,-4749.792088
3056.731715,-6957.935855,-2516.700203,-3600.648841
3056.732042,-5255.462188,-4293.194464,-306.438199
3056.732370,-1258.350101,-5255.462188,1762.019645
3056.732698,3478.967927,-4293.194464,3677.258390
3056.733025,4515.256246,-7772.162391,6665.030833
3056.733353,5847.626942,-12509.480420,6665.030833
3056.733681,7328.038826,-12879.583391,4136.915689
3056.734008,5181.441594,-14730.098246,1532.190996
3056.734336,4367.215058,-16506.592507,-1991.848295
3056.734664,1554.432478,-15470.304188,-3524.039291
3056.734991,-1480.411884,-13175.665768,-4826.401637
3056.735319,-3330.926739,-10955.047942,-5669.106685
3056.735647,-6291.750507,-9474.636058,-5362.668486
3056.735974,-5921.647536,-6291.750507,-4060.306139
3056.736302,-6587.832884,-3849.070898,-2681.334243
3056.736630,-4811.338623,-4737.318029,-536.266849
3056.736957,296.082377,-6513.812290,1225.752797
3056.737285,3997.112087,-7402.059420,4596.572988
3056.737613,5477.523971,-9104.533087,6588.421283
3056.737940,7105.977043,-10807.006753,6588.421283
3056.738268,8882.471304,-11177.109724,4366.744339
3056.738596,7031.956449,-13175.665768,1991.848295
3056.738923,4145.153275,-13989.892304,689.485948
3056.739251,1258.350101,-12065.356855,-2221.676944
3056.739579,-2442.679609,-9696.697840,-4903.011187
3056.739906,-5107.421000,-9622.677246,-5975.544884
3056.740234,-6661.853478,-9252.574275,-6205.373534
3056.740562,-7994.224174,-5995.668130,-4596.572988
3056.740889,-5625.565159,-4071.132681,-2757.943793
3056.741217,-2738.761985,-3775.050304,-459.657299
3056.741545,296.082377,-5921.647536,3140.991542
3056.741872,3775.050304,-7772.162391,5898.935335
3056.742200,3182.885551,-8438.347739,7048.078582
3056.742528,7179.997637,-12435.459826,4060.306139
3056.742855,8734.430116,-14285.974681,2298.286494
3056.743183,6439.791695,-15618.345376,2374.896044
3056.743511,3997.112087,-14730.098246,536.266849
3056.743838,1332.370696,-14359.995275,-2757.943793
3056.744166,-2294.638420,-13101.645173,-6435.202183
3056.744494,-5847.626942,-10214.842000,-7584.345430
3056.744821,-7698.141797,-9622.677246,-7124.688131
3056.745149,-7624.121203,-6439.791695,-4596.572988
3056.745477,-6809.894666,-3256.906145,-2374.896044
3056.745804,-3108.864956,-4441.235652,1072.533697
3056.746132,592.164754,-5699.585753,3600.648841
3056.746460,4885.359217,-7179.997637,6665.030833
3056.746787,7920.203579,-10362.883188,6588.421283
3056.747115,8882.471304,-12583.501014,5209.449386
3056.747443,8660.409521,-14434.015869,2911.162892
3056.747770,5329.482782,-14285.974681,1302.362347
3056.748098,2368.659014,-14582.057057,-1762.019645
3056.748426,-592.164754,-13101.645173,-2681.334243
3056.748753,-4367.215058,-10732.986159,-4903.011187
3056.749081,-5625.565159,-11473.192101,-6665.030833
3056.749409,-6439.791695,-10214.842000,-5362.668486
3056.749736,-6143.709319,-5625.565159,-4519.963438
3056.750064,-4811.338623,-2516.700203,-995.924147
3056.750392,-4071.132681,-3849.070898,2681.334243
3056.750719,1110.308913,-4959.379811,4060.306139
3056.751047,3775.050304,-4737.318029,6281.983084
3056.751375,6291.750507,-8808.450710,6741.640382
3056.751702,9548.656652,-11695.253884,5515.887586
3056.752030,6365.771101,-13027.624579,3677.258390
3056.752358,3330.926739,-14952.160028,459.657299
3056.752686,148.041188,-14582.057057,-3983.696590
3056.753013,-518.144159,-11917.315666,-6741.640382
3056.753341,-1258.350101,-11843.295072,-7124.688131
3056.753669,-3923.091493,-11917.315666,-4903.011187
3056.753996,-3849.070898,-11325.150913,-2145.067394
3056.754324,-4441.235652,-6069.688724,-1532.190996
3056.754652,-5329.482782,-2886.803174,-689.485948
3056.754979,-5107.421000,-5107.421000,1685.410096
3056.755307,-888.247130,-4663.297435,1915.238745
3056.755635,1702.473667,-5699.585753,3370.820191
3056.755962,5847.626942,-10584.944971,4596.572988
3056.756290,8364.327145,-13323.706956,3907.087040
3056.756618,8290.306550,-15544.324782,3983.696590
3056.756945,5107.421000,-13989.892304,1915.238745
3056.757273,1850.514855,-13027.624579,-3140.991542
3056.757601,0.000000,-12657.521608,-7201.297681
3056.757928,-3404.947333,-9844.739029,-6818.249932
3056.758256,-5625.565159,-9474.636058,-4366.744339
3056.758584,-5847.626942,-8216.285956,-2757.943793
3056.758911,-4589.276840,-6661.853478,-1608.800546
3056.759239,-4737.318029,-5403.503377,995.924147
3056.759567,-3330.926739,-4811.338623,1378.971896
3056.759894,1258.350101,-5625.565159,995.924147
3056.760222,4737.318029,-8956.491898,3524.039291
3056.760550,6069.688724,-11103.089130,5669.106685
3056.760877,8290.306550,-12509.480420,4903.011187
3056.761205,4959.379811,-12435.459826,4903.011187
3056.761533,3997.112087,-12805.562797,1302.362347
3056.761860,3182.885551,-13397.727550,-3064.381992
3056.762188,-1258.350101,-11473.192101,-4366.744339
3056.762516,-3701.029710,-9992.780217,-5362.668486
3056.762843,-6513.812290,-9030.512492,-4519.963438
3056.763171,-7179.997637,-7846.182985,-3753.867940
3056.763499,-6439.791695,-4737.318029,-2911.162892
3056.763826,-5847.626942,-2886.803174,536.266849
3056.764154,-2220.617826,-5181.441594,2298.286494
3056.764482,3034.844362,-8142.265362,3140.991542
3056.764809,5625.565159,-9474.636058,5439.278036
3056.765137,8438.347739,-11547.212695,5822.325785
3056.765465,9844.739029,-12731.542202,4596.572988
3056.765792,6291.750507,-13841.851115,2681.334243
3056.766120,3256.906145,-12287.418637,0.000000
3056.766448,1480.411884,-12953.603985,-5362.668486
3056.766775,-1406.391290,-12583.501014,-6894.859482
3056.767103,-4071.132681,-11695.253884,-6128.763984
3056.767431,-6291.750507,-9844.739029,-4596.572988
3056.767758,-6883.915261,-7476.080014,-3447.429741
3056.768086,-5477.523971,-4885.359217,-2221.676944
3056.768414,-5033.400406,-4293.194464,0.000000
3056.768741,-1554.432478,-6809.894666,1838.629195
3056.769069,3849.070898,-7179.997637,4519.963438
3056.769397,7402.059420,-8586.388927,5745.716235
3056.769724,8068.244768,-11325.150913,6971.469032
3056.770052,6957.935855,-14730.098246,5132.839837
3056.770380,3478.967927,-14582.057057,1455.581446
3056.770707,444.123565,-12435.459826,-2757.943793
3056.771035,-1258.350101,-11621.233289,-6665.030833
3056.771363,-1110.308913,-13693.809927,-7124.688131
3056.771690,-3256.906145,-12065.356855,-3830.477490
3056.772018,-4367.215058,-10140.821405,-2298.286494
3056.772346,-4737.318029,-6143.709319,-1991.848295
3056.772673,-5181.441594,-2812.782580,-1532.190996
3056.773001,-5107.421000,-4515.256246,536.266849
3056.773329,-1110.308913,-4367.215058,3294.210641
3056.773656,2294.638420,-4219.173869,4903.011187
3056.773984,5625.565159,-8512.368333,6588.421283
3056.774312,7772.162391,-13175.665768,6052.154434
3056.774639,8882.471304,-14804.118840,3524.039291
3056.774967,5995.668130,-13027.624579,919.314598
3056.775295,1258.350101,-11621.233289,-1915.238745
3056.775622,222.061783,-12287.418637,-6435.202183
3056.775950,-1184.329507,-11917.315666,-6741.640382
3056.776278,-4885.359217,-9844.739029,-4213.525239
3056.776605,-5847.626942,-8512.368333,-2145.067394
3056.776933,-5921.647536,-5921.647536,-1532.190996
3056.777261,-5403.503377,-4293.194464,-2298.286494
3056.777588,-4293.194464,-4811.338623,-383.047749
3056.777916,-962.267725,-6513.812290,1149.143247
3056.778244,4515.256246,-8956.491898,4136.915689
3056.778571,7105.977043,-11029.068536,5975.544884
3056.778899,7550.100608,-12139.377449,5745.716235
3056.779227,7328.038826,-12731.542202,3294.210641
3056.779554,3775.050304,-13989.892304,1455.581446
3056.779882,1554.432478,-12435.459826,-2145.067394
3056.780210,-1332.370696,-11473.192101,-5362.668486
3056.780537,-2368.659014,-11843.295072,-6435.202183
3056.780865,-4885.359217,-10214.842000,-5132.839837
3056.781193,-5847.626942,-8290.306550,-4366.744339
3056.781520,-3849.070898,-5995.668130,-3217.601092
3056.781848,-4811.338623,-4071.132681,0.000000
3056.782176,-2368.659014,-6365.771101,1915.238745
3056.782503,1406.391290,-8364.327145,3064.381992
3056.782831,4589.276840,-7846.182985,5745.716235
3056.783159,5477.523971,-9252.574275,6435.202183
3056.783486,7328.038826,-13397.727550,6128.763984
3056.783814,5625.565159,-13841.851115,3830.477490
3056.784142,3478.967927,-13323.706956,995.924147
3056.784469,1258.350101,-12583.501014,-2298.286494
3056.784797,-962.267725,-10955.047942,-4826.401637
3056.785125,-3627.009116,-9992.780217,-6052.154434
3056.785452,-6735.874072,-9918.759623,-5439.278036
3056.785780,-7698.141797,-7328.038826,-4596.572988
3056.786108,-6365.771101,-4515.256246,-3983.696590
3056.786435,-3775.050304,-4589.276840,-1149.143247
3056.786763,-1110.308913,-6957.935855,1455.581446
3056.787091,2072.576638,-7031.956449,4366.744339
3056.787418,5551.544565,-7994.224174,6741.640382
3056.787746,8290.306550,-10955.047942,6818.249932
3056.788074,8512.368333,-13619.789333,5669.106685
3056.788401,5921.647536,-13545.768739,3294.210641
3056.788729,2886.803174,-13397.727550,-536.266849
3056.789057,0.000000,-13693.809927,-4443.353888
3056.789384,-1850.514855,-13101.645173,-8273.831378
3056.789712,-5181.441594,-10807.006753,-7814.174080
3056.790039,-6957.935855,-9474.636058,-5362.668486
3056.790367,-6217.729913,-7994.224174,-4213.525239
3056.790695,-4219.173869,-5551.544565,-3370.820191
3056.791022,-3701.029710,-3701.029710,-536.266849
3056.791350,-888.247130,-5551.544565,2298.286494
3056.791678,2960.823768,-6439.791695,4596.572988
3056.792005,7550.100608,-8290.306550,7354.516781
3056.792333,7328.038826,-10510.924376,7890.783629
3056.792660,7846.182985,-13545.768739,5209.449386
3056.792988,5773.606348,-14878.139434,1302.362347
3056.793316,1406.391290,-14804.118840,-2451.505594
3056.793643,-1036.288319,-13323.706956,-4213.525239
3056.793971,-1850.514855,-11177.109724,-6741.640382
3056.794298,-3923.091493,-10955.047942,-6588.421283
3056.794626,-6365.771101,-10510.924376,-4136.915689
3056.794954,-5477.523971,-6661.853478,-3294.210641
3056.795281,-4071.132681,-3849.070898,-2221.676944
3056.795609,-2220.617826,-4293.194464,153.219100
3056.795937,-1036.288319,-4885.359217,3370.820191
3056.796264,3256.906145,-5921.647536,6435.202183
3056.796592,6143.709319,-8142.265362,7890.783629
3056.796919,9326.594869,-12509.480420,7584.345430
3056.797247,9400.615463,-13693.809927,4596.572988
3056.797575,5551.544565,-13841.851115,2221.676944
3056.797902,1406.391290,-16284.530724,-842.705048
3056.798230,-888.247130,-13841.851115,-5209.449386
3056.798558,-3478.967927,-12361.439231,-7967.393179
3056.798885,-6957.935855,-10362.883188,-7354.516781
3056.799213,-7328.038826,-8438.347739,-5669.106685
3056.799540,-5477.523971,-6883.915261,-4596.572988
3056.799868,-3997.112087,-4663.297435,-2374.896044
3056.800196,-3330.926739,-3849.070898,459.657299
3056.800523,74.020594,-5847.626942,2528.115143
3056.800851,5033.400406,-7550.100608,5209.449386
3056.801178,6957.935855,-9474.636058,7584.345430
3056.801506,8068.244768,-11695.253884,7048.078582
3056.801834,8068.244768,-14582.057057,4443.353888
3056.802161,6069.688724,-15692.365970,2221.676944
3056.802489,3330.926739,-14878.139434,-536.266849
3056.802817,370.102971,-13989.892304,-2757.943793
3056.803144,-2146.597232,-11991.336260,-6971.469032
3056.803472,-6291.750507,-9770.718434,-7354.516781
3056.803799,-8364.327145,-7624.121203,-6128.763984
3056.804127,-7550.100608,-3923.091493,-5515.887586
3056.804455,-5847.626942,-1924.535449,-3064.381992
3056.804782,-3923.091493,-4145.153275,459.657299
3056.805110,740.205942,-7031.956449,4596.572988
3056.805438,4811.338623,-8216.285956,6588.421283
3056.805765,8586.388927,-9622.677246,7124.688131
3056.806093,9030.512492,-12361.439231,7354.516781
3056.806420,8142.265362,-13989.892304,5286.058936
3056.806748,5625.565159,-14952.160028,1762.019645
3056.807076,1258.350101,-14582.057057,-1608.800546
3056.807403,-1776.494261,-11029.068536,-4596.572988
3056.807731,-3404.947333,-11621.233289,-7201.297681
3056.808058,-6661.853478,-10362.883188,-5669.106685
3056.808386,-8586.388927,-8438.347739,-4826.401637
3056.808714,-7624.121203,-4589.276840,-5822.325785
3056.809041,-6957.935855,-3552.988522,-4519.963438
3056.809369,-3108.864956,-4959.379811,-1991.848295
3056.809697,1554.432478,-6365.771101,3294.210641
3056.810024,7698.141797,-8956.491898,8503.660028
3056.810352,10510.924376,-12435.459826,9652.803275
3056.810679,9400.615463,-13619.789333,7660.954980
3056.811007,8882.471304,-14656.077652,3830.477490
3056.811335,3478.967927,-14730.098246,383.047749
3056.811662,-1480.411884,-12583.501014,-1608.800546
3056.811990,-3923.091493,-11177.109724,-4903.011187
3056.812317,-4071.132681,-11843.295072,-8120.612279
3056.812645,-6069.688724,-10732.986159,-7354.516781
3056.812973,-7402.059420,-9178.553681,-4903.011187
3056.813300,-4811.338623,-4811.338623,-3447.429741
3056.813628,-3330.926739,-3034.844362,-2451.505594
3056.813956,-2590.720797,-3701.029710,0.000000
3056.814283,0.000000,-4071.132681,3753.867940
3056.814611,6365.771101,-7698.141797,5975.544884
3056.814938,8142.265362,-8808.450710,8197.221829
3056.815266,9696.697840,-13841.851115,7354.516781
3056.815594,7846.182985,-16950.716072,5056.230287
3056.815921,4663.297435,-15692.365970,689.485948
3056.816249,2220.617826,-14804.118840,-3677.258390
3056.816577,-1776.494261,-11769.274478,-6435.202183
3056.816904,-4589.276840,-10658.965565,-7967.393179
3056.817232,-6957.935855,-9474.636058,-5515.887586
3056.817559,-7846.182985,-7772.162391,-4596.572988
3056.817887,-5403.503377,-5107.421000,-4903.011187
3056.818215,-4811.338623,-2812.782580,-2145.067394
3056.818542,-2886.803174,-4515.256246,459.657299
3056.818870,1628.453072,-6883.915261,3447.429741
3056.819197,5625.565159,-7328.038826,5822.325785
3056.819525,8512.368333,-10436.903782,7354.516781
3056.819853,8364.327145,-14582.057057,6358.592633
3056.820180,7105.977043,-16580.613101,4673.182538
3056.820508,5181.441594,-14285.974681,1532.190996
3056.820836,1036.288319,-13027.624579,-1915.238745
3056.821163,-444.123565,-13767.830521,-5286.058936
3056.821491,-3404.947333,-11769.274478,-6818.249932
3056.821818,-7994.224174,-9252.574275,-5592.497135
3056.822146,-7550.100608,-6957.935855,-5056.230287
3056.822474,-6439.791695,-3627.009116,-5132.839837
3056.822801,-6143.709319,-2886.803174,-3140.991542
3056.823129,-4219.173869,-4293.194464,306.438199
3056.823457,888.247130,-6143.709319,3753.867940
3056.823784,7846.182985,-9252.574275,5592.497135
3056.824112,7920.203579,-9474.636058,8503.660028
3056.824439,9844.739029,-14508.036463,7967.393179
3056.824767,8956.491898,-15544.324782,5209.449386
3056.825095,4737.318029,-14211.954086,2451.505594
3056.825422,1850.514855,-13249.686362,-2834.553343
3056.825750,-518.144159,-11621.233289,-7737.564530
3056.826077,-5107.421000,-10288.862594,-7584.345430
3056.826405,-7254.018232,-10955.047942,-5669.106685
3056.826733,-9474.636058,-9252.574275,-5592.497135
3056.827060,-7846.182985,-6143.709319,-6511.811733
3056.827388,-5995.668130,-3627.009116,-4443.353888
3056.827716,-3034.844362,-4663.297435,-536.266849
3056.828043,2590.720797,-6735.874072,4366.744339
3056.828371,8660.409521,-7698.141797,8580.269578
3056.828698,10881.027347,-11177.109724,9193.145976
3056.829026,10584.944971,-14804.118840,7277.907231
3056.829354,7698.141797,-15174.221811,4826.401637
3056.829681,4293.194464,-13471.748144,1072.533697
3056.830009,222.061783,-13101.645173,-2987.772442
3056.830336,-2664.741391,-13545.768739,-6818.249932
3056.830664,-5699.585753,-11177.109724,-7431.126331
3056.830992,-7846.182985,-10807.006753,-6281.983084
3056.831319,-6883.915261,-10140.821405,-5515.887586
3056.831647,-5995.668130,-4811.338623,-4366.744339
3056.831975,-5551.544565,-1776.494261,-1915.238745
3056.832302,-2886.803174,-3627.009116,1455.581446
3056.832630,1924.535449,-4811.338623,4903.011187
3056.832957,5551.544565,-5181.441594,8427.050478
3056.833285,8586.388927,-10362.883188,9193.145976
3056.833613,9252.574275,-11695.253884,8273.831378
3056.833940,7402.059420,-14878.139434,4519.963438
3056.834268,4441.235652,-15396.283594,995.924147
3056.834596,666.185348,-13841.851115,-3753.867940
3056.834923,-666.185348,-12065.356855,-7584.345430
3056.835251,-5625.565159,-11399.171507,-8044.002729
3056.835578,-9178.553681,-10658.965565,-5592.497135
3056.835906,-7476.080014,-7402.059420,-4903.011187
3056.836234,-5699.585753,-2738.761985,-3753.867940
3056.836561,-4959.379811,-2960.823768,-229.828649
3056.836889,-1110.308913,-4515.256246,2604.724693
3056.837216,2368.659014,-4071.132681,4903.011187
3056.837544,6365.771101,-8586.388927,5515.887586
3056.837872,9030.512492,-11917.315666,6205.373534
3056.838199,9252.574275,-14656.077652,5056.230287
3056.838527,9252.574275,-16506.592507,4136.915689
3056.838855,5847.626942,-15766.386565,1378.971896
3056.839182,2886.803174,-16062.468941,-3447.429741
3056.839510,-296.082377,-14137.933492,-6741.640382
3056.839837,-5403.503377,-12139.377449,-7354.516781
3056.840165,-9992.780217,-8660.409521,-6281.983084
3056.840493,-10955.047942,-4811.338623,-6052.154434
3056.840820,-8290.306550,-2738.761985,-4979.620737
3056.841148,-6217.729913,-2960.823768,-1915.238745
3056.841476,-2146.597232,-5773.606348,2145.067394
3056.841803,4219.173869,-8438.347739,4443.353888
3056.842131,7105.977043,-7550.100608,7431.126331
3056.842458,9474.636058,-10288.862594,6205.373534
3056.842786,8956.491898,-12213.398043,5132.839837
3056.843114,6809.894666,-14582.057057,3753.867940
3056.843441,4663.297435,-14285.974681,1991.848295
3056.843769,1850.514855,-12805.562797,-2221.676944
3056.844096,-1258.350101,-12953.603985,-6128.763984
3056.844424,-5773.606348,-12065.356855,-5975.544884
3056.844752,-9474.636058,-8290.306550,-4749.792088
3056.845079,-8734.430116,-4959.379811,-5745.716235
3056.845407,-8586.388927,-2146.597232,-5745.716235
3056.845735,-6069.688724,-3256.906145,-2298.286494
3056.846062,-1702.473667,-5255.462188,2221.676944
3056.846390,4737.318029,-5403.503377,5515.887586
3056.846717,8808.450710,-9548.656652,6971.469032
3056.847045,10288.862594,-12657.521608,8273.831378
3056.847373,10140.821405,-13027.624579,6128.763984
3056.847700,8068.244768,-14211.954086,3677.258390
3056.848028,5255.462188,-15174.221811,0.000000
3056.848355,1702.473667,-14730.098246,-3830.477490
3056.848683,-1406.391290,-13101.645173,-6358.592633
3056.849011,-6439.791695,-11621.233289,-5745.716235
3056.849338,-7920.203579,-10881.027347,-5975.544884
3056.849666,-8364.327145,-6513.812290,-6435.202183
3056.849994,-8216.285956,-3849.070898,-4443.353888
3056.850321,-6291.750507,-4219.173869,-1072.533697
3056.850649,-518.144159,-6365.771101,1225.752797
3056.850976,4219.173869,-6883.915261,4749.792088
3056.851304,7624.121203,-8364.327145,7201.297681
3056.851632,9622.677246,-10955.047942,7048.078582
3056.851959,9918.759623,-13619.789333,5515.887586
3056.852287,7402.059420,-15544.324782,3907.087040
3056.852615,3256.906145,-14582.057057,459.657299
3056.852942,740.205942,-13175.665768,-4903.011187
3056.853270,-3108.864956,-13619.789333,-7431.126331
3056.853597,-7105.977043,-11621.233289,-5822.325785
3056.853925,-8956.491898,-7698.141797,-4826.401637
3056.854253,-9326.594869,-4219.173869,-4749.792088
3056.854580,-7550.100608,-3701.029710,-3064.381992
3056.854908,-4367.215058,-4737.318029,-612.876398
3056.855235,296.082377,-4367.215058,2528.115143
3056.855563,5403.503377,-5551.544565,7124.688131
3056.855891,6883.915261,-8956.491898,7890.783629
3056.856218,9696.697840,-12435.459826,6894.859482
3056.856546,9548.656652,-12361.439231,3830.477490
3056.856874,6735.874072,-13693.809927,1455.581446
3056.857201,4219.173869,-16580.613101,-1608.800546
3056.857529,1332.370696,-15248.242405,-4136.915689
3056.857856,-2664.741391,-12065.356855,-6052.154434
3056.858184,-6365.771101,-10584.944971,-4979.620737
3056.858512,-8882.471304,-8586.388927,-4979.620737
3056.858839,-7254.018232,-5477.523971,-5439.278036
3056.859167,-6957.935855,-3330.926739,-3447.429741
3056.859495,-4293.194464,-4959.379811,-766.095498
3056.859822,1702.473667,-6143.709319,1762.019645
3056.860150,5773.606348,-7772.162391,5209.449386
3056.860477,8142.265362,-10584.944971,7354.516781
3056.860805,11177.109724,-13249.686362,5362.668486
3056.861133,9400.615463,-13545.768739,3370.820191
3056.861460,5699.585753,-15026.180623,1455.581446
3056.861788,2590.720797,-13175.665768,-1532.190996
3056.862115,0.000000,-11399.171507,-4903.011187
3056.862443,-4219.173869,-11251.130318,-6128.763984
3056.862771,-7402.059420,-11917.315666,-3753.867940
3056.863098,-9474.636058,-8586.388927,-4136.915689
3056.863426,-7698.141797,-5625.565159,-5056.230287
3056.863754,-7920.203579,-3849.070898,-2604.724693
3056.864081,-4515.256246,-4293.194464,-536.266849
3056.864409,296.082377,-5255.462188,2757.943793
3056.864736,4811.338623,-7254.018232,6205.373534
3056.865064,8882.471304,-9400.615463,6894.859482
3056.865392,11325.150913,-10732.986159,5745.716235
3056.865719,9696.697840,-12805.562797,5439.278036
3056.866047,5551.544565,-14285.974681,3753.867940
3056.866375,962.267725,-12731.542202,-995.924147
3056.866702,-1110.308913,-11325.150913,-5898.935335
3056.867030,-4589.276840,-11325.150913,-7277.907231
3056.867357,-8142.265362,-11843.295072,-3830.477490
3056.867685,-7772.162391,-9326.594869,-3983.696590
3056.868013,-7179.997637,-5329.482782,-3600.648841
3056.868340,-6587.832884,-4367.215058,-2221.676944
3056.868668,-4515.256246,-5477.523971,0.000000
3056.868995,-1110.308913,-5995.668130,3370.820191
3056.869323,3997.112087,-5329.482782,6128.763984
3056.869651,8290.306550,-9548.656652,5209.449386
3056.869978,10288.862594,-12953.603985,4060.306139
3056.870306,9696.697840,-14730.098246,3753.867940
3056.870634,6513.812290,-13915.871710,1991.848295
3056.870961,3256.906145,-13545.768739,-2987.772442
3056.871289,148.041188,-14656.077652,-7048.078582
3056.871616,-3849.070898,-12583.501014,-7431.126331
3056.871944,-9104.533087,-9548.656652,-5515.887586
3056.872272,-10066.800811,-8364.327145,-4596.572988
3056.872599,-7179.997637,-7254.018232,-4060.306139
3056.872927,-6143.709319,-4515.256246,-689.485948
3056.873254,-3478.967927,-5107.421000,2221.676944
3056.873582,3182.885551,-5995.668130,3217.601092
3056.873910,7031.956449,-8290.306550,5132.839837
3056.874237,10140.821405,-10955.047942,5362.668486
3056.874565,10510.924376,-12287.418637,4596.572988
3056.874893,8808.450710,-14063.912898,3064.381992
3056.875220,4367.215058,-14582.057057,1149.143247
3056.875548,1036.288319,-14211.954086,-2911.162892
3056.875875,-814.226536,-13397.727550,-5975.544884
3056.876203,-4515.256246,-11547.212695,-5515.887586
3056.876531,-7105.977043,-10288.862594,-4290.134789
3056.876858,-7920.203579,-5699.585753,-2298.286494
3056.877186,-6439.791695,-3404.947333,-2451.505594
3056.877514,-4737.318029,-3923.091493,153.219100
3056.877841,-1776.494261,-3923.091493,2987.772442
3056.878169,3330.926739,-3849.070898,4673.182538
3056.878496,7254.018232,-7772.162391,6281.983084
3056.878824,9622.677246,-11547.212695,5669.106685
3056.879152,10584.944971,-13545.768739,3370.820191
3056.879479,6883.915261,-14137.933492,2145.067394
3056.879807,2664.741391,-13397.727550,-1608.800546
3056.880134,370.102971,-13175.665768,-5132.839837
3056.880462,-2220.617826,-12509.480420,-7048.078582
3056.880790,-6143.709319,-11917.315666,-5515.887586
3056.881117,-8586.388927,-9844.739029,-4519.963438
3056.881445,-6735.874072,-7402.059420,-3217.601092
3056.881773,-6513.812290,-4737.318029,-1991.848295
3056.882100,-4663.297435,-4663.297435,0.000000
3056.882428,-444.123565,-5995.668130,1072.533697
3056.882755,3256.906145,-7994.224174,3753.867940
3056.883083,7328.038826,-10362.883188,5515.887586
3056.883411,10510.924376,-12287.418637,4903.011187
3056.883738,9844.739029,-13545.768739,3677.258390
3056.884066,6883.915261,-14952.160028,3064.381992
3056.884394,1480.411884,-14434.015869,153.219100
3056.884721,-518.144159,-14137.933492,-4826.401637
3056.885049,-3478.967927,-11843.295072,-7354.516781
3056.885376,-7179.997637,-10510.924376,-7124.688131
3056.885704,-9474.636058,-9326.594869,-4136.915689
3056.886032,-8216.285956,-7105.977043,-2528.115143
3056.886359,-6069.688724,-4737.318029,-1532.190996
3056.886687,-4589.276840,-4515.256246,229.828649
3056.887014,-296.082377,-4811.338623,2221.676944
3056.887342,4737.318029,-7031.956449,4596.572988
3056.887670,8808.450710,-8586.388927,6665.030833
3056.887997,9326.594869,-11325.150913,4903.011187
3056.888325,10288.862594,-12509.480420,4060.306139
3056.888653,5699.585753,-12287.418637,2987.772442
3056.888980,1480.411884,-12361.439231,-459.657299
3056.889308,-444.123565,-12509.480420,-5209.449386
3056.889635,-3923.091493,-11325.150913,-7431.126331
3056.889963,-8808.450710,-9474.636058,-5669.106685
3056.890291,-10658.965565,-7920.203579,-4519.963438
3056.890618,-8808.450710,-5255.462188,-4749.792088
3056.890946,-6513.812290,-4589.276840,-2221.676944
3056.891273,-3330.926739,-5329.482782,1685.410096
3056.891601,1924.535449,-6143.709319,4136.915689
3056.891929,6143.709319,-8290.306550,6052.154434
3056.892256,10584.944971,-11917.315666,5669.106685
3056.892584,11325.150913,-10955.047942,4290.134789
3056.892911,9252.574275,-12435.459826,4213.525239
3056.893239,5995.668130,-12213.398043,2068.457845
3056.893567,2442.679609,-14137.933492,-1685.410096
3056.893894,-740.205942,-13249.686362,-5515.887586
3056.894222,-3404.947333,-12953.603985,-8273.831378
3056.894549,-7476.080014,-12657.521608,-6818.249932
3056.894877,-8438.347739,-9548.656652,-5209.449386
3056.895205,-6143.709319,-7179.997637,-2911.162892
3056.895532,-3627.009116,-4885.359217,-306.438199
3056.895860,-2368.659014,-4219.173869,2145.067394
3056.896187,3478.967927,-5699.585753,4596.572988
3056.896515,6143.709319,-8882.471304,6511.811733
3056.896843,9252.574275,-11843.295072,7890.783629
3056.897170,9474.636058,-11621.233289,5286.058936
3056.897498,6809.894666,-11325.150913,3140.991542
3056.897825,3849.070898,-14359.995275,-766.095498
3056.898153,518.144159,-14063.912898,-2757.943793
3056.898481,-666.185348,-12287.418637,-5745.716235
3056.898808,-4441.235652,-10955.047942,-6665.030833
3056.899136,-7920.203579,-10955.047942,-5056.230287
3056.899463,-8512.368333,-9030.512492,-3983.696590
3056.899791,-7402.059420,-4515.256246,-2987.772442
3056.900119,-6143.709319,-1776.494261,76.609550
3056.900446,-3330.926739,-3997.112087,2221.676944
3056.900774,1924.535449,-6661.853478,4749.792088
3056.901101,5403.503377,-8512.368333,7277.907231
3056.901429,8512.368333,-10436.903782,6818.249932
3056.901757,10436.903782,-12953.603985,4749.792088
3056.902084,6661.853478,-14434.015869,2911.162892
3056.902412,3182.885551,-13545.768739,153.219100
3056.902739,1406.391290,-13027.624579,-3600.648841
3056.903067,0.000000,-13101.645173,-7201.297681
3056.903395,-4737.318029,-12139.377449,-7048.078582
3056.903722,-8956.491898,-9992.780217,-4519.963438
3056.904050,-8512.368333,-7846.182985,-4060.306139
3056.904377,-6217.729913,-6143.709319,-3830.477490
3056.904705,-5255.462188,-3627.009116,-1225.752797
3056.905033,-3552.988522,-4959.379811,1838.629195
3056.905360,2072.576638,-6217.729913,3983.696590
3056.905688,9030.512492,-10658.965565,5822.325785
3056.906015,10658.965565,-12435.459826,7201.297681
3056.906343,11621.233289,-13693.809927,5745.716235
3056.906671,7328.038826,-14804.118840,3447.429741
3056.906998,4663.297435,-14952.160028,612.876398
3056.907326,666.185348,-13101.645173,-2987.772442
3056.907653,-2960.823768,-11325.150913,-7354.516781
