#time,accel_x,accel_y,accel_z
2909.497973,518.144159,-9992.780217,0.000000
2909.498301,666.185348,-9918.759623,76.609550
2909.498628,518.144159,-9474.636058,229.828649
2909.498955,296.082377,-9178.553681,0.000000
2909.499283,0.000000,-8512.368333,1072.533697
2909.499610,-296.082377,-9326.594869,-153.219100
2909.499938,-222.061783,-9252.574275,0.000000
2909.500265,-222.061783,-9474.636058,0.000000
2909.500593,-296.082377,-9474.636058,-229.828649
2909.500920,0.000000,-9474.636058,-306.438199
2909.501247,814.226536,-10288.862594,153.219100
2909.501575,814.226536,-9696.697840,383.047749
2909.501902,666.185348,-9252.574275,459.657299
2909.502230,592.164754,-9252.574275,153.219100
2909.502557,518.144159,-9030.512492,459.657299
2909.502884,370.102971,-9030.512492,306.438199
2909.503212,74.020594,-8660.409521,0.000000
2909.503539,148.041188,-9474.636058,-229.828649
2909.503867,-592.164754,-9252.574275,-306.438199
2909.504194,74.020594,-10140.821405,-842.705048
2909.504521,370.102971,-10362.883188,-766.095498
2909.504849,518.144159,-10436.903782,-612.876398
2909.505176,814.226536,-10584.944971,-306.438199
2909.505504,962.267725,-10436.903782,0.000000
2909.505831,888.247130,-10288.862594,-995.924147
2909.506159,666.185348,-9992.780217,383.047749
2909.506486,222.061783,-9770.718434,0.000000
2909.506813,222.061783,-9696.697840,0.000000
2909.507141,0.000000,-9770.718434,-459.657299
2909.507468,0.000000,-9770.718434,-536.266849
2909.507796,0.000000,-9548.656652,-995.924147
2909.508123,0.000000,-9696.697840,-766.095498
2909.508450,222.061783,-9844.739029,-383.047749
2909.508778,666.185348,-10066.800811,-229.828649
2909.509105,370.102971,-9696.697840,76.609550
2909.509433,740.205942,-9474.636058,306.438199
2909.509760,444.123565,-9326.594869,153.219100
2909.510088,296.082377,-9030.512492,383.047749
2909.510415,148.041188,-9104.533087,229.828649
2909.510742,0.000000,-9178.553681,0.000000
2909.511070,0.000000,-9474.636058,-229.828649
2909.511397,-222.061783,-9400.615463,-153.219100
2909.511725,-148.041188,-9400.615463,-153.219100
2909.512052,0.000000,-9622.677246,0.000000
2909.512379,666.185348,-9770.718434,0.000000
2909.512707,592.164754,-9770.718434,306.438199
2909.513034,740.205942,-9622.677246,306.438199
2909.513362,518.144159,-9622.677246,306.438199
2909.513689,592.164754,-9326.594869,229.828649
2909.514017,296.082377,-9474.636058,0.000000
2909.514344,0.000000,-9326.594869,-306.438199
2909.514671,0.000000,-9252.574275,-689.485948
2909.514999,148.041188,-9696.697840,-612.876398
2909.515326,222.061783,-9844.739029,-995.924147
2909.515654,148.041188,-10140.821405,-919.314598
2909.515981,592.164754,-10658.965565,-689.485948
2909.516308,740.205942,-10584.944971,-383.047749
2909.516636,592.164754,-10584.944971,-229.828649
2909.516963,814.226536,-10288.862594,0.000000
2909.517291,666.185348,-9474.636058,76.609550
2909.517618,1110.308913,-9252.574275,536.266849
2909.517946,1480.411884,-9622.677246,0.000000
2909.518273,2368.659014,-9104.533087,0.000000
2909.518600,3034.844362,-8808.450710,-536.266849
2909.518928,3849.070898,-9252.574275,-612.876398
2909.519255,5033.400406,-10288.862594,-536.266849
2909.519583,5847.626942,-9696.697840,0.000000
2909.519910,7179.997637,-9400.615463,0.000000
2909.520237,7624.121203,-9844.739029,383.047749
2909.520565,8512.368333,-10140.821405,459.657299
2909.520892,9178.553681,-10140.821405,689.485948
2909.521220,8142.265362,-9696.697840,1072.533697
2909.521547,7920.203579,-8586.388927,1072.533697
2909.521874,8068.244768,-8216.285956,0.000000
2909.522202,7994.224174,-8068.244768,0.000000
2909.522529,9474.636058,-8290.306550,153.219100
2909.522857,10436.903782,-8808.450710,-76.609550
2909.523184,11473.192101,-9548.656652,153.219100
2909.523512,11695.253884,-10066.800811,459.657299
2909.523839,10584.944971,-10066.800811,842.705048
2909.524166,10436.903782,-9548.656652,76.609550
2909.524494,10510.924376,-9178.553681,-383.047749
2909.524821,12953.603985,-9992.780217,0.000000
2909.525149,13619.789333,-10658.965565,306.438199
2909.525476,14285.974681,-10288.862594,842.705048
2909.525803,14211.954086,-8956.491898,536.266849
2909.526131,13767.830521,-8882.471304,-383.047749
2909.526458,12509.480420,-9030.512492,0.000000
2909.526786,12287.418637,-9030.512492,612.876398
2909.527113,12583.501014,-10584.944971,-689.485948
2909.527441,13619.789333,-11325.150913,0.000000
2909.527768,14211.954086,-10288.862594,689.485948
2909.528095,13027.624579,-9696.697840,1608.800546
2909.528423,11991.336260,-9326.594869,2298.286494
2909.528750,11547.212695,-9474.636058,306.438199
2909.529078,10436.903782,-9918.759623,-383.047749
2909.529405,9178.553681,-10881.027347,-612.876398
2909.529732,8364.327145,-10140.821405,-383.047749
2909.530060,7105.977043,-8660.409521,229.828649
2909.530387,6143.709319,-8586.388927,459.657299
2909.530715,6735.874072,-9474.636058,0.000000
2909.531042,7402.059420,-10288.862594,0.000000
2909.531370,7105.977043,-11473.192101,0.000000
2909.531697,5921.647536,-10881.027347,1302.362347
2909.532024,3997.112087,-9030.512492,1072.533697
2909.532352,2368.659014,-7179.997637,842.705048
2909.532679,1406.391290,-6957.935855,306.438199
2909.533007,2442.679609,-7846.182985,-383.047749
2909.533334,2812.782580,-9918.759623,0.000000
2909.533661,2886.803174,-10214.842000,766.095498
2909.533989,2368.659014,-8586.388927,-459.657299
2909.534316,1258.350101,-8882.471304,-995.924147
2909.534644,296.082377,-10214.842000,-995.924147
2909.534971,1406.391290,-11547.212695,-1991.848295
2909.535298,2368.659014,-11769.274478,-1838.629195
2909.535626,3923.091493,-10362.883188,-689.485948
2909.535953,4737.318029,-8882.471304,995.924147
2909.536281,2516.700203,-9104.533087,2451.505594
2909.536608,-1332.370696,-10362.883188,2911.162892
2909.536936,-2886.803174,-9474.636058,459.657299
2909.537263,-1850.514855,-8364.327145,-3447.429741
2909.537590,-518.144159,-8216.285956,-4290.134789
2909.537918,296.082377,-9770.718434,-2757.943793
2909.538245,-444.123565,-9770.718434,689.485948
2909.538573,-666.185348,-9326.594869,1302.362347
2909.538900,1110.308913,-9992.780217,-919.314598
2909.539227,814.226536,-10881.027347,-2068.457845
2909.539555,-666.185348,-10362.883188,-1225.752797
2909.539882,0.000000,-9252.574275,76.609550
2909.540210,1036.288319,-9622.677246,-842.705048
2909.540537,666.185348,-11177.109724,229.828649
2909.540865,74.020594,-10807.006753,766.095498
2909.541192,-296.082377,-8808.450710,0.000000
2909.541519,-444.123565,-8512.368333,-919.314598
2909.541847,814.226536,-9474.636058,-1838.629195
2909.542174,1184.329507,-8882.471304,-1072.533697
2909.542502,666.185348,-8364.327145,842.705048
2909.542829,1702.473667,-8438.347739,1302.362347
2909.543156,3404.947333,-8512.368333,919.314598
2909.543484,5329.482782,-10732.986159,766.095498
2909.543811,4811.338623,-10732.986159,766.095498
2909.544139,4441.235652,-9400.615463,0.000000
2909.544466,2664.741391,-9844.739029,0.000000
2909.544794,2442.679609,-11177.109724,0.000000
2909.545121,2294.638420,-11029.068536,229.828649
2909.545448,296.082377,-9622.677246,-612.876398
2909.545776,-444.123565,-9178.553681,-1455.581446
2909.546103,666.185348,-9252.574275,-1991.848295
2909.546431,1776.494261,-10288.862594,-612.876398
2909.546758,1110.308913,-10510.924376,1838.629195
2909.547085,444.123565,-8142.265362,1685.410096
2909.547413,1406.391290,-7846.182985,0.000000
2909.547740,1406.391290,-10436.903782,-689.485948
2909.548068,1332.370696,-11547.212695,-919.314598
2909.548395,518.144159,-9622.677246,-1302.362347
2909.548722,0.000000,-9992.780217,-1225.752797
2909.549050,518.144159,-12435.459826,-459.657299
2909.549377,1258.350101,-12805.562797,459.657299
2909.549705,296.082377,-10807.006753,-229.828649
2909.550032,-740.205942,-9474.636058,-459.657299
2909.550360,-1036.288319,-9844.739029,-1225.752797
2909.550687,-1184.329507,-10214.842000,0.000000
2909.551014,-1332.370696,-7772.162391,1685.410096
2909.551342,-1628.453072,-3775.050304,1378.971896
2909.551669,-1924.535449,-5403.503377,766.095498
2909.551997,-1628.453072,-9992.780217,1762.019645
2909.552324,-1332.370696,-10658.965565,1378.971896
2909.552651,-1110.308913,-8364.327145,-536.266849
2909.552979,-1480.411884,-9326.594869,-1685.410096
2909.553306,-962.267725,-12657.521608,-1302.362347
2909.553634,-222.061783,-13397.727550,383.047749
2909.553961,-666.185348,-10066.800811,383.047749
2909.554289,-518.144159,-8808.450710,-689.485948
2909.554616,-1332.370696,-9474.636058,-306.438199
2909.554943,-1480.411884,-10066.800811,689.485948
2909.555271,-1702.473667,-7476.080014,1532.190996
2909.555598,-1628.453072,-5847.626942,229.828649
2909.555926,-1628.453072,-7105.977043,-689.485948
2909.556253,-1998.556043,-8734.430116,459.657299
2909.556580,-888.247130,-8882.471304,306.438199
2909.556908,222.061783,-7476.080014,-689.485948
2909.557235,814.226536,-9696.697840,-1838.629195
2909.557563,1110.308913,-13619.789333,-1149.143247
2909.557890,1258.350101,-14063.912898,-383.047749
2909.558218,1332.370696,-11399.171507,-919.314598
2909.558545,518.144159,-10436.903782,-1532.190996
2909.558872,592.164754,-11103.089130,-2451.505594
2909.559200,740.205942,-11325.150913,-2068.457845
2909.559527,888.247130,-9696.697840,-383.047749
2909.559855,1184.329507,-8216.285956,383.047749
2909.560182,1480.411884,-8808.450710,76.609550
2909.560509,1480.411884,-10214.842000,689.485948
2909.560837,1554.432478,-9400.615463,229.828649
2909.561164,2220.617826,-7624.121203,306.438199
2909.561492,2072.576638,-8586.388927,76.609550
2909.561819,2072.576638,-11843.295072,229.828649
2909.562147,1850.514855,-11695.253884,919.314598
2909.562474,1184.329507,-8438.347739,536.266849
2909.562801,296.082377,-8216.285956,-536.266849
2909.563129,148.041188,-11029.068536,-1225.752797
2909.563456,74.020594,-11621.233289,-459.657299
2909.563784,0.000000,-8808.450710,-536.266849
2909.564111,814.226536,-8512.368333,-1072.533697
2909.564438,2294.638420,-10066.800811,-612.876398
2909.564766,2738.761985,-10288.862594,1302.362347
2909.565093,2590.720797,-8956.491898,2757.943793
2909.565421,2220.617826,-7846.182985,1072.533697
2909.565748,1628.453072,-9178.553681,459.657299
2909.566075,1406.391290,-9770.718434,536.266849
2909.566403,222.061783,-8734.430116,842.705048
2909.566730,-518.144159,-7698.141797,229.828649
2909.567058,-666.185348,-9400.615463,-306.438199
2909.567385,-1480.411884,-12361.439231,0.000000
2909.567713,-1480.411884,-11843.295072,-536.266849
2909.568040,-1184.329507,-9622.677246,-2757.943793
2909.568368,-2146.597232,-7920.203579,-1838.629195
2909.568695,-2072.576638,-9548.656652,-1149.143247
2909.569023,-1184.329507,-11029.068536,153.219100
2909.569350,0.000000,-9474.636058,383.047749
2909.569678,370.102971,-7550.100608,306.438199
2909.570005,1184.329507,-9178.553681,-459.657299
2909.570333,1184.329507,-11473.192101,-306.438199
2909.570660,370.102971,-11473.192101,153.219100
2909.570988,-592.164754,-9474.636058,-689.485948
2909.571315,-1332.370696,-10140.821405,-1762.019645
2909.571642,-814.226536,-12509.480420,-1762.019645
2909.571970,-148.041188,-11029.068536,-1072.533697
2909.572297,-444.123565,-8438.347739,0.000000
2909.572625,-518.144159,-8142.265362,842.705048
2909.572952,-1110.308913,-10140.821405,0.000000
2909.573280,-1036.288319,-10658.965565,536.266849
2909.573607,-1258.350101,-7846.182985,0.000000
2909.573935,-1554.432478,-5477.523971,-842.705048
2909.574262,-1480.411884,-7402.059420,-995.924147
2909.574590,-1184.329507,-10807.006753,-536.266849
2909.574917,-888.247130,-9918.759623,536.266849
2909.575245,444.123565,-9474.636058,689.485948
2909.575572,962.267725,-10362.883188,-995.924147
2909.575900,814.226536,-12065.356855,-1838.629195
2909.576227,-148.041188,-11399.171507,-1762.019645
2909.576555,-1036.288319,-9770.718434,-1149.143247
2909.576882,-222.061783,-8956.491898,-766.095498
2909.577209,2072.576638,-9474.636058,0.000000
2909.577537,2960.823768,-8808.450710,2145.067394
2909.577864,3256.906145,-7254.018232,2911.162892
2909.578192,2368.659014,-7846.182985,1685.410096
2909.578519,1036.288319,-10436.903782,0.000000
2909.578847,518.144159,-11547.212695,-1225.752797
2909.579174,666.185348,-9326.594869,-1685.410096
2909.579502,74.020594,-7476.080014,-1532.190996
2909.579829,1184.329507,-9474.636058,-919.314598
2909.580157,2368.659014,-12583.501014,-306.438199
2909.580484,2590.720797,-12731.542202,0.000000
2909.580812,1924.535449,-10288.862594,-306.438199
2909.581139,2294.638420,-8660.409521,-995.924147
2909.581467,2368.659014,-10362.883188,-766.095498
2909.581794,1406.391290,-10881.027347,766.095498
2909.582122,518.144159,-8216.285956,919.314598
2909.582449,296.082377,-8290.306550,0.000000
2909.582776,666.185348,-10436.903782,612.876398
2909.583104,1554.432478,-10584.944971,995.924147
2909.583431,1184.329507,-8808.450710,995.924147
2909.583759,0.000000,-8734.430116,842.705048
2909.584086,-666.185348,-10362.883188,766.095498
2909.584414,-1702.473667,-10658.965565,-229.828649
2909.584741,-2368.659014,-10288.862594,0.000000
2909.585069,-2146.597232,-7254.018232,-995.924147
2909.585396,-592.164754,-7920.203579,-2374.896044
2909.585724,296.082377,-11843.295072,-1225.752797
2909.586051,1184.329507,-12509.480420,689.485948
2909.586379,1036.288319,-9474.636058,689.485948
2909.586706,0.000000,-7698.141797,76.609550
2909.587034,-222.061783,-9252.574275,-995.924147
2909.587361,-370.102971,-10807.006753,-766.095498
2909.587689,-1554.432478,-9326.594869,-153.219100
2909.588016,-1924.535449,-6883.915261,0.000000
2909.588343,-1258.350101,-8364.327145,0.000000
2909.588671,74.020594,-11029.068536,1532.190996
2909.588998,518.144159,-9622.677246,1991.848295
2909.589326,-444.123565,-7550.100608,229.828649
2909.589653,-1332.370696,-9474.636058,-1532.190996
2909.589981,-1480.411884,-11991.336260,-1685.410096
2909.590308,-888.247130,-11177.109724,-1455.581446
2909.590636,-962.267725,-8512.368333,-459.657299
2909.590963,-962.267725,-8438.347739,229.828649
2909.591291,74.020594,-11029.068536,-612.876398
2909.591618,962.267725,-12583.501014,-536.266849
2909.591946,814.226536,-10881.027347,-383.047749
2909.592273,222.061783,-8586.388927,-612.876398
2909.592601,74.020594,-9104.533087,-919.314598
2909.592928,-296.082377,-10510.924376,0.000000
2909.593256,444.123565,-9770.718434,0.000000
2909.593583,0.000000,-7698.141797,-153.219100
2909.593910,962.267725,-8956.491898,306.438199
2909.594238,2442.679609,-10510.924376,766.095498
2909.594565,3330.926739,-10140.821405,1072.533697
2909.594893,1998.556043,-9178.553681,1608.800546
2909.595220,1184.329507,-9474.636058,0.000000
2909.595548,518.144159,-10362.883188,-1915.238745
2909.595875,518.144159,-10066.800811,0.000000
2909.596203,222.061783,-8290.306550,-306.438199
2909.596530,0.000000,-6957.935855,-536.266849
2909.596858,-518.144159,-8956.491898,-306.438199
2909.597185,74.020594,-11695.253884,76.609550
2909.597513,444.123565,-10732.986159,0.000000
2909.597840,1554.432478,-8734.430116,-229.828649
2909.598168,2072.576638,-8290.306550,-919.314598
2909.598495,2294.638420,-11103.089130,-842.705048
2909.598823,1776.494261,-11399.171507,995.924147
2909.599150,1702.473667,-8586.388927,766.095498
2909.599477,1776.494261,-7920.203579,0.000000
2909.599805,1628.453072,-9770.718434,536.266849
2909.600132,1924.535449,-11029.068536,153.219100
2909.600460,1036.288319,-9622.677246,0.000000
2909.600787,-222.061783,-9770.718434,-1762.019645
2909.601115,-444.123565,-11325.150913,-2528.115143
2909.601442,-370.102971,-12065.356855,-995.924147
2909.601770,-666.185348,-9770.718434,306.438199
2909.602097,-444.123565,-7624.121203,0.000000
2909.602425,222.061783,-9400.615463,-995.924147
2909.602752,518.144159,-12731.542202,-306.438199
2909.603080,148.041188,-11695.253884,536.266849
2909.603407,0.000000,-8068.244768,229.828649
2909.603735,-592.164754,-7994.224174,-459.657299
2909.604062,-518.144159,-11177.109724,-766.095498
2909.604390,-888.247130,-11695.253884,-1378.971896
2909.604717,-740.205942,-9178.553681,-995.924147
2909.605044,148.041188,-8142.265362,-689.485948
2909.605372,1036.288319,-10362.883188,536.266849
2909.605699,1554.432478,-10436.903782,1608.800546
2909.606027,518.144159,-8290.306550,1685.410096
2909.606354,-666.185348,-7179.997637,689.485948
2909.606682,-962.267725,-9474.636058,229.828649
2909.607009,-1036.288319,-10066.800811,229.828649
2909.607337,-1406.391290,-7624.121203,536.266849
2909.607664,-1258.350101,-6809.894666,-306.438199
2909.607992,-962.267725,-9326.594869,-766.095498
2909.608319,0.000000,-12657.521608,-459.657299
2909.608647,740.205942,-11917.315666,0.000000
2909.608974,1184.329507,-8808.450710,-995.924147
2909.609302,592.164754,-8290.306550,-1149.143247
2909.609629,1036.288319,-10214.842000,0.000000
2909.609957,1184.329507,-11621.233289,0.000000
2909.610284,0.000000,-9252.574275,1072.533697
2909.610611,-740.205942,-6809.894666,229.828649
2909.610939,-888.247130,-8438.347739,-766.095498
2909.611266,0.000000,-10066.800811,-766.095498
2909.611594,0.000000,-9030.512492,-995.924147
2909.611921,0.000000,-8586.388927,-612.876398
2909.612249,0.000000,-10140.821405,-842.705048
2909.612576,1554.432478,-12361.439231,-766.095498
2909.612904,1850.514855,-11177.109724,0.000000
2909.613231,814.226536,-9252.574275,-153.219100
2909.613559,888.247130,-10362.883188,-383.047749
2909.613886,2146.597232,-13101.645173,-1608.800546
2909.614214,2516.700203,-12435.459826,-306.438199
2909.614541,1628.453072,-9030.512492,459.657299
2909.614869,962.267725,-7179.997637,0.000000
2909.615196,518.144159,-9400.615463,-306.438199
2909.615524,370.102971,-11695.253884,-766.095498
2909.615851,-814.226536,-9474.636058,-995.924147
2909.616178,-740.205942,-6957.935855,-383.047749
2909.616506,1258.350101,-8142.265362,-919.314598
2909.616833,2072.576638,-10510.924376,306.438199
2909.617161,1776.494261,-9918.759623,1838.629195
2909.617488,666.185348,-7994.224174,2068.457845
2909.617816,370.102971,-9474.636058,76.609550
2909.618143,370.102971,-10288.862594,-306.438199
2909.618471,-592.164754,-8660.409521,0.000000
2909.618798,-592.164754,-7105.977043,612.876398
2909.619126,-1036.288319,-8216.285956,229.828649
2909.619453,0.000000,-10288.862594,0.000000
2909.619781,74.020594,-11843.295072,-153.219100
2909.620108,-148.041188,-10288.862594,-306.438199
2909.620436,370.102971,-8216.285956,-995.924147
2909.620763,1998.556043,-9474.636058,-2528.115143
2909.621091,1998.556043,-12361.439231,-1685.410096
2909.621418,1406.391290,-12435.459826,306.438199
2909.621745,1184.329507,-8290.306550,689.485948
2909.622073,888.247130,-8068.244768,0.000000
2909.622400,74.020594,-9918.759623,0.000000
2909.622728,-888.247130,-9622.677246,-612.876398
2909.623055,-2146.597232,-8660.409521,-2068.457845
2909.623383,-2368.659014,-8364.327145,-1762.019645
2909.623710,-1850.514855,-10066.800811,-1378.971896
2909.624038,-1036.288319,-10140.821405,1149.143247
2909.624365,74.020594,-9400.615463,1608.800546
2909.624693,1258.350101,-9474.636058,0.000000
2909.625020,1998.556043,-11621.233289,-459.657299
2909.625348,1998.556043,-12213.398043,-383.047749
2909.625675,1110.308913,-10436.903782,766.095498
2909.626003,444.123565,-7402.059420,153.219100
2909.626330,0.000000,-9104.533087,0.000000
2909.626658,-666.185348,-12213.398043,-306.438199
2909.626985,-444.123565,-11251.130318,-995.924147
2909.627312,-666.185348,-8808.450710,-1225.752797
2909.627640,-592.164754,-7994.224174,-1072.533697
2909.627967,0.000000,-9474.636058,0.000000
2909.628295,-222.061783,-9622.677246,995.924147
2909.628622,-666.185348,-7772.162391,1378.971896
2909.628950,0.000000,-6735.874072,0.000000
2909.629277,1406.391290,-8734.430116,0.000000
2909.629605,1850.514855,-9992.780217,1302.362347
2909.629932,1258.350101,-8438.347739,2221.676944
2909.630260,1036.288319,-8734.430116,1072.533697
2909.630587,814.226536,-11547.212695,-1378.971896
2909.630915,962.267725,-13693.809927,-1991.848295
2909.631242,1554.432478,-11695.253884,-1915.238745
2909.631570,888.247130,-8438.347739,-919.314598
2909.631897,1258.350101,-8956.491898,-919.314598
2909.632225,1480.411884,-11473.192101,76.609550
2909.632552,148.041188,-11621.233289,306.438199
2909.632879,-518.144159,-8586.388927,919.314598
2909.633207,0.000000,-7550.100608,-536.266849
2909.633534,888.247130,-8660.409521,-1072.533697
2909.633862,1480.411884,-9400.615463,-689.485948
2909.634189,592.164754,-9548.656652,0.000000
2909.634517,0.000000,-9548.656652,229.828649
2909.634844,1184.329507,-10362.883188,-1532.190996
2909.635172,814.226536,-10140.821405,-1302.362347
2909.635499,-296.082377,-9622.677246,-689.485948
2909.635827,-518.144159,-9696.697840,-536.266849
2909.636154,592.164754,-10732.986159,-995.924147
2909.636482,1258.350101,-12287.418637,-229.828649
2909.636809,1702.473667,-11917.315666,459.657299
2909.637137,518.144159,-7846.182985,536.266849
2909.637464,148.041188,-8290.306550,0.000000
2909.637792,-740.205942,-10658.965565,-536.266849
2909.638119,-1184.329507,-11251.130318,-689.485948
2909.638446,-1480.411884,-8586.388927,-306.438199
2909.638774,-1480.411884,-7031.956449,306.438199
2909.639101,-370.102971,-8364.327145,0.000000
2909.639429,444.123565,-10288.862594,612.876398
2909.639756,148.041188,-10066.800811,-153.219100
2909.640084,-444.123565,-8956.491898,-612.876398
2909.640411,592.164754,-9030.512492,-1455.581446
2909.640739,1258.350101,-9992.780217,0.000000
2909.641066,222.061783,-9030.512492,1455.581446
2909.641394,-740.205942,-8216.285956,1532.190996
2909.641721,-148.041188,-8956.491898,-459.657299
2909.642049,0.000000,-10140.821405,-1838.629195
2909.642376,222.061783,-11251.130318,-536.266849
2909.642704,0.000000,-9622.677246,689.485948
2909.643031,740.205942,-8512.368333,-229.828649
2909.643359,1776.494261,-11843.295072,-1378.971896
2909.643686,814.226536,-13545.768739,-689.485948
2909.644013,296.082377,-9918.759623,229.828649
2909.644341,0.000000,-7254.018232,383.047749
2909.644668,518.144159,-9326.594869,-612.876398
2909.644996,0.000000,-10807.006753,-612.876398
2909.645323,-962.267725,-9400.615463,-383.047749
2909.645651,-2072.576638,-8068.244768,-612.876398
2909.645978,-1554.432478,-9252.574275,-1149.143247
2909.646306,-814.226536,-10362.883188,-995.924147
2909.646633,370.102971,-9474.636058,-459.657299
2909.646961,518.144159,-9030.512492,0.000000
2909.647288,1406.391290,-9770.718434,-306.438199
2909.647616,2220.617826,-11399.171507,612.876398
2909.647943,2664.741391,-11843.295072,1378.971896
2909.648271,2072.576638,-9474.636058,1149.143247
2909.648598,1776.494261,-8438.347739,76.609550
2909.648926,1480.411884,-10362.883188,-1915.238745
2909.649253,518.144159,-12435.459826,-995.924147
2909.649580,0.000000,-10140.821405,0.000000
2909.649908,-222.061783,-7846.182985,0.000000
2909.650235,518.144159,-8586.388927,-459.657299
2909.650563,1628.453072,-9770.718434,0.000000
2909.650890,1184.329507,-9622.677246,0.000000
2909.651218,148.041188,-7920.203579,1378.971896
2909.651545,148.041188,-7402.059420,0.000000
2909.651873,814.226536,-9474.636058,0.000000
2909.652200,814.226536,-10362.883188,229.828649
2909.652528,74.020594,-8734.430116,842.705048
2909.652855,444.123565,-8956.491898,0.000000
2909.653183,0.000000,-10658.965565,-1378.971896
2909.653510,0.000000,-11843.295072,-1149.143247
2909.653838,0.000000,-10288.862594,-306.438199
2909.654165,222.061783,-8660.409521,-229.828649
2909.654493,518.144159,-10140.821405,-306.438199
2909.654820,444.123565,-12287.418637,-536.266849
2909.655147,-740.205942,-10881.027347,0.000000
2909.655475,-1036.288319,-8216.285956,0.000000
2909.655802,74.020594,-7994.224174,-995.924147
2909.656130,1110.308913,-10436.903782,-1685.410096
2909.656457,1036.288319,-11917.315666,76.609550
2909.656785,1036.288319,-10436.903782,459.657299
2909.657112,370.102971,-8882.471304,-1149.143247
2909.657440,0.000000,-10362.883188,-1608.800546
2909.657767,-1184.329507,-10436.903782,-842.705048
2909.658095,-2960.823768,-8734.430116,76.609550
2909.658422,-3330.926739,-7846.182985,-536.266849
2909.658750,-1702.473667,-8068.244768,-1072.533697
2909.659077,0.000000,-9474.636058,-383.047749
2909.659405,0.000000,-9474.636058,1608.800546
2909.659732,296.082377,-8364.327145,2374.896044
2909.660060,1702.473667,-9548.656652,229.828649
2909.660387,1480.411884,-11473.192101,-1455.581446
2909.660714,1110.308913,-11695.253884,-919.314598
2909.661042,444.123565,-8438.347739,229.828649
2909.661369,592.164754,-8142.265362,919.314598
2909.661697,1628.453072,-10362.883188,1072.533697
2909.662024,1332.370696,-11695.253884,383.047749
2909.662352,148.041188,-9622.677246,306.438199
2909.662679,-740.205942,-8216.285956,612.876398
2909.663007,-518.144159,-8734.430116,-459.657299
2909.663334,0.000000,-8734.430116,-689.485948
2909.663662,-962.267725,-7476.080014,459.657299
2909.663989,-1258.350101,-7105.977043,919.314598
2909.664317,1110.308913,-8808.450710,459.657299
2909.664644,2664.741391,-11325.150913,689.485948
2909.664972,2664.741391,-11547.212695,689.485948
2909.665299,2590.720797,-10066.800811,153.219100
2909.665627,2442.679609,-11251.130318,-459.657299
2909.665954,2442.679609,-13619.789333,-1455.581446
2909.666281,1924.535449,-13767.830521,-995.924147
2909.666609,518.144159,-9622.677246,-766.095498
2909.666936,74.020594,-6809.894666,-689.485948
2909.667264,-296.082377,-7698.141797,-383.047749
2909.667591,-962.267725,-10436.903782,76.609550
2909.667919,-1554.432478,-9400.615463,306.438199
2909.668246,-814.226536,-6735.874072,-536.266849
2909.668574,222.061783,-7105.977043,-995.924147
2909.668901,1554.432478,-10066.800811,-459.657299
2909.669229,962.267725,-9474.636058,842.705048
2909.669556,370.102971,-7698.141797,1072.533697
2909.669884,148.041188,-9252.574275,-383.047749
2909.670211,814.226536,-11917.315666,-1532.190996
2909.670539,1036.288319,-11917.315666,-919.314598
2909.670866,444.123565,-9696.697840,0.000000
2909.671194,0.000000,-9474.636058,-536.266849
2909.671521,1110.308913,-12065.356855,-1838.629195
2909.671849,222.061783,-12435.459826,-689.485948
2909.672176,-518.144159,-9104.533087,76.609550
2909.672503,-666.185348,-5995.668130,0.000000
2909.672831,-222.061783,-7105.977043,-229.828649
2909.673158,-148.041188,-9474.636058,689.485948
2909.673486,-296.082377,-9400.615463,1302.362347
2909.673813,-888.247130,-6957.935855,919.314598
2909.674141,0.000000,-8956.491898,459.657299
2909.674468,-148.041188,-11695.253884,-842.705048
2909.674796,-1332.370696,-11251.130318,-1149.143247
2909.675123,-2072.576638,-9474.636058,-1378.971896
2909.675451,-666.185348,-10362.883188,-2298.286494
2909.675778,1036.288319,-12213.398043,-2145.067394
2909.676106,1332.370696,-11843.295072,0.000000
2909.676433,740.205942,-9104.533087,1915.238745
2909.676761,592.164754,-8660.409521,919.314598
2909.677088,962.267725,-10584.944971,-229.828649
2909.677416,962.267725,-11103.089130,-383.047749
2909.677743,222.061783,-8734.430116,995.924147
2909.678071,-296.082377,-7105.977043,842.705048
2909.678398,666.185348,-8660.409521,-229.828649
2909.678725,1184.329507,-11029.068536,76.609550
2909.679053,0.000000,-10436.903782,229.828649
2909.679380,-444.123565,-9178.553681,0.000000
2909.679708,148.041188,-9622.677246,-842.705048
2909.680035,740.205942,-11251.130318,-1302.362347
2909.680363,666.185348,-11251.130318,-383.047749
2909.680690,222.061783,-8068.244768,1225.752797
2909.681018,74.020594,-6883.915261,995.924147
2909.681345,888.247130,-8586.388927,0.000000
2909.681673,592.164754,-10140.821405,536.266849
2909.682000,0.000000,-8808.450710,842.705048
2909.682328,-370.102971,-7550.100608,-229.828649
2909.682655,0.000000,-9622.677246,-1455.581446
2909.682983,0.000000,-11029.068536,-1532.190996
2909.683310,592.164754,-10510.924376,0.000000
2909.683638,740.205942,-8956.491898,0.000000
2909.683965,1998.556043,-9918.759623,-229.828649
2909.684293,2960.823768,-12435.459826,-689.485948
2909.684620,2294.638420,-12213.398043,306.438199
2909.684947,296.082377,-9104.533087,1455.581446
2909.685275,666.185348,-8660.409521,-306.438199
2909.685602,0.000000,-9992.780217,-1378.971896
2909.685930,0.000000,-10436.903782,-1762.019645
2909.686257,-1184.329507,-7994.224174,-995.924147
2909.686585,-962.267725,-7105.977043,-536.266849
2909.686912,0.000000,-9548.656652,-689.485948
2909.687240,2072.576638,-12213.398043,-536.266849
2909.687567,888.247130,-10732.986159,612.876398
2909.687895,74.020594,-9326.594869,306.438199
2909.688222,740.205942,-10807.006753,-919.314598
2909.688550,1110.308913,-12583.501014,-1149.143247
2909.688877,518.144159,-11473.192101,76.609550
2909.689205,-370.102971,-8364.327145,1532.190996
2909.689532,-888.247130,-7920.203579,995.924147
2909.689860,-666.185348,-10140.821405,-229.828649
2909.690187,-1406.391290,-9474.636058,-766.095498
2909.690515,-2146.597232,-7254.018232,-1225.752797
2909.690842,-1554.432478,-7105.977043,-919.314598
2909.691169,444.123565,-9474.636058,-383.047749
2909.691497,1628.453072,-10807.006753,536.266849
2909.691824,1628.453072,-9326.594869,1915.238745
2909.692152,1628.453072,-8734.430116,1455.581446
2909.692479,2442.679609,-10436.903782,919.314598
2909.692807,2368.659014,-11769.274478,0.000000
2909.693134,666.185348,-11029.068536,153.219100
2909.693462,-666.185348,-8290.306550,0.000000
2909.693789,-814.226536,-8882.471304,-842.705048
2909.694117,0.000000,-11473.192101,-1072.533697
2909.694444,-962.267725,-10955.047942,-919.314598
2909.694772,-2146.597232,-7772.162391,-306.438199
2909.695099,-1480.411884,-7402.059420,-1149.143247
2909.695427,0.000000,-9178.553681,-1532.190996
2909.695754,666.185348,-10214.842000,0.000000
2909.696082,592.164754,-9030.512492,1455.581446
2909.696409,592.164754,-7624.121203,842.705048
2909.696736,1332.370696,-9326.594869,0.000000
2909.697064,1628.453072,-11769.274478,-612.876398
2909.697391,222.061783,-11991.336260,76.609550
2909.697719,-814.226536,-9474.636058,-612.876398
2909.698046,-888.247130,-9548.656652,-2145.067394
2909.698374,-740.205942,-11917.315666,-2604.724693
2909.698701,-666.185348,-11029.068536,-612.876398
2909.699029,-1850.514855,-8512.368333,229.828649
2909.699356,-518.144159,-7772.162391,0.000000
2909.699684,1184.329507,-9770.718434,0.000000
2909.700011,1184.329507,-10955.047942,689.485948
2909.700339,370.102971,-8290.306550,1838.629195
2909.700666,0.000000,-7179.997637,1225.752797
2909.700994,1258.350101,-9474.636058,-383.047749
2909.701321,1554.432478,-11547.212695,-1149.143247
2909.701649,1110.308913,-10436.903782,536.266849
2909.701976,444.123565,-7476.080014,229.828649
2909.702304,1110.308913,-9400.615463,-536.266849
2909.702631,888.247130,-12879.583391,-459.657299
2909.702958,0.000000,-11547.212695,0.000000
2909.703286,296.082377,-8068.244768,-153.219100
2909.703613,1258.350101,-6809.894666,-766.095498
2909.703941,2368.659014,-8512.368333,919.314598
2909.704268,2664.741391,-10436.903782,2221.676944
2909.704596,2442.679609,-8882.471304,2528.115143
2909.704923,2812.782580,-7772.162391,842.705048
2909.705251,2516.700203,-9400.615463,-1302.362347
2909.705578,1332.370696,-11547.212695,-1149.143247
2909.705906,-296.082377,-11399.171507,-153.219100
2909.706233,370.102971,-10066.800811,-1302.362347
2909.706561,444.123565,-11029.068536,-1838.629195
2909.706888,1258.350101,-13175.665768,-842.705048
2909.707216,962.267725,-10140.821405,153.219100
2909.707543,-592.164754,-7698.141797,766.095498
2909.707871,-1998.556043,-8068.244768,-229.828649
2909.708198,-1480.411884,-8956.491898,-1302.362347
2909.708526,-1998.556043,-8364.327145,-459.657299
2909.708853,-2368.659014,-7179.997637,76.609550
2909.709180,-2072.576638,-7179.997637,459.657299
2909.709508,0.000000,-10658.965565,0.000000
2909.709835,814.226536,-13175.665768,-1072.533697
2909.710163,518.144159,-12583.501014,-1302.362347
2909.710490,-222.061783,-9918.759623,-459.657299
2909.710818,740.205942,-9992.780217,-842.705048
2909.711145,592.164754,-12139.377449,-689.485948
2909.711473,-666.185348,-10510.924376,689.485948
2909.711800,-1554.432478,-7402.059420,766.095498
2909.712128,-1258.350101,-7550.100608,-153.219100
2909.712455,-740.205942,-9326.594869,0.000000
2909.712783,-444.123565,-9252.574275,919.314598
2909.713110,-1184.329507,-7476.080014,1149.143247
2909.713438,-1850.514855,-7105.977043,-306.438199
2909.713765,-962.267725,-9548.656652,-1378.971896
2909.714093,-222.061783,-11103.089130,-842.705048
2909.714420,0.000000,-10066.800811,689.485948
2909.714748,222.061783,-7846.182985,536.266849
2909.715075,666.185348,-9992.780217,0.000000
2909.715402,1110.308913,-12731.542202,-919.314598
2909.715730,1036.288319,-12435.459826,153.219100
2909.716057,666.185348,-8882.471304,0.000000
2909.716385,592.164754,-8438.347739,-536.266849
2909.716712,1110.308913,-10214.842000,-842.705048
2909.717040,518.144159,-10066.800811,459.657299
2909.717367,-296.082377,-8364.327145,1378.971896
2909.717695,222.061783,-7624.121203,842.705048
2909.718022,1110.308913,-9548.656652,-1225.752797
2909.718350,444.123565,-10288.862594,-383.047749
2909.718677,-518.144159,-8216.285956,76.609550
2909.719005,592.164754,-7994.224174,-612.876398
2909.719332,1850.514855,-10436.903782,-1378.971896
2909.719660,2516.700203,-13027.624579,76.609550
2909.719987,1554.432478,-11621.233289,689.485948
2909.720315,888.247130,-8586.388927,0.000000
2909.720642,1332.370696,-9104.533087,-1532.190996
2909.720970,1702.473667,-11917.315666,-1378.971896
2909.721297,1776.494261,-11769.274478,0.000000
2909.721624,2220.617826,-8734.430116,1072.533697
2909.721952,2590.720797,-8290.306550,612.876398
2909.722279,2664.741391,-9770.718434,0.000000
2909.722607,1258.350101,-10881.027347,689.485948
2909.722934,-518.144159,-8290.306550,306.438199
2909.723262,-1776.494261,-7179.997637,-383.047749
2909.723589,-222.061783,-9622.677246,-1302.362347
2909.723917,740.205942,-9770.718434,-689.485948
2909.724244,296.082377,-10362.883188,0.000000
2909.724572,-1480.411884,-9400.615463,995.924147
2909.724899,-1406.391290,-10955.047942,-1072.533697
2909.725227,-666.185348,-12065.356855,-2145.067394
2909.725554,-740.205942,-9992.780217,-1991.848295
2909.725882,-1332.370696,-7772.162391,-689.485948
2909.726209,-592.164754,-8364.327145,689.485948
2909.726537,1110.308913,-10436.903782,536.266849
2909.726864,1406.391290,-11103.089130,995.924147
2909.727192,666.185348,-9178.553681,689.485948
2909.727519,444.123565,-8512.368333,76.609550
2909.727846,888.247130,-10436.903782,-689.485948
2909.728174,888.247130,-12361.439231,-842.705048
2909.728501,0.000000,-11547.212695,0.000000
2909.728829,-518.144159,-9474.636058,-612.876398
2909.729156,-444.123565,-9770.718434,536.266849
2909.729484,-592.164754,-10658.965565,76.609550
2909.729811,-2368.659014,-8364.327145,153.219100
2909.730139,-3478.967927,-7031.956449,-766.095498
2909.730466,-2886.803174,-7698.141797,-1608.800546
2909.730794,-2146.597232,-9474.636058,-1378.971896
2909.731121,-1480.411884,-9474.636058,-1225.752797
2909.731449,-1924.535449,-6809.894666,1532.190996
2909.731776,-222.061783,-7179.997637,76.609550
2909.732104,1850.514855,-11843.295072,-766.095498
2909.732431,2368.659014,-14508.036463,229.828649
2909.732759,1998.556043,-11399.171507,842.705048
2909.733086,1702.473667,-9104.533087,689.485948
2909.733414,2072.576638,-9770.718434,-536.266849
2909.733741,1628.453072,-10436.903782,459.657299
2909.734068,-296.082377,-9104.533087,383.047749
2909.734396,-1628.453072,-7105.977043,306.438199
2909.734723,-888.247130,-7254.018232,-383.047749
2909.735051,962.267725,-8068.244768,-1378.971896
2909.735378,1036.288319,-8586.388927,536.266849
2909.735706,592.164754,-7624.121203,766.095498
2909.736033,2220.617826,-8882.471304,0.000000
2909.736361,3404.947333,-12361.439231,-1685.410096
2909.736688,3182.885551,-12509.480420,-536.266849
2909.737016,1554.432478,-9770.718434,459.657299
2909.737343,518.144159,-9104.533087,0.000000
2909.737671,1480.411884,-11473.192101,-1455.581446
2909.737998,2368.659014,-13471.748144,-2681.334243
2909.738326,1332.370696,-11399.171507,-766.095498
2909.738653,814.226536,-8808.450710,0.000000
2909.738981,1110.308913,-8586.388927,-459.657299
2909.739308,1776.494261,-10807.006753,-842.705048
2909.739636,296.082377,-10066.800811,-689.485948
2909.739963,-666.185348,-7402.059420,306.438199
2909.740290,222.061783,-7994.224174,76.609550
2909.740618,2368.659014,-9622.677246,76.609550
2909.740945,2072.576638,-10732.986159,842.705048
2909.741273,370.102971,-9474.636058,1455.581446
2909.741600,0.000000,-9992.780217,0.000000
2909.741928,74.020594,-12213.398043,-1915.238745
2909.742255,-370.102971,-12509.480420,-1532.190996
2909.742583,-2146.597232,-8734.430116,-1149.143247
2909.742910,-3034.844362,-5773.606348,-612.876398
2909.743238,-2146.597232,-8364.327145,-306.438199
2909.743565,-888.247130,-11251.130318,306.438199
2909.743893,-370.102971,-10066.800811,1991.848295
2909.744220,0.000000,-7476.080014,1915.238745
2909.744548,592.164754,-7698.141797,536.266849
2909.744875,592.164754,-10140.821405,-306.438199
2909.745203,-1258.350101,-10807.006753,0.000000
2909.745530,-2516.700203,-8290.306550,536.266849
2909.745858,-1332.370696,-8068.244768,-153.219100
2909.746185,296.082377,-11251.130318,-1302.362347
2909.746512,0.000000,-11843.295072,-383.047749
2909.746840,-1036.288319,-8660.409521,76.609550
2909.747167,-1702.473667,-8068.244768,-459.657299
2909.747495,-1924.535449,-10436.903782,-1915.238745
2909.747822,-1036.288319,-11103.089130,-1455.581446
2909.748150,-1110.308913,-7772.162391,0.000000
2909.748477,-666.185348,-6217.729913,0.000000
2909.748805,1184.329507,-8956.491898,-689.485948
2909.749132,2146.597232,-12287.418637,0.000000
2909.749460,1332.370696,-12065.356855,1685.410096
2909.749787,1406.391290,-10288.862594,229.828649
2909.750115,962.267725,-10066.800811,-2451.505594
2909.750442,740.205942,-12287.418637,-3447.429741
2909.750770,222.061783,-13027.624579,-2298.286494
2909.751097,0.000000,-10658.965565,-612.876398
2909.751425,740.205942,-8660.409521,0.000000
2909.751752,2220.617826,-9474.636058,-306.438199
2909.752080,2294.638420,-10362.883188,459.657299
2909.752407,1036.288319,-7254.018232,1378.971896
2909.752734,814.226536,-5921.647536,306.438199
2909.753062,370.102971,-7476.080014,-536.266849
2909.753389,592.164754,-9918.759623,383.047749
2909.753717,444.123565,-8882.471304,1225.752797
2909.754044,-444.123565,-7179.997637,766.095498
2909.754372,814.226536,-9696.697840,-689.485948
2909.754699,1332.370696,-12879.583391,-1149.143247
2909.755027,1258.350101,-13101.645173,-383.047749
2909.755354,1628.453072,-10066.800811,0.000000
2909.755682,2516.700203,-8734.430116,0.000000
2909.756009,2738.761985,-9918.759623,229.828649
2909.756337,2146.597232,-10658.965565,1149.143247
2909.756664,1628.453072,-8216.285956,1149.143247
2909.756992,518.144159,-6735.874072,919.314598
2909.757319,740.205942,-8290.306550,229.828649
2909.757647,814.226536,-9548.656652,0.000000
2909.757974,0.000000,-8586.388927,229.828649
2909.758302,-222.061783,-7550.100608,-306.438199
2909.758629,-962.267725,-9252.574275,-919.314598
2909.758956,74.020594,-12213.398043,-766.095498
2909.759284,-1184.329507,-10732.986159,-229.828649
2909.759611,-2072.576638,-8882.471304,-842.705048
2909.759939,-1628.453072,-9548.656652,-1762.019645
2909.760266,-222.061783,-11843.295072,-2221.676944
2909.760594,740.205942,-12731.542202,-995.924147
2909.760921,0.000000,-10732.986159,229.828649
2909.761249,0.000000,-8734.430116,0.000000
2909.761576,1628.453072,-10732.986159,-2068.457845
2909.761904,148.041188,-12287.418637,-1915.238745
2909.762231,-518.144159,-10362.883188,0.000000
2909.762559,74.020594,-7624.121203,-229.828649
2909.762886,0.000000,-8512.368333,0.000000
2909.763214,888.247130,-10436.903782,306.438199
2909.763541,148.041188,-9622.677246,1455.581446
2909.763869,-1110.308913,-7698.141797,1302.362347
2909.764196,-666.185348,-9178.553681,-536.266849
2909.764523,0.000000,-10955.047942,-995.924147
2909.764851,-666.185348,-10362.883188,-153.219100
2909.765178,-1036.288319,-7994.224174,306.438199
2909.765506,-296.082377,-7550.100608,-1685.410096
2909.765833,222.061783,-9474.636058,-919.314598
2909.766161,74.020594,-11991.336260,0.000000
2909.766488,-740.205942,-10288.862594,306.438199
2909.766816,-370.102971,-7179.997637,-229.828649
2909.767143,1406.391290,-8882.471304,-919.314598
2909.767471,1110.308913,-11843.295072,-766.095498
2909.767798,370.102971,-11843.295072,536.266849
2909.768126,296.082377,-7920.203579,1072.533697
2909.768453,592.164754,-7328.038826,0.000000
2909.768781,1332.370696,-10510.924376,0.000000
2909.769108,518.144159,-10362.883188,1072.533697
2909.769436,222.061783,-7772.162391,1072.533697
2909.769764,296.082377,-8290.306550,0.000000
2909.770091,962.267725,-9622.677246,-1149.143247
2909.770419,592.164754,-10066.800811,383.047749
2909.770747,0.000000,-8290.306550,1455.581446
2909.771074,888.247130,-7846.182985,-306.438199
2909.771402,1850.514855,-11029.068536,-1225.752797
2909.771730,2072.576638,-12731.542202,-842.705048
2909.772057,1406.391290,-11769.274478,0.000000
2909.772385,370.102971,-9770.718434,0.000000
2909.772713,1776.494261,-10436.903782,-1225.752797
2909.773040,1850.514855,-12287.418637,-1915.238745
2909.773368,1332.370696,-12287.418637,-383.047749
2909.773696,444.123565,-9474.636058,1149.143247
2909.774024,592.164754,-8142.265362,919.314598
2909.774351,666.185348,-8586.388927,383.047749
2909.774679,370.102971,-8068.244768,0.000000
2909.775007,-666.185348,-7920.203579,-612.876398
2909.775334,-1554.432478,-7105.977043,-153.219100
2909.775662,-444.123565,-8586.388927,-842.705048
2909.775990,1332.370696,-10955.047942,-842.705048
2909.776317,888.247130,-10807.006753,0.000000
2909.776645,148.041188,-9548.656652,306.438199
2909.776973,814.226536,-10732.986159,0.000000
2909.777301,1628.453072,-13027.624579,-1685.410096
2909.777628,148.041188,-11991.336260,-995.924147
2909.777956,-296.082377,-8142.265362,383.047749
2909.778284,-148.041188,-7920.203579,689.485948
2909.778611,0.000000,-10881.027347,459.657299
2909.778939,-888.247130,-11325.150913,229.828649
2909.779267,-2294.638420,-8216.285956,229.828649
2909.779594,-2590.720797,-6217.729913,-1608.800546
2909.779922,-1776.494261,-7476.080014,-1608.800546
2909.780250,-592.164754,-9844.739029,-766.095498
2909.780578,-592.164754,-9474.636058,689.485948
2909.780905,0.000000,-8512.368333,536.266849
2909.781233,518.144159,-9844.739029,0.000000
2909.781561,1702.473667,-11917.315666,76.609550
2909.781888,0.000000,-10362.883188,1225.752797
2909.782216,-666.185348,-8364.327145,153.219100
2909.782544,-444.123565,-9252.574275,-1302.362347
2909.782871,444.123565,-11991.336260,-1685.410096
2909.783199,296.082377,-11991.336260,153.219100
2909.783527,222.061783,-8290.306550,306.438199
2909.783855,222.061783,-7179.997637,-229.828649
2909.784182,814.226536,-10510.924376,-766.095498
2909.784510,-222.061783,-12805.562797,-383.047749
2909.784838,0.000000,-10362.883188,153.219100
2909.785165,740.205942,-7254.018232,153.219100
2909.785493,1184.329507,-8290.306550,-153.219100
2909.785821,1184.329507,-10732.986159,-153.219100
2909.786148,148.041188,-11103.089130,842.705048
2909.786476,-1036.288319,-8438.347739,0.000000
2909.786804,148.041188,-8882.471304,-1762.019645
2909.787131,518.144159,-11325.150913,-1838.629195
2909.787459,222.061783,-10362.883188,-536.266849
2909.787787,-296.082377,-7698.141797,229.828649
2909.788115,962.267725,-8216.285956,-766.095498
2909.788442,2294.638420,-11399.171507,-536.266849
2909.788770,2590.720797,-11917.315666,459.657299
2909.789098,1850.514855,-8512.368333,1608.800546
2909.789425,1480.411884,-7624.121203,689.485948
2909.789753,1628.453072,-10436.903782,-459.657299
2909.790081,740.205942,-13027.624579,-1072.533697
2909.790408,-1332.370696,-10362.883188,-919.314598
2909.790736,-814.226536,-7254.018232,-1302.362347
2909.791064,370.102971,-8808.450710,-2068.457845
2909.791392,1628.453072,-11621.233289,-2068.457845
2909.791719,888.247130,-10732.986159,0.000000
2909.792047,148.041188,-8216.285956,689.485948
2909.792375,1036.288319,-8216.285956,229.828649
2909.792702,1850.514855,-9992.780217,0.000000
2909.793030,1184.329507,-9696.697840,1225.752797
2909.793358,148.041188,-7698.141797,1608.800546
2909.793685,-296.082377,-7698.141797,383.047749
2909.794013,0.000000,-10510.924376,0.000000
2909.794341,0.000000,-11843.295072,229.828649
2909.794669,-740.205942,-10066.800811,0.000000
2909.794996,-1184.329507,-9030.512492,-536.266849
2909.795324,-814.226536,-10584.944971,-2374.896044
2909.795652,222.061783,-13545.768739,-1991.848295
2909.795979,-518.144159,-11251.130318,0.000000
2909.796307,-1036.288319,-8068.244768,1532.190996
2909.796635,-370.102971,-7624.121203,536.266849
2909.796962,592.164754,-9696.697840,-229.828649
2909.797290,74.020594,-10214.842000,229.828649
2909.797618,-740.205942,-7550.100608,1838.629195
2909.797945,-888.247130,-6587.832884,76.609550
2909.798273,-666.185348,-8956.491898,0.000000
2909.798601,-370.102971,-10658.965565,306.438199
2909.798929,-1110.308913,-9474.636058,612.876398
2909.799256,-444.123565,-9326.594869,0.000000
2909.799584,740.205942,-10436.903782,-1225.752797
2909.799912,1776.494261,-12657.521608,-306.438199
2909.800239,1776.494261,-11843.295072,919.314598
2909.800567,1184.329507,-8438.347739,766.095498
2909.800895,1702.473667,-9030.512492,-689.485948
2909.801222,1110.308913,-11547.212695,-1225.752797
2909.801550,-222.061783,-11473.192101,-383.047749
2909.801878,-1554.432478,-8142.265362,-766.095498
2909.802206,-1184.329507,-7920.203579,-1149.143247
2909.802533,0.000000,-10584.944971,-2068.457845
2909.802861,888.247130,-11547.212695,-1838.629195
2909.803189,-296.082377,-9770.718434,-383.047749
2909.803516,-296.082377,-8068.244768,-229.828649
2909.803844,666.185348,-9770.718434,-536.266849
2909.804172,1332.370696,-10955.047942,229.828649
2909.804499,296.082377,-8882.471304,995.924147
2909.804827,-370.102971,-6439.791695,1532.190996
2909.805155,1110.308913,-8882.471304,76.609550
2909.805483,2294.638420,-11917.315666,0.000000
2909.805810,1924.535449,-11029.068536,0.000000
2909.806138,1332.370696,-8438.347739,0.000000
2909.806466,1406.391290,-8660.409521,-612.876398
2909.806793,1998.556043,-12065.356855,-1225.752797
2909.807121,1554.432478,-12435.459826,536.266849
2909.807449,148.041188,-9104.533087,229.828649
2909.807776,-888.247130,-7402.059420,153.219100
2909.808104,0.000000,-9400.615463,-689.485948
2909.808432,962.267725,-10732.986159,229.828649
2909.808760,222.061783,-8660.409521,1225.752797
2909.809087,0.000000,-7105.977043,995.924147
2909.809415,148.041188,-8364.327145,0.000000
2909.809743,518.144159,-9474.636058,-306.438199
2909.810070,-962.267725,-8364.327145,153.219100
2909.810398,-1850.514855,-7994.224174,459.657299
2909.810726,-222.061783,-9178.553681,-1149.143247
2909.811053,1998.556043,-12139.377449,-1838.629195
2909.811381,2368.659014,-12731.542202,0.000000
2909.811709,2368.659014,-11103.089130,1532.190996
2909.812036,2368.659014,-9474.636058,612.876398
2909.812364,1702.473667,-12139.377449,-1225.752797
2909.812692,296.082377,-13397.727550,-1378.971896
2909.813020,-1702.473667,-9622.677246,-689.485948
2909.813347,-2442.679609,-5477.523971,-995.924147
2909.813675,-1702.473667,-7698.141797,-842.705048
2909.814003,-444.123565,-11695.253884,-842.705048
2909.814330,-1110.308913,-10807.006753,612.876398
2909.814658,-1776.494261,-7476.080014,0.000000
2909.814986,-666.185348,-8216.285956,-1838.629195
2909.815313,0.000000,-10658.965565,-1838.629195
2909.815641,-740.205942,-9696.697840,459.657299
2909.815969,-740.205942,-8364.327145,919.314598
2909.816297,814.226536,-8438.347739,0.000000
2909.816624,2442.679609,-11251.130318,-1378.971896
2909.816952,1776.494261,-12731.542202,76.609550
2909.817280,296.082377,-9992.780217,689.485948
2909.817607,0.000000,-8364.327145,-612.876398
2909.817935,296.082377,-11103.089130,-2374.896044
2909.818263,592.164754,-12287.418637,-1149.143247
2909.818590,222.061783,-9474.636058,229.828649
2909.818918,0.000000,-6587.832884,612.876398
2909.819246,740.205942,-7476.080014,842.705048
2909.819574,962.267725,-10140.821405,995.924147
2909.819901,-370.102971,-8808.450710,1072.533697
2909.820229,-962.267725,-7179.997637,689.485948
2909.820557,-370.102971,-8364.327145,-766.095498
2909.820884,888.247130,-11029.068536,-1608.800546
2909.821212,74.020594,-11843.295072,612.876398
2909.821540,-962.267725,-9326.594869,766.095498
2909.821867,0.000000,-9104.533087,-612.876398
2909.822195,1702.473667,-11325.150913,-1072.533697
2909.822523,2294.638420,-11991.336260,306.438199
2909.822850,1554.432478,-9326.594869,1608.800546
2909.823178,1850.514855,-7476.080014,229.828649
2909.823506,1998.556043,-9400.615463,-306.438199
2909.823834,1332.370696,-11991.336260,536.266849
2909.824161,666.185348,-10288.862594,1149.143247
2909.824489,444.123565,-7624.121203,306.438199
2909.824817,1036.288319,-8882.471304,-919.314598
2909.825144,1850.514855,-11991.336260,-612.876398
2909.825472,518.144159,-11547.212695,842.705048
2909.825800,-518.144159,-8512.368333,995.924147
2909.826127,-1480.411884,-8364.327145,-383.047749
2909.826455,-888.247130,-9992.780217,-1838.629195
2909.826783,-1036.288319,-9770.718434,-1072.533697
2909.827111,-1332.370696,-7846.182985,1072.533697
2909.827438,0.000000,-6735.874072,459.657299
2909.827766,1628.453072,-9104.533087,-383.047749
2909.828094,2812.782580,-11843.295072,229.828649
2909.828421,1776.494261,-10955.047942,995.924147
2909.828749,740.205942,-8364.327145,76.609550
2909.829077,592.164754,-10214.842000,-1532.190996
2909.829404,518.144159,-13027.624579,-1455.581446
2909.829732,-370.102971,-11621.233289,-689.485948
2909.830060,-740.205942,-8808.450710,-842.705048
2909.830388,-222.061783,-8660.409521,-229.828649
2909.830715,444.123565,-10288.862594,-919.314598
2909.831043,74.020594,-10732.986159,-306.438199
2909.831371,-1628.453072,-8364.327145,76.609550
2909.831698,-1406.391290,-7254.018232,-995.924147
2909.832026,0.000000,-9030.512492,-2604.724693
2909.832354,-370.102971,-10214.842000,-766.095498
2909.832681,-296.082377,-9474.636058,766.095498
2909.833009,0.000000,-7994.224174,76.609550
2909.833337,814.226536,-10140.821405,-383.047749
2909.833665,1702.473667,-12583.501014,-229.828649
2909.833992,1776.494261,-11621.233289,536.266849
2909.834320,1702.473667,-9252.574275,1072.533697
2909.834648,592.164754,-8586.388927,383.047749
2909.834975,1776.494261,-11251.130318,-306.438199
2909.835303,1184.329507,-11547.212695,766.095498
2909.835631,74.020594,-9030.512492,995.924147
2909.835958,0.000000,-7698.141797,459.657299
2909.836286,888.247130,-10288.862594,-919.314598
2909.836614,666.185348,-11029.068536,76.609550
2909.836941,-592.164754,-8956.491898,689.485948
2909.837269,-1110.308913,-7550.100608,842.705048
2909.837597,-814.226536,-9104.533087,-383.047749
2909.837925,222.061783,-10510.924376,-766.095498
2909.838252,-518.144159,-9622.677246,383.047749
2909.838580,-962.267725,-8068.244768,612.876398
2909.838908,148.041188,-8142.265362,0.000000
2909.839235,740.205942,-11547.212695,-766.095498
2909.839563,1036.288319,-11399.171507,1149.143247
2909.839891,740.205942,-8216.285956,842.705048
2909.840218,814.226536,-8734.430116,0.000000
2909.840546,1850.514855,-11251.130318,-1225.752797
2909.840874,2146.597232,-12065.356855,-306.438199
2909.841202,1184.329507,-9918.759623,459.657299
2909.841529,740.205942,-7772.162391,383.047749
2909.841857,1332.370696,-9030.512492,-766.095498
2909.842185,222.061783,-10732.986159,-1149.143247
2909.842512,-1850.514855,-9918.759623,-612.876398
2909.842840,-2368.659014,-8142.265362,-1608.800546
2909.843168,-1554.432478,-9548.656652,-2987.772442
2909.843495,0.000000,-11843.295072,-2374.896044
2909.843823,74.020594,-11695.253884,-536.266849
2909.844151,-814.226536,-9252.574275,1072.533697
2909.844479,148.041188,-8290.306550,-459.657299
2909.844806,1184.329507,-10066.800811,-1225.752797
2909.845134,962.267725,-11103.089130,-229.828649
2909.845462,0.000000,-8512.368333,995.924147
2909.845789,296.082377,-7105.977043,76.609550
2909.846117,1850.514855,-10140.821405,-383.047749
2909.846445,1850.514855,-13249.686362,-536.266849
2909.846772,814.226536,-12435.459826,689.485948
2909.847100,592.164754,-8956.491898,0.000000
2909.847428,814.226536,-9252.574275,-1915.238745
2909.847755,518.144159,-12361.439231,-1608.800546
2909.848083,-1332.370696,-10362.883188,459.657299
2909.848411,-1776.494261,-6365.771101,1608.800546
2909.848739,-740.205942,-6735.874072,995.924147
2909.849066,-370.102971,-9622.677246,459.657299
2909.849394,-666.185348,-9770.718434,1072.533697
2909.849722,-1332.370696,-7476.080014,995.924147
2909.850049,-1332.370696,-6735.874072,-459.657299
2909.850377,0.000000,-9252.574275,-1378.971896
2909.850705,74.020594,-10955.047942,-766.095498
2909.851032,0.000000,-8882.471304,995.924147
2909.851360,1258.350101,-8438.347739,229.828649
2909.851688,3182.885551,-11473.192101,0.000000
2909.852016,3034.844362,-13471.748144,306.438199
2909.852343,1258.350101,-11547.212695,1072.533697
2909.852671,0.000000,-7179.997637,0.000000
2909.852999,0.000000,-7105.977043,-1149.143247
2909.853326,296.082377,-10584.944971,-766.095498
2909.853654,148.041188,-10510.924376,-383.047749
2909.853982,-666.185348,-7476.080014,306.438199
2909.854309,-666.185348,-7550.100608,-766.095498
2909.854637,-592.164754,-10658.965565,-1608.800546
2909.854965,-740.205942,-11547.212695,-919.314598
2909.855293,-962.267725,-9548.656652,-1378.971896
2909.855620,-444.123565,-8364.327145,-2145.067394
2909.855948,1480.411884,-11325.150913,-1915.238745
2909.856276,2368.659014,-12953.603985,-995.924147
2909.856603,1850.514855,-12139.377449,995.924147
2909.856931,1628.453072,-9252.574275,536.266849
2909.857259,1998.556043,-8956.491898,-842.705048
2909.857586,1406.391290,-11769.274478,-1838.629195
2909.857914,74.020594,-11251.130318,-536.266849
2909.858242,0.000000,-7624.121203,-459.657299
2909.858570,-222.061783,-6735.874072,-689.485948
2909.858897,222.061783,-9992.780217,0.000000
2909.859225,518.144159,-10214.842000,842.705048
2909.859553,0.000000,-7994.224174,1302.362347
2909.859880,740.205942,-7846.182985,306.438199
2909.860208,1628.453072,-10140.821405,-306.438199
2909.860536,1036.288319,-11547.212695,536.266849
2909.860863,-962.267725,-9400.615463,1762.019645
2909.861191,-1998.556043,-6883.915261,536.266849
2909.861519,-962.267725,-9104.533087,-1225.752797
2909.861846,-592.164754,-11547.212695,-766.095498
2909.862174,-666.185348,-10140.821405,-306.438199
2909.862502,1258.350101,-7772.162391,0.000000
2909.862830,2220.617826,-8438.347739,0.000000
2909.863157,2738.761985,-11177.109724,536.266849
2909.863485,1924.535449,-11251.130318,1762.019645
2909.863813,-148.041188,-7920.203579,2298.286494
2909.864140,-296.082377,-7105.977043,919.314598
2909.864468,296.082377,-9326.594869,0.000000
2909.864796,-814.226536,-10584.944971,383.047749
2909.865123,-1258.350101,-9474.636058,153.219100
2909.865451,-1110.308913,-8956.491898,-536.266849
2909.865779,-444.123565,-11103.089130,-1685.410096
2909.866107,0.000000,-12213.398043,-1991.848295
2909.866434,-518.144159,-10362.883188,-1149.143247
2909.866762,-1258.350101,-7994.224174,536.266849
2909.867090,-222.061783,-9252.574275,-1685.410096
2909.867417,814.226536,-11473.192101,-1455.581446
2909.867745,1258.350101,-11399.171507,76.609550
2909.868073,1406.391290,-8882.471304,995.924147
2909.868400,1776.494261,-8512.368333,0.000000
2909.868728,1776.494261,-11251.130318,-1072.533697
2909.869056,1702.473667,-13027.624579,-612.876398
2909.869384,148.041188,-10214.842000,-383.047749
2909.869711,-148.041188,-7476.080014,-766.095498
2909.870039,74.020594,-8438.347739,-842.705048
2909.870367,666.185348,-10066.800811,0.000000
2909.870694,592.164754,-10066.800811,1072.533697
2909.871022,0.000000,-8068.244768,1455.581446
2909.871350,444.123565,-8660.409521,153.219100
2909.871677,1628.453072,-10881.027347,-1685.410096
2909.872005,296.082377,-11177.109724,-153.219100
2909.872333,-1406.391290,-7920.203579,229.828649
2909.872660,-1110.308913,-7105.977043,-1149.143247
2909.872988,888.247130,-10732.986159,-2068.457845
2909.873316,1110.308913,-12657.521608,0.000000
2909.873644,444.123565,-9400.615463,689.485948
2909.873971,666.185348,-7698.141797,536.266849
2909.874299,2072.576638,-10955.047942,-229.828649
2909.874627,1628.453072,-12583.501014,153.219100
2909.874954,148.041188,-9844.739029,1149.143247
2909.875282,0.000000,-5847.626942,536.266849
2909.875610,1554.432478,-7328.038826,-229.828649
2909.875937,2368.659014,-10066.800811,766.095498
2909.876265,1258.350101,-9918.759623,1915.238745
2909.876593,-222.061783,-8142.265362,1762.019645
2909.876920,148.041188,-9400.615463,-536.266849
2909.877248,0.000000,-11251.130318,-2221.676944
2909.877576,-740.205942,-11547.212695,-1991.848295
2909.877903,-2516.700203,-8438.347739,-536.266849
2909.878231,-2072.576638,-8734.430116,-1072.533697
2909.878559,444.123565,-11843.295072,-1302.362347
2909.878887,2072.576638,-13841.851115,-153.219100
2909.879214,814.226536,-10807.006753,1225.752797
2909.879542,814.226536,-7550.100608,995.924147
2909.879870,1110.308913,-8586.388927,-919.314598
2909.880197,0.000000,-11251.130318,-536.266849
2909.880525,-1480.411884,-10436.903782,612.876398
2909.880853,-1258.350101,-7254.018232,0.000000
2909.881180,-148.041188,-7402.059420,-995.924147
2909.881508,1850.514855,-11621.233289,-1455.581446
2909.881836,1110.308913,-12509.480420,459.657299
2909.882163,0.000000,-9548.656652,919.314598
2909.882491,518.144159,-9104.533087,-1149.143247
2909.882819,962.267725,-11325.150913,-2681.334243
2909.883147,-666.185348,-11621.233289,-995.924147
2909.883474,-1998.556043,-7402.059420,689.485948
2909.883802,-1998.556043,-5477.523971,76.609550
2909.884130,-296.082377,-9622.677246,-306.438199
2909.884457,666.185348,-13027.624579,0.000000
2909.884785,370.102971,-10288.862594,689.485948
2909.885113,-296.082377,-7476.080014,229.828649
2909.885440,518.144159,-8586.388927,-1302.362347
2909.885768,1184.329507,-11991.336260,-1838.629195
2909.886096,666.185348,-11917.315666,0.000000
2909.886423,592.164754,-8364.327145,995.924147
2909.886751,1776.494261,-7402.059420,536.266849
2909.887079,2368.659014,-9474.636058,-306.438199
2909.887407,1332.370696,-10955.047942,842.705048
2909.887734,-592.164754,-8068.244768,842.705048
2909.888062,-666.185348,-7476.080014,-536.266849
2909.888390,0.000000,-10510.924376,-1608.800546
2909.888717,740.205942,-10955.047942,-842.705048
2909.889045,0.000000,-8364.327145,536.266849
2909.889373,222.061783,-7254.018232,689.485948
2909.889700,1184.329507,-10140.821405,536.266849
2909.890028,2220.617826,-12805.562797,-842.705048
2909.890356,1406.391290,-11251.130318,0.000000
2909.890683,1110.308913,-8290.306550,229.828649
2909.891011,1628.453072,-8512.368333,-919.314598
2909.891339,1628.453072,-11843.295072,-689.485948
2909.891666,74.020594,-12361.439231,1072.533697
2909.891994,148.041188,-9030.512492,383.047749
2909.892322,888.247130,-7328.038826,-383.047749
2909.892650,1628.453072,-9918.759623,-1991.848295
2909.892977,1110.308913,-10658.965565,0.000000
2909.893305,0.000000,-8808.450710,1302.362347
2909.893633,-296.082377,-7624.121203,459.657299
2909.893960,0.000000,-8882.471304,-995.924147
2909.894288,74.020594,-10288.862594,-1608.800546
2909.894616,-1036.288319,-8956.491898,-612.876398
2909.894943,-888.247130,-7994.224174,76.609550
2909.895271,-296.082377,-10436.903782,-536.266849
2909.895599,888.247130,-12805.562797,-1225.752797
2909.895926,1184.329507,-12435.459826,-612.876398
2909.896254,666.185348,-10362.883188,-229.828649
2909.896582,740.205942,-9178.553681,-306.438199
2909.896910,1480.411884,-11251.130318,-689.485948
2909.897237,1184.329507,-11251.130318,-383.047749
2909.897565,-370.102971,-9252.574275,1072.533697
2909.897893,-1110.308913,-6809.894666,1455.581446
2909.898220,-222.061783,-7698.141797,229.828649
2909.898548,-592.164754,-8734.430116,-383.047749
2909.898876,-2072.576638,-8216.285956,-612.876398
2909.899203,-2294.638420,-7550.100608,-306.438199
2909.899531,-1406.391290,-9548.656652,-383.047749
2909.899859,-518.144159,-11325.150913,-536.266849
2909.900186,-518.144159,-10732.986159,0.000000
2909.900514,-1110.308913,-8956.491898,0.000000
2909.900842,0.000000,-9992.780217,-536.266849
2909.901170,1258.350101,-12583.501014,-1378.971896
2909.901497,2146.597232,-12361.439231,76.609550
2909.901825,1702.473667,-9178.553681,536.266849
2909.902153,1554.432478,-7328.038826,0.000000
2909.902480,1480.411884,-9548.656652,-689.485948
2909.902808,1184.329507,-11843.295072,-306.438199
2909.903136,296.082377,-10066.800811,229.828649
2909.903463,222.061783,-6957.935855,-612.876398
2909.903791,1110.308913,-7402.059420,-995.924147
2909.904119,1850.514855,-10066.800811,229.828649
2909.904446,1702.473667,-11473.192101,1149.143247
2909.904774,666.185348,-9400.615463,1378.971896
2909.905102,296.082377,-8438.347739,-306.438199
2909.905429,666.185348,-9622.677246,-1225.752797
2909.905757,-222.061783,-9770.718434,-536.266849
2909.906085,-1702.473667,-7328.038826,1378.971896
2909.906413,-1184.329507,-7772.162391,229.828649
2909.906740,740.205942,-10807.006753,-1149.143247
2909.907068,1850.514855,-13693.809927,-1149.143247
2909.907396,888.247130,-10807.006753,-536.266849
2909.907723,1480.411884,-7994.224174,-612.876398
2909.908051,2664.741391,-10066.800811,-919.314598
2909.908379,2220.617826,-12953.603985,-306.438199
2909.908706,1998.556043,-12065.356855,842.705048
2909.909034,1332.370696,-7846.182985,995.924147
2909.909362,888.247130,-7031.956449,689.485948
2909.909689,740.205942,-9622.677246,0.000000
2909.910017,-370.102971,-9844.739029,612.876398
2909.910345,-2812.782580,-7846.182985,459.657299
2909.910673,-2590.720797,-7402.059420,-842.705048
2909.911000,222.061783,-8956.491898,-1838.629195
2909.911328,888.247130,-11029.068536,-612.876398
2909.911656,-370.102971,-9326.594869,1225.752797
2909.911983,-148.041188,-8660.409521,919.314598
2909.912311,1258.350101,-11029.068536,0.000000
2909.912639,1850.514855,-12879.583391,-689.485948
2909.912966,296.082377,-10066.800811,383.047749
2909.913294,-1258.350101,-6661.853478,689.485948
2909.913622,-1184.329507,-9326.594869,-536.266849
2909.913949,296.082377,-13471.748144,-1608.800546
2909.914277,0.000000,-12435.459826,-995.924147
2909.914605,-1554.432478,-8290.306550,306.438199
2909.914933,-518.144159,-7105.977043,766.095498
2909.915260,-296.082377,-8734.430116,-306.438199
2909.915588,74.020594,-9548.656652,0.000000
2909.915916,-2146.597232,-7920.203579,689.485948
2909.916243,-1924.535449,-6587.832884,-459.657299
2909.916571,148.041188,-8586.388927,-1378.971896
2909.916899,740.205942,-10658.965565,-689.485948
2909.917226,0.000000,-10658.965565,383.047749
2909.917554,-1332.370696,-9844.739029,612.876398
2909.917882,296.082377,-11621.233289,-1532.190996
2909.918209,1924.535449,-13767.830521,-3294.210641
2909.918537,666.185348,-11917.315666,-1991.848295
2909.918865,-222.061783,-8142.265362,0.000000
2909.919192,444.123565,-8438.347739,0.000000
2909.919520,1554.432478,-11843.295072,536.266849
2909.919848,592.164754,-12213.398043,842.705048
2909.920176,-814.226536,-7550.100608,1915.238745
2909.920503,-740.205942,-5921.647536,459.657299
2909.920831,888.247130,-8216.285956,-1072.533697
2909.921159,814.226536,-10732.986159,-842.705048
2909.921486,0.000000,-9696.697840,229.828649
2909.921814,-296.082377,-7402.059420,0.000000
2909.922142,1480.411884,-9030.512492,-306.438199
2909.922469,1850.514855,-10955.047942,-689.485948
2909.922797,222.061783,-10658.965565,766.095498
2909.923125,-592.164754,-8808.450710,689.485948
2909.923452,888.247130,-9400.615463,-383.047749
2909.923780,1850.514855,-11991.336260,-842.705048
2909.924108,1628.453072,-10510.924376,842.705048
2909.924436,962.267725,-6365.771101,76.609550
2909.924763,666.185348,-6957.935855,995.924147
2909.925091,1776.494261,-10807.006753,-306.438199
2909.925419,1480.411884,-12879.583391,-612.876398
2909.925746,74.020594,-9844.739029,76.609550
2909.926074,0.000000,-7105.977043,0.000000
2909.926402,1110.308913,-9548.656652,-1378.971896
2909.926729,1776.494261,-11917.315666,-919.314598
2909.927057,222.061783,-10436.903782,459.657299
2909.927385,0.000000,-8216.285956,-153.219100
2909.927712,444.123565,-8290.306550,-1455.581446
2909.928040,888.247130,-9918.759623,-1378.971896
2909.928368,0.000000,-9844.739029,0.000000
2909.928696,-1850.514855,-7846.182985,1072.533697
2909.929023,-1258.350101,-8512.368333,306.438199
2909.929351,1332.370696,-11769.274478,-2451.505594
2909.929679,962.267725,-12287.418637,-1532.190996
2909.930006,0.000000,-9844.739029,229.828649
2909.930334,666.185348,-8882.471304,0.000000
2909.930662,1924.535449,-11843.295072,-995.924147
2909.930989,1036.288319,-14508.036463,-383.047749
2909.931317,222.061783,-10732.986159,383.047749
2909.931645,-592.164754,-6883.915261,459.657299
2909.931972,74.020594,-7994.224174,-536.266849
2909.932300,148.041188,-10584.944971,-842.705048
2909.932628,-1776.494261,-9992.780217,459.657299
2909.932955,-2664.741391,-6291.750507,612.876398
2909.933283,-740.205942,-6513.812290,-1378.971896
2909.933611,-296.082377,-10140.821405,-229.828649
2909.933939,-148.041188,-9548.656652,766.095498
2909.934266,-2146.597232,-7179.997637,1455.581446
2909.934594,-2368.659014,-7772.162391,766.095498
2909.934922,-1258.350101,-11251.130318,-612.876398
2909.935249,0.000000,-12213.398043,-689.485948
2909.935577,-518.144159,-9548.656652,229.828649
2909.935905,0.000000,-9104.533087,-612.876398
2909.936232,1332.370696,-11769.274478,-766.095498
2909.936560,2294.638420,-13989.892304,-306.438199
2909.936888,1110.308913,-11325.150913,1072.533697
2909.937215,592.164754,-7328.038826,612.876398
2909.937543,1184.329507,-7031.956449,-689.485948
2909.937871,1406.391290,-9992.780217,-1225.752797
2909.938199,370.102971,-10140.821405,229.828649
2909.938526,0.000000,-7179.997637,919.314598
2909.938854,370.102971,-6513.812290,76.609550
2909.939182,1258.350101,-9918.759623,-536.266849
2909.939509,1036.288319,-11843.295072,0.000000
2909.939837,0.000000,-9770.718434,383.047749
2909.940165,-518.144159,-8660.409521,-229.828649
2909.940492,814.226536,-11399.171507,-2451.505594
2909.940820,1702.473667,-11547.212695,-1532.190996
2909.941148,1184.329507,-9770.718434,689.485948
2909.941475,1036.288319,-9178.553681,1608.800546
2909.941803,2368.659014,-10436.903782,153.219100
2909.942131,3034.844362,-13249.686362,-1225.752797
2909.942459,1850.514855,-11991.336260,0.000000
2909.942786,740.205942,-8216.285956,995.924147
2909.943114,666.185348,-7105.977043,76.609550
2909.943442,1776.494261,-9770.718434,-383.047749
2909.943769,1110.308913,-11251.130318,0.000000
2909.944097,0.000000,-8586.388927,0.000000
2909.944425,-370.102971,-7254.018232,-612.876398
2909.944752,518.144159,-9104.533087,-919.314598
2909.945080,0.000000,-9918.759623,0.000000
2909.945408,-1924.535449,-8808.450710,1991.848295
2909.945735,-1998.556043,-7328.038826,1455.581446
2909.946063,74.020594,-8364.327145,-1378.971896
2909.946391,1702.473667,-11325.150913,-1225.752797
2909.946718,1036.288319,-10955.047942,306.438199
2909.947046,962.267725,-8512.368333,1149.143247
2909.947374,1702.473667,-9474.636058,306.438199
2909.947702,2220.617826,-13101.645173,-153.219100
2909.948029,592.164754,-12953.603985,153.219100
2909.948357,-1332.370696,-7402.059420,-306.438199
2909.948685,-2664.741391,-6217.729913,-995.924147
2909.949012,-1480.411884,-10584.944971,-1302.362347
2909.949340,296.082377,-12879.583391,-612.876398
2909.949668,0.000000,-9400.615463,995.924147
2909.949995,-148.041188,-5995.668130,1072.533697
2909.950323,0.000000,-7920.203579,0.000000
2909.950651,-666.185348,-10288.862594,0.000000
2909.950978,-2812.782580,-8882.471304,229.828649
2909.951306,-3775.050304,-6883.915261,-459.657299
2909.951634,-1924.535449,-8586.388927,-1838.629195
2909.951962,1110.308913,-12139.377449,-2068.457845
2909.952289,1628.453072,-12805.562797,0.000000
2909.952617,962.267725,-10658.965565,995.924147
2909.952945,1480.411884,-11103.089130,153.219100
2909.953272,1776.494261,-12879.583391,-1915.238745
2909.953600,1110.308913,-12509.480420,-1838.629195
2909.953928,-592.164754,-8290.306550,153.219100
2909.954255,-814.226536,-5181.441594,1455.581446
2909.954583,0.000000,-7402.059420,1072.533697
2909.954911,-296.082377,-10436.903782,229.828649
2909.955238,-1036.288319,-9918.759623,612.876398
2909.955566,-1258.350101,-7031.956449,0.000000
2909.955894,0.000000,-7476.080014,-1991.848295
2909.956222,814.226536,-10362.883188,-2221.676944
2909.956549,518.144159,-11325.150913,-536.266849
2909.956877,-148.041188,-8364.327145,612.876398
2909.957205,1702.473667,-8734.430116,383.047749
2909.957532,2886.803174,-11103.089130,-842.705048
2909.957860,2886.803174,-11843.295072,0.000000
2909.958188,1258.350101,-8882.471304,842.705048
2909.958515,1110.308913,-8586.388927,76.609550
2909.958843,1776.494261,-11843.295072,-536.266849
2909.959171,1702.473667,-12361.439231,-919.314598
2909.959498,0.000000,-8586.388927,0.000000
2909.959826,0.000000,-6365.771101,76.609550
2909.960154,1406.391290,-8808.450710,-612.876398
2909.960481,2442.679609,-11991.336260,76.609550
2909.960809,1258.350101,-10955.047942,1225.752797
2909.961137,0.000000,-7476.080014,1225.752797
2909.961465,518.144159,-8068.244768,0.000000
2909.961792,1406.391290,-10955.047942,-1608.800546
2909.962120,-814.226536,-11029.068536,-689.485948
2909.962448,-1850.514855,-8734.430116,0.000000
2909.962775,-444.123565,-8216.285956,-995.924147
2909.963103,2072.576638,-10807.006753,-1149.143247
2909.963431,1998.556043,-11991.336260,306.438199
2909.963758,444.123565,-9474.636058,1838.629195
2909.964086,370.102971,-7328.038826,1072.533697
2909.964414,666.185348,-9844.739029,-1302.362347
2909.964741,888.247130,-12287.418637,-1072.533697
2909.965069,0.000000,-9918.759623,536.266849
2909.965397,-518.144159,-7105.977043,1225.752797
2909.965725,0.000000,-8586.388927,0.000000
2909.966052,148.041188,-12583.501014,-995.924147
2909.966380,-740.205942,-11917.315666,-612.876398
2909.966708,-1850.514855,-8364.327145,0.000000
2909.967035,-814.226536,-7550.100608,-919.314598
2909.967363,0.000000,-9178.553681,-1302.362347
2909.967691,-1110.308913,-10214.842000,0.000000
2909.968018,-2220.617826,-8290.306550,1455.581446
2909.968346,-2220.617826,-7031.956449,842.705048
2909.968674,-296.082377,-9252.574275,-1072.533697
2909.969001,0.000000,-10955.047942,-1685.410096
2909.969333,-1110.308913,-9918.759623,-612.876398
2909.969660,-1406.391290,-8068.244768,0.000000
2909.969988,444.123565,-9918.759623,-919.314598
2909.970316,2590.720797,-13323.706956,-459.657299
2909.970644,1110.308913,-12657.521608,0.000000
2909.970971,-814.226536,-9622.677246,0.000000
2909.971299,-740.205942,-9252.574275,-842.705048
2909.971627,222.061783,-11695.253884,-2221.676944
2909.971955,814.226536,-11843.295072,-1608.800546
2909.972282,-222.061783,-7698.141797,306.438199
2909.972610,0.000000,-6661.853478,1225.752797
2909.972938,1924.535449,-8808.450710,0.000000
2909.973265,2072.576638,-11029.068536,-612.876398
2909.973593,148.041188,-9992.780217,0.000000
2909.973921,-518.144159,-7328.038826,-459.657299
2909.974249,1258.350101,-8438.347739,-1532.190996
2909.974576,2368.659014,-12065.356855,-919.314598
2909.974904,888.247130,-11399.171507,1532.190996
2909.975232,740.205942,-8734.430116,1915.238745
2909.975560,2590.720797,-8882.471304,306.438199
2909.975887,3034.844362,-11917.315666,0.000000
2909.976215,2072.576638,-11547.212695,383.047749
2909.976543,-148.041188,-7179.997637,1225.752797
2909.976870,-370.102971,-5847.626942,459.657299
2909.977198,666.185348,-8512.368333,-766.095498
2909.977526,1776.494261,-10732.986159,0.000000
2909.977854,740.205942,-8808.450710,1915.238745
2909.978181,814.226536,-7846.182985,612.876398
2909.978509,2294.638420,-10584.944971,-1455.581446
2909.978837,2368.659014,-13323.706956,-1532.190996
2909.979165,592.164754,-11251.130318,0.000000
2909.979492,-592.164754,-7105.977043,689.485948
2909.979820,-222.061783,-7105.977043,0.000000
2909.980148,888.247130,-11251.130318,-1225.752797
2909.980475,74.020594,-11399.171507,383.047749
2909.980803,-740.205942,-8586.388927,919.314598
2909.981131,-222.061783,-8364.327145,-306.438199
2909.981459,1110.308913,-11029.068536,-1838.629195
2909.981786,1258.350101,-12435.459826,-2068.457845
2909.982114,-296.082377,-10362.883188,-459.657299
2909.982442,0.000000,-8512.368333,536.266849
2909.982770,2146.597232,-10732.986159,-1378.971896
2909.983097,2590.720797,-13027.624579,-689.485948
2909.983425,518.144159,-10436.903782,1149.143247
2909.983753,-592.164754,-6735.874072,1685.410096
2909.984080,-1258.350101,-7698.141797,766.095498
2909.984408,-2146.597232,-9992.780217,-842.705048
2909.984736,-3849.070898,-9770.718434,-1149.143247
2909.985064,-4663.297435,-7994.224174,-995.924147
2909.985391,-3108.864956,-7476.080014,-995.924147
2909.985719,0.000000,-10807.006753,-919.314598
2909.986047,814.226536,-12139.377449,919.314598
2909.986375,148.041188,-9474.636058,2068.457845
2909.986702,222.061783,-8290.306550,1225.752797
2909.987030,1480.411884,-10584.944971,-536.266849
2909.987358,666.185348,-11695.253884,-612.876398
2909.987686,-1258.350101,-9326.594869,842.705048
2909.988013,-1258.350101,-6809.894666,919.314598
2909.988341,888.247130,-9326.594869,-459.657299
2909.988669,1924.535449,-12657.521608,-689.485948
2909.988996,518.144159,-11473.192101,612.876398
2909.989324,-1332.370696,-7328.038826,612.876398
2909.989652,-740.205942,-6439.791695,-1532.190996
2909.989980,-222.061783,-10066.800811,-2068.457845
2909.990307,-962.267725,-10732.986159,76.609550
2909.990635,-1776.494261,-7328.038826,1762.019645
2909.990963,74.020594,-6291.750507,842.705048
2909.991291,2146.597232,-11399.171507,-383.047749
2909.991618,1258.350101,-13323.706956,-689.485948
2909.991946,518.144159,-10881.027347,-383.047749
2909.992274,740.205942,-9030.512492,-1455.581446
2909.992601,1998.556043,-10955.047942,-2834.553343
2909.992929,2368.659014,-12583.501014,-1685.410096
2909.993257,814.226536,-11325.150913,1149.143247
2909.993585,518.144159,-8438.347739,1455.581446
2909.993912,1776.494261,-8586.388927,0.000000
2909.994240,2516.700203,-10584.944971,-1072.533697
2909.994568,1110.308913,-9474.636058,766.095498
2909.994896,-296.082377,-6735.874072,1991.848295
2909.995223,0.000000,-6883.915261,612.876398
2909.995551,1480.411884,-9474.636058,-766.095498
2909.995879,1332.370696,-10955.047942,-1532.190996
2909.996206,-666.185348,-9400.615463,459.657299
2909.996534,-592.164754,-8586.388927,612.876398
2909.996862,666.185348,-10658.965565,-1149.143247
2909.997190,1628.453072,-13101.645173,-1378.971896
2909.997517,1036.288319,-11029.068536,0.000000
2909.997845,888.247130,-7846.182985,689.485948
2909.998173,2072.576638,-8364.327145,612.876398
2909.998501,2960.823768,-11325.150913,612.876398
2909.998828,888.247130,-10436.903782,1225.752797
2909.999156,-666.185348,-6809.894666,1455.581446
2909.999484,-740.205942,-6291.750507,0.000000
2909.999811,518.144159,-9844.739029,-689.485948
2910.000139,592.164754,-10955.047942,-766.095498
2910.000467,-1184.329507,-9178.553681,0.000000
2910.000795,-666.185348,-8660.409521,229.828649
2910.001122,592.164754,-10436.903782,-2221.676944
2910.001450,740.205942,-12213.398043,-1302.362347
2910.001778,-740.205942,-10584.944971,689.485948
2910.002106,-740.205942,-7772.162391,459.657299
2910.002433,74.020594,-8956.491898,-1378.971896
2910.002761,296.082377,-11991.336260,-842.705048
2910.003089,-740.205942,-11325.150913,76.609550
2910.003417,-1554.432478,-8216.285956,0.000000
2910.003744,-740.205942,-8068.244768,-1455.581446
2910.004072,0.000000,-10881.027347,-1838.629195
2910.004400,-444.123565,-11843.295072,-766.095498
2910.004727,-1184.329507,-9548.656652,1149.143247
2910.005055,-814.226536,-7994.224174,0.000000
2910.005383,1850.514855,-9474.636058,-1225.752797
2910.005711,1702.473667,-11251.130318,0.000000
2910.006038,-1036.288319,-9474.636058,2834.553343
2910.006366,-2072.576638,-7328.038826,1991.848295
2910.006694,-1184.329507,-8808.450710,-1302.362347
2910.007022,-740.205942,-11399.171507,-2451.505594
2910.007349,-1702.473667,-10584.944971,-995.924147
2910.007677,-2516.700203,-6809.894666,919.314598
2910.008005,0.000000,-8068.244768,0.000000
2910.008332,2220.617826,-11843.295072,-1072.533697
2910.008660,2368.659014,-12879.583391,0.000000
2910.008988,1924.535449,-9104.533087,1149.143247
2910.009316,1850.514855,-7105.977043,459.657299
2910.009643,2590.720797,-10214.842000,0.000000
2910.009971,1702.473667,-12287.418637,-306.438199
2910.010299,-518.144159,-9178.553681,1149.143247
2910.010627,-814.226536,-5995.668130,1149.143247
2910.010954,1406.391290,-8808.450710,-383.047749
2910.011282,1480.411884,-11547.212695,-612.876398
2910.011610,-296.082377,-10140.821405,229.828649
2910.011937,-1332.370696,-7179.997637,229.828649
2910.012265,370.102971,-7920.203579,-1991.848295
2910.012593,1702.473667,-11029.068536,-2145.067394
2910.012921,1850.514855,-11325.150913,0.000000
2910.013248,814.226536,-8734.430116,1915.238745
2910.013576,2072.576638,-8438.347739,919.314598
2910.013904,3552.988522,-13027.624579,-919.314598
2910.014232,3108.864956,-14508.036463,-1455.581446
2910.014559,1110.308913,-9696.697840,-919.314598
2910.014887,0.000000,-7105.977043,-1532.190996
2910.015215,666.185348,-10214.842000,-1685.410096
2910.015542,370.102971,-12879.583391,-995.924147
2910.015870,-592.164754,-10436.903782,229.828649
2910.016198,-1110.308913,-7105.977043,689.485948
2910.016526,962.267725,-7994.224174,-306.438199
2910.016853,2294.638420,-9992.780217,-766.095498
2910.017181,962.267725,-9622.677246,842.705048
2910.017509,-222.061783,-7624.121203,1685.410096
2910.017837,888.247130,-7772.162391,-383.047749
2910.018164,1628.453072,-11695.253884,-1762.019645
2910.018492,962.267725,-11843.295072,0.000000
2910.018820,-814.226536,-8882.471304,766.095498
2910.019148,-1406.391290,-7402.059420,1225.752797
2910.019475,-222.061783,-11251.130318,-689.485948
2910.019803,74.020594,-11843.295072,-766.095498
2910.020131,-1332.370696,-8586.388927,306.438199
2910.020458,-2664.741391,-6809.894666,1149.143247
2910.020786,-1406.391290,-8364.327145,842.705048
2910.021114,296.082377,-11029.068536,306.438199
2910.021442,370.102971,-10881.027347,76.609550
2910.021769,-296.082377,-7476.080014,1608.800546
2910.022097,222.061783,-7624.121203,0.000000
2910.022425,1110.308913,-10807.006753,-1455.581446
2910.022753,-740.205942,-11177.109724,-612.876398
2910.023080,-2220.617826,-8438.347739,-459.657299
2910.023408,-1776.494261,-7772.162391,-1685.410096
2910.023736,296.082377,-11251.130318,-2451.505594
2910.024063,1184.329507,-13027.624579,-842.705048
2910.024391,0.000000,-10214.842000,1532.190996
2910.024719,-296.082377,-7476.080014,995.924147
2910.025047,518.144159,-9770.718434,-1532.190996
2910.025374,518.144159,-12065.356855,-1762.019645
2910.025702,-296.082377,-10066.800811,-766.095498
2910.026030,-1036.288319,-6957.935855,-229.828649
2910.026358,1258.350101,-8882.471304,-995.924147
2910.026685,1850.514855,-13175.665768,-995.924147
2910.027013,1332.370696,-14804.118840,0.000000
2910.027341,222.061783,-10584.944971,-153.219100
2910.027668,1258.350101,-8512.368333,-1838.629195
2910.027996,1998.556043,-10214.842000,-3370.820191
2910.028324,666.185348,-10436.903782,-766.095498
2910.028652,-444.123565,-7772.162391,1762.019645
2910.028979,0.000000,-6217.729913,1378.971896
2910.029307,666.185348,-8660.409521,229.828649
2910.029635,1406.391290,-9992.780217,0.000000
2910.029963,-1480.411884,-7402.059420,1685.410096
2910.030290,-888.247130,-6735.874072,1072.533697
2910.030618,740.205942,-9474.636058,-919.314598
2910.030946,2220.617826,-12731.542202,-1608.800546
2910.031273,1036.288319,-11103.089130,153.219100
2910.031601,1258.350101,-9178.553681,1455.581446
2910.031929,2368.659014,-9178.553681,919.314598
2910.032257,2294.638420,-12435.459826,153.219100
2910.032584,444.123565,-12583.501014,1225.752797
2910.032912,-518.144159,-8512.368333,1149.143247
2910.033240,-370.102971,-5995.668130,-306.438199
2910.033568,814.226536,-8586.388927,-1378.971896
2910.033895,-370.102971,-9770.718434,536.266849
2910.034223,-1258.350101,-8216.285956,1455.581446
2910.034551,-740.205942,-6587.832884,459.657299
2910.034879,1258.350101,-9030.512492,-1762.019645
2910.035206,1406.391290,-11917.315666,-766.095498
2910.035534,-518.144159,-10584.944971,612.876398
2910.035862,-1258.350101,-8734.430116,766.095498
2910.036189,296.082377,-10214.842000,-1762.019645
2910.036517,1702.473667,-13545.768739,-2451.505594
2910.036845,1184.329507,-13619.789333,-459.657299
2910.037173,1184.329507,-9844.739029,612.876398
2910.037500,814.226536,-8660.409521,-306.438199
2910.037828,370.102971,-11843.295072,-1072.533697
2910.038156,-1332.370696,-13101.645173,-536.266849
2910.038484,-3034.844362,-8956.491898,0.000000
2910.038811,-2294.638420,-5551.544565,-1302.362347
2910.039139,0.000000,-7476.080014,-1838.629195
2910.039467,370.102971,-10436.903782,0.000000
2910.039794,-814.226536,-9400.615463,2911.162892
2910.040122,-444.123565,-7031.956449,1072.533697
2910.040450,740.205942,-8512.368333,-1149.143247
2910.040778,888.247130,-11547.212695,-1532.190996
2910.041105,-888.247130,-10807.006753,383.047749
2910.041433,-1406.391290,-7476.080014,842.705048
2910.041761,222.061783,-8660.409521,306.438199
2910.042089,2072.576638,-11843.295072,-1225.752797
2910.042416,1480.411884,-11769.274478,-459.657299
2910.042744,222.061783,-8438.347739,1455.581446
2910.043072,518.144159,-6883.915261,842.705048
2910.043399,962.267725,-9252.574275,-689.485948
2910.043727,1036.288319,-11621.233289,0.000000
2910.044055,148.041188,-9400.615463,919.314598
2910.044383,740.205942,-7105.977043,689.485948
2910.044710,1110.308913,-8216.285956,-229.828649
2910.045038,1628.453072,-11547.212695,-919.314598
2910.045366,0.000000,-10955.047942,383.047749
2910.045694,-888.247130,-9030.512492,842.705048
2910.046021,-444.123565,-8438.347739,-766.095498
2910.046349,592.164754,-10288.862594,-1915.238745
2910.046677,0.000000,-10658.965565,-842.705048
2910.047004,-888.247130,-8808.450710,0.000000
2910.047332,-370.102971,-8290.306550,536.266849
2910.047660,2072.576638,-10807.006753,-689.485948
2910.047988,3108.864956,-12509.480420,-1149.143247
2910.048315,2368.659014,-11029.068536,-383.047749
2910.048643,1924.535449,-9474.636058,0.000000
2910.048971,2368.659014,-10955.047942,0.000000
2910.049299,1776.494261,-13545.768739,-1762.019645
2910.049626,148.041188,-11917.315666,-536.266849
2910.049954,-370.102971,-7772.162391,-229.828649
2910.050282,222.061783,-7402.059420,-383.047749
2910.050610,962.267725,-10955.047942,153.219100
2910.050937,-666.185348,-10732.986159,995.924147
2910.051265,-2516.700203,-6809.894666,1915.238745
2910.051593,-2146.597232,-4737.318029,-995.924147
2910.051920,-444.123565,-6883.915261,-2298.286494
2910.052248,370.102971,-10066.800811,-612.876398
2910.052576,-296.082377,-9844.739029,2068.457845
2910.052904,666.185348,-8142.265362,1455.581446
2910.053231,1924.535449,-10881.027347,-1149.143247
2910.053559,2812.782580,-14211.954086,-1685.410096
2910.053887,1406.391290,-13027.624579,0.000000
2910.054215,74.020594,-8364.327145,229.828649
2910.054542,666.185348,-8586.388927,-1149.143247
2910.054870,1036.288319,-12583.501014,-1225.752797
2910.055198,-148.041188,-12509.480420,766.095498
2910.055525,-1554.432478,-6661.853478,1991.848295
2910.055853,-1036.288319,-5107.421000,1149.143247
2910.056181,-592.164754,-8512.368333,-766.095498
2910.056509,-1036.288319,-11251.130318,-1072.533697
2910.056836,-1924.535449,-8882.471304,0.000000
2910.057164,-814.226536,-6513.812290,-995.924147
2910.057492,1924.535449,-9474.636058,-1532.190996
2910.057820,2368.659014,-12435.459826,-153.219100
2910.058147,666.185348,-10881.027347,1991.848295
2910.058475,740.205942,-7698.141797,1608.800546
2910.058803,2146.597232,-9252.574275,-1225.752797
2910.059130,1406.391290,-12731.542202,-1991.848295
2910.059458,-740.205942,-12361.439231,-383.047749
2910.059786,-1776.494261,-7846.182985,0.000000
2910.060114,-296.082377,-7179.997637,-1149.143247
2910.060441,1554.432478,-12583.501014,-919.314598
2910.060769,1036.288319,-13471.748144,1378.971896
2910.061097,222.061783,-8660.409521,1762.019645
2910.061425,592.164754,-6365.771101,306.438199
2910.061752,444.123565,-8512.368333,-1072.533697
2910.062080,-1110.308913,-10732.986159,-536.266849
2910.062408,-2960.823768,-7698.141797,766.095498
2910.062735,-1924.535449,-5847.626942,383.047749
2910.063063,1628.453072,-8808.450710,-1838.629195
2910.063391,2072.576638,-13323.706956,-689.485948
2910.063719,518.144159,-11843.295072,1072.533697
2910.064046,0.000000,-8586.388927,76.609550
2910.064374,148.041188,-8364.327145,-1762.019645
2910.064702,296.082377,-10955.047942,-2528.115143
2910.065030,666.185348,-10214.842000,76.609550
2910.065357,888.247130,-7550.100608,1838.629195
2910.065685,1406.391290,-7550.100608,2451.505594
2910.066013,2516.700203,-11695.253884,766.095498
2910.066341,1628.453072,-14137.933492,76.609550
2910.066668,-592.164754,-11621.233289,0.000000
2910.066996,-962.267725,-7254.018232,-1608.800546
2910.067324,0.000000,-7476.080014,-2528.115143
2910.067651,-592.164754,-11029.068536,-1302.362347
2910.067979,-1110.308913,-10658.965565,689.485948
2910.068307,-1110.308913,-7624.121203,842.705048
2910.068635,814.226536,-8512.368333,-229.828649
2910.068962,1628.453072,-11177.109724,-689.485948
2910.069290,0.000000,-9548.656652,-536.266849
2910.069618,-2368.659014,-7105.977043,306.438199
2910.069946,-296.082377,-7698.141797,-842.705048
2910.070273,1480.411884,-10510.924376,-1991.848295
2910.070601,1480.411884,-11843.295072,0.000000
2910.070929,222.061783,-9696.697840,1838.629195
2910.071256,962.267725,-8512.368333,842.705048
2910.071584,2072.576638,-11621.233289,-1225.752797
2910.071911,2072.576638,-14211.954086,-1225.752797
2910.072239,518.144159,-10955.047942,153.219100
2910.072566,0.000000,-6809.894666,689.485948
2910.072894,0.000000,-6809.894666,229.828649
2910.073222,74.020594,-9992.780217,0.000000
2910.073549,-1258.350101,-10140.821405,1685.410096
2910.073877,-1628.453072,-7254.018232,1072.533697
2910.074204,-148.041188,-6291.750507,-1225.752797
2910.074532,370.102971,-9474.636058,-1915.238745
2910.074859,-666.185348,-11473.192101,-229.828649
2910.075187,-1406.391290,-9474.636058,842.705048
2910.075515,148.041188,-8438.347739,-536.266849
2910.075842,1998.556043,-10658.965565,-842.705048
2910.076170,2738.761985,-13101.645173,153.219100
2910.076497,1850.514855,-10436.903782,1991.848295
2910.076825,1480.411884,-7624.121203,1762.019645
2910.077152,1776.494261,-9992.780217,-383.047749
2910.077480,1184.329507,-12435.459826,-995.924147
2910.077808,-592.164754,-10658.965565,306.438199
2910.078135,-1702.473667,-7476.080014,76.609550
2910.078463,-592.164754,-7328.038826,-1302.362347
2910.078790,592.164754,-10658.965565,-2068.457845
2910.079118,444.123565,-11991.336260,-689.485948
2910.079445,-370.102971,-9474.636058,689.485948
2910.079773,0.000000,-7105.977043,0.000000
2910.080101,1776.494261,-9992.780217,-1225.752797
2910.080428,740.205942,-12361.439231,0.000000
2910.080756,-2072.576638,-9252.574275,1685.410096
2910.081083,-1924.535449,-5995.668130,536.266849
2910.081411,0.000000,-9474.636058,-2221.676944
2910.081738,1184.329507,-12657.521608,-1838.629195
2910.082066,518.144159,-11177.109724,-536.266849
2910.082393,-296.082377,-8364.327145,995.924147
2910.082721,1776.494261,-9474.636058,0.000000
2910.083049,2442.679609,-12361.439231,-1149.143247
2910.083376,1776.494261,-12287.418637,229.828649
2910.083704,0.000000,-8660.409521,1608.800546
2910.084031,666.185348,-7105.977043,-229.828649
2910.084359,1184.329507,-8808.450710,-1302.362347
2910.084686,222.061783,-10510.924376,0.000000
2910.085014,-1554.432478,-9178.553681,995.924147
2910.085342,-1406.391290,-6957.935855,0.000000
2910.085669,0.000000,-8512.368333,-1838.629195
2910.085997,74.020594,-10362.883188,-2068.457845
2910.086324,-1776.494261,-9474.636058,76.609550
2910.086652,-1998.556043,-6587.832884,689.485948
2910.086979,1036.288319,-7402.059420,-1072.533697
2910.087307,3034.844362,-11695.253884,-536.266849
2910.087635,2368.659014,-11621.233289,919.314598
2910.087962,2220.617826,-8956.491898,2451.505594
2910.088290,2590.720797,-8808.450710,306.438199
2910.088617,2738.761985,-13249.686362,-1225.752797
2910.088945,814.226536,-14211.954086,-766.095498
2910.089272,-1332.370696,-9252.574275,-229.828649
2910.089600,-1554.432478,-6513.812290,-995.924147
2910.089928,0.000000,-9400.615463,-1762.019645
2910.090255,148.041188,-13027.624579,-1302.362347
2910.090583,-1554.432478,-10362.883188,1685.410096
2910.090910,-1184.329507,-5699.585753,1455.581446
2910.091238,222.061783,-6661.853478,-459.657299
2910.091565,444.123565,-10066.800811,-229.828649
2910.091893,-518.144159,-9844.739029,1915.238745
2910.092221,-962.267725,-6883.915261,1838.629195
2910.092548,1554.432478,-7698.141797,-766.095498
2910.092876,2664.741391,-11843.295072,-1685.410096
2910.093203,1850.514855,-13027.624579,229.828649
2910.093531,222.061783,-10362.883188,689.485948
2910.093858,444.123565,-9770.718434,-1225.752797
2910.094186,1406.391290,-12583.501014,-2834.553343
2910.094514,592.164754,-12657.521608,-1149.143247
2910.094841,148.041188,-8956.491898,1455.581446
2910.095169,-1628.453072,-5625.565159,2911.162892
2910.095496,-444.123565,-7624.121203,995.924147
2910.095824,0.000000,-10066.800811,-383.047749
2910.096151,-1406.391290,-9474.636058,0.000000
2910.096479,-2072.576638,-6587.832884,0.000000
2910.096807,-518.144159,-6957.935855,-383.047749
2910.097134,740.205942,-10807.006753,-1532.190996
2910.097462,-444.123565,-12361.439231,0.000000
2910.097789,-1258.350101,-9844.739029,612.876398
2910.098117,1036.288319,-8956.491898,-1225.752797
2910.098444,2960.823768,-12287.418637,-2911.162892
2910.098772,2368.659014,-13175.665768,-1302.362347
2910.099100,962.267725,-9474.636058,1149.143247
2910.099427,740.205942,-6883.915261,1302.362347
2910.099755,1776.494261,-9992.780217,0.000000
2910.100082,1554.432478,-12731.542202,229.828649
2910.100410,-666.185348,-10584.944971,689.485948
2910.100737,-1480.411884,-6809.894666,0.000000
2910.101065,-370.102971,-7476.080014,-995.924147
2910.101393,444.123565,-11621.233289,-1838.629195
2910.101720,-222.061783,-11991.336260,612.876398
2910.102048,-888.247130,-8290.306550,1455.581446
2910.102375,888.247130,-7624.121203,-689.485948
2910.102703,1036.288319,-10881.027347,-1149.143247
2910.103030,0.000000,-11769.274478,229.828649
2910.103358,-1480.411884,-7846.182985,1532.190996
2910.103685,-1480.411884,-5699.585753,1225.752797
2910.104013,1258.350101,-9178.553681,-1378.971896
2910.104341,1184.329507,-11843.295072,-689.485948
2910.104668,148.041188,-9474.636058,766.095498
2910.104996,222.061783,-7105.977043,153.219100
2910.105323,1998.556043,-10214.842000,-612.876398
2910.105651,1998.556043,-12805.562797,-766.095498
2910.105978,666.185348,-11325.150913,459.657299
2910.106306,0.000000,-7105.977043,1455.581446
2910.106634,1998.556043,-8216.285956,0.000000
2910.106961,2590.720797,-12287.418637,-459.657299
2910.107289,814.226536,-12139.377449,229.828649
2910.107616,-1480.411884,-7994.224174,612.876398
2910.107944,-962.267725,-7254.018232,-459.657299
2910.108271,0.000000,-10140.821405,-2068.457845
2910.108599,-1184.329507,-10807.006753,-919.314598
2910.108927,-2220.617826,-8290.306550,-383.047749
2910.109254,-1332.370696,-7105.977043,-1149.143247
2910.109582,666.185348,-9400.615463,-1991.848295
2910.109909,1998.556043,-12213.398043,-842.705048
2910.110237,1258.350101,-11029.068536,1225.752797
2910.110564,1184.329507,-8512.368333,1225.752797
2910.110892,2442.679609,-9548.656652,0.000000
2910.111220,3182.885551,-12805.562797,-1149.143247
2910.111547,888.247130,-12805.562797,766.095498
2910.111875,-1184.329507,-8882.471304,1149.143247
2910.112202,-962.267725,-7254.018232,-612.876398
2910.112530,148.041188,-10436.903782,-2451.505594
2910.112857,-592.164754,-11991.336260,-1762.019645
2910.113185,-2294.638420,-8438.347739,1378.971896
2910.113513,-1258.350101,-6291.750507,1149.143247
2910.113840,740.205942,-7772.162391,-1225.752797
2910.114168,888.247130,-10658.965565,-1072.533697
2910.114495,-1332.370696,-9474.636058,1455.581446
2910.114823,-518.144159,-6365.771101,919.314598
2910.115150,2146.597232,-8216.285956,-153.219100
2910.115478,2294.638420,-12657.521608,-612.876398
2910.115806,148.041188,-11843.295072,1072.533697
2910.116133,-1332.370696,-8364.327145,383.047749
2910.116461,814.226536,-8660.409521,-1838.629195
2910.116788,2368.659014,-12583.501014,-2221.676944
2910.117116,1332.370696,-13027.624579,0.000000
2910.117443,148.041188,-8882.471304,2068.457845
2910.117771,888.247130,-6291.750507,1838.629195
2910.118099,1924.535449,-9178.553681,-612.876398
2910.118426,518.144159,-11621.233289,-383.047749
2910.118754,-1554.432478,-9252.574275,612.876398
2910.119081,-1628.453072,-6143.709319,-995.924147
2910.119409,-296.082377,-8068.244768,-2221.676944
2910.119736,74.020594,-11769.274478,-1149.143247
2910.120064,-888.247130,-11325.150913,153.219100
2910.120392,-814.226536,-9178.553681,1072.533697
2910.120719,888.247130,-9326.594869,-1149.143247
2910.121047,1776.494261,-11917.315666,-2221.676944
2910.121374,666.185348,-11843.295072,0.000000
2910.121702,0.000000,-8290.306550,1378.971896
2910.122029,1702.473667,-6957.935855,766.095498
2910.122357,2220.617826,-9770.718434,459.657299
2910.122685,1776.494261,-12287.418637,1149.143247
2910.123012,222.061783,-9770.718434,1838.629195
2910.123340,0.000000,-7846.182985,0.000000
2910.123667,592.164754,-9992.780217,-2451.505594
2910.123995,962.267725,-12435.459826,-2451.505594
2910.124322,-740.205942,-10140.821405,-383.047749
2910.124650,-1406.391290,-7846.182985,995.924147
2910.124977,444.123565,-8364.327145,229.828649
2910.125305,1850.514855,-11325.150913,-766.095498
2910.125633,-296.082377,-10807.006753,766.095498
2910.125960,-2072.576638,-7254.018232,1302.362347
2910.126288,-1258.350101,-6069.688724,-383.047749
2910.126615,296.082377,-9178.553681,-1685.410096
2910.126943,0.000000,-10658.965565,-229.828649
2910.127270,0.000000,-8660.409521,383.047749
2910.127598,1406.391290,-7550.100608,306.438199
2910.127926,3627.009116,-10214.842000,-689.485948
2910.128253,2812.782580,-13175.665768,-459.657299
2910.128581,0.000000,-12435.459826,919.314598
2910.128908,0.000000,-8808.450710,-306.438199
2910.129236,2146.597232,-8956.491898,-2298.286494
2910.129563,2368.659014,-12361.439231,-842.705048
2910.129891,222.061783,-12065.356855,1302.362347
2910.130219,-1850.514855,-7994.224174,2681.334243
2910.130546,-1332.370696,-7254.018232,306.438199
2910.130874,-814.226536,-10288.862594,-2528.115143
2910.131201,-2146.597232,-11547.212695,-1302.362347
2910.131529,-3034.844362,-8142.265362,-459.657299
2910.131856,-1850.514855,-6365.771101,-766.095498
2910.132184,1036.288319,-9770.718434,-383.047749
2910.132512,2072.576638,-13249.686362,0.000000
2910.132839,1110.308913,-11177.109724,1685.410096
2910.133167,1850.514855,-8142.265362,536.266849
2910.133494,3256.906145,-9696.697840,-1915.238745
2910.133822,2516.700203,-12361.439231,-995.924147
2910.134149,0.000000,-11103.089130,1532.190996
2910.134477,-1332.370696,-7254.018232,1915.238745
2910.134805,-296.082377,-7402.059420,-306.438199
2910.135132,0.000000,-10955.047942,-1225.752797
2910.135460,-592.164754,-11843.295072,-229.828649
2910.135787,-1702.473667,-8142.265362,919.314598
2910.136115,-814.226536,-6291.750507,229.828649
2910.136442,74.020594,-8586.388927,-919.314598
2910.136770,74.020594,-10807.006753,229.828649
2910.137098,-1406.391290,-8586.388927,1838.629195
2910.137425,-1480.411884,-6217.729913,1149.143247
2910.137753,888.247130,-9918.759623,-1455.581446
2910.138080,1480.411884,-13841.851115,-1991.848295
2910.138408,1036.288319,-11843.295072,-919.314598
2910.138735,370.102971,-7624.121203,-383.047749
2910.139063,1702.473667,-8882.471304,-1455.581446
2910.139391,2368.659014,-12361.439231,-1608.800546
2910.139718,814.226536,-12509.480420,229.828649
2910.140046,-444.123565,-7994.224174,842.705048
2910.140373,296.082377,-7031.956449,-1302.362347
2910.140701,1998.556043,-9918.759623,-1302.362347
2910.141028,296.082377,-11399.171507,766.095498
2910.141356,-1702.473667,-8956.491898,1685.410096
2910.141684,-444.123565,-7254.018232,0.000000
2910.142011,1850.514855,-9918.759623,-2987.772442
2910.142339,1406.391290,-13545.768739,-1608.800546
2910.142666,-296.082377,-11621.233289,995.924147
2910.142994,-444.123565,-9178.553681,1762.019645
2910.143321,962.267725,-8660.409521,0.000000
2910.143649,1850.514855,-11843.295072,-2145.067394
2910.143977,518.144159,-10881.027347,-229.828649
2910.144304,0.000000,-7328.038826,1225.752797
2910.144632,1258.350101,-7402.059420,76.609550
2910.144959,2072.576638,-10658.965565,-306.438199
2910.145287,-222.061783,-11029.068536,689.485948
2910.145614,-1036.288319,-7476.080014,2298.286494
2910.145942,-222.061783,-6439.791695,689.485948
2910.146269,1110.308913,-9104.533087,-1072.533697
2910.146597,1258.350101,-11917.315666,-459.657299
2910.146925,-592.164754,-11029.068536,1532.190996
2910.147252,0.000000,-7920.203579,1762.019645
2910.147580,1110.308913,-7698.141797,-995.924147
2910.147907,222.061783,-10214.842000,-229.828649
2910.148235,-2072.576638,-10140.821405,842.705048
2910.148562,-2886.803174,-7402.059420,536.266849
2910.148890,-740.205942,-7550.100608,-1532.190996
2910.149218,962.267725,-11325.150913,-2298.286494
2910.149545,888.247130,-11991.336260,-306.438199
2910.149873,666.185348,-9178.553681,766.095498
2910.150200,1036.288319,-8364.327145,-612.876398
2910.150528,1258.350101,-11103.089130,-1455.581446
2910.150855,148.041188,-13323.706956,-919.314598
2910.151183,-1258.350101,-10955.047942,-306.438199
2910.151511,-666.185348,-7254.018232,-689.485948
2910.151838,962.267725,-9030.512492,-1225.752797
2910.152166,1480.411884,-12435.459826,-153.219100
2910.152493,74.020594,-11769.274478,919.314598
2910.152821,-1776.494261,-7624.121203,459.657299
2910.153148,370.102971,-8364.327145,-2757.943793
2910.153476,666.185348,-11399.171507,-2987.772442
2910.153804,-1184.329507,-11769.274478,0.000000
2910.154131,-2146.597232,-8068.244768,1302.362347
2910.154459,-814.226536,-7402.059420,0.000000
2910.154786,2220.617826,-11547.212695,-1072.533697
2910.155114,2368.659014,-12435.459826,306.438199
2910.155441,1332.370696,-9252.574275,1225.752797
2910.155769,1184.329507,-7550.100608,612.876398
2910.156097,1776.494261,-9252.574275,-536.266849
2910.156424,888.247130,-11325.150913,0.000000
2910.156752,0.000000,-9696.697840,1685.410096
2910.157079,-1036.288319,-5255.462188,995.924147
2910.157407,444.123565,-6587.832884,229.828649
2910.157734,1554.432478,-10214.842000,-306.438199
2910.158062,1110.308913,-10807.006753,536.266849
2910.158390,74.020594,-8808.450710,1455.581446
2910.158717,1850.514855,-7402.059420,383.047749
2910.159045,1850.514855,-10214.842000,-1302.362347
2910.159372,518.144159,-11473.192101,-536.266849
2910.159700,-1258.350101,-8512.368333,919.314598
2910.160027,-1554.432478,-7846.182985,229.828649
2910.160355,666.185348,-10362.883188,-1378.971896
2910.160683,1850.514855,-13027.624579,-1455.581446
2910.161010,222.061783,-10510.924376,229.828649
2910.161338,0.000000,-7105.977043,919.314598
2910.161665,1480.411884,-9326.594869,-1532.190996
2910.161993,1702.473667,-11843.295072,-1225.752797
2910.162320,0.000000,-11547.212695,0.000000
2910.162648,74.020594,-7624.121203,1149.143247
2910.162976,1406.391290,-7105.977043,229.828649
2910.163303,2294.638420,-10955.047942,-459.657299
2910.163631,518.144159,-13545.768739,0.000000
2910.163958,-1776.494261,-9918.759623,-536.266849
2910.164286,-444.123565,-7846.182985,-2374.896044
2910.164613,1110.308913,-10140.821405,-3217.601092
2910.164941,0.000000,-12731.542202,-766.095498
2910.165268,-2368.659014,-10510.924376,2451.505594
2910.165596,-1850.514855,-7476.080014,1608.800546
2910.165924,370.102971,-9178.553681,-1378.971896
2910.166251,518.144159,-11769.274478,-1149.143247
2910.166579,-1184.329507,-9844.739029,536.266849
2910.166906,-1554.432478,-6439.791695,1072.533697
2910.167234,296.082377,-7476.080014,-383.047749
2910.167561,1998.556043,-11917.315666,-842.705048
2910.167889,888.247130,-12879.583391,919.314598
2910.168217,-666.185348,-8290.306550,995.924147
2910.168544,74.020594,-6587.832884,-229.828649
2910.168872,1850.514855,-10362.883188,-2298.286494
2910.169199,518.144159,-11103.089130,-842.705048
2910.169527,-1702.473667,-8142.265362,1608.800546
2910.169854,-888.247130,-6587.832884,1685.410096
2910.170182,1702.473667,-8882.471304,0.000000
2910.170510,1332.370696,-11325.150913,-995.924147
2910.170837,-2442.679609,-9104.533087,1455.581446
2910.171165,-2812.782580,-6883.915261,1225.752797
2910.171492,0.000000,-8808.450710,-1455.581446
2910.171820,2442.679609,-12657.521608,-2298.286494
2910.172147,1110.308913,-11843.295072,-689.485948
2910.172475,740.205942,-8808.450710,919.314598
2910.172803,1850.514855,-9400.615463,-459.657299
2910.173130,3256.906145,-13471.748144,-1532.190996
2910.173458,1702.473667,-14211.954086,-842.705048
2910.173786,0.000000,-9400.615463,766.095498
2910.174113,0.000000,-6069.688724,76.609550
2910.174441,1332.370696,-8734.430116,-919.314598
2910.174769,1258.350101,-11399.171507,-766.095498
2910.175096,-1332.370696,-9696.697840,1072.533697
2910.175424,-1850.514855,-6587.832884,612.876398
2910.175752,518.144159,-8068.244768,-2221.676944
2910.176079,1110.308913,-11621.233289,-1915.238745
2910.176407,-444.123565,-10881.027347,842.705048
2910.176734,-1258.350101,-8290.306550,2145.067394
2910.177062,1110.308913,-9400.615463,229.828649
2910.177390,3552.988522,-13471.748144,-1608.800546
2910.177717,2220.617826,-12805.562797,76.609550
2910.178045,74.020594,-9030.512492,1225.752797
2910.178373,888.247130,-7254.018232,459.657299
2910.178700,1702.473667,-10658.965565,-459.657299
2910.179028,666.185348,-12139.377449,0.000000
2910.179356,-1998.556043,-8438.347739,919.314598
2910.179683,-2146.597232,-4737.318029,0.000000
2910.180011,444.123565,-6439.791695,-1378.971896
2910.180339,666.185348,-10584.944971,-1149.143247
2910.180666,-1110.308913,-10436.903782,1072.533697
2910.180994,-1036.288319,-7254.018232,1072.533697
2910.181321,1332.370696,-7179.997637,-612.876398
2910.181649,2072.576638,-11029.068536,-1149.143247
2910.181977,0.000000,-11843.295072,766.095498
2910.182304,-2146.597232,-9178.553681,1378.971896
2910.182632,-1258.350101,-8882.471304,-612.876398
2910.182960,814.226536,-11843.295072,-2834.553343
2910.183287,518.144159,-12509.480420,-1915.238745
2910.183615,-1036.288319,-9252.574275,306.438199
2910.183943,-740.205942,-7624.121203,536.266849
2910.184270,1406.391290,-11029.068536,-1991.848295
2910.184598,2590.720797,-13397.727550,-2145.067394
2910.184926,740.205942,-10955.047942,-153.219100
2910.185253,-740.205942,-6809.894666,1072.533697
2910.185581,370.102971,-7179.997637,76.609550
2910.185908,444.123565,-11251.130318,-1149.143247
2910.186236,-1702.473667,-11473.192101,-459.657299
2910.186564,-2368.659014,-8586.388927,-919.314598
2910.186891,0.000000,-8290.306550,-2145.067394
2910.187219,1184.329507,-11103.089130,-1608.800546
2910.187547,0.000000,-11843.295072,459.657299
2910.187874,-1628.453072,-9030.512492,1838.629195
2910.188202,-1258.350101,-7994.224174,766.095498
2910.188530,1702.473667,-9622.677246,-1532.190996
2910.188857,1702.473667,-11177.109724,-1608.800546
2910.189185,592.164754,-8734.430116,306.438199
2910.189513,0.000000,-6883.915261,1991.848295
2910.189840,2146.597232,-9400.615463,306.438199
2910.190168,3701.029710,-13545.768739,0.000000
2910.190495,2368.659014,-12435.459826,536.266849
2910.190823,0.000000,-7105.977043,459.657299
2910.191151,518.144159,-6735.874072,-383.047749
2910.191478,888.247130,-10288.862594,-1991.848295
2910.191806,0.000000,-11621.233289,0.000000
2910.192134,-2146.597232,-8068.244768,2145.067394
2910.192461,0.000000,-5699.585753,1072.533697
2910.192789,1924.535449,-7994.224174,-842.705048
2910.193117,814.226536,-11399.171507,-383.047749
2910.193444,-1628.453072,-9992.780217,1149.143247
2910.193772,-1184.329507,-7994.224174,0.000000
2910.194099,1628.453072,-9844.739029,-2681.334243
2910.194427,2812.782580,-12953.603985,-2451.505594
2910.194755,888.247130,-11917.315666,689.485948
2910.195082,666.185348,-9770.718434,1762.019645
2910.195410,2368.659014,-10955.047942,-229.828649
2910.195738,2960.823768,-13545.768739,-1072.533697
2910.196065,1258.350101,-12361.439231,-689.485948
2910.196393,-1554.432478,-7328.038826,1378.971896
2910.196721,-1036.288319,-5625.565159,1149.143247
2910.197048,814.226536,-8512.368333,-689.485948
2910.197376,-370.102971,-10732.986159,-383.047749
2910.197704,-1924.535449,-8438.347739,1302.362347
2910.198031,-592.164754,-6291.750507,0.000000
2910.198359,1332.370696,-7254.018232,-2221.676944
2910.198686,814.226536,-11399.171507,-1608.800546
2910.199014,-1406.391290,-11843.295072,-153.219100
2910.199342,-1480.411884,-8956.491898,0.000000
2910.199669,1924.535449,-9844.739029,-1302.362347
2910.199997,3627.009116,-13027.624579,-1915.238745
2910.200325,1702.473667,-12583.501014,1149.143247
2910.200652,-888.247130,-7920.203579,2681.334243
2910.200980,-296.082377,-7476.080014,459.657299
2910.201308,740.205942,-10955.047942,-1149.143247
2910.201635,-962.267725,-11251.130318,-919.314598
2910.201963,-3849.070898,-6883.915261,536.266849
2910.202291,-3182.885551,-4737.318029,229.828649
2910.202618,0.000000,-9104.533087,-1302.362347
2910.202946,1110.308913,-13175.665768,-689.485948
2910.203273,-296.082377,-10881.027347,995.924147
2910.203601,222.061783,-7254.018232,459.657299
2910.203929,2146.597232,-8512.368333,-1762.019645
2910.204256,1776.494261,-11843.295072,-1915.238745
2910.204584,-1406.391290,-11029.068536,229.828649
2910.204912,-2886.803174,-8142.265362,689.485948
2910.205239,-222.061783,-8142.265362,-995.924147
2910.205567,2146.597232,-12139.377449,-1991.848295
2910.205895,666.185348,-12879.583391,-306.438199
2910.206222,-888.247130,-9696.697840,1225.752797
2910.206550,222.061783,-8364.327145,0.000000
2910.206878,2812.782580,-10214.842000,-1685.410096
2910.207205,2220.617826,-11843.295072,-536.266849
2910.207533,-296.082377,-9548.656652,2374.896044
2910.207860,0.000000,-6143.709319,2451.505594
2910.208188,1776.494261,-8512.368333,-459.657299
2910.208516,1776.494261,-13027.624579,-1072.533697
2910.208843,-888.247130,-11177.109724,229.828649
2910.209171,-1480.411884,-5921.647536,-153.219100
2910.209499,592.164754,-6809.894666,-2834.553343
2910.209826,2220.617826,-10436.903782,-2681.334243
2910.210154,-592.164754,-10658.965565,-153.219100
2910.210482,-2442.679609,-7550.100608,2604.724693
2910.210809,0.000000,-7105.977043,995.924147
2910.211137,2664.741391,-11177.109724,-1302.362347
2910.211465,1628.453072,-11547.212695,612.876398
2910.211792,0.000000,-8660.409521,1302.362347
2910.212120,888.247130,-7105.977043,689.485948
2910.212447,3701.029710,-11473.192101,-1149.143247
2910.212775,2516.700203,-14063.912898,-995.924147
2910.213103,-740.205942,-11251.130318,306.438199
2910.213430,-888.247130,-7402.059420,0.000000
2910.213758,1480.411884,-8216.285956,-1685.410096
2910.214086,2220.617826,-12213.398043,-1915.238745
2910.214413,296.082377,-11621.233289,842.705048
2910.214741,-148.041188,-8142.265362,1685.410096
2910.215069,296.082377,-6291.750507,-306.438199
2910.215396,962.267725,-8512.368333,-2221.676944
2910.215724,-1258.350101,-10214.842000,-459.657299
2910.216052,-3627.009116,-8216.285956,1685.410096
2910.216379,-2146.597232,-7254.018232,-383.047749
2910.216707,1184.329507,-10955.047942,-1991.848295
2910.217034,1776.494261,-13323.706956,-1455.581446
2910.217362,0.000000,-11621.233289,383.047749
2910.217690,-148.041188,-9548.656652,612.876398
2910.218017,1776.494261,-11103.089130,-842.705048
2910.218345,2442.679609,-13249.686362,-1378.971896
2910.218673,962.267725,-10955.047942,153.219100
2910.219000,-962.267725,-7179.997637,2451.505594
2910.219328,518.144159,-7105.977043,1608.800546
2910.219656,814.226536,-10214.842000,0.000000
2910.219983,-370.102971,-10584.944971,-229.828649
2910.220311,-2590.720797,-7179.997637,536.266849
2910.220639,-2146.597232,-4293.194464,-153.219100
2910.220966,-296.082377,-7772.162391,-1762.019645
2910.221294,-1554.432478,-11843.295072,-612.876398
2910.221621,-3182.885551,-10658.965565,76.609550
2910.221949,-2220.617826,-8142.265362,-536.266849
2910.222277,1110.308913,-9474.636058,-1225.752797
2910.222604,3182.885551,-12583.501014,-612.876398
2910.222932,1628.453072,-11843.295072,1608.800546
2910.223260,222.061783,-9104.533087,1991.848295
2910.223587,1554.432478,-8956.491898,-536.266849
2910.223915,2220.617826,-11843.295072,-2834.553343
2910.224243,0.000000,-11473.192101,-1532.190996
2910.224570,-2516.700203,-7846.182985,536.266849
2910.224898,-370.102971,-7179.997637,536.266849
2910.225226,2442.679609,-10955.047942,0.000000
2910.225553,2442.679609,-13323.706956,-153.219100
2910.225881,0.000000,-10288.862594,1378.971896
2910.226208,518.144159,-5773.606348,76.609550
2910.226536,1924.535449,-7772.162391,-1915.238745
2910.226864,1110.308913,-11473.192101,-1608.800546
2910.227191,-1850.514855,-9844.739029,1149.143247
2910.227519,-2368.659014,-6661.853478,1532.190996
2910.227847,1480.411884,-8586.388927,0.000000
2910.228174,2738.761985,-12657.521608,-1532.190996
2910.228502,740.205942,-12435.459826,-306.438199
2910.228830,296.082377,-9770.718434,-383.047749
2910.229157,1850.514855,-9474.636058,-2298.286494
2910.229485,3034.844362,-11843.295072,-2221.676944
2910.229813,2220.617826,-12139.377449,1072.533697
2910.230140,1036.288319,-8882.471304,2757.943793
2910.230468,962.267725,-6439.791695,2451.505594
2910.230795,1850.514855,-8734.430116,-995.924147
2910.231123,1702.473667,-11991.336260,-1072.533697
2910.231451,-1036.288319,-9992.780217,612.876398
2910.231778,-1998.556043,-5107.421000,383.047749
2910.232106,0.000000,-5255.462188,-995.924147
2910.232434,666.185348,-9252.574275,-1685.410096
2910.232761,-888.247130,-11547.212695,1455.581446
2910.233089,-2368.659014,-7994.224174,2145.067394
2910.233417,370.102971,-7624.121203,-306.438199
2910.233744,2294.638420,-11399.171507,-2145.067394
2910.234072,814.226536,-12953.603985,-1302.362347
2910.234400,-518.144159,-10066.800811,919.314598
2910.234727,296.082377,-8216.285956,0.000000
2910.235055,3627.009116,-11991.336260,-1685.410096
2910.235382,2368.659014,-14508.036463,-1072.533697
2910.235710,-1776.494261,-10066.800811,1302.362347
2910.236038,-2220.617826,-6365.771101,612.876398
2910.236365,-296.082377,-8808.450710,-1072.533697
2910.236693,222.061783,-11917.315666,-1532.190996
2910.237021,-1924.535449,-10140.821405,0.000000
2910.237348,-2960.823768,-6365.771101,919.314598
2910.237676,74.020594,-6957.935855,-919.314598
2910.238004,1184.329507,-11251.130318,-1915.238745
2910.238331,-1110.308913,-12731.542202,-229.828649
2910.238659,-2664.741391,-9252.574275,612.876398
2910.238987,-222.061783,-7550.100608,-1455.581446
2910.239314,2220.617826,-10881.027347,-3294.210641
2910.239642,592.164754,-12731.542202,-536.266849
2910.239969,0.000000,-11251.130318,1455.581446
2910.240297,0.000000,-8438.347739,689.485948
2910.240625,1258.350101,-10510.924376,-1302.362347
2910.240952,1924.535449,-12583.501014,-1532.190996
2910.241280,0.000000,-9622.677246,919.314598
2910.241608,-888.247130,-5403.503377,2451.505594
2910.241935,1184.329507,-6883.915261,229.828649
2910.242263,1628.453072,-10288.862594,-689.485948
2910.242591,0.000000,-11251.130318,153.219100
2910.242918,-1628.453072,-7402.059420,842.705048
2910.243246,-222.061783,-6291.750507,-689.485948
2910.243573,1406.391290,-9844.739029,-1378.971896
2910.243901,0.000000,-12879.583391,-306.438199
2910.244229,-2220.617826,-9474.636058,1302.362347
2910.244556,222.061783,-6809.894666,-306.438199
2910.244884,2294.638420,-9252.574275,-1991.848295
2910.245212,2072.576638,-12065.356855,-995.924147
2910.245539,0.000000,-10140.821405,1149.143247
2910.245867,0.000000,-7328.038826,1532.190996
2910.246195,2146.597232,-8586.388927,-919.314598
2910.246522,3182.885551,-12139.377449,-1455.581446
2910.246850,1184.329507,-11547.212695,383.047749
2910.247178,-444.123565,-8956.491898,1225.752797
2910.247505,1332.370696,-8586.388927,-306.438199
2910.247833,3256.906145,-11917.315666,-2145.067394
2910.248160,1702.473667,-12953.603985,-766.095498
2910.248488,-148.041188,-8586.388927,1072.533697
2910.248816,0.000000,-6661.853478,689.485948
2910.249143,1406.391290,-10066.800811,-1225.752797
2910.249471,444.123565,-11991.336260,-1608.800546
2910.249799,-2294.638420,-9400.615463,0.000000
2910.250126,-1998.556043,-6883.915261,0.000000
2910.250454,1258.350101,-8660.409521,-1532.190996
2910.250782,2294.638420,-11621.233289,-1532.190996
2910.251109,740.205942,-11103.089130,919.314598
2910.251437,-962.267725,-8290.306550,1838.629195
2910.251765,814.226536,-9400.615463,229.828649
2910.252092,2220.617826,-12287.418637,-1455.581446
2910.252420,0.000000,-11843.295072,0.000000
2910.252747,-2220.617826,-7846.182985,1149.143247
2910.253075,-962.267725,-6957.935855,459.657299
2910.253403,1184.329507,-9992.780217,-383.047749
2910.253730,592.164754,-11621.233289,0.000000
2910.254058,-2368.659014,-8734.430116,842.705048
2910.254386,-1332.370696,-6587.832884,153.219100
2910.254713,444.123565,-8142.265362,-1378.971896
2910.255041,74.020594,-11547.212695,-306.438199
2910.255369,-2072.576638,-10510.924376,2068.457845
2910.255696,-2146.597232,-7772.162391,689.485948
2910.256024,148.041188,-7550.100608,-1991.848295
2910.256352,1998.556043,-12287.418637,-2911.162892
2910.256679,370.102971,-13101.645173,229.828649
2910.257007,-518.144159,-9548.656652,1991.848295
2910.257334,1406.391290,-8956.491898,0.000000
2910.257662,2664.741391,-11547.212695,-1915.238745
2910.257990,888.247130,-12065.356855,-842.705048
2910.258317,-1776.494261,-8734.430116,1149.143247
2910.258645,-814.226536,-6587.832884,-153.219100
2910.258973,1850.514855,-9104.533087,-2374.896044
2910.259300,1924.535449,-11917.315666,-689.485948
2910.259628,148.041188,-9918.759623,1991.848295
2910.259956,0.000000,-6957.935855,2068.457845
2910.260283,1776.494261,-8290.306550,-229.828649
2910.260611,2516.700203,-12287.418637,-2068.457845
2910.260939,-740.205942,-11103.089130,-689.485948
2910.261266,-1850.514855,-7105.977043,306.438199
2910.261594,444.123565,-7179.997637,-612.876398
2910.261921,2442.679609,-11769.274478,-536.266849
2910.262249,1184.329507,-12731.542202,689.485948
2910.262577,0.000000,-8956.491898,2221.676944
2910.262904,1110.308913,-7920.203579,153.219100
2910.263232,2886.803174,-10362.883188,-1608.800546
2910.263560,1776.494261,-11695.253884,-995.924147
2910.263887,-740.205942,-8956.491898,1149.143247
2910.264215,-814.226536,-6735.874072,995.924147
2910.264543,1998.556043,-9400.615463,-306.438199
2910.264870,2368.659014,-13027.624579,-612.876398
2910.265198,444.123565,-11325.150913,689.485948
2910.265526,-1480.411884,-6809.894666,842.705048
2910.265853,370.102971,-7994.224174,-919.314598
2910.266181,1776.494261,-11769.274478,-1762.019645
2910.266508,-148.041188,-11399.171507,229.828649
2910.266836,-1776.494261,-6883.915261,1302.362347
2910.267164,0.000000,-6365.771101,919.314598
2910.267491,1776.494261,-10140.821405,-536.266849
2910.267819,666.185348,-11843.295072,229.828649
2910.268147,-1702.473667,-8438.347739,1378.971896
2910.268474,-1480.411884,-7402.059420,-689.485948
2910.268802,962.267725,-11177.109724,-3830.477490
2910.269130,2368.659014,-13767.830521,-3140.991542
2910.269457,592.164754,-11843.295072,229.828649
2910.269785,370.102971,-9252.574275,1072.533697
2910.270113,2442.679609,-10436.903782,229.828649
2910.270440,2886.803174,-12657.521608,-766.095498
2910.270768,-814.226536,-9992.780217,612.876398
2910.271095,-3775.050304,-5551.544565,1149.143247
2910.271423,-2812.782580,-6217.729913,-612.876398
2910.271751,-740.205942,-9104.533087,-1685.410096
2910.272078,-1258.350101,-11621.233289,229.828649
2910.272406,-3108.864956,-8956.491898,1838.629195
2910.272734,-1332.370696,-7476.080014,0.000000
2910.273061,2072.576638,-10288.862594,-2528.115143
2910.273389,1702.473667,-12805.562797,-2068.457845
2910.273717,-1036.288319,-10510.924376,229.828649
2910.274044,-1258.350101,-7920.203579,919.314598
2910.274372,2294.638420,-9622.677246,0.000000
2910.274700,2368.659014,-13249.686362,-919.314598
2910.275027,0.000000,-12361.439231,1225.752797
2910.275355,-1332.370696,-7402.059420,1072.533697
2910.275683,0.000000,-6883.915261,-1225.752797
2910.276010,1480.411884,-10436.903782,-2221.676944
2910.276338,666.185348,-11399.171507,0.000000
2910.276666,-2368.659014,-6365.771101,2068.457845
2910.276993,-1332.370696,-5403.503377,612.876398
2910.277321,1184.329507,-9770.718434,-1762.019645
2910.277649,888.247130,-12583.501014,-689.485948
2910.277976,-1184.329507,-9770.718434,1225.752797
2910.278304,0.000000,-7476.080014,689.485948
2910.278632,2516.700203,-9992.780217,-842.705048
2910.278959,3478.967927,-13619.789333,-1455.581446
2910.279287,518.144159,-11991.336260,766.095498
2910.279615,-518.144159,-7698.141797,459.657299
2910.279942,1850.514855,-8290.306550,-1915.238745
2910.280270,2294.638420,-11843.295072,-2145.067394
2910.280598,0.000000,-11695.253884,0.000000
2910.280925,-1332.370696,-7698.141797,2145.067394
2910.281253,0.000000,-6069.688724,153.219100
2910.281581,2886.803174,-9770.718434,-1225.752797
2910.281909,1924.535449,-11843.295072,-229.828649
2910.282236,-444.123565,-8882.471304,1838.629195
2910.282564,0.000000,-6587.832884,842.705048
2910.282892,2516.700203,-9696.697840,-1378.971896
2910.283219,1776.494261,-11621.233289,-1608.800546
2910.283547,-1258.350101,-10658.965565,919.314598
2910.283875,-1776.494261,-8882.471304,1072.533697
2910.284202,666.185348,-9622.677246,-1685.410096
2910.284530,1776.494261,-12583.501014,-2681.334243
2910.284858,-444.123565,-11325.150913,-766.095498
2910.285185,-666.185348,-7179.997637,1149.143247
2910.285513,888.247130,-7179.997637,612.876398
2910.285841,3108.864956,-10510.924376,-306.438199
2910.286168,888.247130,-11843.295072,536.266849
2910.286496,-1998.556043,-8808.450710,2298.286494
2910.286824,-666.185348,-6735.874072,306.438199
2910.287151,1850.514855,-9252.574275,-2068.457845
2910.287479,1332.370696,-11917.315666,-536.266849
2910.287807,-1480.411884,-10066.800811,1762.019645
2910.288134,-2368.659014,-7031.956449,995.924147
2910.288462,0.000000,-8586.388927,-1608.800546
2910.288790,0.000000,-11399.171507,-1838.629195
2910.289117,-2146.597232,-10214.842000,-153.219100
2910.289445,-2812.782580,-6957.935855,1149.143247
2910.289773,-888.247130,-7328.038826,-919.314598
2910.290100,1480.411884,-11769.274478,-612.876398
2910.290428,666.185348,-13323.706956,-459.657299
2910.290756,-518.144159,-9696.697840,153.219100
2910.291083,666.185348,-8290.306550,-1532.190996
2910.291411,2368.659014,-11621.233289,-2221.676944
2910.291739,1924.535449,-14063.912898,-536.266849
2910.292066,0.000000,-10955.047942,1608.800546
2910.292394,-814.226536,-6365.771101,1225.752797
2910.292722,888.247130,-7698.141797,-306.438199
2910.293050,1110.308913,-11547.212695,-995.924147
2910.293377,-1924.535449,-10288.862594,842.705048
2910.293705,-3108.864956,-5255.462188,612.876398
2910.294033,-1184.329507,-5699.585753,-1915.238745
2910.294360,1406.391290,-10881.027347,-2145.067394
2910.294688,1184.329507,-13175.665768,0.000000
2910.295016,-666.185348,-9252.574275,2451.505594
2910.295343,1110.308913,-8660.409521,383.047749
2910.295671,3404.947333,-12065.356855,-2374.896044
2910.295999,2664.741391,-13323.706956,-1915.238745
2910.296326,370.102971,-9622.677246,689.485948
2910.296654,962.267725,-6735.874072,1838.629195
2910.296982,3256.906145,-9474.636058,766.095498
2910.297309,1628.453072,-11917.315666,919.314598
2910.297637,-518.144159,-10362.883188,1838.629195
2910.297965,-1258.350101,-6069.688724,995.924147
2910.298292,666.185348,-6587.832884,-1302.362347
2910.298620,1554.432478,-10807.006753,-2221.676944
2910.298948,-444.123565,-10881.027347,-153.219100
2910.299275,-962.267725,-7846.182985,766.095498
2910.299603,1702.473667,-7624.121203,-1532.190996
2910.299931,3034.844362,-12213.398043,-1685.410096
2910.300258,666.185348,-12953.603985,0.000000
2910.300586,-1332.370696,-9548.656652,1455.581446
2910.300914,-592.164754,-7920.203579,76.609550
2910.301241,1110.308913,-10807.006753,-1762.019645
2910.301569,1332.370696,-12287.418637,-1225.752797
2910.301897,0.000000,-9252.574275,689.485948
2910.302224,-370.102971,-6587.832884,1072.533697
2910.302552,814.226536,-7328.038826,0.000000
2910.302880,74.020594,-10732.986159,-229.828649
2910.303207,-2368.659014,-11769.274478,766.095498
2910.303535,-2368.659014,-8216.285956,0.000000
2910.303863,1332.370696,-7402.059420,-1532.190996
2910.304191,3627.009116,-11399.171507,-2068.457845
2910.304518,1258.350101,-12213.398043,919.314598
2910.304846,-814.226536,-9622.677246,2298.286494
2910.305174,148.041188,-7402.059420,-306.438199
2910.305501,1110.308913,-9622.677246,-3064.381992
2910.305829,-1628.453072,-11473.192101,-1302.362347
