#time,accel_x,accel_y,accel_z
3244.759534,814.226536,-10807.006753,-383.047749
3244.759861,518.144159,-10288.862594,-459.657299
3244.760189,518.144159,-10140.821405,-229.828649
3244.760516,296.082377,-9992.780217,-153.219100
3244.760844,0.000000,-9400.615463,153.219100
3244.761172,222.061783,-9992.780217,0.000000
3244.761499,-370.102971,-9918.759623,-842.705048
3244.761827,148.041188,-10214.842000,-689.485948
3244.762154,74.020594,-10214.842000,-919.314598
3244.762482,370.102971,-10436.903782,-689.485948
3244.762810,888.247130,-10140.821405,0.000000
3244.763137,444.123565,-9770.718434,306.438199
3244.763465,740.205942,-9844.739029,153.219100
3244.763792,518.144159,-9252.574275,383.047749
3244.764120,518.144159,-9252.574275,229.828649
3244.764447,296.082377,-9178.553681,229.828649
3244.764775,0.000000,-8956.491898,76.609550
3244.765103,0.000000,-8956.491898,0.000000
3244.765430,0.000000,-9030.512492,153.219100
3244.765758,148.041188,-9548.656652,0.000000
3244.766085,296.082377,-9844.739029,0.000000
3244.766413,148.041188,-9548.656652,0.000000
3244.766741,518.144159,-9696.697840,306.438199
3244.767068,592.164754,-9696.697840,306.438199
3244.767396,592.164754,-9696.697840,383.047749
3244.767723,518.144159,-9178.553681,76.609550
3244.768051,74.020594,-8438.347739,153.219100
3244.768378,74.020594,-9030.512492,0.000000
3244.768706,0.000000,-9252.574275,-306.438199
3244.769034,0.000000,-9326.594869,-919.314598
3244.769361,-222.061783,-9696.697840,-766.095498
3244.769689,0.000000,-9918.759623,-612.876398
3244.770016,296.082377,-10288.862594,-842.705048
3244.770344,666.185348,-10436.903782,-306.438199
3244.770672,592.164754,-10436.903782,-306.438199
3244.770999,666.185348,-10288.862594,-383.047749
3244.771327,592.164754,-10066.800811,-229.828649
3244.771654,222.061783,-9844.739029,-306.438199
3244.771982,0.000000,-9474.636058,-229.828649
3244.772309,0.000000,-9326.594869,-689.485948
3244.772637,0.000000,-10140.821405,-842.705048
3244.772965,-148.041188,-9548.656652,-536.266849
3244.773292,74.020594,-9992.780217,-612.876398
3244.773620,296.082377,-10214.842000,-612.876398
3244.773947,444.123565,-10362.883188,-612.876398
3244.774275,222.061783,-10066.800811,0.000000
3244.774603,1258.350101,-9400.615463,-383.047749
3244.774930,1406.391290,-8882.471304,153.219100
3244.775258,1480.411884,-8512.368333,536.266849
3244.775585,1998.556043,-8808.450710,689.485948
3244.775913,2590.720797,-8290.306550,306.438199
3244.776240,3182.885551,-8290.306550,0.000000
3244.776568,3923.091493,-8808.450710,0.000000
3244.776896,4663.297435,-9474.636058,229.828649
3244.777223,5995.668130,-9252.574275,-229.828649
3244.777551,7105.977043,-9918.759623,0.000000
3244.777878,7920.203579,-10288.862594,306.438199
3244.778206,8364.327145,-10584.944971,459.657299
3244.778534,8216.285956,-10584.944971,995.924147
3244.778861,8290.306550,-9474.636058,766.095498
3244.779189,9178.553681,-8734.430116,229.828649
3244.779516,9030.512492,-8512.368333,306.438199
3244.779844,9400.615463,-8216.285956,0.000000
3244.780172,10288.862594,-8956.491898,76.609550
3244.780499,10881.027347,-9474.636058,-229.828649
3244.780827,11251.130318,-10362.883188,0.000000
3244.781154,11547.212695,-10066.800811,-689.485948
3244.781482,10732.986159,-10140.821405,153.219100
3244.781809,12361.439231,-9844.739029,0.000000
3244.782137,12731.542202,-9770.718434,-306.438199
3244.782465,14063.912898,-10955.047942,0.000000
3244.782792,13989.892304,-10510.924376,995.924147
3244.783120,14730.098246,-8956.491898,766.095498
3244.783447,14434.015869,-7920.203579,383.047749
3244.783775,13841.851115,-9622.677246,612.876398
3244.784103,13249.686362,-9474.636058,-689.485948
3244.784430,13101.645173,-9844.739029,-536.266849
3244.784758,13027.624579,-10955.047942,-459.657299
3244.785085,13471.748144,-11547.212695,229.828649
3244.785413,12657.521608,-9696.697840,1072.533697
3244.785740,12657.521608,-9400.615463,1532.190996
3244.786068,11843.295072,-9400.615463,1455.581446
3244.786396,11843.295072,-10066.800811,0.000000
3244.786723,10140.821405,-9252.574275,0.000000
3244.787051,9400.615463,-9030.512492,153.219100
3244.787378,7772.162391,-8290.306550,76.609550
3244.787706,7254.018232,-7846.182985,0.000000
3244.788034,7846.182985,-8364.327145,-383.047749
3244.788361,9548.656652,-9918.759623,-766.095498
3244.788689,10288.862594,-11399.171507,612.876398
3244.789016,10510.924376,-11843.295072,766.095498
3244.789344,9918.759623,-10214.842000,612.876398
3244.789671,9030.512492,-8364.327145,995.924147
3244.789999,8512.368333,-8290.306550,1225.752797
3244.790327,8956.491898,-8438.347739,1072.533697
3244.790654,8512.368333,-9548.656652,689.485948
3244.790982,7772.162391,-10362.883188,459.657299
3244.791309,7624.121203,-9178.553681,-995.924147
3244.791637,6809.894666,-8586.388927,-1378.971896
3244.791965,5773.606348,-10436.903782,0.000000
3244.792292,6587.832884,-11621.233289,-612.876398
3244.792620,8512.368333,-11547.212695,-1608.800546
3244.792947,9770.718434,-9918.759623,-1762.019645
3244.793275,10881.027347,-7254.018232,-766.095498
3244.793602,8734.430116,-8216.285956,1915.238745
3244.793930,6883.915261,-9326.594869,3140.991542
3244.794258,8438.347739,-9400.615463,842.705048
3244.794585,11251.130318,-9252.574275,-2451.505594
3244.794913,10436.903782,-9844.739029,-2528.115143
3244.795240,8438.347739,-10658.965565,0.000000
3244.795568,8586.388927,-10436.903782,1149.143247
3244.795896,9030.512492,-10807.006753,229.828649
3244.796223,7772.162391,-9844.739029,-919.314598
3244.796551,7846.182985,-9474.636058,-1225.752797
3244.796878,7920.203579,-9474.636058,0.000000
3244.797206,8364.327145,-8734.430116,689.485948
3244.797533,6809.894666,-8216.285956,1762.019645
3244.797861,6365.771101,-8808.450710,1072.533697
3244.798189,5625.565159,-7402.059420,0.000000
3244.798516,5403.503377,-7624.121203,-766.095498
3244.798844,5847.626942,-9548.656652,-919.314598
3244.799171,7846.182985,-10658.965565,-1225.752797
3244.799499,9178.553681,-9474.636058,-766.095498
3244.799827,7402.059420,-9548.656652,536.266849
3244.800154,7254.018232,-11103.089130,1149.143247
3244.800482,8364.327145,-10214.842000,919.314598
3244.800809,7994.224174,-10584.944971,229.828649
3244.801137,7105.977043,-10881.027347,-995.924147
3244.801464,6143.709319,-9622.677246,-459.657299
3244.801792,5255.462188,-9918.759623,1532.190996
3244.802120,4293.194464,-10584.944971,2681.334243
3244.802447,3923.091493,-9252.574275,76.609550
3244.802775,1406.391290,-8808.450710,0.000000
3244.803102,0.000000,-9474.636058,1149.143247
3244.803430,666.185348,-9696.697840,-919.314598
3244.803758,-1332.370696,-9622.677246,-919.314598
3244.804085,-1776.494261,-9548.656652,0.000000
3244.804413,222.061783,-7772.162391,-2145.067394
3244.804740,0.000000,-9918.759623,-1225.752797
3244.805068,1406.391290,-12731.542202,766.095498
3244.805395,3182.885551,-10436.903782,-153.219100
3244.805723,2812.782580,-10140.821405,-919.314598
3244.806051,1628.453072,-11843.295072,306.438199
3244.806378,1776.494261,-10732.986159,229.828649
3244.806706,-1110.308913,-8586.388927,1762.019645
3244.807033,-2960.823768,-10066.800811,2298.286494
3244.807361,-3923.091493,-11177.109724,0.000000
3244.807689,-4145.153275,-8586.388927,-1762.019645
3244.808016,-3330.926739,-7105.977043,-1915.238745
3244.808344,-3627.009116,-7994.224174,-842.705048
3244.808671,-3182.885551,-9400.615463,536.266849
3244.808999,-2516.700203,-9622.677246,842.705048
3244.809326,-1924.535449,-9622.677246,0.000000
3244.809654,-1776.494261,-8142.265362,-1225.752797
3244.809982,-1924.535449,-8734.430116,-2068.457845
3244.810309,-2590.720797,-9992.780217,-612.876398
3244.810637,-2368.659014,-10362.883188,153.219100
3244.810964,-2072.576638,-9770.718434,76.609550
3244.811292,-1776.494261,-9622.677246,-459.657299
3244.811620,-962.267725,-9918.759623,-1225.752797
3244.811947,-814.226536,-9400.615463,0.000000
3244.812275,-1702.473667,-8290.306550,0.000000
3244.812602,-1036.288319,-8068.244768,-766.095498
3244.812930,-444.123565,-7994.224174,-1149.143247
3244.813258,74.020594,-7846.182985,-383.047749
3244.813585,962.267725,-9326.594869,766.095498
3244.813913,2738.761985,-9326.594869,1072.533697
3244.814240,3552.988522,-10732.986159,0.000000
3244.814568,3923.091493,-11917.315666,-919.314598
3244.814895,3849.070898,-11769.274478,-1532.190996
3244.815223,1924.535449,-12435.459826,-1225.752797
3244.815551,1850.514855,-11547.212695,153.219100
3244.815878,3256.906145,-9474.636058,-766.095498
3244.816206,2368.659014,-10288.862594,-919.314598
3244.816533,1480.411884,-10140.821405,0.000000
3244.816861,2886.803174,-9400.615463,-383.047749
3244.817189,2294.638420,-8142.265362,0.000000
3244.817516,1184.329507,-9400.615463,459.657299
3244.817844,814.226536,-10288.862594,0.000000
3244.818171,2294.638420,-8068.244768,-229.828649
3244.818499,3701.029710,-8216.285956,-995.924147
3244.818826,4515.256246,-10955.047942,0.000000
3244.819154,4293.194464,-11621.233289,1915.238745
3244.819482,3701.029710,-11991.336260,2451.505594
3244.819809,1332.370696,-11251.130318,995.924147
3244.820137,222.061783,-9918.759623,-536.266849
3244.820464,-666.185348,-8586.388927,-2451.505594
3244.820792,-2220.617826,-9178.553681,-1149.143247
3244.821120,-1258.350101,-9252.574275,-383.047749
3244.821447,-592.164754,-7550.100608,0.000000
3244.821775,0.000000,-8142.265362,1455.581446
3244.822102,148.041188,-8068.244768,1685.410096
3244.822430,-296.082377,-7698.141797,1608.800546
3244.822757,0.000000,-9104.533087,842.705048
3244.823085,-148.041188,-9474.636058,-842.705048
3244.823412,370.102971,-10436.903782,-766.095498
3244.823740,740.205942,-10658.965565,-383.047749
3244.824067,0.000000,-10881.027347,919.314598
3244.824395,-1406.391290,-11399.171507,1532.190996
3244.824722,-2738.761985,-11917.315666,-536.266849
3244.825050,-4071.132681,-10288.862594,-2528.115143
3244.825377,-3923.091493,-7846.182985,-3447.429741
3244.825705,-5033.400406,-8290.306550,-2911.162892
3244.826032,-4811.338623,-8068.244768,0.000000
3244.826360,-2072.576638,-9696.697840,842.705048
3244.826687,-962.267725,-9030.512492,306.438199
3244.827014,444.123565,-8438.347739,0.000000
3244.827342,1702.473667,-9622.677246,-766.095498
3244.827669,222.061783,-11399.171507,-766.095498
3244.827997,0.000000,-12953.603985,-842.705048
3244.828324,-518.144159,-11991.336260,-1685.410096
3244.828652,-1184.329507,-9844.739029,-1455.581446
3244.828979,-1332.370696,-10066.800811,-1378.971896
3244.829307,-1776.494261,-11399.171507,-1302.362347
3244.829634,-666.185348,-10807.006753,-1302.362347
3244.829962,1258.350101,-9770.718434,-2451.505594
3244.830289,0.000000,-8216.285956,-919.314598
3244.830617,1628.453072,-7846.182985,1149.143247
3244.830944,2294.638420,-7846.182985,2528.115143
3244.831271,2738.761985,-9104.533087,2528.115143
3244.831599,2664.741391,-10732.986159,459.657299
3244.831926,1850.514855,-10807.006753,-1991.848295
3244.832254,1554.432478,-8956.491898,-2451.505594
3244.832581,296.082377,-9178.553681,-1225.752797
3244.832909,-666.185348,-10066.800811,842.705048
3244.833236,888.247130,-10140.821405,1072.533697
3244.833564,1628.453072,-10584.944971,-229.828649
3244.833891,2960.823768,-9992.780217,-995.924147
3244.834219,2442.679609,-8216.285956,0.000000
3244.834546,2072.576638,-7476.080014,1455.581446
3244.834874,1776.494261,-7698.141797,2068.457845
3244.835201,1776.494261,-8882.471304,1608.800546
3244.835528,2442.679609,-7772.162391,1378.971896
3244.835856,3627.009116,-7105.977043,1225.752797
3244.836183,2886.803174,-8290.306550,1149.143247
3244.836511,1628.453072,-10732.986159,766.095498
3244.836838,222.061783,-13323.706956,-612.876398
3244.837166,-370.102971,-12583.501014,-1915.238745
3244.837493,1110.308913,-10436.903782,-3447.429741
3244.837821,1036.288319,-11103.089130,-2068.457845
3244.838148,0.000000,-11695.253884,612.876398
3244.838476,1332.370696,-12139.377449,689.485948
3244.838803,444.123565,-10066.800811,153.219100
3244.839131,0.000000,-7179.997637,-689.485948
3244.839458,-444.123565,-8586.388927,-153.219100
3244.839785,-2072.576638,-9178.553681,536.266849
3244.840113,-1036.288319,-8290.306550,383.047749
3244.840440,592.164754,-9252.574275,-842.705048
3244.840768,296.082377,-9252.574275,-612.876398
3244.841095,148.041188,-11399.171507,536.266849
3244.841423,0.000000,-11473.192101,919.314598
3244.841750,-1554.432478,-10955.047942,229.828649
3244.842078,-2368.659014,-11843.295072,-1685.410096
3244.842405,-3330.926739,-9326.594869,-2681.334243
3244.842733,-3034.844362,-6587.832884,-1915.238745
3244.843060,-3627.009116,-7105.977043,-306.438199
3244.843388,-1998.556043,-8882.471304,1225.752797
3244.843715,-666.185348,-8882.471304,1915.238745
3244.844042,0.000000,-8364.327145,612.876398
3244.844370,-666.185348,-7772.162391,536.266849
3244.844697,-666.185348,-7994.224174,153.219100
3244.845025,-1332.370696,-10288.862594,459.657299
3244.845352,222.061783,-11621.233289,536.266849
3244.845680,370.102971,-9548.656652,-1072.533697
3244.846007,-370.102971,-8734.430116,-229.828649
3244.846335,-814.226536,-10362.883188,0.000000
3244.846662,-1776.494261,-10955.047942,-306.438199
3244.846990,-2516.700203,-9548.656652,-1149.143247
3244.847317,-1702.473667,-8364.327145,-2604.724693
3244.847645,-2516.700203,-8290.306550,-2528.115143
3244.847972,-888.247130,-9474.636058,0.000000
3244.848299,1332.370696,-9400.615463,-153.219100
3244.848627,2590.720797,-9622.677246,766.095498
3244.848954,2960.823768,-11621.233289,612.876398
3244.849282,2590.720797,-12213.398043,0.000000
3244.849609,2294.638420,-11177.109724,-306.438199
3244.849937,2368.659014,-10214.842000,-1302.362347
3244.850264,1998.556043,-9696.697840,-919.314598
3244.850592,1184.329507,-10658.965565,0.000000
3244.850919,0.000000,-10732.986159,306.438199
3244.851247,0.000000,-9400.615463,-229.828649
3244.851574,1480.411884,-9474.636058,-1685.410096
3244.851902,1850.514855,-10214.842000,-1302.362347
3244.852229,2072.576638,-10362.883188,919.314598
3244.852556,2516.700203,-10362.883188,2068.457845
3244.852884,3182.885551,-9252.574275,766.095498
3244.853211,4219.173869,-8586.388927,-536.266849
3244.853539,2368.659014,-9918.759623,-536.266849
3244.853866,1110.308913,-9252.574275,-306.438199
3244.854194,1332.370696,-9474.636058,0.000000
3244.854521,-444.123565,-9622.677246,0.000000
3244.854849,-888.247130,-7402.059420,383.047749
3244.855176,888.247130,-9252.574275,383.047749
3244.855504,814.226536,-9548.656652,612.876398
3244.855831,1036.288319,-10362.883188,229.828649
3244.856159,0.000000,-9400.615463,0.000000
3244.856486,740.205942,-7994.224174,-612.876398
3244.856813,1258.350101,-8808.450710,229.828649
3244.857141,148.041188,-8364.327145,1685.410096
3244.857468,740.205942,-8438.347739,2757.943793
3244.857796,1036.288319,-8882.471304,1762.019645
3244.858123,0.000000,-8660.409521,-612.876398
3244.858451,-2220.617826,-11029.068536,-1532.190996
3244.858778,-3923.091493,-12065.356855,-1455.581446
3244.859106,-1850.514855,-11103.089130,-2451.505594
3244.859433,-814.226536,-10732.986159,-2604.724693
3244.859761,-1184.329507,-10510.924376,-536.266849
3244.860088,-592.164754,-9992.780217,689.485948
3244.860416,370.102971,-9548.656652,766.095498
3244.860743,0.000000,-8438.347739,76.609550
3244.861070,-370.102971,-9696.697840,0.000000
3244.861398,-1480.411884,-9326.594869,536.266849
3244.861725,-1628.453072,-7550.100608,0.000000
3244.862053,-148.041188,-8068.244768,-2145.067394
3244.862380,-962.267725,-11325.150913,-306.438199
3244.862708,-370.102971,-13693.809927,383.047749
3244.863035,0.000000,-12139.377449,-1072.533697
3244.863363,-962.267725,-9696.697840,-2451.505594
3244.863690,-518.144159,-10436.903782,-2911.162892
3244.864018,-1480.411884,-9548.656652,-1608.800546
3244.864345,-370.102971,-7846.182985,-459.657299
3244.864673,-148.041188,-6883.915261,306.438199
3244.865000,888.247130,-7476.080014,1455.581446
3244.865327,1850.514855,-8364.327145,2528.115143
3244.865655,1480.411884,-9326.594869,2068.457845
3244.865982,296.082377,-9474.636058,612.876398
3244.866310,814.226536,-9918.759623,-383.047749
3244.866637,222.061783,-10362.883188,-1532.190996
3244.866965,1258.350101,-9992.780217,-766.095498
3244.867292,2146.597232,-10066.800811,-766.095498
3244.867620,2294.638420,-9474.636058,383.047749
3244.867947,2146.597232,-10214.842000,1762.019645
3244.868275,888.247130,-9770.718434,1762.019645
3244.868602,74.020594,-8142.265362,995.924147
3244.868930,74.020594,-7328.038826,0.000000
3244.869257,-222.061783,-8364.327145,-1991.848295
3244.869584,-518.144159,-10066.800811,-383.047749
3244.869912,962.267725,-11547.212695,76.609550
3244.870239,2072.576638,-9622.677246,-842.705048
3244.870567,2886.803174,-9178.553681,0.000000
3244.870894,2516.700203,-11325.150913,229.828649
3244.871222,2220.617826,-11843.295072,306.438199
3244.871549,4885.359217,-11621.233289,-689.485948
3244.871877,1628.453072,-10362.883188,76.609550
3244.872204,-222.061783,-9400.615463,1225.752797
3244.872532,0.000000,-8734.430116,0.000000
3244.872859,-1480.411884,-10214.842000,-919.314598
3244.873187,-518.144159,-9696.697840,-1302.362347
3244.873514,592.164754,-10288.862594,-2681.334243
3244.873841,148.041188,-10066.800811,-1532.190996
3244.874169,2072.576638,-9844.739029,0.000000
3244.874496,1850.514855,-8956.491898,0.000000
3244.874824,1332.370696,-10584.944971,1915.238745
3244.875151,1036.288319,-11843.295072,1455.581446
3244.875479,1258.350101,-9474.636058,-459.657299
3244.875806,148.041188,-7402.059420,-1991.848295
3244.876134,-2294.638420,-8956.491898,-689.485948
3244.876461,-2812.782580,-10658.965565,1225.752797
3244.876789,-1850.514855,-10436.903782,995.924147
3244.877116,-1258.350101,-9474.636058,-1072.533697
3244.877444,-666.185348,-8438.347739,-1915.238745
3244.877771,-1480.411884,-7920.203579,-1915.238745
3244.878099,-962.267725,-9030.512492,76.609550
3244.878426,222.061783,-8660.409521,1072.533697
3244.878753,1036.288319,-9030.512492,2068.457845
3244.879081,962.267725,-7550.100608,3140.991542
3244.879408,2368.659014,-8290.306550,2374.896044
3244.879736,0.000000,-9992.780217,2068.457845
3244.880063,-2368.659014,-11399.171507,0.000000
3244.880391,-4589.276840,-11769.274478,-1685.410096
3244.880718,-3108.864956,-9844.739029,-4673.182538
3244.881046,-1332.370696,-8808.450710,-4366.744339
3244.881373,-1406.391290,-9622.677246,-995.924147
3244.881701,-296.082377,-11251.130318,2298.286494
3244.882028,2220.617826,-11029.068536,1991.848295
3244.882356,2664.741391,-8512.368333,-229.828649
3244.882683,2294.638420,-7550.100608,153.219100
3244.883010,-222.061783,-9400.615463,153.219100
3244.883338,-296.082377,-9918.759623,1149.143247
3244.883665,1110.308913,-10066.800811,-766.095498
3244.883993,0.000000,-11029.068536,-1762.019645
3244.884320,-518.144159,-11251.130318,-306.438199
3244.884648,666.185348,-9992.780217,-766.095498
3244.884975,1258.350101,-12879.583391,-1915.238745
3244.885303,1258.350101,-12953.603985,-1838.629195
3244.885630,1258.350101,-10066.800811,-2298.286494
3244.885958,888.247130,-7624.121203,-842.705048
3244.886285,1776.494261,-7328.038826,383.047749
3244.886613,1554.432478,-8068.244768,2451.505594
3244.886940,1480.411884,-9104.533087,2911.162892
3244.887267,2368.659014,-10362.883188,1608.800546
3244.887595,2368.659014,-10214.842000,-1608.800546
3244.887922,1850.514855,-9326.594869,-1762.019645
3244.888250,0.000000,-10362.883188,-766.095498
3244.888577,222.061783,-11473.192101,-766.095498
3244.888905,814.226536,-9770.718434,-689.485948
3244.889232,740.205942,-7698.141797,-306.438199
3244.889560,2886.803174,-9178.553681,459.657299
3244.889887,4367.215058,-10140.821405,1149.143247
3244.890215,2294.638420,-8956.491898,2528.115143
3244.890542,814.226536,-8586.388927,2451.505594
3244.890870,-666.185348,-8586.388927,536.266849
3244.891197,-2220.617826,-7476.080014,-995.924147
3244.891524,-1184.329507,-8216.285956,-2451.505594
3244.891852,-962.267725,-9030.512492,-3370.820191
3244.892179,0.000000,-9844.739029,-612.876398
3244.892507,1184.329507,-11399.171507,536.266849
3244.892834,1184.329507,-11177.109724,919.314598
3244.893162,2590.720797,-10140.821405,76.609550
3244.893489,1036.288319,-10066.800811,306.438199
3244.893817,-1036.288319,-10955.047942,842.705048
3244.894144,-1628.453072,-11177.109724,-995.924147
3244.894472,-2516.700203,-10436.903782,-2145.067394
3244.894799,-1480.411884,-8660.409521,-2221.676944
3244.895127,148.041188,-9474.636058,-2374.896044
3244.895454,-1184.329507,-10436.903782,919.314598
3244.895781,-222.061783,-9548.656652,1378.971896
3244.896109,518.144159,-9770.718434,-306.438199
3244.896436,444.123565,-9696.697840,-2298.286494
3244.896764,0.000000,-9696.697840,-2221.676944
3244.897091,74.020594,-10140.821405,-229.828649
3244.897419,592.164754,-10955.047942,1455.581446
3244.897746,888.247130,-12731.542202,919.314598
3244.898074,1110.308913,-10881.027347,-612.876398
3244.898401,370.102971,-8956.491898,-1378.971896
3244.898729,-1480.411884,-9400.615463,-1762.019645
3244.899056,-2368.659014,-9696.697840,-612.876398
3244.899384,-2960.823768,-7105.977043,-1149.143247
3244.899711,-2220.617826,-7031.956449,-1149.143247
3244.900038,-444.123565,-7328.038826,-459.657299
3244.900366,814.226536,-8512.368333,1455.581446
3244.900693,1110.308913,-9030.512492,2604.724693
3244.901021,3627.009116,-9992.780217,2221.676944
3244.901348,2664.741391,-10140.821405,1072.533697
3244.901676,-444.123565,-10584.944971,612.876398
3244.902003,-1850.514855,-9918.759623,-919.314598
3244.902331,-1184.329507,-9474.636058,-1532.190996
3244.902658,370.102971,-9474.636058,-1072.533697
3244.902986,0.000000,-11769.274478,459.657299
3244.903313,0.000000,-10140.821405,1762.019645
3244.903641,2072.576638,-7994.224174,0.000000
3244.903968,1184.329507,-9474.636058,-766.095498
3244.904295,-1110.308913,-9400.615463,536.266849
3244.904623,-1036.288319,-9030.512492,612.876398
3244.904950,0.000000,-8808.450710,-536.266849
3244.905278,2294.638420,-9030.512492,-1302.362347
3244.905605,1628.453072,-9400.615463,-919.314598
3244.905933,888.247130,-10807.006753,2145.067394
3244.906260,2368.659014,-12361.439231,1608.800546
3244.906588,1924.535449,-12509.480420,-919.314598
3244.906915,0.000000,-10658.965565,-2451.505594
3244.907243,-370.102971,-9770.718434,-3217.601092
3244.907570,148.041188,-8586.388927,-2834.553343
3244.907898,148.041188,-9030.512492,-536.266849
3244.908225,518.144159,-10214.842000,1532.190996
3244.908552,1184.329507,-9252.574275,1149.143247
3244.908880,2368.659014,-8882.471304,0.000000
3244.909207,1480.411884,-8734.430116,-919.314598
3244.909535,0.000000,-8808.450710,-689.485948
3244.909862,0.000000,-10288.862594,0.000000
3244.910190,222.061783,-10362.883188,0.000000
3244.910517,-222.061783,-8956.491898,-1072.533697
3244.910845,-592.164754,-10436.903782,-689.485948
3244.911172,74.020594,-11325.150913,0.000000
3244.911500,1406.391290,-11547.212695,-536.266849
3244.911827,0.000000,-11325.150913,459.657299
3244.912155,222.061783,-8068.244768,-459.657299
3244.912482,1184.329507,-7031.956449,-383.047749
3244.912809,-814.226536,-7698.141797,919.314598
3244.913137,-1406.391290,-7402.059420,2298.286494
3244.913464,-1554.432478,-7772.162391,2221.676944
3244.913792,-1554.432478,-8216.285956,383.047749
3244.914119,-370.102971,-8660.409521,-842.705048
3244.914447,-1036.288319,-9770.718434,76.609550
3244.914774,222.061783,-11843.295072,-229.828649
3244.915102,222.061783,-11695.253884,-612.876398
3244.915429,-444.123565,-10658.965565,-766.095498
3244.915757,-888.247130,-9770.718434,-1378.971896
3244.916084,-1184.329507,-10362.883188,-1455.581446
3244.916412,-814.226536,-10066.800811,-383.047749
3244.916739,592.164754,-9474.636058,-306.438199
3244.917066,222.061783,-9474.636058,1608.800546
3244.917394,1628.453072,-8364.327145,1685.410096
3244.917721,1332.370696,-8512.368333,0.000000
3244.918049,74.020594,-9548.656652,-612.876398
3244.918376,0.000000,-11251.130318,-612.876398
3244.918704,-444.123565,-11621.233289,-1532.190996
3244.919031,444.123565,-8882.471304,-2681.334243
3244.919359,2072.576638,-8808.450710,-919.314598
3244.919686,1332.370696,-11251.130318,1608.800546
3244.920014,2442.679609,-13989.892304,2911.162892
3244.920341,3404.947333,-13175.665768,306.438199
3244.920669,1406.391290,-9326.594869,-2221.676944
3244.920996,-1258.350101,-7920.203579,-2451.505594
3244.921323,-2442.679609,-8956.491898,-1072.533697
3244.921651,-2442.679609,-7624.121203,842.705048
3244.921978,-518.144159,-8216.285956,229.828649
3244.922306,666.185348,-8882.471304,0.000000
3244.922633,2664.741391,-7328.038826,-459.657299
3244.922961,2294.638420,-8364.327145,383.047749
3244.923288,-222.061783,-11547.212695,2298.286494
3244.923616,74.020594,-10955.047942,1608.800546
3244.923943,1332.370696,-9548.656652,-1302.362347
3244.924271,1332.370696,-8586.388927,-1302.362347
3244.924598,1406.391290,-10436.903782,919.314598
3244.924926,740.205942,-9918.759623,2451.505594
3244.925254,0.000000,-10362.883188,1915.238745
3244.925581,-518.144159,-11251.130318,-1302.362347
3244.925909,-1036.288319,-8660.409521,-2221.676944
3244.926236,-1184.329507,-5329.482782,-1685.410096
3244.926564,518.144159,-7920.203579,-1149.143247
3244.926892,1406.391290,-9548.656652,536.266849
3244.927219,1332.370696,-10140.821405,2451.505594
3244.927547,1406.391290,-9844.739029,2221.676944
3244.927875,1554.432478,-9918.759623,536.266849
3244.928202,148.041188,-11399.171507,-536.266849
3244.928530,-592.164754,-13027.624579,-1685.410096
3244.928858,-814.226536,-11621.233289,-2221.676944
3244.929185,-962.267725,-10436.903782,-3217.601092
3244.929513,-666.185348,-8660.409521,-1991.848295
3244.929840,444.123565,-9030.512492,0.000000
3244.930168,518.144159,-9548.656652,459.657299
3244.930496,1554.432478,-10066.800811,995.924147
3244.930823,1406.391290,-9474.636058,612.876398
3244.931151,962.267725,-7550.100608,229.828649
3244.931479,444.123565,-8216.285956,612.876398
3244.931806,-222.061783,-9992.780217,153.219100
3244.932134,-592.164754,-11325.150913,-459.657299
3244.932462,-1110.308913,-12213.398043,-766.095498
3244.932789,-296.082377,-10658.965565,-2221.676944
3244.933117,740.205942,-9178.553681,-1762.019645
3244.933445,148.041188,-9992.780217,-1072.533697
3244.933772,0.000000,-10732.986159,306.438199
3244.934100,1184.329507,-10436.903782,612.876398
3244.934427,1110.308913,-7772.162391,153.219100
3244.934755,518.144159,-6143.709319,612.876398
3244.935083,0.000000,-7328.038826,2145.067394
3244.935410,-740.205942,-8438.347739,2374.896044
3244.935738,-296.082377,-10807.006753,919.314598
3244.936066,-962.267725,-11103.089130,-766.095498
3244.936393,0.000000,-9104.533087,-2451.505594
3244.936721,592.164754,-8956.491898,-2068.457845
3244.937049,-814.226536,-9992.780217,383.047749
3244.937376,-1036.288319,-10436.903782,1838.629195
3244.937704,1184.329507,-12213.398043,612.876398
3244.938031,74.020594,-9400.615463,-612.876398
3244.938359,1850.514855,-8734.430116,-1149.143247
3244.938687,1702.473667,-10214.842000,459.657299
3244.939014,0.000000,-11251.130318,2834.553343
3244.939342,370.102971,-9770.718434,1225.752797
3244.939670,1110.308913,-8068.244768,-2451.505594
3244.939997,444.123565,-8216.285956,-2757.943793
3244.940325,222.061783,-9400.615463,-1608.800546
3244.940653,0.000000,-8956.491898,0.000000
3244.940980,1702.473667,-9474.636058,766.095498
3244.941308,1998.556043,-10436.903782,383.047749
3244.941636,1776.494261,-11029.068536,612.876398
3244.941963,2368.659014,-12065.356855,1225.752797
3244.942291,3182.885551,-11917.315666,-612.876398
3244.942618,1110.308913,-11251.130318,-1378.971896
3244.942946,-1776.494261,-10510.924376,-1762.019645
3244.943274,-2146.597232,-8512.368333,-2145.067394
3244.943601,-962.267725,-7772.162391,-2068.457845
3244.943929,-592.164754,-8438.347739,-383.047749
3244.944257,814.226536,-7994.224174,1149.143247
3244.944584,2590.720797,-8956.491898,1532.190996
3244.944912,1480.411884,-9104.533087,612.876398
3244.945240,962.267725,-9696.697840,383.047749
3244.945567,-444.123565,-9696.697840,459.657299
3244.945895,-222.061783,-9770.718434,536.266849
3244.946222,814.226536,-11843.295072,0.000000
3244.946550,222.061783,-11251.130318,153.219100
3244.946878,518.144159,-9178.553681,-229.828649
3244.947205,296.082377,-9622.677246,-1532.190996
3244.947533,-1110.308913,-10140.821405,-1225.752797
3244.947861,-2072.576638,-7698.141797,-306.438199
3244.948188,-1184.329507,-7031.956449,-536.266849
3244.948516,-1406.391290,-7846.182985,76.609550
3244.948844,370.102971,-7624.121203,229.828649
3244.949171,1554.432478,-9474.636058,995.924147
3244.949499,666.185348,-11325.150913,3217.601092
3244.949826,1110.308913,-12805.562797,1225.752797
3244.950154,666.185348,-11325.150913,-1838.629195
3244.950482,-888.247130,-10436.903782,-2834.553343
3244.950809,-2368.659014,-10436.903782,-3370.820191
3244.951137,-1998.556043,-8956.491898,-2145.067394
3244.951465,-814.226536,-8068.244768,-766.095498
3244.951792,1036.288319,-9474.636058,612.876398
3244.952120,2220.617826,-9918.759623,1072.533697
3244.952448,2368.659014,-9992.780217,842.705048
3244.952775,592.164754,-9548.656652,306.438199
3244.953103,444.123565,-10436.903782,-383.047749
3244.953431,0.000000,-10658.965565,-1685.410096
3244.953758,74.020594,-9030.512492,-766.095498
3244.954086,1036.288319,-9030.512492,-1072.533697
3244.954413,1184.329507,-10955.047942,0.000000
3244.954741,1036.288319,-11029.068536,1225.752797
3244.955069,1258.350101,-10214.842000,536.266849
3244.955396,0.000000,-9844.739029,-1149.143247
3244.955724,0.000000,-8364.327145,-1225.752797
3244.956052,-222.061783,-7772.162391,-1455.581446
3244.956379,0.000000,-9992.780217,766.095498
3244.956707,1480.411884,-11621.233289,1532.190996
3244.957035,1850.514855,-8660.409521,919.314598
3244.957362,1110.308913,-7105.977043,1149.143247
3244.957690,518.144159,-8956.491898,383.047749
3244.958017,-222.061783,-9104.533087,153.219100
3244.958345,222.061783,-9326.594869,-383.047749
3244.958673,-740.205942,-8660.409521,-459.657299
3244.959000,-1628.453072,-8512.368333,-766.095498
3244.959328,-740.205942,-9548.656652,-842.705048
3244.959656,-592.164754,-10436.903782,0.000000
3244.959983,1554.432478,-11917.315666,76.609550
3244.960311,1998.556043,-12213.398043,-689.485948
3244.960639,1258.350101,-11325.150913,0.000000
3244.960966,1850.514855,-9622.677246,-383.047749
3244.961294,888.247130,-8734.430116,-995.924147
3244.961621,-296.082377,-9474.636058,229.828649
3244.961949,148.041188,-10288.862594,-306.438199
3244.962277,222.061783,-8290.306550,-1149.143247
3244.962604,1332.370696,-7105.977043,-229.828649
3244.962932,1184.329507,-8956.491898,995.924147
3244.963260,-444.123565,-12361.439231,1072.533697
3244.963587,666.185348,-13619.789333,612.876398
3244.963915,1110.308913,-11621.233289,-1608.800546
3244.964243,0.000000,-10584.944971,-2451.505594
3244.964570,0.000000,-9992.780217,-2298.286494
3244.964898,0.000000,-9326.594869,-229.828649
3244.965226,-370.102971,-8438.347739,229.828649
3244.965553,-518.144159,-9474.636058,842.705048
3244.965881,0.000000,-7254.018232,995.924147
3244.966208,666.185348,-6735.874072,612.876398
3244.966536,-592.164754,-7846.182985,229.828649
3244.966864,-1628.453072,-9992.780217,0.000000
3244.967191,-2220.617826,-12287.418637,-766.095498
3244.967519,0.000000,-9696.697840,-1225.752797
3244.967847,1850.514855,-9326.594869,-766.095498
3244.968174,1184.329507,-10658.965565,1455.581446
3244.968502,518.144159,-10362.883188,2757.943793
3244.968830,1258.350101,-9400.615463,1302.362347
3244.969157,814.226536,-9252.574275,-536.266849
3244.969485,-1258.350101,-7476.080014,-459.657299
3244.969812,-1628.453072,-6439.791695,0.000000
3244.970140,-2072.576638,-6587.832884,0.000000
3244.970468,-888.247130,-11177.109724,229.828649
3244.970795,740.205942,-12509.480420,0.000000
3244.971123,370.102971,-10510.924376,-229.828649
3244.971451,1850.514855,-10510.924376,-842.705048
3244.971778,1924.535449,-11843.295072,-1685.410096
3244.972106,444.123565,-11103.089130,-995.924147
3244.972434,0.000000,-9918.759623,-229.828649
3244.972761,-296.082377,-8290.306550,-1225.752797
3244.973089,0.000000,-8586.388927,-536.266849
3244.973417,296.082377,-9400.615463,306.438199
3244.973744,518.144159,-9918.759623,919.314598
3244.974072,1480.411884,-11769.274478,0.000000
3244.974399,1406.391290,-11399.171507,-1685.410096
3244.974727,296.082377,-9622.677246,-1532.190996
3244.975055,0.000000,-8882.471304,-2145.067394
3244.975382,0.000000,-8660.409521,-1149.143247
3244.975710,666.185348,-9992.780217,842.705048
3244.976038,1184.329507,-10658.965565,1302.362347
3244.976365,1480.411884,-9474.636058,153.219100
3244.976693,1850.514855,-9252.574275,-612.876398
3244.977021,222.061783,-9474.636058,-229.828649
3244.977348,-1332.370696,-10658.965565,229.828649
3244.977676,-962.267725,-10881.027347,-689.485948
3244.978003,0.000000,-8068.244768,-2451.505594
3244.978331,1332.370696,-8586.388927,-1455.581446
3244.978659,1332.370696,-10436.903782,995.924147
3244.978986,1702.473667,-9474.636058,3217.601092
3244.979314,2146.597232,-8290.306550,2834.553343
3244.979642,370.102971,-8290.306550,1378.971896
3244.979969,0.000000,-8364.327145,-229.828649
3244.980297,-962.267725,-8068.244768,-612.876398
3244.980625,-2812.782580,-8364.327145,76.609550
3244.980952,-2590.720797,-9918.759623,612.876398
3244.981280,-2220.617826,-11029.068536,-1455.581446
3244.981607,-1258.350101,-9622.677246,-1149.143247
3244.981935,1628.453072,-9770.718434,-2298.286494
3244.982263,2146.597232,-11177.109724,-766.095498
3244.982590,1036.288319,-12139.377449,2451.505594
3244.982918,1628.453072,-9992.780217,1455.581446
3244.983246,1702.473667,-7994.224174,-689.485948
3244.983573,0.000000,-9104.533087,-383.047749
3244.983901,-962.267725,-9474.636058,-459.657299
3244.984229,-592.164754,-9474.636058,-536.266849
3244.984556,0.000000,-10436.903782,-766.095498
3244.984884,296.082377,-10436.903782,-1072.533697
3244.985212,444.123565,-11325.150913,-766.095498
3244.985539,666.185348,-11621.233289,-689.485948
3244.985867,518.144159,-10732.986159,-1762.019645
3244.986194,666.185348,-11399.171507,-919.314598
3244.986522,592.164754,-10807.006753,-459.657299
3244.986850,962.267725,-8290.306550,-612.876398
3244.987177,1702.473667,-8290.306550,0.000000
3244.987505,0.000000,-9474.636058,842.705048
3244.987833,-444.123565,-10881.027347,1608.800546
3244.988160,-370.102971,-9400.615463,306.438199
3244.988488,-592.164754,-7402.059420,-1072.533697
3244.988816,-1036.288319,-7550.100608,-2221.676944
3244.989143,-2368.659014,-9400.615463,-689.485948
3244.989471,-592.164754,-9918.759623,536.266849
3244.989798,2368.659014,-10362.883188,842.705048
3244.990126,2146.597232,-9474.636058,1072.533697
3244.990454,1998.556043,-9030.512492,2451.505594
3244.990781,1332.370696,-9548.656652,1455.581446
3244.991109,-222.061783,-8956.491898,153.219100
3244.991437,-666.185348,-8586.388927,-229.828649
3244.991764,-1998.556043,-8068.244768,-919.314598
3244.992092,-1554.432478,-7846.182985,-689.485948
3244.992420,0.000000,-9178.553681,-689.485948
3244.992747,444.123565,-9918.759623,76.609550
3244.993075,148.041188,-10658.965565,1072.533697
3244.993402,1480.411884,-11621.233289,689.485948
3244.993730,1554.432478,-10066.800811,-1072.533697
3244.994058,666.185348,-9918.759623,-1378.971896
3244.994385,0.000000,-9252.574275,-1532.190996
3244.994713,-444.123565,-10214.842000,0.000000
3244.995041,0.000000,-10881.027347,0.000000
3244.995368,888.247130,-9326.594869,-306.438199
3244.995696,1332.370696,-9474.636058,-459.657299
3244.996024,962.267725,-10584.944971,-383.047749
3244.996351,1036.288319,-11177.109724,-612.876398
3244.996679,962.267725,-11029.068536,-1378.971896
3244.997007,0.000000,-10066.800811,-1532.190996
3244.997334,74.020594,-8142.265362,-306.438199
3244.997662,370.102971,-8956.491898,459.657299
3244.997989,370.102971,-9918.759623,612.876398
3244.998317,296.082377,-11547.212695,1149.143247
3244.998645,666.185348,-10732.986159,153.219100
3244.998972,296.082377,-9178.553681,-1915.238745
3244.999300,222.061783,-9178.553681,-1149.143247
3244.999628,-1258.350101,-7920.203579,-306.438199
3244.999955,-1332.370696,-8216.285956,612.876398
3245.000283,962.267725,-10510.924376,766.095498
3245.000611,1702.473667,-9252.574275,306.438199
3245.000938,2590.720797,-7846.182985,1149.143247
3245.001266,1554.432478,-8734.430116,2451.505594
3245.001593,-518.144159,-10362.883188,2451.505594
3245.001921,518.144159,-10658.965565,919.314598
3245.002249,-814.226536,-8438.347739,-1685.410096
3245.002576,-2368.659014,-6809.894666,-1378.971896
3245.002904,-2664.741391,-7624.121203,-536.266849
3245.003232,-2146.597232,-9474.636058,-306.438199
3245.003559,-1184.329507,-10510.924376,-153.219100
3245.003887,1702.473667,-10362.883188,-1762.019645
3245.004215,2590.720797,-9548.656652,-1225.752797
3245.004542,1998.556043,-10807.006753,1225.752797
3245.004870,814.226536,-11473.192101,1762.019645
3245.005198,1184.329507,-11473.192101,229.828649
3245.005525,296.082377,-11029.068536,-1685.410096
3245.005853,-592.164754,-9770.718434,-2757.943793
3245.006180,0.000000,-8586.388927,-1838.629195
3245.006508,0.000000,-9178.553681,-612.876398
3245.006836,0.000000,-9474.636058,1149.143247
3245.007163,1036.288319,-11695.253884,766.095498
3245.007491,888.247130,-10881.027347,-842.705048
3245.007819,1184.329507,-9992.780217,-1455.581446
3245.008146,888.247130,-10510.924376,-1149.143247
3245.008474,444.123565,-10436.903782,-383.047749
3245.008802,74.020594,-10510.924376,-306.438199
3245.009129,518.144159,-9992.780217,-842.705048
3245.009457,518.144159,-9622.677246,-612.876398
3245.009784,962.267725,-8586.388927,536.266849
3245.010112,740.205942,-8216.285956,995.924147
3245.010440,-148.041188,-7772.162391,766.095498
3245.010767,-962.267725,-8956.491898,0.000000
3245.011095,-1702.473667,-8882.471304,-995.924147
3245.011423,296.082377,-8734.430116,-689.485948
3245.011750,1628.453072,-8956.491898,459.657299
3245.012078,1332.370696,-10288.862594,1532.190996
3245.012406,1480.411884,-11473.192101,1762.019645
3245.012733,888.247130,-10732.986159,0.000000
3245.013061,1110.308913,-7698.141797,-1762.019645
3245.013388,-592.164754,-7179.997637,-1532.190996
3245.013716,-2368.659014,-8142.265362,766.095498
3245.014044,-1702.473667,-8068.244768,1225.752797
3245.014371,-222.061783,-8956.491898,306.438199
3245.014699,1480.411884,-9474.636058,-383.047749
3245.015027,1480.411884,-11843.295072,0.000000
3245.015354,444.123565,-11991.336260,229.828649
3245.015682,740.205942,-11621.233289,-689.485948
3245.016010,-592.164754,-11769.274478,-2451.505594
3245.016337,-666.185348,-9326.594869,-3600.648841
3245.016665,-296.082377,-8068.244768,-2681.334243
3245.016993,148.041188,-9474.636058,0.000000
3245.017320,1406.391290,-9474.636058,2221.676944
3245.017648,1702.473667,-10510.924376,2451.505594
3245.017975,1258.350101,-10214.842000,306.438199
3245.018303,592.164754,-9844.739029,-1532.190996
3245.018631,-518.144159,-10584.944971,-1762.019645
3245.018958,-962.267725,-10510.924376,-689.485948
3245.019286,222.061783,-11843.295072,-612.876398
3245.019614,666.185348,-10658.965565,-1225.752797
3245.019941,1554.432478,-9696.697840,-536.266849
3245.020269,1480.411884,-9178.553681,-459.657299
3245.020597,592.164754,-8956.491898,536.266849
3245.020924,148.041188,-8734.430116,536.266849
3245.021252,-666.185348,-8290.306550,76.609550
3245.021579,-592.164754,-7179.997637,-459.657299
3245.021907,296.082377,-8512.368333,153.219100
3245.022235,666.185348,-10214.842000,1685.410096
3245.022562,1258.350101,-11177.109724,1225.752797
3245.022890,2146.597232,-10807.006753,76.609550
3245.023218,148.041188,-10066.800811,-306.438199
3245.023545,0.000000,-8438.347739,-995.924147
3245.023873,-370.102971,-8364.327145,-919.314598
3245.024201,-296.082377,-8512.368333,383.047749
3245.024528,-518.144159,-7105.977043,2068.457845
3245.024856,-2072.576638,-7031.956449,2068.457845
3245.025183,-1480.411884,-8956.491898,995.924147
3245.025511,-740.205942,-10732.986159,-1838.629195
3245.025839,296.082377,-10584.944971,-2987.772442
3245.026167,1554.432478,-11991.336260,-1455.581446
3245.026494,1850.514855,-13545.768739,229.828649
3245.026822,2886.803174,-12213.398043,76.609550
3245.027150,3182.885551,-10436.903782,-1838.629195
3245.027478,2294.638420,-8956.491898,-1455.581446
3245.027805,666.185348,-9178.553681,-153.219100
3245.028133,74.020594,-9770.718434,383.047749
3245.028461,0.000000,-7698.141797,306.438199
3245.028789,0.000000,-7920.203579,0.000000
3245.029116,-296.082377,-11029.068536,0.000000
3245.029444,296.082377,-11177.109724,383.047749
3245.029772,1702.473667,-11695.253884,-842.705048
3245.030100,1110.308913,-11695.253884,-2757.943793
3245.030427,888.247130,-10288.862594,-2911.162892
3245.030755,1110.308913,-9622.677246,-1991.848295
3245.031083,666.185348,-9178.553681,306.438199
3245.031411,1036.288319,-8438.347739,2604.724693
3245.031738,1036.288319,-8438.347739,2834.553343
3245.032066,222.061783,-8438.347739,2451.505594
3245.032394,148.041188,-8660.409521,306.438199
3245.032722,-1036.288319,-9252.574275,-842.705048
3245.033050,-2220.617826,-10510.924376,-995.924147
3245.033377,-2442.679609,-11843.295072,-1149.143247
3245.033705,-1184.329507,-9104.533087,-2451.505594
3245.034033,1850.514855,-8216.285956,-1685.410096
3245.034361,2146.597232,-10362.883188,1455.581446
3245.034688,2146.597232,-11325.150913,2681.334243
3245.035016,1776.494261,-9030.512492,2604.724693
3245.035344,0.000000,-6957.935855,919.314598
3245.035672,-1110.308913,-7031.956449,-919.314598
3245.035999,-2146.597232,-7994.224174,-919.314598
3245.036327,-2146.597232,-9326.594869,612.876398
3245.036655,-74.020594,-11325.150913,-383.047749
3245.036983,1258.350101,-13249.686362,-1378.971896
3245.037310,1332.370696,-12583.501014,-2221.676944
3245.037638,740.205942,-11621.233289,-1991.848295
3245.037966,518.144159,-9844.739029,-2298.286494
3245.038294,222.061783,-9104.533087,-1378.971896
3245.038621,0.000000,-9178.553681,0.000000
3245.038949,296.082377,-7105.977043,0.000000
3245.039277,1332.370696,-7254.018232,1072.533697
3245.039605,888.247130,-9548.656652,2374.896044
3245.039933,518.144159,-12583.501014,1685.410096
3245.040260,0.000000,-13915.871710,-459.657299
3245.040588,-814.226536,-10362.883188,-3524.039291
3245.040916,-296.082377,-8882.471304,-4673.182538
3245.041244,0.000000,-10436.903782,-3140.991542
3245.041571,74.020594,-9326.594869,766.095498
3245.041899,1110.308913,-8808.450710,2757.943793
3245.042227,1628.453072,-9474.636058,2451.505594
3245.042555,1480.411884,-9474.636058,1302.362347
3245.042882,962.267725,-8660.409521,689.485948
3245.043210,0.000000,-8438.347739,383.047749
3245.043538,-888.247130,-9622.677246,0.000000
3245.043866,-962.267725,-10584.944971,-1225.752797
3245.044193,0.000000,-9770.718434,-1915.238745
3245.044521,1850.514855,-10214.842000,-1072.533697
3245.044849,2294.638420,-9104.533087,-153.219100
3245.045177,1776.494261,-10066.800811,1455.581446
3245.045504,666.185348,-10288.862594,2604.724693
3245.045832,-592.164754,-7772.162391,1072.533697
3245.046160,1036.288319,-7031.956449,-689.485948
3245.046488,-444.123565,-7846.182985,76.609550
3245.046816,-2590.720797,-8068.244768,2068.457845
3245.047143,-1850.514855,-10584.944971,536.266849
3245.047471,-814.226536,-11547.212695,-2145.067394
3245.047799,222.061783,-9992.780217,-3140.991542
3245.048127,1850.514855,-10214.842000,-2987.772442
3245.048454,1776.494261,-11547.212695,-153.219100
3245.048782,2664.741391,-12953.603985,1991.848295
3245.049110,2442.679609,-11547.212695,842.705048
3245.049438,1332.370696,-9400.615463,-153.219100
3245.049765,666.185348,-8882.471304,0.000000
3245.050093,1110.308913,-8882.471304,-536.266849
3245.050421,-222.061783,-9474.636058,383.047749
3245.050749,-1036.288319,-10807.006753,919.314598
3245.051076,-1184.329507,-9326.594869,-612.876398
3245.051404,518.144159,-9400.615463,-2221.676944
3245.051732,296.082377,-10362.883188,-1915.238745
3245.052060,-370.102971,-10732.986159,-842.705048
3245.052387,666.185348,-11103.089130,383.047749
3245.052715,1776.494261,-9178.553681,-919.314598
3245.053043,1850.514855,-7402.059420,-306.438199
3245.053371,888.247130,-9252.574275,1302.362347
3245.053699,-296.082377,-9622.677246,3217.601092
3245.054026,814.226536,-9918.759623,2374.896044
3245.054354,-370.102971,-8882.471304,-1072.533697
3245.054682,-2664.741391,-8882.471304,-2834.553343
3245.055010,-3034.844362,-9178.553681,-2374.896044
3245.055337,-1036.288319,-8586.388927,-1302.362347
3245.055665,592.164754,-9696.697840,229.828649
3245.055993,1258.350101,-10066.800811,1378.971896
3245.056321,1110.308913,-8512.368333,1762.019645
3245.056648,2072.576638,-8364.327145,1455.581446
3245.056976,518.144159,-8734.430116,842.705048
3245.057304,-1184.329507,-9474.636058,1302.362347
3245.057632,-2072.576638,-9992.780217,0.000000
3245.057959,-2368.659014,-9252.574275,-2145.067394
3245.058287,-962.267725,-9326.594869,-2911.162892
3245.058615,-296.082377,-10732.986159,-2068.457845
3245.058943,-592.164754,-12879.583391,919.314598
3245.059270,1036.288319,-12361.439231,0.000000
3245.059598,1258.350101,-9622.677246,-1915.238745
3245.059926,740.205942,-8216.285956,-2068.457845
3245.060254,444.123565,-9252.574275,0.000000
3245.060582,296.082377,-8882.471304,536.266849
3245.060909,1110.308913,-9252.574275,1149.143247
3245.061237,1184.329507,-11103.089130,1072.533697
3245.061565,1554.432478,-10807.006753,306.438199
3245.061893,1110.308913,-10066.800811,0.000000
3245.062220,0.000000,-9844.739029,-1302.362347
3245.062548,0.000000,-10140.821405,-1685.410096
3245.062876,666.185348,-10584.944971,-1838.629195
3245.063204,370.102971,-8586.388927,-1149.143247
3245.063531,592.164754,-8068.244768,766.095498
3245.063859,962.267725,-8956.491898,1378.971896
3245.064187,1332.370696,-9844.739029,1915.238745
3245.064515,1184.329507,-10584.944971,1838.629195
3245.064842,0.000000,-8216.285956,-536.266849
3245.065170,148.041188,-7402.059420,-2068.457845
3245.065498,74.020594,-9400.615463,-1455.581446
3245.065826,148.041188,-10214.842000,459.657299
3245.066153,1924.535449,-9548.656652,766.095498
3245.066481,2220.617826,-9474.636058,689.485948
3245.066809,2294.638420,-9326.594869,153.219100
3245.067137,888.247130,-9844.739029,229.828649
3245.067465,0.000000,-9474.636058,842.705048
3245.067792,-444.123565,-10066.800811,842.705048
3245.068120,-296.082377,-10436.903782,-153.219100
3245.068448,-222.061783,-8586.388927,-1455.581446
3245.068776,-814.226536,-7994.224174,0.000000
3245.069103,-666.185348,-9400.615463,1072.533697
3245.069431,-666.185348,-9992.780217,229.828649
3245.069759,-1036.288319,-10658.965565,-536.266849
3245.070087,-222.061783,-8734.430116,-2757.943793
3245.070414,1332.370696,-10140.821405,-2681.334243
3245.070742,1258.350101,-12139.377449,-229.828649
3245.071070,518.144159,-11547.212695,1685.410096
3245.071398,1628.453072,-10436.903782,1762.019645
3245.071725,1332.370696,-10214.842000,-766.095498
3245.072053,-222.061783,-9918.759623,-842.705048
3245.072381,-1258.350101,-8438.347739,-689.485948
3245.072709,-1628.453072,-7254.018232,0.000000
3245.073036,-370.102971,-7846.182985,229.828649
3245.073364,-740.205942,-8808.450710,1072.533697
3245.073692,0.000000,-9474.636058,995.924147
3245.074020,1702.473667,-11325.150913,689.485948
3245.074348,2146.597232,-10732.986159,-766.095498
3245.074675,888.247130,-9844.739029,-766.095498
3245.075003,-370.102971,-11325.150913,-842.705048
3245.075331,-444.123565,-9992.780217,-612.876398
3245.075659,740.205942,-8586.388927,-919.314598
3245.075986,0.000000,-8734.430116,842.705048
3245.076314,1184.329507,-9326.594869,1762.019645
3245.076642,1924.535449,-8660.409521,1685.410096
3245.076970,0.000000,-7698.141797,153.219100
3245.077297,-2294.638420,-9326.594869,-306.438199
3245.077625,-2664.741391,-9844.739029,-383.047749
3245.077953,-814.226536,-7846.182985,-1915.238745
3245.078281,1184.329507,-9178.553681,153.219100
3245.078608,1554.432478,-11991.336260,919.314598
3245.078936,1332.370696,-11991.336260,1608.800546
3245.079264,1702.473667,-9992.780217,153.219100
3245.079592,444.123565,-8216.285956,-1991.848295
3245.079919,-1480.411884,-7772.162391,-612.876398
3245.080247,-2368.659014,-8734.430116,229.828649
3245.080575,-1998.556043,-8808.450710,0.000000
3245.080903,370.102971,-10584.944971,-689.485948
3245.081231,74.020594,-11029.068536,-536.266849
3245.081558,148.041188,-11547.212695,842.705048
3245.081886,1332.370696,-11695.253884,-306.438199
3245.082214,1480.411884,-11029.068536,-1762.019645
3245.082542,444.123565,-8956.491898,-2451.505594
3245.082869,592.164754,-8068.244768,-1302.362347
3245.083197,888.247130,-8364.327145,459.657299
3245.083525,814.226536,-9178.553681,2987.772442
3245.083853,962.267725,-9992.780217,3600.648841
3245.084180,666.185348,-10510.924376,919.314598
3245.084508,1036.288319,-12509.480420,-2757.943793
3245.084836,0.000000,-9252.574275,-3753.867940
3245.085164,-222.061783,-8660.409521,-2604.724693
3245.085491,0.000000,-11547.212695,-383.047749
3245.085819,370.102971,-10362.883188,459.657299
3245.086147,1332.370696,-8512.368333,229.828649
3245.086475,1258.350101,-7772.162391,459.657299
3245.086802,962.267725,-7624.121203,1149.143247
3245.087130,1480.411884,-9104.533087,1302.362347
3245.087458,518.144159,-8586.388927,612.876398
3245.087786,518.144159,-8512.368333,0.000000
3245.088114,1110.308913,-9178.553681,-459.657299
3245.088441,592.164754,-9622.677246,-229.828649
3245.088769,518.144159,-11843.295072,919.314598
3245.089097,444.123565,-10362.883188,-689.485948
3245.089425,-148.041188,-9474.636058,-2221.676944
3245.089752,-370.102971,-9474.636058,-1149.143247
3245.090080,-592.164754,-8734.430116,-766.095498
3245.090408,-888.247130,-8142.265362,1072.533697
3245.090736,0.000000,-8882.471304,1608.800546
3245.091063,0.000000,-7846.182985,842.705048
3245.091391,1184.329507,-7772.162391,536.266849
3245.091719,222.061783,-8660.409521,-383.047749
3245.092047,-740.205942,-10881.027347,689.485948
3245.092374,0.000000,-13545.768739,-536.266849
3245.092702,-444.123565,-12213.398043,-3064.381992
3245.093030,0.000000,-10436.903782,-3600.648841
3245.093358,888.247130,-9770.718434,-2681.334243
3245.093685,962.267725,-10732.986159,-153.219100
3245.094013,1480.411884,-12065.356855,2528.115143
3245.094341,2072.576638,-9770.718434,2068.457845
3245.094669,1702.473667,-8660.409521,306.438199
3245.094997,0.000000,-8512.368333,229.828649
3245.095324,-1110.308913,-8364.327145,-383.047749
3245.095652,-1184.329507,-10214.842000,-689.485948
3245.095980,-814.226536,-10140.821405,-1072.533697
3245.096308,-1036.288319,-7772.162391,-2374.896044
3245.096635,74.020594,-9548.656652,-612.876398
3245.096963,592.164754,-9474.636058,383.047749
3245.097291,1480.411884,-9770.718434,383.047749
3245.097619,1110.308913,-10436.903782,459.657299
3245.097946,592.164754,-8882.471304,-306.438199
3245.098274,1702.473667,-7846.182985,0.000000
3245.098602,1036.288319,-8290.306550,1072.533697
3245.098930,592.164754,-10066.800811,2757.943793
3245.099257,592.164754,-10584.944971,1838.629195
3245.099585,1702.473667,-9474.636058,-1532.190996
3245.099913,592.164754,-9030.512492,-2528.115143
3245.100241,-1110.308913,-9770.718434,-1378.971896
3245.100568,-2664.741391,-9030.512492,-612.876398
3245.100896,0.000000,-9844.739029,-229.828649
3245.101224,888.247130,-10362.883188,0.000000
3245.101552,814.226536,-8586.388927,842.705048
3245.101880,814.226536,-9474.636058,1685.410096
3245.102207,1110.308913,-10955.047942,612.876398
3245.102535,148.041188,-11769.274478,0.000000
3245.102863,-296.082377,-11621.233289,-1991.848295
3245.103191,-1924.535449,-9030.512492,-2221.676944
3245.103518,-592.164754,-9326.594869,-2757.943793
3245.103846,296.082377,-9918.759623,-1685.410096
3245.104174,888.247130,-9992.780217,229.828649
3245.104502,1702.473667,-11251.130318,1455.581446
3245.104829,1628.453072,-10658.965565,995.924147
3245.105157,1406.391290,-8142.265362,459.657299
3245.105485,0.000000,-7698.141797,306.438199
3245.105813,-1480.411884,-8586.388927,0.000000
3245.106140,-1184.329507,-11029.068536,-153.219100
3245.106468,-962.267725,-10066.800811,-919.314598
3245.106796,296.082377,-8882.471304,-1149.143247
3245.107124,518.144159,-9918.759623,0.000000
3245.107451,222.061783,-11325.150913,153.219100
3245.107779,370.102971,-11177.109724,0.000000
3245.108107,370.102971,-9104.533087,-842.705048
3245.108435,-148.041188,-6735.874072,-612.876398
3245.108763,0.000000,-7846.182985,689.485948
3245.109090,-518.144159,-8882.471304,2451.505594
3245.109418,1258.350101,-10140.821405,1915.238745
3245.109746,1998.556043,-11695.253884,0.000000
3245.110074,296.082377,-10362.883188,-1532.190996
3245.110401,222.061783,-9326.594869,-1762.019645
3245.110729,-296.082377,-8512.368333,-1072.533697
3245.111057,-962.267725,-8660.409521,-689.485948
3245.111385,148.041188,-10732.986159,-536.266849
3245.111712,74.020594,-10140.821405,-153.219100
3245.112040,74.020594,-8882.471304,842.705048
3245.112368,888.247130,-9474.636058,1838.629195
3245.112696,0.000000,-9696.697840,842.705048
3245.113023,-444.123565,-10732.986159,76.609550
3245.113351,444.123565,-11251.130318,-1915.238745
3245.113679,148.041188,-9104.533087,-1991.848295
3245.114007,0.000000,-9178.553681,-612.876398
3245.114334,-222.061783,-9400.615463,-306.438199
3245.114662,-370.102971,-8808.450710,76.609550
3245.114990,148.041188,-9178.553681,-1838.629195
3245.115318,1184.329507,-10066.800811,-1532.190996
3245.115646,1776.494261,-11177.109724,229.828649
3245.115973,1702.473667,-11547.212695,1762.019645
3245.116301,2220.617826,-10214.842000,1838.629195
3245.116629,1406.391290,-11103.089130,229.828649
3245.116957,222.061783,-10881.027347,-919.314598
3245.117284,444.123565,-8438.347739,-2834.553343
3245.117612,444.123565,-7550.100608,-1838.629195
3245.117940,444.123565,-8364.327145,-536.266849
3245.118268,888.247130,-9326.594869,1149.143247
3245.118595,740.205942,-10510.924376,1838.629195
3245.118923,888.247130,-9252.574275,1532.190996
3245.119251,1184.329507,-8734.430116,383.047749
3245.119579,-370.102971,-8882.471304,-459.657299
3245.119906,666.185348,-10436.903782,-612.876398
3245.120234,1776.494261,-11251.130318,-536.266849
3245.120562,1554.432478,-9844.739029,229.828649
3245.120890,2220.617826,-9474.636058,919.314598
3245.121217,2294.638420,-8808.450710,995.924147
3245.121545,1628.453072,-8142.265362,766.095498
3245.121873,444.123565,-9474.636058,0.000000
3245.122201,-1702.473667,-9696.697840,-1072.533697
3245.122529,-814.226536,-9252.574275,-1991.848295
3245.122856,222.061783,-9178.553681,-995.924147
3245.123184,444.123565,-9474.636058,766.095498
3245.123512,518.144159,-11103.089130,1685.410096
3245.123840,888.247130,-12509.480420,76.609550
3245.124167,592.164754,-11769.274478,-1455.581446
3245.124495,-1258.350101,-10362.883188,-1838.629195
3245.124823,-1998.556043,-7402.059420,-2221.676944
3245.125150,-1776.494261,-8216.285956,-995.924147
3245.125478,-1850.514855,-10732.986159,612.876398
3245.125806,-962.267725,-9474.636058,0.000000
3245.126134,1110.308913,-9844.739029,306.438199
3245.126461,666.185348,-10807.006753,306.438199
3245.126789,148.041188,-11103.089130,-536.266849
3245.127117,-888.247130,-11917.315666,0.000000
3245.127444,-2072.576638,-10732.986159,-1072.533697
3245.127772,-592.164754,-9252.574275,-2451.505594
3245.128100,-814.226536,-7994.224174,-1302.362347
3245.128427,-592.164754,-7698.141797,1149.143247
3245.128755,592.164754,-9030.512492,2681.334243
3245.129083,444.123565,-10510.924376,1149.143247
3245.129411,-1406.391290,-10066.800811,-383.047749
3245.129738,-1184.329507,-7994.224174,-1685.410096
3245.130066,-1036.288319,-7179.997637,-2298.286494
3245.130394,-666.185348,-10066.800811,229.828649
3245.130721,0.000000,-11325.150913,1149.143247
3245.131049,1850.514855,-10732.986159,-459.657299
3245.131377,2072.576638,-10510.924376,0.000000
3245.131705,1628.453072,-9252.574275,0.000000
3245.132032,444.123565,-7846.182985,383.047749
3245.132360,-148.041188,-9252.574275,1302.362347
3245.132688,-814.226536,-8660.409521,-306.438199
3245.133015,0.000000,-8438.347739,-2298.286494
3245.133343,-888.247130,-8882.471304,-995.924147
3245.133671,-296.082377,-10288.862594,919.314598
3245.133999,1110.308913,-12065.356855,612.876398
3245.134326,1110.308913,-11917.315666,-766.095498
3245.134654,1776.494261,-10807.006753,-1838.629195
3245.134982,2886.803174,-9622.677246,-1915.238745
3245.135309,1184.329507,-8734.430116,919.314598
3245.135637,518.144159,-9474.636058,2145.067394
3245.135965,74.020594,-10214.842000,1378.971896
3245.136292,666.185348,-8734.430116,-1302.362347
3245.136620,2294.638420,-8882.471304,-1838.629195
3245.136948,1628.453072,-10214.842000,0.000000
3245.137276,666.185348,-11843.295072,2451.505594
3245.137603,1776.494261,-12361.439231,1149.143247
3245.137931,2146.597232,-9918.759623,-1915.238745
3245.138259,962.267725,-8882.471304,-2145.067394
3245.138586,-370.102971,-8660.409521,-995.924147
3245.138914,-222.061783,-7920.203579,536.266849
3245.139242,1036.288319,-7994.224174,995.924147
3245.139570,1110.308913,-8216.285956,842.705048
3245.139897,518.144159,-8882.471304,1302.362347
3245.140225,222.061783,-8660.409521,459.657299
3245.140553,444.123565,-9178.553681,-536.266849
3245.140880,0.000000,-11769.274478,-689.485948
3245.141208,-296.082377,-11843.295072,-995.924147
3245.141536,518.144159,-8956.491898,-1455.581446
3245.141863,1110.308913,-8734.430116,-229.828649
3245.142191,1110.308913,-9992.780217,1762.019645
3245.142519,1554.432478,-9844.739029,2451.505594
3245.142847,1184.329507,-8882.471304,842.705048
3245.143174,-1184.329507,-9474.636058,-689.485948
3245.143502,-2220.617826,-8734.430116,-1455.581446
3245.143830,-1554.432478,-8364.327145,-1762.019645
3245.144157,-592.164754,-9696.697840,-459.657299
3245.144485,1258.350101,-12435.459826,306.438199
3245.144813,0.000000,-12213.398043,1225.752797
3245.145141,222.061783,-10584.944971,-153.219100
3245.145468,888.247130,-10658.965565,-1915.238745
3245.145796,-814.226536,-9548.656652,-1608.800546
3245.146124,-2368.659014,-9030.512492,0.000000
3245.146451,-2442.679609,-7920.203579,0.000000
3245.146779,-148.041188,-8216.285956,-919.314598
3245.147107,296.082377,-9918.759623,229.828649
3245.147434,-518.144159,-9696.697840,2068.457845
3245.147762,740.205942,-10658.965565,1225.752797
3245.148090,1036.288319,-12287.418637,-536.266849
3245.148418,-592.164754,-10288.862594,-1991.848295
3245.148745,-1184.329507,-8512.368333,-2221.676944
3245.149073,-592.164754,-8142.265362,-1991.848295
3245.149401,444.123565,-8068.244768,0.000000
3245.149728,-296.082377,-9178.553681,1991.848295
3245.150056,-296.082377,-9400.615463,1915.238745
3245.150384,962.267725,-9474.636058,229.828649
3245.150712,1036.288319,-9622.677246,-1072.533697
3245.151039,-148.041188,-8956.491898,-383.047749
3245.151367,0.000000,-9548.656652,689.485948
3245.151695,74.020594,-8808.450710,-306.438199
3245.152022,740.205942,-9400.615463,-1072.533697
3245.152350,962.267725,-10510.924376,-919.314598
3245.152678,1628.453072,-9844.739029,-689.485948
3245.153005,2960.823768,-10140.821405,0.000000
3245.153333,2812.782580,-10436.903782,766.095498
3245.153661,1406.391290,-9104.533087,1685.410096
3245.153989,888.247130,-8808.450710,0.000000
3245.154316,296.082377,-9770.718434,-1608.800546
3245.154644,-296.082377,-9992.780217,-1225.752797
3245.154972,-222.061783,-10140.821405,-1378.971896
3245.155299,-518.144159,-10436.903782,-995.924147
3245.155627,0.000000,-11547.212695,-229.828649
3245.155955,740.205942,-10436.903782,-842.705048
3245.156283,1702.473667,-9548.656652,-1378.971896
3245.156610,1480.411884,-9326.594869,536.266849
3245.156938,1258.350101,-9252.574275,1455.581446
3245.157266,222.061783,-9030.512492,612.876398
3245.157593,-222.061783,-9622.677246,-459.657299
3245.157921,74.020594,-8734.430116,-1762.019645
3245.158249,1554.432478,-9474.636058,-612.876398
3245.158576,1258.350101,-11843.295072,919.314598
3245.158904,1110.308913,-11621.233289,1455.581446
3245.159232,962.267725,-10510.924376,-766.095498
3245.159560,444.123565,-9770.718434,-1685.410096
3245.159887,814.226536,-9474.636058,-995.924147
3245.160215,296.082377,-8660.409521,383.047749
3245.160543,0.000000,-7254.018232,1762.019645
3245.160870,222.061783,-7550.100608,1915.238745
3245.161198,222.061783,-8586.388927,612.876398
3245.161526,0.000000,-10066.800811,842.705048
3245.161854,0.000000,-10436.903782,306.438199
3245.162181,-148.041188,-10732.986159,-1532.190996
3245.162509,-740.205942,-10436.903782,-2221.676944
3245.162837,-888.247130,-8660.409521,-1991.848295
3245.163164,0.000000,-8438.347739,-1378.971896
3245.163492,666.185348,-9844.739029,1532.190996
3245.163820,962.267725,-9696.697840,2298.286494
3245.164147,1480.411884,-7994.224174,1149.143247
3245.164475,296.082377,-9770.718434,383.047749
3245.164803,-2072.576638,-10955.047942,0.000000
3245.165131,-1332.370696,-9474.636058,-1915.238745
3245.165458,-740.205942,-9918.759623,-1685.410096
3245.165786,-592.164754,-9474.636058,-1455.581446
3245.166114,444.123565,-10658.965565,-536.266849
3245.166441,222.061783,-10955.047942,306.438199
3245.166769,740.205942,-10140.821405,0.000000
3245.167097,1110.308913,-10881.027347,-995.924147
3245.167425,148.041188,-9844.739029,-919.314598
3245.167752,-1628.453072,-9178.553681,0.000000
3245.168080,-444.123565,-8290.306550,-919.314598
3245.168408,-296.082377,-7846.182985,-1378.971896
3245.168735,222.061783,-12213.398043,842.705048
3245.169063,814.226536,-12509.480420,1149.143247
3245.169391,1998.556043,-9992.780217,-459.657299
3245.169719,1110.308913,-9770.718434,-919.314598
3245.170046,888.247130,-8956.491898,-1149.143247
3245.170374,296.082377,-8142.265362,153.219100
3245.170702,0.000000,-8734.430116,459.657299
3245.171029,0.000000,-9474.636058,1225.752797
3245.171357,296.082377,-9844.739029,1915.238745
3245.171685,1406.391290,-8512.368333,306.438199
3245.172012,1554.432478,-9918.759623,766.095498
3245.172340,444.123565,-10807.006753,842.705048
3245.172668,444.123565,-9104.533087,-153.219100
3245.172996,888.247130,-8142.265362,-995.924147
3245.173323,518.144159,-7698.141797,-459.657299
3245.173651,-370.102971,-7624.121203,459.657299
3245.173979,518.144159,-9622.677246,1225.752797
3245.174306,592.164754,-10436.903782,612.876398
3245.174634,1258.350101,-10732.986159,-612.876398
3245.174962,1776.494261,-9400.615463,-842.705048
3245.175290,1406.391290,-9104.533087,0.000000
3245.175617,1480.411884,-10732.986159,612.876398
3245.175945,1184.329507,-11991.336260,-229.828649
3245.176273,518.144159,-9844.739029,-842.705048
3245.176600,148.041188,-9104.533087,-995.924147
3245.176928,-666.185348,-8956.491898,-2068.457845
3245.177256,-1110.308913,-10436.903782,-306.438199
3245.177583,-740.205942,-11103.089130,153.219100
3245.177911,0.000000,-9770.718434,-1455.581446
3245.178239,148.041188,-9104.533087,-1225.752797
3245.178567,0.000000,-9178.553681,536.266849
3245.178894,-370.102971,-9178.553681,306.438199
3245.179222,-444.123565,-12657.521608,383.047749
3245.179550,592.164754,-11547.212695,-1455.581446
3245.179877,1850.514855,-9326.594869,-3217.601092
3245.180205,592.164754,-10066.800811,-459.657299
3245.180533,592.164754,-10881.027347,1762.019645
3245.180861,1110.308913,-9696.697840,1838.629195
3245.181188,1184.329507,-9770.718434,229.828649
3245.181516,-370.102971,-9178.553681,-459.657299
3245.181844,-962.267725,-7402.059420,-306.438199
3245.182171,-814.226536,-6217.729913,995.924147
3245.182499,-518.144159,-8956.491898,1608.800546
3245.182827,0.000000,-11251.130318,1302.362347
3245.183154,592.164754,-9696.697840,-383.047749
3245.183482,666.185348,-9622.677246,-919.314598
3245.183810,296.082377,-10140.821405,-459.657299
3245.184138,0.000000,-7846.182985,-306.438199
3245.184465,0.000000,-8882.471304,0.000000
3245.184793,0.000000,-8882.471304,153.219100
3245.185121,666.185348,-8660.409521,919.314598
3245.185448,666.185348,-9474.636058,1838.629195
3245.185776,1406.391290,-10214.842000,1532.190996
3245.186104,1554.432478,-10881.027347,766.095498
3245.186432,-444.123565,-10362.883188,-1685.410096
3245.186759,-1702.473667,-9474.636058,-2987.772442
3245.187087,-222.061783,-9104.533087,-3140.991542
3245.187415,1036.288319,-8660.409521,-1685.410096
3245.187742,1258.350101,-11103.089130,1455.581446
3245.188070,1258.350101,-11103.089130,2911.162892
3245.188398,2294.638420,-10510.924376,1685.410096
3245.188725,2146.597232,-10807.006753,383.047749
3245.189053,0.000000,-10732.986159,-536.266849
3245.189381,-2294.638420,-9474.636058,-995.924147
3245.189709,-1628.453072,-10510.924376,-2298.286494
3245.190036,-222.061783,-10584.944971,-3064.381992
3245.190364,1406.391290,-10362.883188,-2145.067394
3245.190692,1184.329507,-11103.089130,612.876398
3245.191019,1702.473667,-9474.636058,1455.581446
3245.191347,1924.535449,-9474.636058,995.924147
3245.191675,814.226536,-9770.718434,383.047749
3245.192003,-666.185348,-7105.977043,0.000000
3245.192330,-962.267725,-7254.018232,-153.219100
3245.192658,0.000000,-8660.409521,0.000000
3245.192986,370.102971,-11325.150913,689.485948
3245.193313,0.000000,-11325.150913,306.438199
3245.193641,1036.288319,-10510.924376,-1608.800546
3245.193969,1258.350101,-10807.006753,-1608.800546
3245.194296,1110.308913,-9104.533087,-766.095498
3245.194624,518.144159,-7698.141797,306.438199
3245.194952,-296.082377,-7920.203579,1455.581446
3245.195280,148.041188,-6143.709319,1378.971896
3245.195607,296.082377,-8068.244768,766.095498
3245.195935,-518.144159,-9696.697840,1915.238745
3245.196263,-222.061783,-9030.512492,536.266849
3245.196590,0.000000,-11325.150913,-766.095498
3245.196918,444.123565,-12139.377449,-1915.238745
3245.197246,1110.308913,-11399.171507,-2221.676944
3245.197574,1924.535449,-10214.842000,-1455.581446
3245.197901,1184.329507,-9252.574275,-919.314598
3245.198229,370.102971,-10658.965565,0.000000
3245.198557,0.000000,-10066.800811,153.219100
3245.198884,-740.205942,-8660.409521,383.047749
3245.199212,-1258.350101,-9030.512492,612.876398
3245.199540,-1332.370696,-9030.512492,0.000000
3245.199867,-666.185348,-10362.883188,-536.266849
3245.200195,-666.185348,-10584.944971,-995.924147
3245.200523,148.041188,-9918.759623,-1915.238745
3245.200851,-814.226536,-10955.047942,-1532.190996
3245.201178,0.000000,-10140.821405,-2298.286494
3245.201506,666.185348,-9474.636058,-2145.067394
3245.201834,1776.494261,-10214.842000,536.266849
3245.202161,1702.473667,-10658.965565,1838.629195
3245.202489,1480.411884,-10955.047942,2528.115143
3245.202817,1406.391290,-9474.636058,1149.143247
3245.203145,370.102971,-8586.388927,306.438199
3245.203472,-1036.288319,-8660.409521,0.000000
3245.203800,-1110.308913,-8882.471304,-1762.019645
3245.204128,-1554.432478,-7920.203579,-2221.676944
3245.204455,-444.123565,-8660.409521,-689.485948
3245.204783,296.082377,-9252.574275,612.876398
3245.205111,2072.576638,-10214.842000,1302.362347
3245.205439,2146.597232,-9992.780217,1455.581446
3245.205766,666.185348,-9474.636058,1072.533697
3245.206094,222.061783,-9030.512492,229.828649
3245.206422,-296.082377,-7846.182985,-229.828649
3245.206749,0.000000,-8364.327145,-536.266849
3245.207077,296.082377,-11547.212695,919.314598
3245.207405,370.102971,-10881.027347,612.876398
3245.207732,1406.391290,-9252.574275,-919.314598
3245.208060,666.185348,-9474.636058,-1762.019645
3245.208388,148.041188,-9844.739029,-1915.238745
3245.208716,-666.185348,-8660.409521,-1302.362347
3245.209043,-814.226536,-8586.388927,-1302.362347
3245.209371,-296.082377,-8438.347739,459.657299
3245.209699,1480.411884,-10362.883188,766.095498
3245.210026,2368.659014,-10955.047942,2145.067394
3245.210354,1850.514855,-10955.047942,2451.505594
3245.210682,740.205942,-12139.377449,306.438199
3245.211010,0.000000,-11769.274478,-2757.943793
3245.211337,-2220.617826,-9474.636058,-3753.867940
3245.211665,-2368.659014,-8364.327145,-3907.087040
3245.211993,-370.102971,-9030.512492,-2451.505594
3245.212320,444.123565,-10881.027347,0.000000
3245.212648,444.123565,-9992.780217,2374.896044
3245.212976,1406.391290,-9178.553681,1762.019645
3245.213303,1702.473667,-9992.780217,1532.190996
3245.213631,444.123565,-8734.430116,1225.752797
3245.213959,-814.226536,-8364.327145,842.705048
3245.214287,-1480.411884,-8734.430116,-536.266849
3245.214614,-740.205942,-10140.821405,-2145.067394
3245.214942,-296.082377,-10510.924376,-1072.533697
3245.215270,666.185348,-9252.574275,-842.705048
3245.215597,1628.453072,-10955.047942,-689.485948
3245.215925,1406.391290,-11399.171507,459.657299
3245.216253,740.205942,-8364.327145,1302.362347
3245.216581,148.041188,-7105.977043,306.438199
3245.216908,74.020594,-7476.080014,766.095498
3245.217236,-518.144159,-8586.388927,2145.067394
3245.217564,-1036.288319,-9696.697840,2451.505594
3245.217891,-222.061783,-9770.718434,0.000000
3245.218219,1184.329507,-10362.883188,-2911.162892
3245.218547,1258.350101,-10288.862594,-2374.896044
3245.218874,1184.329507,-10214.842000,-689.485948
3245.219202,1036.288319,-10807.006753,842.705048
3245.219530,1406.391290,-10732.986159,153.219100
3245.219858,1406.391290,-9770.718434,0.000000
3245.220185,148.041188,-8882.471304,842.705048
3245.220513,0.000000,-8438.347739,612.876398
3245.220841,-370.102971,-10288.862594,995.924147
3245.221168,-740.205942,-11325.150913,-383.047749
3245.221496,-148.041188,-9770.718434,-2834.553343
3245.221824,-1184.329507,-9030.512492,-1225.752797
3245.222152,-2368.659014,-8290.306550,-306.438199
3245.222479,-888.247130,-9844.739029,-1072.533697
3245.222807,-444.123565,-11251.130318,-1915.238745
3245.223135,1036.288319,-9252.574275,-1608.800546
3245.223462,2516.700203,-9326.594869,-153.219100
3245.223790,2294.638420,-11843.295072,2681.334243
3245.224118,3108.864956,-12139.377449,2681.334243
3245.224445,2442.679609,-11843.295072,1302.362347
3245.224773,1480.411884,-9770.718434,-766.095498
3245.225101,-666.185348,-7698.141797,-2374.896044
3245.225429,-1850.514855,-6735.874072,-1838.629195
3245.225756,-1628.453072,-5995.668130,-766.095498
3245.226084,-888.247130,-8142.265362,0.000000
3245.226412,-222.061783,-10362.883188,995.924147
3245.226739,1406.391290,-10510.924376,995.924147
3245.227067,2442.679609,-10140.821405,1225.752797
3245.227394,2072.576638,-9844.739029,995.924147
3245.227722,1628.453072,-9548.656652,842.705048
3245.228050,370.102971,-10436.903782,-536.266849
3245.228377,296.082377,-8956.491898,-919.314598
3245.228705,666.185348,-9104.533087,-766.095498
3245.229032,0.000000,-10214.842000,1149.143247
3245.229360,1184.329507,-8586.388927,536.266849
3245.229688,74.020594,-8956.491898,-1225.752797
3245.230015,-1776.494261,-10658.965565,-1072.533697
3245.230343,-2146.597232,-9178.553681,-1915.238745
3245.230670,-1184.329507,-8438.347739,-1685.410096
3245.230998,814.226536,-8882.471304,229.828649
3245.231326,2220.617826,-11621.233289,1455.581446
3245.231653,1776.494261,-13397.727550,2451.505594
3245.231981,1850.514855,-11177.109724,612.876398
3245.232308,1184.329507,-8438.347739,-995.924147
3245.232636,-518.144159,-9326.594869,-1838.629195
3245.232964,-1406.391290,-9918.759623,-1455.581446
3245.233291,-1776.494261,-9622.677246,-1225.752797
3245.233619,-444.123565,-8512.368333,-1378.971896
3245.233946,222.061783,-10140.821405,-306.438199
3245.234274,1332.370696,-12065.356855,1225.752797
3245.234602,1332.370696,-11029.068536,1685.410096
3245.234929,592.164754,-10362.883188,842.705048
3245.235257,444.123565,-9104.533087,-1608.800546
3245.235584,148.041188,-8512.368333,-2374.896044
3245.235912,-666.185348,-8364.327145,-689.485948
3245.236240,-962.267725,-7105.977043,1685.410096
3245.236567,0.000000,-9770.718434,3217.601092
3245.236895,1258.350101,-10807.006753,995.924147
3245.237223,592.164754,-10658.965565,-919.314598
3245.237550,-592.164754,-9770.718434,-1838.629195
3245.237878,-666.185348,-7772.162391,-1455.581446
3245.238205,-296.082377,-9400.615463,0.000000
3245.238533,-370.102971,-11177.109724,1149.143247
3245.238861,370.102971,-9844.739029,536.266849
3245.239188,1184.329507,-9252.574275,-306.438199
3245.239516,962.267725,-8956.491898,-306.438199
3245.239843,1184.329507,-8882.471304,-153.219100
3245.240171,0.000000,-9696.697840,306.438199
3245.240499,-148.041188,-8956.491898,76.609550
3245.240826,-296.082377,-8808.450710,0.000000
3245.241154,0.000000,-9326.594869,-459.657299
3245.241481,1480.411884,-10140.821405,-459.657299
3245.241809,1776.494261,-11769.274478,-229.828649
3245.242137,592.164754,-11621.233289,0.000000
3245.242464,666.185348,-11695.253884,-612.876398
3245.242792,370.102971,-9178.553681,-1378.971896
3245.243119,-592.164754,-8068.244768,153.219100
3245.243447,-1554.432478,-7994.224174,153.219100
3245.243775,-2516.700203,-9030.512492,-306.438199
3245.244102,-1998.556043,-7846.182985,-1532.190996
3245.244430,-222.061783,-8660.409521,-2604.724693
3245.244757,-296.082377,-9770.718434,-766.095498
3245.245085,1998.556043,-12879.583391,1225.752797
3245.245413,3108.864956,-13323.706956,1608.800546
3245.245740,2812.782580,-11621.233289,0.000000
3245.246068,1924.535449,-10140.821405,-1302.362347
3245.246395,518.144159,-8882.471304,-1762.019645
3245.246723,74.020594,-6217.729913,-689.485948
3245.247051,74.020594,-7031.956449,536.266849
3245.247378,-444.123565,-7105.977043,1915.238745
3245.247706,-518.144159,-7698.141797,2298.286494
3245.248034,0.000000,-9844.739029,1762.019645
3245.248361,1628.453072,-10288.862594,76.609550
3245.248689,1702.473667,-11399.171507,-1072.533697
3245.249016,148.041188,-10955.047942,-919.314598
3245.249344,592.164754,-9622.677246,-2068.457845
3245.249672,1036.288319,-9770.718434,-1685.410096
3245.249999,1998.556043,-9474.636058,76.609550
3245.250327,2146.597232,-9992.780217,2221.676944
3245.250654,1924.535449,-10214.842000,3524.039291
3245.250982,1184.329507,-8290.306550,1149.143247
3245.251310,-1406.391290,-8808.450710,-919.314598
3245.251637,-3034.844362,-9030.512492,-2068.457845
3245.251965,-2146.597232,-8808.450710,-2451.505594
3245.252292,-518.144159,-9696.697840,-1378.971896
3245.252620,666.185348,-11547.212695,-689.485948
3245.252948,1702.473667,-12953.603985,153.219100
3245.253275,1998.556043,-11473.192101,153.219100
3245.253603,2146.597232,-8660.409521,459.657299
3245.253930,518.144159,-9548.656652,1302.362347
3245.254258,-1628.453072,-9252.574275,1302.362347
3245.254586,-1924.535449,-7402.059420,-689.485948
3245.254913,-2368.659014,-7254.018232,-919.314598
3245.255241,-518.144159,-9770.718434,-1225.752797
3245.255568,148.041188,-12213.398043,459.657299
3245.255896,0.000000,-12953.603985,536.266849
3245.256224,1036.288319,-10436.903782,-1608.800546
3245.256551,1036.288319,-10288.862594,-3294.210641
3245.256879,0.000000,-8438.347739,-2221.676944
3245.257206,-148.041188,-6587.832884,0.000000
3245.257534,-592.164754,-7624.121203,2451.505594
3245.257862,0.000000,-9104.533087,2757.943793
3245.258189,222.061783,-10955.047942,1838.629195
3245.258517,296.082377,-9696.697840,0.000000
3245.258844,444.123565,-8734.430116,-1149.143247
3245.259172,444.123565,-11029.068536,-995.924147
3245.259500,148.041188,-10732.986159,-1685.410096
3245.259827,-592.164754,-9770.718434,-2068.457845
3245.260155,-592.164754,-9326.594869,-2528.115143
3245.260483,0.000000,-8734.430116,-1072.533697
3245.260810,814.226536,-9918.759623,689.485948
3245.261138,222.061783,-9770.718434,2145.067394
3245.261465,296.082377,-8808.450710,1685.410096
3245.261793,1184.329507,-9474.636058,-689.485948
3245.262121,666.185348,-9400.615463,-536.266849
3245.262448,666.185348,-10214.842000,-306.438199
3245.262776,-148.041188,-10955.047942,-229.828649
3245.263103,444.123565,-9844.739029,-1762.019645
3245.263431,370.102971,-11325.150913,-2145.067394
3245.263759,222.061783,-11991.336260,-689.485948
3245.264086,3108.864956,-9918.759623,-689.485948
3245.264414,2664.741391,-8290.306550,1302.362347
3245.264741,-296.082377,-8068.244768,3370.820191
3245.265069,-1776.494261,-8290.306550,1685.410096
3245.265397,-2072.576638,-8290.306550,-919.314598
3245.265724,-1036.288319,-7624.121203,-2911.162892
3245.266052,-666.185348,-9252.574275,-1915.238745
3245.266379,-222.061783,-12657.521608,766.095498
3245.266707,3108.864956,-12213.398043,0.000000
3245.267035,3108.864956,-11177.109724,-1149.143247
3245.267362,1406.391290,-10658.965565,-1149.143247
3245.267690,1628.453072,-10881.027347,-536.266849
3245.268017,740.205942,-9178.553681,76.609550
3245.268345,740.205942,-6439.791695,76.609550
3245.268673,148.041188,-7698.141797,1378.971896
3245.269000,148.041188,-8586.388927,2298.286494
3245.269328,1332.370696,-9030.512492,2145.067394
3245.269655,740.205942,-11399.171507,1532.190996
3245.269983,444.123565,-10288.862594,-1608.800546
3245.270311,518.144159,-9474.636058,-3830.477490
3245.270638,-962.267725,-8734.430116,-3064.381992
3245.270966,-740.205942,-7920.203579,-1225.752797
3245.271294,962.267725,-10140.821405,536.266849
3245.271621,1332.370696,-11473.192101,2911.162892
3245.271949,2072.576638,-11103.089130,3677.258390
3245.272276,2886.803174,-10066.800811,1532.190996
3245.272604,518.144159,-8290.306550,-459.657299
3245.272932,-3330.926739,-10732.986159,-766.095498
3245.273259,-4145.153275,-10436.903782,-2911.162892
3245.273587,-1850.514855,-7994.224174,-4596.572988
3245.273914,74.020594,-9474.636058,-2757.943793
3245.274242,222.061783,-11843.295072,459.657299
3245.274570,1702.473667,-10955.047942,1991.848295
3245.274897,2146.597232,-10510.924376,1072.533697
3245.275225,1184.329507,-10140.821405,689.485948
3245.275552,-1184.329507,-7624.121203,0.000000
3245.275880,-2294.638420,-7179.997637,306.438199
3245.276208,-814.226536,-8364.327145,76.609550
3245.276535,-296.082377,-11843.295072,0.000000
3245.276863,-888.247130,-12805.562797,153.219100
3245.277190,0.000000,-9844.739029,-995.924147
3245.277518,-370.102971,-10066.800811,-1378.971896
3245.277846,-370.102971,-9770.718434,-2068.457845
3245.278173,-888.247130,-8216.285956,-2068.457845
3245.278501,-1702.473667,-6809.894666,-1149.143247
3245.278828,-370.102971,-7031.956449,0.000000
3245.279156,0.000000,-10584.944971,2068.457845
3245.279484,296.082377,-10288.862594,3064.381992
3245.279811,1406.391290,-10066.800811,1302.362347
3245.280139,296.082377,-11473.192101,-1149.143247
3245.280466,1258.350101,-11547.212695,-3294.210641
3245.280794,222.061783,-9622.677246,-2681.334243
3245.281122,0.000000,-8216.285956,-306.438199
3245.281449,0.000000,-7772.162391,0.000000
3245.281777,222.061783,-9918.759623,0.000000
3245.282105,-222.061783,-9548.656652,-536.266849
3245.282432,-296.082377,-8734.430116,612.876398
3245.282760,-370.102971,-9474.636058,0.000000
3245.283087,962.267725,-9622.677246,919.314598
3245.283415,444.123565,-10510.924376,153.219100
3245.283743,592.164754,-10881.027347,-1225.752797
3245.284070,1628.453072,-10362.883188,-1991.848295
3245.284398,2146.597232,-10436.903782,-1762.019645
3245.284725,1998.556043,-9252.574275,229.828649
3245.285053,1480.411884,-8438.347739,76.609550
3245.285381,296.082377,-9770.718434,383.047749
3245.285708,740.205942,-10584.944971,229.828649
3245.286036,74.020594,-10881.027347,0.000000
3245.286363,1628.453072,-9548.656652,-153.219100
3245.286691,2146.597232,-7476.080014,1225.752797
3245.287019,-222.061783,-9178.553681,2374.896044
3245.287346,-518.144159,-9474.636058,995.924147
3245.287674,-962.267725,-9696.697840,-1838.629195
3245.288001,-444.123565,-8808.450710,-2757.943793
3245.288329,1258.350101,-8956.491898,-2374.896044
3245.288657,1480.411884,-11399.171507,306.438199
3245.288984,2072.576638,-10658.965565,1685.410096
3245.289312,2442.679609,-10510.924376,995.924147
3245.289639,1406.391290,-11251.130318,919.314598
3245.289967,1332.370696,-9622.677246,-229.828649
3245.290295,888.247130,-8956.491898,229.828649
3245.290622,148.041188,-8438.347739,-306.438199
3245.290950,-518.144159,-8956.491898,-995.924147
3245.291277,-888.247130,-9622.677246,766.095498
3245.291605,592.164754,-8216.285956,842.705048
3245.291933,2442.679609,-8956.491898,536.266849
3245.292260,740.205942,-9622.677246,383.047749
3245.292588,-740.205942,-9474.636058,0.000000
3245.292916,-740.205942,-9400.615463,-995.924147
3245.293243,222.061783,-9918.759623,-1532.190996
3245.293571,1258.350101,-9770.718434,0.000000
3245.293898,1480.411884,-11695.253884,2221.676944
3245.294226,1702.473667,-11843.295072,2681.334243
3245.294554,2812.782580,-10436.903782,153.219100
3245.294881,0.000000,-9030.512492,-2068.457845
3245.295209,-3108.864956,-7846.182985,-2528.115143
3245.295536,-3923.091493,-7994.224174,-2834.553343
3245.295864,-3552.988522,-9252.574275,-1455.581446
3245.296192,-1184.329507,-8956.491898,-383.047749
3245.296519,666.185348,-10214.842000,766.095498
3245.296847,518.144159,-11029.068536,1532.190996
3245.297174,2442.679609,-10362.883188,842.705048
3245.297502,1110.308913,-11325.150913,76.609550
3245.297830,-1110.308913,-9400.615463,-1455.581446
3245.298157,-2294.638420,-9252.574275,-1838.629195
3245.298485,-1998.556043,-8956.491898,-2145.067394
3245.298812,1480.411884,-8660.409521,-612.876398
3245.299140,74.020594,-11325.150913,2068.457845
3245.299468,666.185348,-10436.903782,2374.896044
3245.299795,592.164754,-8882.471304,306.438199
3245.300123,222.061783,-9844.739029,-1685.410096
3245.300450,-962.267725,-7846.182985,-2451.505594
3245.300778,-1480.411884,-9178.553681,-1072.533697
3245.301106,-1554.432478,-8956.491898,0.000000
3245.301433,1184.329507,-11325.150913,-306.438199
3245.301761,962.267725,-12065.356855,153.219100
3245.302088,2368.659014,-9622.677246,536.266849
3245.302416,1998.556043,-9252.574275,306.438199
3245.302744,1554.432478,-10584.944971,-612.876398
3245.303071,1110.308913,-8734.430116,-1608.800546
3245.303399,222.061783,-8586.388927,-459.657299
3245.303727,-888.247130,-7550.100608,842.705048
3245.304054,-148.041188,-8734.430116,689.485948
3245.304382,0.000000,-11325.150913,306.438199
3245.304709,592.164754,-11547.212695,-1072.533697
3245.305037,666.185348,-9622.677246,-1838.629195
3245.305365,1110.308913,-9474.636058,-1225.752797
3245.305692,2590.720797,-8882.471304,-766.095498
3245.306020,1998.556043,-9992.780217,383.047749
3245.306347,444.123565,-9252.574275,1685.410096
3245.306675,1110.308913,-9326.594869,1072.533697
3245.307003,740.205942,-9622.677246,383.047749
3245.307330,740.205942,-9474.636058,459.657299
3245.307658,0.000000,-10732.986159,689.485948
3245.307985,-518.144159,-11917.315666,0.000000
3245.308313,370.102971,-9770.718434,-1302.362347
3245.308641,740.205942,-8734.430116,-1608.800546
3245.308968,296.082377,-7254.018232,-229.828649
3245.309296,0.000000,-7402.059420,1762.019645
3245.309623,-1332.370696,-9770.718434,2681.334243
3245.309951,-1110.308913,-9548.656652,0.000000
3245.310279,-296.082377,-10066.800811,-2451.505594
3245.310606,-518.144159,-9474.636058,-2068.457845
3245.310934,444.123565,-10362.883188,0.000000
3245.311261,1554.432478,-12731.542202,1302.362347
3245.311589,2368.659014,-11843.295072,0.000000
3245.311917,1776.494261,-10955.047942,-1149.143247
3245.312244,592.164754,-9326.594869,-1149.143247
3245.312572,0.000000,-6661.853478,-612.876398
3245.312899,0.000000,-7846.182985,536.266849
3245.313227,-1480.411884,-8734.430116,1302.362347
3245.313555,-1258.350101,-7994.224174,536.266849
3245.313882,222.061783,-9178.553681,0.000000
3245.314210,962.267725,-9548.656652,459.657299
3245.314538,740.205942,-11399.171507,919.314598
3245.314865,-666.185348,-11769.274478,-459.657299
3245.315193,-222.061783,-8956.491898,-2221.676944
3245.315520,0.000000,-10140.821405,-2451.505594
3245.315848,148.041188,-12361.439231,-919.314598
3245.316176,1702.473667,-9770.718434,1838.629195
3245.316503,1924.535449,-9696.697840,2757.943793
3245.316831,1184.329507,-8734.430116,2145.067394
3245.317158,-148.041188,-8808.450710,-689.485948
3245.317486,-4071.132681,-8216.285956,-1378.971896
3245.317814,-3330.926739,-7254.018232,-919.314598
3245.318141,-1110.308913,-9548.656652,-766.095498
3245.318469,444.123565,-11843.295072,-306.438199
3245.318796,962.267725,-10436.903782,306.438199
3245.319124,1776.494261,-10288.862594,612.876398
3245.319452,2664.741391,-9326.594869,-995.924147
3245.319779,1702.473667,-9770.718434,0.000000
3245.320107,-1776.494261,-9844.739029,766.095498
3245.320434,-518.144159,-7550.100608,-1072.533697
3245.320762,518.144159,-7550.100608,-1378.971896
3245.321090,1258.350101,-9104.533087,689.485948
3245.321417,370.102971,-10584.944971,2681.334243
3245.321745,444.123565,-11029.068536,2145.067394
3245.322072,1036.288319,-9548.656652,-2145.067394
3245.322400,814.226536,-10881.027347,-3907.087040
3245.322728,296.082377,-9770.718434,-3217.601092
3245.323055,222.061783,-7994.224174,-1455.581446
3245.323383,666.185348,-10584.944971,1762.019645
3245.323710,1258.350101,-11547.212695,2451.505594
3245.324038,2516.700203,-10658.965565,842.705048
3245.324366,2368.659014,-10436.903782,0.000000
3245.324693,592.164754,-9474.636058,-306.438199
3245.325021,1036.288319,-10140.821405,-842.705048
3245.325348,0.000000,-10362.883188,-1149.143247
3245.325676,148.041188,-8586.388927,-1455.581446
3245.326004,0.000000,-9104.533087,-383.047749
3245.326331,222.061783,-9770.718434,-459.657299
3245.326659,1406.391290,-10658.965565,0.000000
3245.326987,888.247130,-10584.944971,842.705048
3245.327314,814.226536,-8216.285956,306.438199
3245.327643,888.247130,-8216.285956,-306.438199
3245.327971,592.164754,-10140.821405,612.876398
3245.328298,1110.308913,-9252.574275,612.876398
3245.328626,740.205942,-10362.883188,459.657299
3245.328953,0.000000,-10807.006753,0.000000
3245.329281,148.041188,-9548.656652,-766.095498
3245.329609,-814.226536,-9326.594869,-1302.362347
3245.329936,-888.247130,-9622.677246,0.000000
3245.330264,0.000000,-8882.471304,-306.438199
3245.330591,0.000000,-7846.182985,0.000000
3245.330919,296.082377,-7402.059420,0.000000
3245.331247,-1480.411884,-8438.347739,1532.190996
3245.331574,-2294.638420,-9252.574275,842.705048
3245.331902,-1406.391290,-9400.615463,-1225.752797
3245.332229,-592.164754,-9622.677246,-3140.991542
3245.332557,-666.185348,-10140.821405,-2145.067394
3245.332885,148.041188,-12583.501014,-612.876398
3245.333212,1702.473667,-12953.603985,0.000000
3245.333540,2738.761985,-10807.006753,-919.314598
3245.333867,1332.370696,-10510.924376,-306.438199
3245.334195,0.000000,-9474.636058,0.000000
3245.334523,0.000000,-7772.162391,-919.314598
3245.334850,-962.267725,-8586.388927,306.438199
3245.335178,-888.247130,-7920.203579,0.000000
3245.335505,0.000000,-9400.615463,459.657299
3245.335833,0.000000,-10510.924376,1149.143247
3245.336161,888.247130,-10881.027347,153.219100
3245.336488,74.020594,-11769.274478,-1072.533697
3245.336816,74.020594,-9326.594869,-2451.505594
3245.337144,814.226536,-8068.244768,-2451.505594
3245.337471,592.164754,-9992.780217,0.000000
3245.337799,1036.288319,-11029.068536,2145.067394
3245.338126,1184.329507,-10214.842000,2451.505594
3245.338454,1702.473667,-8882.471304,1455.581446
3245.338782,1702.473667,-7698.141797,0.000000
3245.339109,-1554.432478,-9548.656652,-383.047749
3245.339437,-3552.988522,-9474.636058,0.000000
3245.339764,-888.247130,-9178.553681,-2298.286494
3245.340092,814.226536,-8660.409521,-2451.505594
3245.340420,2072.576638,-8882.471304,-306.438199
3245.340747,1406.391290,-10881.027347,3294.210641
3245.341075,2368.659014,-10584.944971,3140.991542
3245.341402,3478.967927,-9474.636058,76.609550
3245.341730,1554.432478,-9030.512492,-1149.143247
3245.342058,-1480.411884,-8068.244768,0.000000
3245.342385,-592.164754,-8216.285956,0.000000
3245.342713,740.205942,-10288.862594,-842.705048
3245.343040,1998.556043,-11843.295072,-995.924147
3245.343368,518.144159,-11029.068536,-306.438199
3245.343696,740.205942,-9696.697840,536.266849
3245.344023,814.226536,-7846.182985,229.828649
3245.344351,518.144159,-10362.883188,-459.657299
3245.344678,-1184.329507,-9400.615463,-229.828649
3245.345006,-1554.432478,-8660.409521,-1532.190996
3245.345334,-222.061783,-9474.636058,-766.095498
3245.345661,1702.473667,-10436.903782,306.438199
3245.345989,1036.288319,-12805.562797,1838.629195
3245.346317,666.185348,-10881.027347,766.095498
3245.346644,962.267725,-9770.718434,-1915.238745
3245.346972,222.061783,-10362.883188,-2221.676944
3245.347299,0.000000,-8660.409521,-1072.533697
3245.347627,-1110.308913,-8142.265362,1455.581446
3245.347955,-888.247130,-8808.450710,612.876398
3245.348282,-814.226536,-9548.656652,-612.876398
3245.348610,-888.247130,-10066.800811,-383.047749
3245.348937,-592.164754,-8438.347739,459.657299
3245.349265,888.247130,-8956.491898,536.266849
3245.349593,740.205942,-10881.027347,-536.266849
3245.349920,296.082377,-11399.171507,-689.485948
3245.350248,370.102971,-10955.047942,-306.438199
3245.350575,666.185348,-8956.491898,-766.095498
3245.350903,1480.411884,-8216.285956,153.219100
3245.351231,148.041188,-10066.800811,1532.190996
3245.351558,0.000000,-9918.759623,2374.896044
3245.351886,222.061783,-9400.615463,612.876398
3245.352213,-666.185348,-7920.203579,0.000000
3245.352541,0.000000,-7105.977043,76.609550
3245.352869,0.000000,-7698.141797,919.314598
3245.353196,-1184.329507,-9770.718434,1149.143247
3245.353524,-1998.556043,-9918.759623,-229.828649
3245.353852,-1554.432478,-10955.047942,-3294.210641
3245.354179,-370.102971,-9548.656652,-4060.306139
3245.354507,1110.308913,-9474.636058,-2604.724693
3245.354834,814.226536,-11843.295072,612.876398
3245.355162,2738.761985,-12731.542202,1838.629195
3245.355490,3552.988522,-11769.274478,612.876398
3245.355817,1554.432478,-8956.491898,0.000000
3245.356145,1628.453072,-8068.244768,-306.438199
3245.356472,370.102971,-9474.636058,0.000000
3245.356800,0.000000,-9474.636058,0.000000
3245.357128,-222.061783,-9178.553681,-2145.067394
3245.357455,-222.061783,-9844.739029,-1838.629195
3245.357783,1184.329507,-9770.718434,-306.438199
3245.358110,2590.720797,-10732.986159,995.924147
3245.358438,1850.514855,-10807.006753,1149.143247
3245.358766,1480.411884,-9178.553681,229.828649
3245.359093,666.185348,-9474.636058,-612.876398
3245.359421,888.247130,-8808.450710,0.000000
3245.359748,1110.308913,-9770.718434,995.924147
3245.360076,444.123565,-11399.171507,1302.362347
3245.360404,296.082377,-9992.780217,306.438199
3245.360731,0.000000,-10362.883188,-2068.457845
3245.361059,-1554.432478,-8364.327145,-2757.943793
3245.361386,-1776.494261,-8734.430116,-1302.362347
3245.361714,-666.185348,-8808.450710,-306.438199
3245.362042,814.226536,-7772.162391,0.000000
3245.362369,888.247130,-9252.574275,2068.457845
3245.362697,518.144159,-9474.636058,3677.258390
3245.363025,1480.411884,-8512.368333,3217.601092
3245.363352,1998.556043,-10066.800811,995.924147
3245.363680,148.041188,-10881.027347,-689.485948
3245.364007,-888.247130,-9770.718434,-1991.848295
3245.364335,-1554.432478,-9622.677246,-2604.724693
3245.364663,0.000000,-9548.656652,-2374.896044
3245.364990,814.226536,-10436.903782,-383.047749
3245.365318,0.000000,-9622.677246,689.485948
3245.365645,-222.061783,-8734.430116,1991.848295
3245.365973,444.123565,-9104.533087,536.266849
3245.366301,-962.267725,-9030.512492,0.000000
3245.366628,-1406.391290,-9844.739029,76.609550
3245.366956,-1924.535449,-10436.903782,-459.657299
3245.367283,0.000000,-9992.780217,-2068.457845
3245.367611,518.144159,-10214.842000,-1915.238745
3245.367939,1850.514855,-12213.398043,-842.705048
3245.368266,1924.535449,-10658.965565,-229.828649
3245.368594,2220.617826,-10140.821405,153.219100
3245.368921,370.102971,-9918.759623,689.485948
3245.369249,-1036.288319,-8882.471304,1302.362347
3245.369577,-1110.308913,-8438.347739,383.047749
3245.369904,-1480.411884,-8808.450710,0.000000
3245.370232,-814.226536,-10658.965565,0.000000
3245.370560,592.164754,-10732.986159,-842.705048
3245.370887,740.205942,-9178.553681,-1762.019645
3245.371215,814.226536,-10140.821405,-1762.019645
3245.371542,74.020594,-10288.862594,-919.314598
3245.371870,962.267725,-9696.697840,-536.266849
3245.372198,592.164754,-8438.347739,76.609550
3245.372525,1776.494261,-7254.018232,0.000000
3245.372853,1480.411884,-10066.800811,1378.971896
3245.373180,1110.308913,-11621.233289,2528.115143
3245.373508,2072.576638,-9474.636058,1838.629195
3245.373836,592.164754,-8734.430116,1532.190996
3245.374163,0.000000,-8660.409521,0.000000
3245.374491,-740.205942,-8216.285956,-1608.800546
3245.374818,-1776.494261,-9252.574275,-995.924147
3245.375146,-888.247130,-8290.306550,-1378.971896
3245.375474,518.144159,-9474.636058,-1608.800546
3245.375801,0.000000,-9252.574275,-536.266849
3245.376129,1924.535449,-9548.656652,459.657299
3245.376456,1628.453072,-10732.986159,2374.896044
3245.376784,1776.494261,-10732.986159,2374.896044
3245.377112,666.185348,-11399.171507,76.609550
3245.377439,370.102971,-11251.130318,-1225.752797
3245.377767,888.247130,-9178.553681,-2757.943793
3245.378094,74.020594,-9992.780217,-1685.410096
3245.378422,74.020594,-10510.924376,-459.657299
3245.378750,1184.329507,-9326.594869,-1915.238745
3245.379077,296.082377,-9770.718434,-1378.971896
3245.379405,444.123565,-9844.739029,-1225.752797
3245.379733,-222.061783,-10288.862594,229.828649
3245.380060,0.000000,-9548.656652,1225.752797
3245.380388,444.123565,-7476.080014,612.876398
3245.380715,296.082377,-9474.636058,306.438199
3245.381043,1702.473667,-11473.192101,919.314598
3245.381371,2960.823768,-12657.521608,0.000000
3245.381698,1554.432478,-11547.212695,-1762.019645
3245.382026,0.000000,-9252.574275,-2451.505594
3245.382353,-1406.391290,-8364.327145,-2604.724693
3245.382681,-3034.844362,-7920.203579,-1455.581446
3245.383009,-3330.926739,-7105.977043,76.609550
3245.383336,-2294.638420,-9178.553681,1762.019645
3245.383664,74.020594,-8956.491898,1915.238745
3245.383991,2072.576638,-7698.141797,2068.457845
3245.384319,148.041188,-9770.718434,2068.457845
3245.384647,-1184.329507,-11325.150913,306.438199
3245.384974,518.144159,-10732.986159,-2221.676944
3245.385302,592.164754,-9030.512492,-3447.429741
3245.385629,1110.308913,-9104.533087,-1838.629195
3245.385957,1110.308913,-9918.759623,919.314598
3245.386285,1480.411884,-11029.068536,1991.848295
3245.386612,296.082377,-10436.903782,1225.752797
3245.386940,-222.061783,-8956.491898,0.000000
3245.387267,-1628.453072,-5847.626942,-229.828649
3245.387595,-1702.473667,-7846.182985,766.095498
3245.387923,-1702.473667,-10362.883188,0.000000
3245.388250,-296.082377,-12139.377449,-2068.457845
3245.388578,0.000000,-12213.398043,-2145.067394
3245.388906,1776.494261,-10214.842000,-3140.991542
3245.389233,2442.679609,-9844.739029,-2298.286494
3245.389561,1628.453072,-10807.006753,0.000000
3245.389888,666.185348,-9622.677246,306.438199
3245.390216,0.000000,-9770.718434,76.609550
3245.390544,888.247130,-9622.677246,-1608.800546
3245.390871,1258.350101,-9326.594869,689.485948
3245.391199,-888.247130,-10955.047942,2681.334243
3245.391526,-444.123565,-11251.130318,76.609550
3245.391854,444.123565,-11547.212695,-2757.943793
3245.392182,518.144159,-9844.739029,-3600.648841
3245.392509,1258.350101,-7031.956449,-1991.848295
3245.392837,2072.576638,-8660.409521,612.876398
3245.393164,1258.350101,-10140.821405,1762.019645
3245.393492,-518.144159,-10362.883188,1455.581446
3245.393820,-666.185348,-8956.491898,306.438199
3245.394147,0.000000,-7254.018232,-306.438199
3245.394475,1628.453072,-8882.471304,459.657299
3245.394802,1184.329507,-12731.542202,1991.848295
3245.395130,814.226536,-11991.336260,842.705048
3245.395458,1332.370696,-9548.656652,-1608.800546
3245.395785,-518.144159,-7179.997637,-2451.505594
3245.396113,-740.205942,-7402.059420,-995.924147
3245.396441,-1850.514855,-9030.512492,1532.190996
3245.396768,-1776.494261,-9474.636058,1302.362347
3245.397096,0.000000,-8068.244768,-1302.362347
3245.397423,-370.102971,-9030.512492,-842.705048
3245.397751,74.020594,-8660.409521,459.657299
3245.398079,1110.308913,-10214.842000,1915.238745
3245.398406,1924.535449,-11325.150913,1225.752797
3245.398734,2590.720797,-11917.315666,-1532.190996
3245.399061,1850.514855,-11843.295072,-1915.238745
3245.399389,1776.494261,-9252.574275,-995.924147
3245.399717,1110.308913,-8808.450710,383.047749
3245.400044,-888.247130,-11769.274478,306.438199
3245.400372,-1406.391290,-9548.656652,-2145.067394
3245.400699,-1184.329507,-8734.430116,-3677.258390
3245.401027,0.000000,-8142.265362,-1685.410096
3245.401355,1702.473667,-9326.594869,1225.752797
3245.401682,1702.473667,-12657.521608,2987.772442
3245.402010,1924.535449,-11917.315666,1915.238745
3245.402337,1998.556043,-11251.130318,-995.924147
3245.402665,2072.576638,-9992.780217,-2451.505594
3245.402993,2886.803174,-10066.800811,-1455.581446
3245.403320,518.144159,-10436.903782,1302.362347
3245.403648,-296.082377,-8882.471304,995.924147
3245.403975,0.000000,-8142.265362,-612.876398
3245.404303,-1110.308913,-9400.615463,-919.314598
3245.404631,-2368.659014,-7698.141797,536.266849
3245.404958,-2294.638420,-7920.203579,1225.752797
3245.405286,-2146.597232,-9030.512492,0.000000
3245.405614,-370.102971,-9770.718434,-1838.629195
3245.405941,-222.061783,-10732.986159,-1378.971896
3245.406269,888.247130,-9548.656652,1378.971896
3245.406596,1850.514855,-8734.430116,1915.238745
3245.406924,1924.535449,-9400.615463,1302.362347
3245.407252,-370.102971,-9622.677246,0.000000
3245.407579,-1036.288319,-9474.636058,-842.705048
3245.407907,-814.226536,-8142.265362,-919.314598
3245.408234,222.061783,-7920.203579,-612.876398
3245.408562,-148.041188,-9696.697840,1532.190996
3245.408890,0.000000,-11251.130318,1455.581446
3245.409217,444.123565,-10732.986159,-689.485948
3245.409545,370.102971,-11029.068536,-1838.629195
3245.409872,370.102971,-9400.615463,-2451.505594
3245.410200,592.164754,-9474.636058,-766.095498
3245.410528,1036.288319,-9622.677246,229.828649
3245.410855,666.185348,-9770.718434,1302.362347
3245.411183,0.000000,-10436.903782,1225.752797
3245.411510,814.226536,-9992.780217,0.000000
3245.411838,1110.308913,-9474.636058,-612.876398
3245.412166,518.144159,-11029.068536,-1225.752797
3245.412493,-592.164754,-11251.130318,-1608.800546
3245.412821,-444.123565,-11399.171507,-2068.457845
3245.413149,-296.082377,-10362.883188,-2451.505594
3245.413476,74.020594,-8956.491898,-1762.019645
3245.413804,518.144159,-9252.574275,459.657299
3245.414131,888.247130,-9252.574275,1455.581446
3245.414459,1258.350101,-9030.512492,1149.143247
3245.414787,148.041188,-9252.574275,612.876398
3245.415114,444.123565,-8364.327145,229.828649
3245.415442,74.020594,-8660.409521,1149.143247
3245.415769,0.000000,-9400.615463,766.095498
3245.416097,296.082377,-9548.656652,-536.266849
3245.416425,1036.288319,-12361.439231,-1608.800546
3245.416752,1258.350101,-11473.192101,-1608.800546
3245.417080,1406.391290,-8660.409521,-536.266849
3245.417407,296.082377,-8956.491898,1302.362347
3245.417735,296.082377,-7328.038826,1762.019645
3245.418063,0.000000,-7920.203579,1455.581446
3245.418390,-1850.514855,-7254.018232,459.657299
3245.418718,-666.185348,-7476.080014,-766.095498
3245.419045,-296.082377,-9104.533087,-612.876398
3245.419373,592.164754,-10066.800811,-536.266849
3245.419701,222.061783,-11843.295072,-612.876398
3245.420028,1702.473667,-12065.356855,0.000000
3245.420356,2738.761985,-11399.171507,-995.924147
3245.420683,3034.844362,-11251.130318,-689.485948
3245.421011,2294.638420,-9326.594869,842.705048
3245.421339,666.185348,-8808.450710,1608.800546
3245.421666,-1554.432478,-9696.697840,995.924147
3245.421994,-1184.329507,-7846.182985,-1762.019645
3245.422322,-1258.350101,-7698.141797,-2221.676944
3245.422649,-444.123565,-10214.842000,-1762.019645
3245.422977,-296.082377,-11621.233289,0.000000
3245.423304,740.205942,-13101.645173,-766.095498
3245.423632,1628.453072,-10807.006753,-2757.943793
3245.423960,1480.411884,-9992.780217,-2374.896044
3245.424287,1406.391290,-10510.924376,0.000000
3245.424615,2590.720797,-10288.862594,1685.410096
3245.424942,1184.329507,-10436.903782,1762.019645
3245.425270,-1332.370696,-9104.533087,1378.971896
3245.425598,-1406.391290,-8068.244768,-383.047749
3245.425925,-1332.370696,-9474.636058,-995.924147
3245.426253,-2516.700203,-9770.718434,-919.314598
3245.426580,-2590.720797,-9104.533087,-536.266849
3245.426908,-1628.453072,-7402.059420,-1762.019645
3245.427236,-888.247130,-8142.265362,-1838.629195
3245.427563,814.226536,-9030.512492,-306.438199
3245.427891,222.061783,-8068.244768,2528.115143
3245.428218,2368.659014,-7846.182985,3753.867940
3245.428546,2738.761985,-10214.842000,2451.505594
3245.428874,1628.453072,-10436.903782,536.266849
3245.429201,1258.350101,-8364.327145,-306.438199
3245.429529,1702.473667,-9030.512492,-76.609550
3245.429857,1628.453072,-10140.821405,-919.314598
3245.430184,296.082377,-11621.233289,-766.095498
3245.430512,-1776.494261,-9696.697840,-1378.971896
3245.430839,0.000000,-8660.409521,-2528.115143
3245.431167,666.185348,-10584.944971,-1915.238745
3245.431495,222.061783,-10436.903782,536.266849
3245.431822,-1480.411884,-9474.636058,2221.676944
3245.432150,-296.082377,-9474.636058,1149.143247
3245.432477,740.205942,-8068.244768,-1378.971896
3245.432805,1184.329507,-10807.006753,-842.705048
3245.433133,148.041188,-11473.192101,612.876398
3245.433460,1628.453072,-11695.253884,153.219100
3245.433788,1776.494261,-12213.398043,-919.314598
3245.434115,888.247130,-10881.027347,-2374.896044
3245.434443,-296.082377,-9844.739029,-2221.676944
3245.434771,0.000000,-10436.903782,-383.047749
3245.435098,-444.123565,-9474.636058,0.000000
3245.435426,-1110.308913,-9992.780217,306.438199
3245.435753,-1184.329507,-8660.409521,612.876398
3245.436081,148.041188,-7550.100608,0.000000
3245.436409,1110.308913,-8660.409521,995.924147
3245.436736,1110.308913,-9918.759623,612.876398
3245.437064,740.205942,-10066.800811,766.095498
3245.437391,74.020594,-9400.615463,-612.876398
3245.437719,0.000000,-8142.265362,-1762.019645
3245.438047,444.123565,-10288.862594,-612.876398
3245.438374,518.144159,-10881.027347,689.485948
3245.438702,222.061783,-10214.842000,995.924147
3245.439030,-444.123565,-8734.430116,229.828649
3245.439357,0.000000,-7476.080014,459.657299
3245.439685,-740.205942,-7402.059420,842.705048
3245.440012,-2072.576638,-9696.697840,1455.581446
3245.440340,-1924.535449,-9326.594869,-459.657299
3245.440668,-1850.514855,-8142.265362,-2451.505594
3245.440995,-1480.411884,-8512.368333,-2451.505594
3245.441323,74.020594,-9400.615463,-995.924147
3245.441650,814.226536,-11325.150913,842.705048
3245.441978,2072.576638,-12435.459826,919.314598
3245.442306,2738.761985,-12657.521608,229.828649
3245.442633,1998.556043,-10658.965565,689.485948
3245.442961,1480.411884,-7920.203579,689.485948
3245.443288,-888.247130,-9770.718434,536.266849
3245.443616,-1480.411884,-10807.006753,-536.266849
3245.443944,-740.205942,-9400.615463,-2911.162892
3245.444271,-740.205942,-9252.574275,-2528.115143
3245.444599,518.144159,-9030.512492,-1532.190996
3245.444926,666.185348,-10362.883188,229.828649
3245.445254,1258.350101,-11251.130318,995.924147
3245.445582,1480.411884,-9474.636058,-1225.752797
3245.445909,1554.432478,-10214.842000,-1378.971896
3245.446237,2146.597232,-8882.471304,-306.438199
3245.446564,1850.514855,-9844.739029,1302.362347
3245.446892,814.226536,-11695.253884,2145.067394
3245.447219,1776.494261,-11029.068536,-383.047749
3245.447547,962.267725,-10510.924376,-1762.019645
3245.447875,-592.164754,-8660.409521,-1915.238745
3245.448202,-962.267725,-7920.203579,-1762.019645
3245.448530,-1332.370696,-7846.182985,0.000000
3245.448857,0.000000,-8068.244768,-383.047749
3245.449185,-888.247130,-8586.388927,229.828649
3245.449512,0.000000,-9474.636058,1991.848295
3245.449840,1258.350101,-8142.265362,1915.238745
3245.450168,2220.617826,-10881.027347,2298.286494
3245.450495,2294.638420,-12213.398043,612.876398
3245.450823,2960.823768,-9770.718434,-1455.581446
3245.451150,3108.864956,-9622.677246,-995.924147
3245.451478,3108.864956,-9326.594869,0.000000
3245.451805,1480.411884,-8512.368333,842.705048
3245.452133,-518.144159,-8808.450710,2068.457845
3245.452461,-1628.453072,-8882.471304,0.000000
3245.452788,-1554.432478,-9918.759623,-995.924147
3245.453116,-1480.411884,-9770.718434,-612.876398
3245.453443,-666.185348,-10362.883188,229.828649
3245.453771,0.000000,-10955.047942,383.047749
3245.454098,1554.432478,-10066.800811,-1378.971896
3245.454426,1258.350101,-9400.615463,-1991.848295
3245.454754,814.226536,-10140.821405,-1378.971896
3245.455081,444.123565,-9400.615463,229.828649
3245.455409,814.226536,-10732.986159,1225.752797
3245.455736,370.102971,-11177.109724,1225.752797
3245.456064,-962.267725,-9474.636058,383.047749
3245.456391,-2368.659014,-9548.656652,-229.828649
3245.456719,-1332.370696,-8956.491898,-1608.800546
3245.457047,-1628.453072,-9622.677246,-1762.019645
3245.457374,-2220.617826,-9770.718434,-383.047749
3245.457702,-1702.473667,-8882.471304,-612.876398
3245.458029,148.041188,-10214.842000,-842.705048
3245.458357,962.267725,-10658.965565,153.219100
3245.458684,1184.329507,-9030.512492,1378.971896
3245.459012,1110.308913,-8956.491898,1608.800546
3245.459340,0.000000,-8216.285956,76.609550
3245.459667,518.144159,-9400.615463,-612.876398
3245.459995,-518.144159,-10362.883188,0.000000
3245.460322,0.000000,-8734.430116,229.828649
3245.460650,-296.082377,-10288.862594,1302.362347
3245.460977,-370.102971,-10658.965565,-306.438199
3245.461305,-518.144159,-9696.697840,-1532.190996
3245.461633,-1924.535449,-9400.615463,-1378.971896
3245.461960,-1776.494261,-7402.059420,-1991.848295
3245.462288,-518.144159,-7402.059420,-612.876398
3245.462615,-444.123565,-7698.141797,0.000000
3245.462943,-592.164754,-9178.553681,1072.533697
3245.463270,370.102971,-11917.315666,1915.238745
3245.463598,2220.617826,-11843.295072,842.705048
3245.463925,3108.864956,-10362.883188,-1072.533697
3245.464253,1554.432478,-10288.862594,0.000000
3245.464581,888.247130,-9252.574275,-459.657299
3245.464908,148.041188,-11029.068536,-1225.752797
3245.465236,74.020594,-9992.780217,-2528.115143
3245.465563,222.061783,-7698.141797,-2834.553343
3245.465891,74.020594,-8364.327145,383.047749
3245.466218,1258.350101,-9770.718434,1072.533697
3245.466546,1702.473667,-11251.130318,1225.752797
3245.466874,1110.308913,-10955.047942,536.266849
3245.467201,1110.308913,-9252.574275,-1378.971896
3245.467529,1258.350101,-10955.047942,-229.828649
3245.467856,2516.700203,-12065.356855,0.000000
3245.468184,1406.391290,-9770.718434,0.000000
3245.468511,1480.411884,-9696.697840,0.000000
3245.468839,740.205942,-9030.512492,-1685.410096
3245.469167,888.247130,-8808.450710,-1838.629195
3245.469494,0.000000,-7698.141797,-306.438199
3245.469822,-592.164754,-7846.182985,459.657299
3245.470149,-444.123565,-9770.718434,1302.362347
3245.470477,0.000000,-8882.471304,919.314598
3245.470804,-370.102971,-7624.121203,-153.219100
3245.471132,962.267725,-9548.656652,1378.971896
3245.471460,1554.432478,-11325.150913,306.438199
3245.471787,2294.638420,-10955.047942,-153.219100
3245.472115,1406.391290,-9992.780217,-1455.581446
3245.472442,1776.494261,-9326.594869,-1225.752797
3245.472770,2664.741391,-9104.533087,459.657299
3245.473097,2960.823768,-9178.553681,766.095498
3245.473425,0.000000,-8734.430116,2298.286494
3245.473753,-518.144159,-9474.636058,842.705048
3245.474080,-814.226536,-9178.553681,-842.705048
3245.474408,-1184.329507,-9400.615463,-1149.143247
3245.474735,-444.123565,-11325.150913,-995.924147
3245.475063,74.020594,-10955.047942,-153.219100
3245.475390,-518.144159,-10288.862594,0.000000
3245.475718,0.000000,-9474.636058,-1532.190996
3245.476046,814.226536,-9474.636058,-995.924147
3245.476373,0.000000,-9030.512492,229.828649
3245.476701,-592.164754,-8438.347739,1302.362347
3245.477028,-148.041188,-10362.883188,1225.752797
3245.477356,0.000000,-10510.924376,766.095498
3245.477683,-1110.308913,-9252.574275,0.000000
3245.478011,-1924.535449,-10362.883188,1149.143247
3245.478339,-518.144159,-11769.274478,-1149.143247
3245.478666,-222.061783,-10807.006753,-2604.724693
3245.478994,-1628.453072,-9622.677246,-2068.457845
3245.479321,-1850.514855,-8142.265362,-1149.143247
3245.479649,740.205942,-7772.162391,-766.095498
3245.479976,1480.411884,-8586.388927,612.876398
3245.480304,444.123565,-9474.636058,2528.115143
3245.480632,-370.102971,-10066.800811,2451.505594
3245.480959,222.061783,-9548.656652,459.657299
3245.481287,-148.041188,-9844.739029,-612.876398
3245.481614,-444.123565,-12139.377449,-536.266849
3245.481942,-962.267725,-10362.883188,-1378.971896
3245.482269,444.123565,-9918.759623,-1455.581446
3245.482597,0.000000,-9252.574275,-1532.190996
3245.482925,-666.185348,-8882.471304,-1608.800546
3245.483252,-1332.370696,-8216.285956,306.438199
3245.483580,-1036.288319,-7179.997637,-689.485948
3245.483907,-1110.308913,-8586.388927,-229.828649
3245.484235,-592.164754,-10584.944971,383.047749
3245.484562,148.041188,-10288.862594,229.828649
3245.484890,1850.514855,-11325.150913,76.609550
3245.485217,3034.844362,-13397.727550,0.000000
3245.485545,3182.885551,-11399.171507,-383.047749
3245.485873,1554.432478,-9696.697840,-306.438199
3245.486200,370.102971,-8808.450710,-995.924147
3245.486528,-666.185348,-8290.306550,-383.047749
3245.486855,0.000000,-7254.018232,76.609550
3245.487183,0.000000,-7179.997637,766.095498
3245.487510,74.020594,-9548.656652,1225.752797
3245.487838,1110.308913,-11029.068536,766.095498
3245.488166,1258.350101,-10066.800811,-383.047749
3245.488493,2072.576638,-11029.068536,-459.657299
3245.488821,2590.720797,-10881.027347,-306.438199
3245.489148,1628.453072,-10807.006753,-689.485948
3245.489476,1924.535449,-10436.903782,306.438199
3245.489803,1998.556043,-8290.306550,0.000000
3245.490131,1480.411884,-8216.285956,0.000000
3245.490459,-370.102971,-8956.491898,919.314598
3245.490786,-370.102971,-9474.636058,612.876398
3245.491114,-444.123565,-9104.533087,-766.095498
3245.491441,0.000000,-9622.677246,-1991.848295
3245.491769,-888.247130,-9030.512492,-536.266849
3245.492096,1036.288319,-9918.759623,0.000000
3245.492424,1702.473667,-9622.677246,229.828649
3245.492752,1406.391290,-10807.006753,1225.752797
3245.493079,1184.329507,-10066.800811,383.047749
3245.493407,888.247130,-7846.182985,-689.485948
3245.493734,962.267725,-9770.718434,-919.314598
3245.494062,74.020594,-9992.780217,153.219100
3245.494389,0.000000,-9622.677246,383.047749
3245.494717,518.144159,-10214.842000,-229.828649
3245.495045,-814.226536,-10658.965565,0.000000
3245.495372,-1110.308913,-11547.212695,0.000000
3245.495700,-592.164754,-10214.842000,-153.219100
3245.496027,-888.247130,-9474.636058,-1072.533697
3245.496355,0.000000,-9474.636058,-1378.971896
3245.496682,-296.082377,-8882.471304,-536.266849
3245.497010,-518.144159,-8216.285956,766.095498
3245.497338,592.164754,-9696.697840,153.219100
3245.497665,0.000000,-9622.677246,0.000000
3245.497993,-1258.350101,-9918.759623,689.485948
3245.498320,-2294.638420,-9844.739029,0.000000
3245.498648,-1480.411884,-9622.677246,229.828649
3245.498975,-370.102971,-10658.965565,-612.876398
3245.499303,-148.041188,-11103.089130,0.000000
3245.499631,-296.082377,-10214.842000,306.438199
3245.499958,0.000000,-8808.450710,-766.095498
3245.500286,-444.123565,-8142.265362,-1149.143247
3245.500613,-1258.350101,-9178.553681,-612.876398
3245.500941,-518.144159,-8586.388927,-1378.971896
3245.501268,0.000000,-8068.244768,689.485948
3245.501596,888.247130,-10362.883188,689.485948
3245.501924,1258.350101,-10584.944971,536.266849
3245.502251,1184.329507,-10140.821405,612.876398
3245.502579,1406.391290,-10881.027347,-306.438199
3245.502906,814.226536,-10658.965565,-919.314598
3245.503234,518.144159,-10807.006753,-459.657299
3245.503561,1702.473667,-8364.327145,-1455.581446
3245.503889,1776.494261,-9326.594869,-995.924147
3245.504216,1850.514855,-11325.150913,612.876398
3245.504544,1702.473667,-9770.718434,995.924147
3245.504872,962.267725,-8734.430116,1225.752797
3245.505199,518.144159,-8438.347739,153.219100
3245.505527,-148.041188,-9030.512492,-689.485948
3245.505854,0.000000,-9474.636058,-1149.143247
3245.506182,0.000000,-10140.821405,-1378.971896
3245.506509,74.020594,-11399.171507,-919.314598
3245.506837,1406.391290,-11621.233289,-1378.971896
3245.507165,2442.679609,-9770.718434,-1608.800546
3245.507492,1850.514855,-10214.842000,919.314598
3245.507820,888.247130,-10066.800811,1915.238745
3245.508147,814.226536,-8586.388927,689.485948
3245.508475,444.123565,-7698.141797,-229.828649
3245.508802,-296.082377,-7328.038826,-919.314598
3245.509130,-962.267725,-9252.574275,1149.143247
3245.509458,444.123565,-10807.006753,1838.629195
3245.509785,592.164754,-10214.842000,-306.438199
3245.510113,592.164754,-10732.986159,-1302.362347
3245.510440,74.020594,-10658.965565,-995.924147
3245.510768,296.082377,-8956.491898,-536.266849
3245.511095,814.226536,-8438.347739,383.047749
3245.511423,0.000000,-9030.512492,1149.143247
3245.511751,0.000000,-10955.047942,1762.019645
3245.512078,888.247130,-10510.924376,766.095498
3245.512406,666.185348,-9104.533087,-153.219100
3245.512733,-666.185348,-8438.347739,-919.314598
3245.513061,-1480.411884,-10658.965565,-612.876398
3245.513388,-2220.617826,-9252.574275,-1149.143247
3245.513716,-814.226536,-9252.574275,-1991.848295
3245.514044,0.000000,-8586.388927,-1915.238745
3245.514371,1036.288319,-8660.409521,-536.266849
3245.514699,1110.308913,-9474.636058,1915.238745
3245.515026,1480.411884,-10658.965565,1762.019645
3245.515354,296.082377,-11029.068536,1225.752797
3245.515681,518.144159,-10362.883188,-612.876398
3245.516009,222.061783,-9104.533087,-1991.848295
3245.516337,-370.102971,-10140.821405,-1762.019645
3245.516664,0.000000,-11029.068536,-459.657299
3245.516992,-148.041188,-11695.253884,-229.828649
3245.517319,0.000000,-9622.677246,-1225.752797
3245.517647,0.000000,-8364.327145,-1225.752797
3245.517974,-1184.329507,-9252.574275,612.876398
3245.518302,0.000000,-8956.491898,919.314598
3245.518630,-666.185348,-7994.224174,995.924147
3245.518957,74.020594,-11029.068536,0.000000
3245.519285,-740.205942,-9770.718434,0.000000
3245.519612,0.000000,-9030.512492,229.828649
3245.519940,370.102971,-9474.636058,-1149.143247
3245.520267,-148.041188,-11325.150913,-689.485948
3245.520595,148.041188,-11547.212695,-1225.752797
3245.520923,148.041188,-8364.327145,-1455.581446
3245.521250,222.061783,-7846.182985,0.000000
3245.521578,2812.782580,-9844.739029,383.047749
3245.521905,888.247130,-10510.924376,2374.896044
3245.522233,-666.185348,-8734.430116,2068.457845
3245.522560,0.000000,-7254.018232,-383.047749
3245.522888,1110.308913,-7328.038826,-2145.067394
3245.523215,1332.370696,-10288.862594,-306.438199
3245.523543,1184.329507,-11547.212695,459.657299
3245.523871,814.226536,-10436.903782,0.000000
3245.524198,1850.514855,-10881.027347,-1532.190996
3245.524526,1776.494261,-10436.903782,-1762.019645
3245.524853,518.144159,-8808.450710,0.000000
3245.525181,666.185348,-9474.636058,919.314598
3245.525508,1110.308913,-10362.883188,306.438199
3245.525836,370.102971,-10955.047942,-306.438199
3245.526164,0.000000,-8882.471304,153.219100
3245.526491,222.061783,-7698.141797,1149.143247
3245.526819,1480.411884,-9844.739029,0.000000
3245.527146,1036.288319,-11325.150913,-1149.143247
3245.527474,1406.391290,-11843.295072,-1532.190996
3245.527801,1628.453072,-9548.656652,-2221.676944
3245.528129,1998.556043,-9326.594869,-306.438199
3245.528457,1554.432478,-10066.800811,2221.676944
3245.528784,814.226536,-10436.903782,2451.505594
3245.529112,-1702.473667,-9696.697840,1608.800546
3245.529439,-2294.638420,-9178.553681,-1149.143247
3245.529767,-2960.823768,-7328.038826,-3140.991542
3245.530094,-1998.556043,-8068.244768,-1685.410096
3245.530422,-962.267725,-10362.883188,0.000000
3245.530750,0.000000,-10732.986159,1532.190996
3245.531077,1036.288319,-10066.800811,459.657299
3245.531405,1628.453072,-9178.553681,-1072.533697
3245.531732,1258.350101,-8808.450710,-306.438199
3245.532060,888.247130,-9548.656652,995.924147
3245.532387,-370.102971,-8956.491898,2374.896044
3245.532715,0.000000,-8734.430116,2221.676944
3245.533043,-888.247130,-7698.141797,919.314598
3245.533370,-222.061783,-8808.450710,0.000000
3245.533698,-370.102971,-10584.944971,153.219100
3245.534025,0.000000,-11177.109724,-1378.971896
3245.534353,-518.144159,-10362.883188,-1608.800546
3245.534680,-592.164754,-9252.574275,-2604.724693
3245.535008,0.000000,-8068.244768,-2834.553343
3245.535336,740.205942,-11325.150913,383.047749
3245.535663,1110.308913,-10288.862594,1685.410096
3245.535991,814.226536,-9252.574275,1302.362347
3245.536318,-814.226536,-10510.924376,842.705048
3245.536646,-814.226536,-8956.491898,-1149.143247
3245.536973,-814.226536,-8956.491898,-995.924147
3245.537301,0.000000,-10807.006753,-536.266849
3245.537629,296.082377,-10436.903782,-1915.238745
3245.537956,888.247130,-10288.862594,-1608.800546
3245.538284,1036.288319,-10436.903782,-2068.457845
3245.538611,1332.370696,-10658.965565,-612.876398
3245.538939,1406.391290,-9770.718434,0.000000
3245.539266,740.205942,-9104.533087,842.705048
3245.539594,296.082377,-8734.430116,1915.238745
3245.539922,592.164754,-8808.450710,1608.800546
3245.540249,1184.329507,-9178.553681,995.924147
3245.540577,1406.391290,-9918.759623,1072.533697
3245.540904,0.000000,-9696.697840,0.000000
3245.541232,-1110.308913,-9326.594869,-995.924147
3245.541559,0.000000,-11029.068536,-2068.457845
3245.541887,888.247130,-9696.697840,-2451.505594
3245.542214,444.123565,-8956.491898,-612.876398
3245.542542,370.102971,-9918.759623,612.876398
3245.542870,666.185348,-9474.636058,842.705048
3245.543197,666.185348,-9474.636058,1838.629195
3245.543525,296.082377,-8512.368333,1455.581446
3245.543852,0.000000,-7994.224174,612.876398
3245.544180,962.267725,-9696.697840,229.828649
3245.544507,1184.329507,-9770.718434,-459.657299
3245.544835,1110.308913,-10510.924376,0.000000
3245.545163,740.205942,-11177.109724,-612.876398
3245.545490,1184.329507,-10584.944971,-1685.410096
3245.545818,370.102971,-9474.636058,-2145.067394
3245.546145,0.000000,-9696.697840,-1378.971896
3245.546473,-222.061783,-10658.965565,0.000000
3245.546801,-444.123565,-9992.780217,1072.533697
3245.547128,0.000000,-8882.471304,766.095498
3245.547456,740.205942,-10584.944971,612.876398
3245.547783,1184.329507,-10362.883188,0.000000
3245.548111,888.247130,-9178.553681,-766.095498
3245.548438,222.061783,-9548.656652,-1302.362347
3245.548766,0.000000,-8882.471304,-1915.238745
3245.549094,444.123565,-8512.368333,-1302.362347
3245.549421,1184.329507,-10584.944971,0.000000
3245.549749,2516.700203,-11621.233289,0.000000
3245.550076,2146.597232,-10658.965565,1378.971896
3245.550404,-296.082377,-10807.006753,2604.724693
3245.550731,-2368.659014,-9178.553681,1608.800546
3245.551059,-2664.741391,-8882.471304,-153.219100
3245.551387,-2220.617826,-8216.285956,-1838.629195
3245.551714,-1406.391290,-7550.100608,-2451.505594
3245.552042,-1924.535449,-9548.656652,-766.095498
3245.552369,-666.185348,-9400.615463,76.609550
3245.552697,814.226536,-8808.450710,76.609550
3245.553024,1776.494261,-10658.965565,-459.657299
3245.553352,518.144159,-10510.924376,229.828649
3245.553680,0.000000,-10436.903782,1149.143247
3245.554007,370.102971,-8068.244768,612.876398
3245.554335,888.247130,-7698.141797,766.095498
3245.554662,1628.453072,-10436.903782,995.924147
3245.554990,2294.638420,-10807.006753,1225.752797
3245.555318,1332.370696,-10807.006753,1072.533697
3245.555645,888.247130,-9474.636058,-1225.752797
3245.555973,-370.102971,-7994.224174,-2145.067394
3245.556300,-1480.411884,-8142.265362,-1838.629195
3245.556628,-1036.288319,-8808.450710,-1532.190996
3245.556955,0.000000,-11695.253884,229.828649
3245.557283,1480.411884,-11917.315666,1072.533697
3245.557611,1998.556043,-10140.821405,229.828649
3245.557938,1628.453072,-10436.903782,153.219100
3245.558266,888.247130,-9696.697840,-536.266849
3245.558593,-518.144159,-9104.533087,-383.047749
3245.558921,370.102971,-9326.594869,-1991.848295
3245.559248,-370.102971,-8660.409521,-1915.238745
3245.559576,0.000000,-9400.615463,-306.438199
3245.559904,888.247130,-10288.862594,919.314598
3245.560231,1332.370696,-9992.780217,459.657299
3245.560559,592.164754,-10288.862594,0.000000
3245.560886,-666.185348,-9548.656652,-229.828649
3245.561214,-370.102971,-9400.615463,153.219100
3245.561541,148.041188,-9178.553681,383.047749
3245.561869,1480.411884,-10140.821405,536.266849
3245.562197,1110.308913,-11325.150913,1149.143247
3245.562524,1036.288319,-11251.130318,919.314598
3245.562852,1036.288319,-7476.080014,-1072.533697
3245.563179,0.000000,-7105.977043,-842.705048
3245.563507,-518.144159,-9992.780217,0.000000
3245.563835,-1702.473667,-10362.883188,153.219100
3245.564162,-2220.617826,-8586.388927,0.000000
3245.564490,-1110.308913,-8364.327145,-1072.533697
3245.564817,-370.102971,-10214.842000,612.876398
3245.565145,0.000000,-10510.924376,1378.971896
3245.565472,444.123565,-8956.491898,766.095498
3245.565800,740.205942,-9844.739029,-689.485948
3245.566128,1628.453072,-9622.677246,-1762.019645
3245.566455,1554.432478,-8142.265362,-306.438199
3245.566783,1110.308913,-8586.388927,2068.457845
3245.567110,1480.411884,-9992.780217,1455.581446
