#time,accel_x,accel_y,accel_z
3328.279960,0.000000,-9474.636058,-459.657299
3328.280288,74.020594,-9252.574275,-612.876398
3328.280615,0.000000,-9400.615463,-766.095498
3328.280943,0.000000,-9696.697840,-689.485948
3328.281270,370.102971,-10066.800811,-229.828649
3328.281598,888.247130,-10140.821405,-306.438199
3328.281925,666.185348,-10362.883188,-229.828649
3328.282253,740.205942,-10066.800811,0.000000
3328.282580,814.226536,-9770.718434,0.000000
3328.282908,592.164754,-9696.697840,-229.828649
3328.283235,296.082377,-9178.553681,-536.266849
3328.283563,0.000000,-9548.656652,-229.828649
3328.283890,0.000000,-9770.718434,-459.657299
3328.284218,-222.061783,-9918.759623,-229.828649
3328.284545,0.000000,-9918.759623,-459.657299
3328.284873,0.000000,-10510.924376,-536.266849
3328.285200,222.061783,-10288.862594,-689.485948
3328.285528,222.061783,-9770.718434,76.609550
3328.285855,444.123565,-9770.718434,459.657299
3328.286183,444.123565,-9622.677246,229.828649
3328.286510,444.123565,-9400.615463,383.047749
3328.286838,148.041188,-9104.533087,-153.219100
3328.287166,-222.061783,-8734.430116,0.000000
3328.287493,0.000000,-9030.512492,153.219100
3328.287821,-222.061783,-8956.491898,536.266849
3328.288148,0.000000,-9030.512492,-536.266849
3328.288476,74.020594,-9696.697840,-383.047749
3328.288803,370.102971,-9548.656652,-229.828649
3328.289131,666.185348,-9770.718434,-229.828649
3328.289458,666.185348,-9400.615463,766.095498
3328.289786,148.041188,-9178.553681,536.266849
3328.290113,148.041188,-9178.553681,459.657299
3328.290441,296.082377,-9474.636058,0.000000
3328.290768,0.000000,-9474.636058,0.000000
3328.291096,74.020594,-9696.697840,-306.438199
3328.291423,74.020594,-9770.718434,-689.485948
3328.291751,222.061783,-9474.636058,-612.876398
3328.292078,518.144159,-10140.821405,-766.095498
3328.292406,888.247130,-9992.780217,-536.266849
3328.292733,1628.453072,-9918.759623,-459.657299
3328.293061,2294.638420,-9844.739029,0.000000
3328.293388,3404.947333,-9844.739029,0.000000
3328.293716,4219.173869,-9400.615463,76.609550
3328.294043,4737.318029,-9696.697840,0.000000
3328.294371,5107.421000,-9622.677246,76.609550
3328.294699,5107.421000,-9326.594869,-306.438199
3328.295026,6143.709319,-9622.677246,-383.047749
3328.295354,6883.915261,-9770.718434,-842.705048
3328.295681,7772.162391,-9992.780217,-842.705048
3328.296009,8364.327145,-11103.089130,0.000000
3328.296336,8438.347739,-10955.047942,383.047749
3328.296664,9104.533087,-9622.677246,536.266849
3328.296991,9252.574275,-8882.471304,842.705048
3328.297319,9770.718434,-8586.388927,459.657299
3328.297646,10436.903782,-8586.388927,536.266849
3328.297974,10881.027347,-8808.450710,612.876398
3328.298301,10955.047942,-9030.512492,766.095498
3328.298629,10807.006753,-9178.553681,306.438199
3328.298956,9548.656652,-9104.533087,-306.438199
3328.299284,10140.821405,-8586.388927,-383.047749
3328.299611,11769.274478,-9770.718434,-383.047749
3328.299939,12805.562797,-10584.944971,-153.219100
3328.300266,14063.912898,-10584.944971,459.657299
3328.300594,15026.180623,-9326.594869,766.095498
3328.300921,14730.098246,-8808.450710,536.266849
3328.301249,14063.912898,-9030.512492,2911.162892
3328.301577,13841.851115,-8808.450710,842.705048
3328.301904,13027.624579,-9030.512492,-153.219100
3328.302232,12435.459826,-10288.862594,-153.219100
3328.302559,12953.603985,-10140.821405,-306.438199
3328.302887,12065.356855,-9622.677246,536.266849
3328.303214,11843.295072,-10140.821405,1225.752797
3328.303542,11843.295072,-9326.594869,536.266849
3328.303869,11917.315666,-10214.842000,-689.485948
3328.304197,10881.027347,-10955.047942,76.609550
3328.304524,10732.986159,-10510.924376,0.000000
3328.304852,8956.491898,-8660.409521,153.219100
3328.305179,7772.162391,-8290.306550,76.609550
3328.305507,7846.182985,-8586.388927,-383.047749
3328.305834,9770.718434,-10214.842000,-1149.143247
3328.306162,9918.759623,-11103.089130,383.047749
3328.306489,10214.842000,-11917.315666,153.219100
3328.306817,9178.553681,-10807.006753,-306.438199
3328.307144,7772.162391,-9252.574275,153.219100
3328.307472,7698.141797,-8290.306550,383.047749
3328.307799,9474.636058,-8808.450710,459.657299
3328.308127,9770.718434,-10362.883188,1455.581446
3328.308455,10288.862594,-11399.171507,1532.190996
3328.308782,9548.656652,-9178.553681,919.314598
3328.309110,7920.203579,-7994.224174,153.219100
3328.309437,6217.729913,-9104.533087,459.657299
3328.309765,5995.668130,-9622.677246,-689.485948
3328.310092,7031.956449,-9252.574275,-2068.457845
3328.310420,9030.512492,-8808.450710,-1455.581446
3328.310747,10658.965565,-9178.553681,0.000000
3328.311075,9696.697840,-9030.512492,1838.629195
3328.311402,7328.038826,-7772.162391,3294.210641
3328.311730,7920.203579,-8438.347739,1838.629195
3328.312057,10881.027347,-10066.800811,-1532.190996
3328.312385,11399.171507,-9548.656652,-1915.238745
3328.312712,10436.903782,-8956.491898,-612.876398
3328.313040,9622.677246,-9326.594869,919.314598
3328.313367,8882.471304,-10584.944971,995.924147
3328.313695,7994.224174,-9844.739029,0.000000
3328.314022,7328.038826,-8216.285956,-1532.190996
3328.314350,9326.594869,-8808.450710,-2374.896044
3328.314677,11251.130318,-9252.574275,-1149.143247
3328.315005,10510.924376,-10510.924376,1762.019645
3328.315333,9400.615463,-10881.027347,2374.896044
3328.315660,9400.615463,-8438.347739,0.000000
3328.315988,10881.027347,-7328.038826,-2834.553343
3328.316315,10881.027347,-9400.615463,-2221.676944
3328.316643,12879.583391,-11769.274478,0.000000
3328.316970,14508.036463,-11177.109724,229.828649
3328.317298,13175.665768,-11843.295072,919.314598
3328.317625,9104.533087,-11991.336260,1149.143247
3328.317953,9178.553681,-10066.800811,-842.705048
3328.318280,8290.306550,-9474.636058,-1532.190996
3328.318608,7772.162391,-11177.109724,-1532.190996
3328.318935,7624.121203,-10140.821405,-536.266849
3328.319263,7105.977043,-8660.409521,2145.067394
3328.319590,6143.709319,-8142.265362,5439.278036
3328.319918,5403.503377,-7105.977043,2451.505594
3328.320245,296.082377,-7105.977043,1532.190996
3328.320573,-1332.370696,-8364.327145,-536.266849
3328.320900,1850.514855,-7105.977043,-4596.572988
3328.321228,2738.761985,-9030.512492,-3524.039291
3328.321555,4885.359217,-11103.089130,612.876398
3328.321883,7105.977043,-10214.842000,2145.067394
3328.322210,7402.059420,-11325.150913,2681.334243
3328.322538,7476.080014,-12583.501014,1302.362347
3328.322866,6069.688724,-12065.356855,383.047749
3328.323193,4811.338623,-11029.068536,-766.095498
3328.323521,2294.638420,-9548.656652,-612.876398
3328.323848,740.205942,-9252.574275,459.657299
3328.324176,-592.164754,-8364.327145,1149.143247
3328.324503,-2072.576638,-9548.656652,2145.067394
3328.324831,-3552.988522,-7476.080014,1608.800546
3328.325158,-2294.638420,-7624.121203,-995.924147
3328.325486,-2294.638420,-10955.047942,-1225.752797
3328.325813,-2664.741391,-9400.615463,-1762.019645
3328.326141,-5255.462188,-7772.162391,-766.095498
3328.326468,-5773.606348,-8956.491898,766.095498
3328.326796,-4071.132681,-9474.636058,-1149.143247
3328.327123,-2812.782580,-11621.233289,-2451.505594
3328.327451,-2368.659014,-11843.295072,-2298.286494
3328.327778,-2220.617826,-13027.624579,-1991.848295
3328.328106,-1332.370696,-10807.006753,-1608.800546
3328.328433,-814.226536,-10881.027347,-1149.143247
3328.328761,-2590.720797,-9548.656652,-229.828649
3328.329088,-2516.700203,-7402.059420,-612.876398
3328.329416,-1850.514855,-8142.265362,-919.314598
3328.329744,-1110.308913,-7550.100608,-1378.971896
3328.330071,148.041188,-8882.471304,0.000000
3328.330399,518.144159,-9030.512492,1838.629195
3328.330726,222.061783,-9326.594869,2145.067394
3328.331054,2368.659014,-10066.800811,229.828649
3328.331381,3404.947333,-10066.800811,-2451.505594
3328.331709,1554.432478,-11843.295072,-1991.848295
3328.332036,1628.453072,-10362.883188,-2145.067394
3328.332364,1110.308913,-10584.944971,-1915.238745
3328.332691,1998.556043,-11843.295072,-306.438199
3328.333019,3330.926739,-12213.398043,536.266849
3328.333346,1110.308913,-10214.842000,1532.190996
3328.333674,1110.308913,-8364.327145,842.705048
3328.334001,888.247130,-9622.677246,-766.095498
3328.334329,814.226536,-8438.347739,-1455.581446
3328.334656,814.226536,-7105.977043,-459.657299
3328.334984,962.267725,-7105.977043,1608.800546
3328.335311,1850.514855,-6587.832884,2451.505594
3328.335639,1998.556043,-10510.924376,1302.362347
3328.335966,3404.947333,-11621.233289,-995.924147
3328.336294,2960.823768,-11177.109724,-2757.943793
3328.336622,3256.906145,-11399.171507,-2068.457845
3328.336949,2368.659014,-11621.233289,76.609550
3328.337277,3701.029710,-12287.418637,689.485948
3328.337604,5847.626942,-9770.718434,153.219100
3328.337932,3627.009116,-11103.089130,2604.724693
3328.338259,370.102971,-11029.068536,4290.134789
3328.338587,592.164754,-8364.327145,842.705048
3328.338914,-2294.638420,-6513.812290,-689.485948
3328.339242,-3627.009116,-6735.874072,-1225.752797
3328.339569,-3330.926739,-7698.141797,-689.485948
3328.339897,-3478.967927,-7846.182985,766.095498
3328.340224,-814.226536,-8882.471304,-536.266849
3328.340552,1628.453072,-10140.821405,-1991.848295
3328.340879,1998.556043,-11991.336260,-1149.143247
3328.341209,2442.679609,-11917.315666,0.000000
3328.341537,2516.700203,-10362.883188,0.000000
3328.341864,296.082377,-9844.739029,689.485948
3328.342192,-888.247130,-9770.718434,1685.410096
3328.342520,-962.267725,-10584.944971,1149.143247
3328.342847,-592.164754,-9474.636058,76.609550
3328.343175,-1406.391290,-9770.718434,459.657299
3328.343503,-1332.370696,-8734.430116,-612.876398
3328.343830,-2294.638420,-7476.080014,-1455.581446
3328.344158,-2960.823768,-6809.894666,0.000000
3328.344486,-1628.453072,-5477.523971,-1072.533697
3328.344813,-2368.659014,-10214.842000,306.438199
3328.345141,-296.082377,-9918.759623,-153.219100
3328.345469,1998.556043,-9474.636058,-1991.848295
3328.345796,-296.082377,-12287.418637,-612.876398
3328.346124,-1554.432478,-12953.603985,76.609550
3328.346451,-962.267725,-11991.336260,-1532.190996
3328.346779,-740.205942,-10732.986159,-3064.381992
3328.347107,-962.267725,-10066.800811,-2604.724693
3328.347434,-1702.473667,-9252.574275,0.000000
3328.347762,-1998.556043,-7402.059420,-306.438199
3328.348090,-666.185348,-8660.409521,536.266849
3328.348417,370.102971,-8216.285956,919.314598
3328.348745,-148.041188,-8364.327145,1608.800546
3328.349073,0.000000,-7994.224174,2068.457845
3328.349400,2294.638420,-8956.491898,-306.438199
3328.349728,2442.679609,-9770.718434,-842.705048
3328.350056,2812.782580,-10881.027347,-383.047749
3328.350383,1184.329507,-10066.800811,229.828649
3328.350711,1184.329507,-9622.677246,-689.485948
3328.351039,1184.329507,-11991.336260,-842.705048
3328.351366,444.123565,-11769.274478,-1302.362347
3328.351694,-148.041188,-11177.109724,-1991.848295
3328.352022,370.102971,-9770.718434,-1532.190996
3328.352349,962.267725,-8586.388927,-229.828649
3328.352677,1258.350101,-9104.533087,1378.971896
3328.353004,1998.556043,-7698.141797,2374.896044
3328.353332,3404.947333,-7402.059420,1991.848295
3328.353660,3552.988522,-7031.956449,689.485948
3328.353987,1554.432478,-7254.018232,612.876398
3328.354315,518.144159,-8216.285956,1302.362347
3328.354643,2664.741391,-9622.677246,76.609550
3328.354970,962.267725,-11473.192101,-383.047749
3328.355298,148.041188,-12657.521608,-919.314598
3328.355626,666.185348,-13693.809927,-1915.238745
3328.355953,1480.411884,-11547.212695,-2374.896044
3328.356281,1406.391290,-10140.821405,-919.314598
3328.356609,296.082377,-9548.656652,459.657299
3328.356936,666.185348,-9474.636058,919.314598
3328.357264,444.123565,-8586.388927,1685.410096
3328.357592,-222.061783,-7624.121203,1225.752797
3328.357919,-1702.473667,-8068.244768,383.047749
3328.358247,-2516.700203,-8142.265362,229.828649
3328.358575,-1924.535449,-7994.224174,-1915.238745
3328.358902,-1258.350101,-9548.656652,-2068.457845
3328.359230,-740.205942,-11325.150913,-689.485948
3328.359557,-592.164754,-10510.924376,0.000000
3328.359885,666.185348,-10288.862594,-995.924147
3328.360213,0.000000,-11621.233289,-689.485948
3328.360540,296.082377,-10436.903782,0.000000
3328.360868,-222.061783,-8586.388927,1072.533697
3328.361196,-1554.432478,-9104.533087,76.609550
3328.361523,-2812.782580,-8882.471304,229.828649
3328.361851,-2146.597232,-8956.491898,229.828649
3328.362179,-740.205942,-8660.409521,459.657299
3328.362506,-148.041188,-8882.471304,0.000000
3328.362834,-222.061783,-8438.347739,153.219100
3328.363162,-370.102971,-8956.491898,0.000000
3328.363489,-296.082377,-9326.594869,0.000000
3328.363817,444.123565,-7772.162391,-1149.143247
3328.364145,148.041188,-11325.150913,153.219100
3328.364472,-740.205942,-12139.377449,1838.629195
3328.364800,740.205942,-10807.006753,-919.314598
3328.365128,222.061783,-10732.986159,-2528.115143
3328.365455,296.082377,-11399.171507,-1915.238745
3328.365783,-518.144159,-10807.006753,-1532.190996
3328.366110,-1184.329507,-9326.594869,-536.266849
3328.366438,-1480.411884,-7105.977043,-842.705048
3328.366766,-1184.329507,-7476.080014,-995.924147
3328.367093,-296.082377,-9178.553681,-612.876398
3328.367421,888.247130,-9030.512492,536.266849
3328.367749,2886.803174,-8808.450710,1838.629195
3328.368076,3404.947333,-9918.759623,1225.752797
3328.368404,2220.617826,-11029.068536,1072.533697
3328.368732,2516.700203,-11325.150913,0.000000
3328.369059,1924.535449,-10214.842000,-1302.362347
3328.369387,1036.288319,-11177.109724,-1378.971896
3328.369715,-370.102971,-11029.068536,0.000000
3328.370042,-814.226536,-9326.594869,-689.485948
3328.370370,-444.123565,-9400.615463,76.609550
3328.370698,0.000000,-10658.965565,229.828649
3328.371025,444.123565,-10510.924376,0.000000
3328.371353,962.267725,-8660.409521,-536.266849
3328.371681,1406.391290,-8142.265362,-842.705048
3328.372008,1332.370696,-9252.574275,229.828649
3328.372336,962.267725,-8364.327145,1608.800546
3328.372663,1406.391290,-8364.327145,2145.067394
3328.372991,2368.659014,-8808.450710,612.876398
3328.373319,2442.679609,-10732.986159,-919.314598
3328.373646,518.144159,-11325.150913,0.000000
3328.373974,222.061783,-11029.068536,229.828649
3328.374302,74.020594,-10288.862594,-689.485948
3328.374629,296.082377,-9326.594869,-612.876398
3328.374957,0.000000,-9104.533087,-766.095498
3328.375285,-222.061783,-8438.347739,842.705048
3328.375612,148.041188,-8438.347739,766.095498
3328.375940,148.041188,-8216.285956,536.266849
3328.376268,1184.329507,-7402.059420,-459.657299
3328.376595,-222.061783,-9104.533087,612.876398
3328.376923,-2294.638420,-10436.903782,1838.629195
3328.377251,-1850.514855,-10732.986159,-1149.143247
3328.377578,-1258.350101,-10362.883188,-2987.772442
3328.377906,0.000000,-10214.842000,-3600.648841
3328.378234,592.164754,-11325.150913,-919.314598
3328.378561,-1110.308913,-11769.274478,2451.505594
3328.378889,-1850.514855,-10140.821405,1608.800546
3328.379216,-1184.329507,-8142.265362,-383.047749
3328.379544,-2146.597232,-8438.347739,-1915.238745
3328.379872,-1850.514855,-9326.594869,-459.657299
3328.380199,-1184.329507,-8956.491898,76.609550
3328.380527,74.020594,-8660.409521,306.438199
3328.380855,1184.329507,-9696.697840,-153.219100
3328.381182,1776.494261,-11473.192101,459.657299
3328.381510,1924.535449,-11399.171507,1225.752797
3328.381838,1554.432478,-9844.739029,612.876398
3328.382165,740.205942,-10288.862594,-995.924147
3328.382493,666.185348,-9844.739029,-1378.971896
3328.382821,0.000000,-9104.533087,0.000000
3328.383148,222.061783,-7402.059420,1532.190996
3328.383476,-148.041188,-8364.327145,1532.190996
3328.383804,518.144159,-10658.965565,842.705048
3328.384131,1850.514855,-10584.944971,-1378.971896
3328.384459,1628.453072,-10510.924376,-1685.410096
3328.384786,0.000000,-8364.327145,-995.924147
3328.385114,-1036.288319,-10436.903782,0.000000
3328.385442,-296.082377,-10362.883188,306.438199
3328.385769,888.247130,-7920.203579,-919.314598
3328.386097,518.144159,-8290.306550,0.000000
3328.386425,0.000000,-10140.821405,0.000000
3328.386752,666.185348,-9992.780217,-306.438199
3328.387080,3034.844362,-9178.553681,-1149.143247
3328.387408,2146.597232,-10807.006753,612.876398
3328.387735,1480.411884,-10214.842000,1838.629195
3328.388063,1776.494261,-8882.471304,689.485948
3328.388391,888.247130,-10658.965565,-306.438199
3328.388718,1184.329507,-9770.718434,-1532.190996
3328.389046,592.164754,-8808.450710,-1608.800546
3328.389374,0.000000,-9400.615463,383.047749
3328.389701,0.000000,-10436.903782,306.438199
3328.390029,888.247130,-9474.636058,-842.705048
3328.390357,814.226536,-7920.203579,-1378.971896
3328.390684,962.267725,-10584.944971,-459.657299
3328.391012,888.247130,-9252.574275,-995.924147
3328.391339,0.000000,-9992.780217,229.828649
3328.391667,0.000000,-9918.759623,536.266849
3328.391995,1406.391290,-9992.780217,-995.924147
3328.392322,0.000000,-11325.150913,-842.705048
3328.392650,-740.205942,-10436.903782,0.000000
3328.392978,148.041188,-8882.471304,-229.828649
3328.393305,296.082377,-8216.285956,-1455.581446
3328.393633,-888.247130,-9918.759623,0.000000
3328.393961,-370.102971,-8882.471304,689.485948
3328.394288,-222.061783,-8068.244768,306.438199
3328.394616,148.041188,-9696.697840,0.000000
3328.394944,296.082377,-9474.636058,-919.314598
3328.395271,-814.226536,-10288.862594,-536.266849
3328.395599,-592.164754,-9178.553681,842.705048
3328.395927,-592.164754,-9326.594869,459.657299
3328.396254,222.061783,-9992.780217,-612.876398
3328.396582,-296.082377,-11029.068536,-612.876398
3328.396910,222.061783,-10955.047942,-153.219100
3328.397237,2368.659014,-8660.409521,-1838.629195
3328.397565,1702.473667,-9474.636058,-153.219100
3328.397892,74.020594,-10436.903782,2987.772442
3328.398220,222.061783,-7624.121203,2068.457845
3328.398548,-1332.370696,-7772.162391,-459.657299
3328.398875,-2664.741391,-9622.677246,-1915.238745
3328.399203,-2072.576638,-8956.491898,-3140.991542
3328.399531,-740.205942,-7994.224174,-2068.457845
3328.399858,0.000000,-10140.821405,-612.876398
3328.400186,962.267725,-10584.944971,306.438199
3328.400514,1406.391290,-10140.821405,459.657299
3328.400841,2220.617826,-10881.027347,1072.533697
3328.401169,2442.679609,-11843.295072,0.000000
3328.401497,740.205942,-11769.274478,0.000000
3328.401824,-666.185348,-9104.533087,-383.047749
3328.402152,0.000000,-8290.306550,-995.924147
3328.402480,1110.308913,-7105.977043,-1378.971896
3328.402807,0.000000,-8068.244768,612.876398
3328.403135,-1776.494261,-9770.718434,1991.848295
3328.403463,518.144159,-9030.512492,-1838.629195
3328.403790,2812.782580,-10807.006753,-2987.772442
3328.404118,4293.194464,-12657.521608,-1302.362347
3328.404445,3701.029710,-12879.583391,1302.362347
3328.404773,3404.947333,-11621.233289,2145.067394
3328.405101,3404.947333,-9252.574275,-612.876398
3328.405428,1850.514855,-10362.883188,-1838.629195
3328.405756,0.000000,-9992.780217,-689.485948
3328.406084,-962.267725,-7550.100608,153.219100
3328.406411,-296.082377,-6513.812290,0.000000
3328.406739,-888.247130,-8956.491898,842.705048
3328.407067,-2368.659014,-10066.800811,1149.143247
3328.407394,-740.205942,-7994.224174,-229.828649
3328.407722,518.144159,-8956.491898,-1608.800546
3328.408050,74.020594,-9918.759623,-1072.533697
3328.408377,74.020594,-10066.800811,229.828649
3328.408705,1036.288319,-8438.347739,1149.143247
3328.409033,1184.329507,-9326.594869,1302.362347
3328.409360,666.185348,-10510.924376,919.314598
3328.409688,-888.247130,-9918.759623,0.000000
3328.410016,-2072.576638,-9696.697840,-995.924147
3328.410343,-2442.679609,-8290.306550,-2451.505594
3328.410671,-1776.494261,-10066.800811,-2221.676944
3328.410998,-1258.350101,-11251.130318,0.000000
3328.411326,0.000000,-9548.656652,612.876398
3328.411654,814.226536,-7920.203579,383.047749
3328.411981,1258.350101,-9770.718434,459.657299
3328.412309,444.123565,-9992.780217,689.485948
3328.412637,1036.288319,-8142.265362,0.000000
3328.412964,0.000000,-8660.409521,0.000000
3328.413292,74.020594,-11177.109724,995.924147
3328.413620,666.185348,-10288.862594,0.000000
3328.413947,444.123565,-10732.986159,-1608.800546
3328.414275,-222.061783,-11325.150913,-1378.971896
3328.414603,666.185348,-10658.965565,-2987.772442
3328.414930,666.185348,-10288.862594,-2221.676944
3328.415258,-1036.288319,-10732.986159,536.266849
3328.415586,-1110.308913,-10362.883188,766.095498
3328.415913,-888.247130,-9400.615463,-689.485948
3328.416241,-592.164754,-8142.265362,-766.095498
3328.416569,1258.350101,-8438.347739,-1149.143247
3328.416896,1184.329507,-10807.006753,612.876398
3328.417224,1184.329507,-10881.027347,3600.648841
3328.417551,1850.514855,-9104.533087,1072.533697
3328.417879,962.267725,-8882.471304,-995.924147
3328.418207,-1036.288319,-8586.388927,-995.924147
3328.418534,-1628.453072,-9770.718434,0.000000
3328.418862,-1850.514855,-9030.512492,-1072.533697
3328.419190,-1110.308913,-8660.409521,-1378.971896
3328.419517,148.041188,-9030.512492,0.000000
3328.419845,2294.638420,-10066.800811,1149.143247
3328.420173,3034.844362,-10140.821405,1991.848295
3328.420500,2812.782580,-9844.739029,1149.143247
3328.420828,1850.514855,-9252.574275,0.000000
3328.421156,1480.411884,-9400.615463,-612.876398
3328.421483,1406.391290,-8882.471304,-612.876398
3328.421811,2072.576638,-7698.141797,383.047749
3328.422139,740.205942,-9770.718434,1455.581446
3328.422466,444.123565,-10584.944971,766.095498
3328.422794,2368.659014,-11399.171507,-2145.067394
3328.423122,1924.535449,-11251.130318,-2681.334243
3328.423449,1998.556043,-11251.130318,-689.485948
3328.423777,1332.370696,-11695.253884,536.266849
3328.424104,2294.638420,-10732.986159,-306.438199
3328.424432,2368.659014,-9326.594869,-1149.143247
3328.424760,148.041188,-9104.533087,-229.828649
3328.425087,-1924.535449,-9474.636058,995.924147
3328.425415,-3478.967927,-10066.800811,536.266849
3328.425743,-2146.597232,-8956.491898,-2145.067394
3328.426070,-2664.741391,-9474.636058,-2681.334243
3328.426398,-2812.782580,-11325.150913,-229.828649
3328.426726,-1554.432478,-9474.636058,-689.485948
3328.427053,-296.082377,-9474.636058,-1762.019645
3328.427381,888.247130,-10881.027347,-919.314598
3328.427709,666.185348,-9844.739029,0.000000
3328.428036,666.185348,-8364.327145,2451.505594
3328.428364,-666.185348,-8438.347739,2451.505594
3328.428692,-740.205942,-9474.636058,1455.581446
3328.429019,-592.164754,-8882.471304,0.000000
3328.429347,-1480.411884,-9844.739029,-536.266849
3328.429674,-2072.576638,-9474.636058,-459.657299
3328.430002,-1480.411884,-8660.409521,-1762.019645
3328.430330,-1554.432478,-8586.388927,-1149.143247
3328.430657,148.041188,-10510.924376,-612.876398
3328.430985,962.267725,-9770.718434,0.000000
3328.431313,444.123565,-8438.347739,1072.533697
3328.431640,-1036.288319,-8956.491898,1685.410096
3328.431968,-666.185348,-8216.285956,229.828649
3328.432296,-666.185348,-8882.471304,-536.266849
3328.432623,444.123565,-11251.130318,-919.314598
3328.432951,74.020594,-10584.944971,-919.314598
3328.433279,666.185348,-9622.677246,-995.924147
3328.433606,1332.370696,-10066.800811,-1072.533697
3328.433934,2220.617826,-11695.253884,-1532.190996
3328.434262,370.102971,-10066.800811,0.000000
3328.434589,-592.164754,-10436.903782,306.438199
3328.434917,-148.041188,-10955.047942,-536.266849
3328.435245,592.164754,-10436.903782,-2221.676944
3328.435572,1036.288319,-9548.656652,-1685.410096
3328.435900,1850.514855,-9400.615463,-459.657299
3328.436227,1924.535449,-11177.109724,995.924147
3328.436555,3256.906145,-11103.089130,1685.410096
3328.436883,3923.091493,-8882.471304,-612.876398
3328.437210,1702.473667,-9030.512492,-612.876398
3328.437538,-370.102971,-9474.636058,-383.047749
3328.437866,-1184.329507,-8734.430116,0.000000
3328.438193,-370.102971,-8438.347739,-842.705048
3328.438521,-962.267725,-8882.471304,-612.876398
3328.438849,148.041188,-9400.615463,612.876398
3328.439176,1554.432478,-9696.697840,1149.143247
3328.439504,3330.926739,-10288.862594,766.095498
3328.439832,3034.844362,-9474.636058,229.828649
3328.440159,1776.494261,-9030.512492,766.095498
3328.440487,962.267725,-8364.327145,1302.362347
3328.440815,1776.494261,-8216.285956,842.705048
3328.441142,1332.370696,-7624.121203,1455.581446
3328.441470,0.000000,-9992.780217,1762.019645
3328.441798,-370.102971,-10066.800811,919.314598
3328.442125,888.247130,-11399.171507,-1225.752797
3328.442453,814.226536,-10955.047942,-1149.143247
3328.442781,888.247130,-9622.677246,-919.314598
3328.443108,1110.308913,-9844.739029,-919.314598
3328.443436,1258.350101,-10510.924376,0.000000
3328.443764,1258.350101,-10362.883188,0.000000
3328.444091,-1036.288319,-9474.636058,229.828649
3328.444419,-2442.679609,-9326.594869,-612.876398
3328.444747,-2368.659014,-10140.821405,-1378.971896
3328.445074,-1702.473667,-10510.924376,-1455.581446
3328.445402,-2220.617826,-10807.006753,-1302.362347
3328.445730,-1184.329507,-10955.047942,-1455.581446
3328.446057,-148.041188,-9844.739029,-1915.238745
3328.446385,-666.185348,-10288.862594,-459.657299
3328.446713,-222.061783,-10066.800811,383.047749
3328.447040,-888.247130,-8956.491898,229.828649
3328.447368,-1110.308913,-9178.553681,306.438199
3328.447696,-888.247130,-9252.574275,-612.876398
3328.448023,-1184.329507,-9770.718434,0.000000
3328.448351,-666.185348,-9178.553681,536.266849
3328.448679,-518.144159,-9030.512492,-153.219100
3328.449006,0.000000,-9992.780217,-842.705048
3328.449334,-814.226536,-8734.430116,-766.095498
3328.449662,296.082377,-9104.533087,-459.657299
3328.449989,222.061783,-9252.574275,153.219100
3328.450317,-296.082377,-8734.430116,306.438199
3328.450645,-518.144159,-9178.553681,842.705048
3328.450972,-444.123565,-8734.430116,76.609550
3328.451300,-1036.288319,-9326.594869,0.000000
3328.451628,-370.102971,-10140.821405,-536.266849
3328.451955,666.185348,-10288.862594,-536.266849
3328.452283,2294.638420,-9918.759623,-766.095498
3328.452611,2442.679609,-9770.718434,-306.438199
3328.452938,2220.617826,-9918.759623,919.314598
3328.453266,1850.514855,-9770.718434,995.924147
3328.453594,1702.473667,-9252.574275,229.828649
3328.453922,74.020594,-9252.574275,229.828649
3328.454249,-962.267725,-11029.068536,-153.219100
3328.454577,-296.082377,-10214.842000,-1762.019645
3328.454905,1258.350101,-9474.636058,-2757.943793
3328.455232,2590.720797,-10214.842000,-2757.943793
3328.455560,1702.473667,-11177.109724,689.485948
3328.455888,2738.761985,-10732.986159,1915.238745
3328.456215,3330.926739,-9992.780217,0.000000
3328.456543,2442.679609,-10214.842000,-383.047749
3328.456871,1036.288319,-8808.450710,0.000000
3328.457198,148.041188,-9548.656652,842.705048
3328.457526,-1110.308913,-8956.491898,1302.362347
3328.457854,-1036.288319,-8512.368333,153.219100
3328.458181,-814.226536,-8438.347739,-689.485948
3328.458509,1628.453072,-10214.842000,-1072.533697
3328.458837,2072.576638,-11399.171507,229.828649
3328.459164,2220.617826,-9548.656652,229.828649
3328.459492,592.164754,-8808.450710,536.266849
3328.459820,1406.391290,-9178.553681,0.000000
3328.460147,1258.350101,-7846.182985,0.000000
3328.460475,1258.350101,-7476.080014,2068.457845
3328.460803,296.082377,-9326.594869,2145.067394
3328.461130,-518.144159,-10881.027347,229.828649
3328.461458,518.144159,-10510.924376,-1455.581446
3328.461786,962.267725,-10214.842000,-1762.019645
3328.462113,444.123565,-9622.677246,-1072.533697
3328.462441,-740.205942,-8364.327145,229.828649
3328.462769,-222.061783,-9252.574275,-459.657299
3328.463096,444.123565,-9770.718434,-919.314598
3328.463424,0.000000,-9844.739029,0.000000
3328.463752,-1924.535449,-9622.677246,612.876398
3328.464079,-2220.617826,-8956.491898,0.000000
3328.464407,-962.267725,-10288.862594,-1378.971896
3328.464735,-666.185348,-11621.233289,-1072.533697
3328.465062,-814.226536,-11251.130318,-612.876398
3328.465390,-592.164754,-9104.533087,-1149.143247
3328.465718,-1480.411884,-10066.800811,-1378.971896
3328.466046,-740.205942,-11843.295072,-1149.143247
3328.466373,-888.247130,-9992.780217,-383.047749
3328.466701,-1110.308913,-8364.327145,229.828649
3328.467029,-1332.370696,-8586.388927,-689.485948
3328.467356,-370.102971,-10140.821405,-995.924147
3328.467684,148.041188,-10066.800811,0.000000
3328.468012,1110.308913,-10436.903782,383.047749
3328.468339,1110.308913,-10066.800811,919.314598
3328.468667,0.000000,-8734.430116,459.657299
3328.468995,-740.205942,-8586.388927,-612.876398
3328.469322,148.041188,-9622.677246,-459.657299
3328.469650,-740.205942,-9844.739029,0.000000
3328.469978,-1036.288319,-9326.594869,1532.190996
3328.470305,-740.205942,-8882.471304,0.000000
3328.470633,296.082377,-10066.800811,-229.828649
3328.470961,1258.350101,-9844.739029,-229.828649
3328.471288,1628.453072,-10066.800811,766.095498
3328.471616,1554.432478,-8956.491898,612.876398
3328.471944,1850.514855,-8660.409521,-612.876398
3328.472271,1850.514855,-9252.574275,0.000000
3328.472599,1628.453072,-8734.430116,842.705048
3328.472927,740.205942,-7772.162391,1455.581446
3328.473254,74.020594,-9992.780217,842.705048
3328.473582,0.000000,-12065.356855,-766.095498
3328.473910,1110.308913,-10436.903782,-2145.067394
3328.474237,1850.514855,-9474.636058,-2987.772442
3328.474565,2368.659014,-10584.944971,-1072.533697
3328.474893,1554.432478,-11103.089130,1225.752797
3328.475220,2146.597232,-10436.903782,1685.410096
3328.475548,3256.906145,-9844.739029,76.609550
3328.475876,2960.823768,-10807.006753,153.219100
3328.476203,888.247130,-9326.594869,536.266849
3328.476531,-592.164754,-8290.306550,229.828649
3328.476859,-444.123565,-9104.533087,0.000000
3328.477187,-370.102971,-9474.636058,-1302.362347
3328.477514,-740.205942,-9104.533087,-612.876398
3328.477842,740.205942,-9104.533087,-919.314598
3328.478170,1406.391290,-10732.986159,-1838.629195
3328.478497,1702.473667,-11251.130318,383.047749
3328.478825,1554.432478,-9474.636058,0.000000
3328.479153,962.267725,-9918.759623,229.828649
3328.479480,444.123565,-9474.636058,842.705048
3328.479808,296.082377,-8660.409521,1072.533697
3328.480136,0.000000,-8660.409521,1072.533697
3328.480463,-1036.288319,-9474.636058,153.219100
3328.480791,296.082377,-9030.512492,-1762.019645
3328.481119,-296.082377,-9770.718434,-766.095498
3328.481446,-296.082377,-10288.862594,0.000000
3328.481774,-148.041188,-9326.594869,-612.876398
3328.482102,222.061783,-9770.718434,-612.876398
3328.482429,74.020594,-9992.780217,0.000000
3328.482757,-148.041188,-9400.615463,0.000000
3328.483085,-740.205942,-8808.450710,306.438199
3328.483412,-666.185348,-10066.800811,0.000000
3328.483740,-740.205942,-9696.697840,229.828649
3328.484068,-1036.288319,-9326.594869,0.000000
3328.484395,-1258.350101,-9400.615463,-689.485948
3328.484723,-962.267725,-9030.512492,-1225.752797
3328.485051,-1776.494261,-9400.615463,-1072.533697
3328.485378,-1776.494261,-10732.986159,-919.314598
3328.485706,-1628.453072,-9992.780217,-842.705048
3328.486034,-518.144159,-8734.430116,-612.876398
3328.486361,370.102971,-10066.800811,-459.657299
3328.486689,444.123565,-10658.965565,689.485948
3328.487017,666.185348,-9252.574275,842.705048
3328.487344,888.247130,-9844.739029,0.000000
3328.487672,518.144159,-10732.986159,-306.438199
3328.488000,-888.247130,-9474.636058,-995.924147
3328.488328,-222.061783,-9474.636058,-766.095498
3328.488655,-444.123565,-9326.594869,-919.314598
3328.488983,-444.123565,-9918.759623,-1455.581446
3328.489311,0.000000,-10510.924376,-383.047749
3328.489638,1110.308913,-9844.739029,0.000000
3328.489966,1628.453072,-9696.697840,0.000000
3328.490294,814.226536,-9548.656652,76.609550
3328.490621,148.041188,-9844.739029,919.314598
3328.490949,888.247130,-8586.388927,0.000000
3328.491277,1332.370696,-8808.450710,-306.438199
3328.491604,1184.329507,-10066.800811,1149.143247
3328.491932,2294.638420,-9326.594869,536.266849
3328.492260,1702.473667,-8586.388927,536.266849
3328.492587,814.226536,-9992.780217,306.438199
3328.492915,370.102971,-10881.027347,-536.266849
3328.493243,0.000000,-9178.553681,-1378.971896
3328.493570,666.185348,-9252.574275,-1838.629195
3328.493898,1998.556043,-9326.594869,-536.266849
3328.494226,2664.741391,-10214.842000,995.924147
3328.494553,2072.576638,-11029.068536,3370.820191
3328.494881,2146.597232,-9252.574275,1838.629195
3328.495209,814.226536,-8364.327145,-689.485948
3328.495536,0.000000,-9178.553681,-995.924147
3328.495864,222.061783,-8882.471304,-1455.581446
3328.496192,518.144159,-8364.327145,-1149.143247
3328.496519,-370.102971,-8808.450710,842.705048
3328.496847,-296.082377,-9770.718434,919.314598
3328.497175,1036.288319,-10510.924376,0.000000
3328.497502,888.247130,-11547.212695,-1302.362347
3328.497830,444.123565,-11103.089130,-842.705048
3328.498158,-592.164754,-9252.574275,-995.924147
3328.498485,518.144159,-9104.533087,-995.924147
3328.498813,2146.597232,-9400.615463,459.657299
3328.499141,1850.514855,-7994.224174,2298.286494
3328.499468,0.000000,-8586.388927,2757.943793
3328.499796,-2516.700203,-10881.027347,1532.190996
3328.500124,-1702.473667,-10362.883188,-2374.896044
3328.500452,-370.102971,-10140.821405,-4366.744339
3328.500779,-222.061783,-11029.068536,-1991.848295
3328.501107,-592.164754,-9992.780217,612.876398
3328.501435,0.000000,-10214.842000,153.219100
3328.501762,666.185348,-9844.739029,0.000000
3328.502090,222.061783,-10362.883188,-229.828649
3328.502418,-370.102971,-9326.594869,0.000000
3328.502745,-1258.350101,-8364.327145,229.828649
3328.503073,-2072.576638,-8734.430116,306.438199
3328.503401,-814.226536,-9622.677246,-459.657299
3328.503728,-1184.329507,-10510.924376,0.000000
3328.504056,-296.082377,-9696.697840,-229.828649
3328.504384,-370.102971,-8882.471304,-1915.238745
3328.504711,-370.102971,-11399.171507,-1072.533697
3328.505039,1110.308913,-10658.965565,-1302.362347
3328.505367,1110.308913,-8660.409521,-306.438199
3328.505694,1258.350101,-8808.450710,1378.971896
3328.506022,888.247130,-8586.388927,1915.238745
3328.506350,592.164754,-8586.388927,2604.724693
3328.506677,888.247130,-9548.656652,689.485948
3328.507005,0.000000,-9992.780217,-1149.143247
3328.507333,-370.102971,-8882.471304,-1532.190996
3328.507660,0.000000,-9178.553681,-2068.457845
3328.507988,740.205942,-10436.903782,-1455.581446
3328.508316,1332.370696,-10066.800811,612.876398
3328.508643,962.267725,-9252.574275,0.000000
3328.508971,888.247130,-9918.759623,0.000000
3328.509299,1110.308913,-10955.047942,-153.219100
3328.509626,148.041188,-9770.718434,0.000000
3328.509954,0.000000,-9770.718434,76.609550
3328.510282,518.144159,-8734.430116,-153.219100
3328.510609,1110.308913,-8956.491898,-1302.362347
3328.510937,1332.370696,-10214.842000,0.000000
3328.511265,3775.050304,-10732.986159,-689.485948
3328.511593,2516.700203,-11029.068536,766.095498
3328.511920,444.123565,-10584.944971,1302.362347
3328.512248,-962.267725,-9400.615463,-536.266849
3328.512576,-1554.432478,-9622.677246,-1532.190996
3328.512903,-592.164754,-9178.553681,-1991.848295
3328.513231,740.205942,-9622.677246,-1378.971896
3328.513559,1258.350101,-10066.800811,612.876398
3328.513886,1998.556043,-11399.171507,1838.629195
3328.514214,2886.803174,-9622.677246,536.266849
3328.514542,2368.659014,-9326.594869,0.000000
3328.514869,222.061783,-9030.512492,0.000000
3328.515197,-592.164754,-7994.224174,-689.485948
3328.515525,74.020594,-7550.100608,-1072.533697
3328.515852,296.082377,-8216.285956,306.438199
3328.516180,-148.041188,-10288.862594,2298.286494
3328.516508,888.247130,-10584.944971,2298.286494
3328.516835,296.082377,-11029.068536,689.485948
3328.517163,0.000000,-10214.842000,-2068.457845
3328.517491,-592.164754,-7698.141797,-2528.115143
3328.517818,-592.164754,-8290.306550,-1991.848295
3328.518146,222.061783,-7920.203579,536.266849
3328.518474,1406.391290,-7550.100608,2298.286494
3328.518801,222.061783,-8660.409521,2834.553343
3328.519129,-740.205942,-11843.295072,1302.362347
3328.519457,-1184.329507,-11917.315666,-1608.800546
3328.519784,592.164754,-11547.212695,-3753.867940
3328.520112,740.205942,-10436.903782,-3447.429741
3328.520440,1776.494261,-10584.944971,-1378.971896
3328.520767,1406.391290,-10066.800811,536.266849
3328.521095,1258.350101,-9844.739029,2145.067394
3328.521423,444.123565,-8882.471304,1302.362347
3328.521750,-518.144159,-9770.718434,0.000000
3328.522078,-2294.638420,-9622.677246,-1072.533697
3328.522406,-1702.473667,-9252.574275,-1532.190996
3328.522734,-1702.473667,-9548.656652,-1532.190996
3328.523061,-1554.432478,-11399.171507,-995.924147
3328.523389,814.226536,-11029.068536,-995.924147
3328.523717,1924.535449,-8956.491898,-1532.190996
3328.524044,1036.288319,-11029.068536,0.000000
3328.524372,296.082377,-9548.656652,459.657299
3328.524700,-962.267725,-7624.121203,612.876398
3328.525027,0.000000,-6957.935855,153.219100
3328.525355,518.144159,-8364.327145,766.095498
3328.525683,74.020594,-9770.718434,1838.629195
3328.526010,0.000000,-9844.739029,766.095498
3328.526338,444.123565,-10140.821405,-1149.143247
3328.526666,1036.288319,-9622.677246,-2145.067394
3328.526993,518.144159,-9992.780217,-995.924147
3328.527321,962.267725,-9770.718434,1149.143247
3328.527649,1110.308913,-8734.430116,1532.190996
3328.527976,1036.288319,-8882.471304,995.924147
3328.528304,1184.329507,-9770.718434,689.485948
3328.528632,222.061783,-9918.759623,0.000000
3328.528959,-666.185348,-8660.409521,-383.047749
3328.529287,-1258.350101,-9400.615463,-306.438199
3328.529615,296.082377,-9770.718434,-1302.362347
3328.529942,1850.514855,-9548.656652,-2451.505594
3328.530270,2072.576638,-10732.986159,-1225.752797
3328.530598,2590.720797,-11029.068536,689.485948
3328.530925,1480.411884,-9474.636058,1608.800546
3328.531253,0.000000,-9326.594869,1302.362347
3328.531581,-2146.597232,-10658.965565,-536.266849
3328.531908,-2146.597232,-10066.800811,-2451.505594
3328.532236,-1036.288319,-9400.615463,-2757.943793
3328.532564,740.205942,-9770.718434,-2221.676944
3328.532891,2368.659014,-10732.986159,153.219100
3328.533219,1998.556043,-11769.274478,1762.019645
3328.533547,2442.679609,-10066.800811,1072.533697
3328.533874,888.247130,-8882.471304,-766.095498
3328.534202,-740.205942,-9252.574275,-995.924147
3328.534530,-1406.391290,-8512.368333,-229.828649
3328.534858,-444.123565,-7624.121203,0.000000
3328.535185,222.061783,-8290.306550,383.047749
3328.535513,0.000000,-10584.944971,2221.676944
3328.535841,1628.453072,-9474.636058,1762.019645
3328.536168,2146.597232,-11325.150913,-536.266849
3328.536496,370.102971,-10807.006753,-919.314598
3328.536824,-1110.308913,-7105.977043,-2374.896044
3328.537151,-1998.556043,-7105.977043,-1302.362347
3328.537479,-148.041188,-8956.491898,536.266849
3328.537807,2368.659014,-7624.121203,1455.581446
3328.538134,1036.288319,-9030.512492,2987.772442
3328.538462,-1702.473667,-11547.212695,2604.724693
3328.538790,-1036.288319,-11917.315666,-1762.019645
3328.539117,1702.473667,-10732.986159,-4366.744339
3328.539445,1406.391290,-10288.862594,-2374.896044
3328.539773,148.041188,-9918.759623,842.705048
3328.540100,666.185348,-8808.450710,459.657299
3328.540428,1184.329507,-8512.368333,536.266849
3328.540756,888.247130,-9474.636058,0.000000
3328.541083,-370.102971,-11103.089130,-229.828649
3328.541411,-1924.535449,-11029.068536,0.000000
3328.541739,-1036.288319,-10066.800811,-1838.629195
3328.542066,962.267725,-9474.636058,-2987.772442
3328.542394,444.123565,-12435.459826,-919.314598
3328.542721,1480.411884,-12361.439231,1072.533697
3328.543049,1110.308913,-8512.368333,229.828649
3328.543377,74.020594,-9474.636058,-842.705048
3328.543704,-370.102971,-10658.965565,-919.314598
3328.544032,-1110.308913,-9400.615463,0.000000
3328.544359,-592.164754,-7328.038826,0.000000
3328.544687,148.041188,-8660.409521,-459.657299
3328.545015,0.000000,-9474.636058,-153.219100
3328.545342,1998.556043,-10288.862594,-612.876398
3328.545670,1924.535449,-10362.883188,-306.438199
3328.545998,2146.597232,-9844.739029,306.438199
3328.546325,1332.370696,-8734.430116,229.828649
3328.546653,740.205942,-9770.718434,1302.362347
3328.546980,518.144159,-8068.244768,306.438199
3328.547308,-444.123565,-7846.182985,0.000000
3328.547636,-814.226536,-9474.636058,536.266849
3328.547963,-1554.432478,-9918.759623,536.266849
3328.548291,148.041188,-8586.388927,-995.924147
3328.548619,148.041188,-9400.615463,-1302.362347
3328.548946,-518.144159,-10510.924376,0.000000
3328.549274,0.000000,-8660.409521,-919.314598
3328.549601,222.061783,-8586.388927,-536.266849
3328.549929,2516.700203,-10807.006753,-306.438199
3328.550257,2516.700203,-11177.109724,536.266849
3328.550584,0.000000,-11399.171507,1915.238745
3328.550912,-1998.556043,-10510.924376,229.828649
3328.551239,-962.267725,-10288.862594,-2681.334243
3328.551567,296.082377,-9030.512492,-3830.477490
3328.551895,296.082377,-10140.821405,-1838.629195
3328.552222,444.123565,-10658.965565,612.876398
3328.552550,1036.288319,-10955.047942,1685.410096
3328.552878,2146.597232,-10807.006753,229.828649
3328.553205,1628.453072,-10066.800811,-766.095498
3328.553533,74.020594,-9622.677246,-306.438199
3328.553860,-888.247130,-9252.574275,0.000000
3328.554188,-296.082377,-8290.306550,-689.485948
3328.554516,518.144159,-8660.409521,-1378.971896
3328.554843,0.000000,-9474.636058,995.924147
3328.555171,0.000000,-9178.553681,2604.724693
3328.555498,518.144159,-9770.718434,1532.190996
3328.555826,-296.082377,-10214.842000,-1225.752797
3328.556154,-962.267725,-9400.615463,-2757.943793
3328.556481,0.000000,-8216.285956,-2451.505594
3328.556809,1036.288319,-8660.409521,0.000000
3328.557137,1110.308913,-8438.347739,2604.724693
3328.557464,1554.432478,-8290.306550,3140.991542
3328.557792,888.247130,-11029.068536,1762.019645
3328.558119,-962.267725,-11843.295072,459.657299
3328.558447,962.267725,-10066.800811,-2451.505594
3328.558775,1036.288319,-8882.471304,-2298.286494
3328.559102,592.164754,-9030.512492,-306.438199
3328.559430,222.061783,-9844.739029,689.485948
3328.559758,1258.350101,-10362.883188,229.828649
3328.560085,666.185348,-10584.944971,0.000000
3328.560413,370.102971,-10214.842000,-1378.971896
3328.560740,370.102971,-9548.656652,-2068.457845
3328.561068,518.144159,-10732.986159,-229.828649
3328.561396,518.144159,-9326.594869,229.828649
3328.561723,518.144159,-9548.656652,0.000000
3328.562051,518.144159,-11325.150913,153.219100
3328.562378,1702.473667,-10436.903782,-612.876398
3328.562706,370.102971,-10362.883188,-919.314598
3328.563034,-666.185348,-10732.986159,-229.828649
3328.563361,-1924.535449,-9474.636058,-1532.190996
3328.563689,-740.205942,-7402.059420,-2374.896044
3328.564017,814.226536,-9178.553681,-1915.238745
3328.564344,888.247130,-11473.192101,1915.238745
3328.564672,1628.453072,-10140.821405,1991.848295
3328.564999,1036.288319,-9992.780217,383.047749
3328.565327,444.123565,-10658.965565,76.609550
3328.565655,740.205942,-8734.430116,-995.924147
3328.565982,0.000000,-8808.450710,76.609550
3328.566310,-1184.329507,-8142.265362,1762.019645
3328.566637,-962.267725,-7772.162391,536.266849
3328.566965,74.020594,-9326.594869,-689.485948
3328.567293,-1184.329507,-10510.924376,0.000000
3328.567620,-888.247130,-9770.718434,919.314598
3328.567948,-370.102971,-7994.224174,306.438199
3328.568276,-888.247130,-9622.677246,459.657299
3328.568603,-370.102971,-8808.450710,-383.047749
3328.568931,740.205942,-8956.491898,-1225.752797
3328.569258,1036.288319,-10140.821405,0.000000
3328.569586,1332.370696,-10584.944971,536.266849
3328.569914,444.123565,-8660.409521,995.924147
3328.570241,-1554.432478,-9474.636058,-229.828649
3328.570569,-2146.597232,-11029.068536,-1302.362347
3328.570897,-592.164754,-9252.574275,-2834.553343
3328.571224,-222.061783,-9622.677246,-2068.457845
3328.571552,814.226536,-11547.212695,-459.657299
3328.571879,2442.679609,-11843.295072,153.219100
3328.572207,2516.700203,-11103.089130,0.000000
3328.572535,1406.391290,-10140.821405,-229.828649
3328.572862,666.185348,-9992.780217,-919.314598
3328.573190,518.144159,-9030.512492,-1608.800546
3328.573517,0.000000,-9030.512492,-766.095498
3328.573845,-444.123565,-8068.244768,76.609550
3328.574173,-592.164754,-9252.574275,459.657299
3328.574500,222.061783,-11251.130318,1072.533697
3328.574828,962.267725,-11177.109724,0.000000
3328.575156,740.205942,-11029.068536,-1455.581446
3328.575483,222.061783,-9400.615463,-1302.362347
3328.575811,-666.185348,-8216.285956,-1685.410096
3328.576138,1776.494261,-8586.388927,-766.095498
3328.576466,3182.885551,-8660.409521,1608.800546
3328.576794,3256.906145,-7698.141797,4826.401637
3328.577121,1924.535449,-8142.265362,4136.915689
3328.577449,-1776.494261,-10584.944971,459.657299
3328.577776,-592.164754,-10214.842000,-2681.334243
3328.578104,444.123565,-8882.471304,-4366.744339
3328.578432,148.041188,-9918.759623,-1608.800546
3328.578759,0.000000,-9696.697840,995.924147
3328.579087,1702.473667,-10140.821405,1149.143247
3328.579415,3404.947333,-11029.068536,76.609550
3328.579742,2368.659014,-11325.150913,842.705048
3328.580070,296.082377,-9844.739029,1225.752797
3328.580397,-1702.473667,-7476.080014,0.000000
3328.580725,-1258.350101,-8290.306550,-995.924147
3328.581053,74.020594,-10510.924376,-1455.581446
3328.581380,-888.247130,-11325.150913,229.828649
3328.581708,0.000000,-10510.924376,1455.581446
3328.582035,222.061783,-9770.718434,-306.438199
3328.582363,0.000000,-10066.800811,-2528.115143
3328.582691,-1406.391290,-10732.986159,-2451.505594
3328.583018,-1924.535449,-9474.636058,-995.924147
3328.583346,-370.102971,-8068.244768,-612.876398
3328.583674,-222.061783,-9326.594869,536.266849
3328.584001,74.020594,-10214.842000,1455.581446
3328.584329,0.000000,-10807.006753,1762.019645
3328.584656,-962.267725,-11103.089130,229.828649
3328.584984,-1184.329507,-9474.636058,-2221.676944
3328.585312,-592.164754,-8438.347739,-2757.943793
3328.585639,-888.247130,-9030.512492,-919.314598
3328.585967,-2072.576638,-9992.780217,1915.238745
3328.586295,-740.205942,-8512.368333,1455.581446
3328.586622,-1776.494261,-7624.121203,153.219100
3328.586950,-592.164754,-10140.821405,229.828649
3328.587277,592.164754,-10214.842000,-383.047749
3328.587605,-814.226536,-9400.615463,383.047749
3328.587933,-1184.329507,-8216.285956,0.000000
3328.588260,74.020594,-9548.656652,-1762.019645
3328.588588,1628.453072,-9844.739029,-1072.533697
3328.588915,1702.473667,-10362.883188,612.876398
3328.589243,296.082377,-9326.594869,1685.410096
3328.589571,740.205942,-9030.512492,0.000000
3328.589898,0.000000,-10362.883188,-1225.752797
3328.590226,0.000000,-10288.862594,-1072.533697
3328.590554,-592.164754,-9474.636058,306.438199
3328.590881,148.041188,-9696.697840,1072.533697
3328.591209,814.226536,-9844.739029,-536.266849
3328.591536,1406.391290,-9400.615463,-1302.362347
3328.591864,2368.659014,-9400.615463,0.000000
3328.592192,2294.638420,-9474.636058,1302.362347
3328.592519,1628.453072,-9400.615463,2068.457845
3328.592847,-592.164754,-9474.636058,0.000000
3328.593174,-1702.473667,-9622.677246,-1608.800546
3328.593502,-1036.288319,-9178.553681,-2834.553343
3328.593830,666.185348,-10140.821405,-2221.676944
3328.594157,962.267725,-11029.068536,-383.047749
3328.594485,1850.514855,-11843.295072,842.705048
3328.594813,3627.009116,-9696.697840,0.000000
3328.595140,2664.741391,-9474.636058,-842.705048
3328.595468,814.226536,-9622.677246,76.609550
3328.595795,74.020594,-8068.244768,229.828649
3328.596123,-962.267725,-7179.997637,919.314598
3328.596451,148.041188,-8438.347739,459.657299
3328.596778,1184.329507,-10288.862594,0.000000
3328.597106,2072.576638,-11473.192101,1532.190996
3328.597434,2294.638420,-10436.903782,459.657299
3328.597761,1850.514855,-9178.553681,-1838.629195
3328.598089,814.226536,-9474.636058,-1225.752797
3328.598416,1184.329507,-9696.697840,-612.876398
3328.598744,1850.514855,-8216.285956,1532.190996
3328.599072,2294.638420,-7254.018232,1991.848295
3328.599399,1628.453072,-9918.759623,2451.505594
3328.599727,-296.082377,-12065.356855,1225.752797
3328.600054,-1184.329507,-11029.068536,-1838.629195
3328.600382,-962.267725,-9622.677246,-3753.867940
3328.600710,-518.144159,-9252.574275,-3217.601092
3328.601037,222.061783,-10362.883188,-1302.362347
3328.601365,370.102971,-10362.883188,919.314598
3328.601693,1850.514855,-9030.512492,1455.581446
3328.602020,888.247130,-9548.656652,842.705048
3328.602348,-1110.308913,-9400.615463,-612.876398
3328.602675,-1184.329507,-8290.306550,-1149.143247
3328.603003,-814.226536,-9622.677246,-612.876398
3328.603331,-370.102971,-10214.842000,0.000000
3328.603658,-592.164754,-11029.068536,-383.047749
3328.603986,-222.061783,-11029.068536,0.000000
3328.604313,1258.350101,-10140.821405,-1991.848295
3328.604641,814.226536,-11843.295072,-1532.190996
3328.604969,-1332.370696,-9770.718434,-1378.971896
3328.605296,-3108.864956,-7179.997637,-1302.362347
3328.605624,-1480.411884,-8512.368333,-1072.533697
3328.605952,-1258.350101,-10362.883188,0.000000
3328.606279,-2294.638420,-9844.739029,2298.286494
3328.606607,-1628.453072,-9474.636058,1685.410096
3328.606934,0.000000,-9622.677246,-1149.143247
3328.607262,-148.041188,-9030.512492,-2374.896044
3328.607590,222.061783,-8956.491898,-1455.581446
3328.607917,814.226536,-9326.594869,459.657299
3328.608245,370.102971,-10066.800811,1915.238745
3328.608573,444.123565,-8808.450710,1225.752797
3328.608900,148.041188,-8956.491898,229.828649
3328.609228,-1184.329507,-9770.718434,0.000000
3328.609555,0.000000,-10658.965565,-306.438199
3328.609883,-1184.329507,-9326.594869,-766.095498
3328.610211,592.164754,-9030.512492,-995.924147
3328.610538,1702.473667,-9474.636058,-1225.752797
3328.610866,1702.473667,-9474.636058,1072.533697
3328.611193,1480.411884,-8882.471304,2145.067394
3328.611521,74.020594,-8586.388927,1072.533697
3328.611849,-888.247130,-9844.739029,-383.047749
3328.612176,-740.205942,-10658.965565,-1608.800546
3328.612504,0.000000,-9918.759623,-2068.457845
3328.612832,1258.350101,-10807.006753,-842.705048
3328.613159,2368.659014,-10584.944971,-459.657299
3328.613487,3182.885551,-11325.150913,1532.190996
3328.613814,2812.782580,-10140.821405,612.876398
3328.614142,3108.864956,-9178.553681,-1072.533697
3328.614470,-296.082377,-9252.574275,-306.438199
3328.614797,-370.102971,-7920.203579,-306.438199
3328.615125,-222.061783,-7994.224174,-689.485948
3328.615452,148.041188,-9474.636058,0.000000
3328.615780,0.000000,-10214.842000,1225.752797
3328.616108,222.061783,-10732.986159,1302.362347
3328.616435,3552.988522,-10807.006753,-1072.533697
3328.616763,3627.009116,-10362.883188,-1762.019645
3328.617091,1998.556043,-10510.924376,689.485948
3328.617418,1554.432478,-8290.306550,1149.143247
3328.617746,1110.308913,-7105.977043,459.657299
3328.618073,1628.453072,-7402.059420,-306.438199
3328.618401,-222.061783,-9474.636058,919.314598
3328.618729,-1850.514855,-12287.418637,3064.381992
3328.619056,0.000000,-10732.986159,-459.657299
3328.619384,592.164754,-9252.574275,-3524.039291
3328.619712,0.000000,-9548.656652,-2451.505594
3328.620039,0.000000,-10510.924376,-766.095498
3328.620367,0.000000,-9030.512492,1455.581446
3328.620694,0.000000,-6883.915261,766.095498
3328.621022,74.020594,-8216.285956,383.047749
3328.621350,-962.267725,-9622.677246,919.314598
3328.621677,-1110.308913,-10140.821405,1302.362347
3328.622005,-518.144159,-9474.636058,76.609550
3328.622332,-666.185348,-9548.656652,-1378.971896
3328.622660,148.041188,-10807.006753,-1838.629195
3328.622988,74.020594,-10288.862594,-2221.676944
3328.623315,370.102971,-10066.800811,76.609550
3328.623643,444.123565,-9548.656652,229.828649
3328.623971,-592.164754,-10584.944971,76.609550
3328.624298,-1184.329507,-9030.512492,536.266849
3328.624626,-1258.350101,-9474.636058,229.828649
3328.624953,-2220.617826,-10807.006753,612.876398
3328.625281,-1554.432478,-9178.553681,-766.095498
3328.625609,-1258.350101,-8290.306550,-2145.067394
3328.625936,0.000000,-9770.718434,-1225.752797
3328.626264,148.041188,-10214.842000,-306.438199
3328.626591,74.020594,-9400.615463,919.314598
3328.626919,222.061783,-8808.450710,383.047749
3328.627247,1554.432478,-10436.903782,0.000000
3328.627574,1406.391290,-10584.944971,153.219100
3328.627902,-148.041188,-9770.718434,1302.362347
3328.628230,-518.144159,-9548.656652,919.314598
3328.628557,-518.144159,-9400.615463,-612.876398
3328.628885,814.226536,-9178.553681,-1225.752797
3328.629212,518.144159,-9918.759623,-306.438199
3328.629540,222.061783,-8586.388927,919.314598
3328.629868,74.020594,-7772.162391,383.047749
3328.630195,296.082377,-10066.800811,-153.219100
3328.630523,296.082377,-9326.594869,153.219100
3328.630850,-1110.308913,-8808.450710,612.876398
3328.631178,-370.102971,-10214.842000,229.828649
3328.631506,962.267725,-10955.047942,-1532.190996
3328.631833,1924.535449,-9474.636058,-2451.505594
3328.632161,3552.988522,-9400.615463,-995.924147
3328.632489,2146.597232,-9992.780217,1838.629195
3328.632816,2516.700203,-10807.006753,2987.772442
3328.633144,1850.514855,-9030.512492,383.047749
3328.633471,1036.288319,-8586.388927,-1915.238745
3328.633799,-740.205942,-9770.718434,-1838.629195
3328.634127,-1406.391290,-9696.697840,-1455.581446
3328.634454,-222.061783,-8882.471304,-1532.190996
3328.634782,-148.041188,-9252.574275,-1149.143247
3328.635110,1184.329507,-10881.027347,-919.314598
3328.635437,2294.638420,-11547.212695,0.000000
3328.635765,3849.070898,-10288.862594,0.000000
3328.636092,2738.761985,-9474.636058,229.828649
3328.636420,1850.514855,-10214.842000,689.485948
3328.636748,1850.514855,-8660.409521,306.438199
3328.637075,1184.329507,-8364.327145,-1149.143247
3328.637403,0.000000,-8882.471304,0.000000
3328.637730,-1036.288319,-11325.150913,0.000000
3328.638058,0.000000,-11991.336260,-689.485948
3328.638386,1776.494261,-11621.233289,-2451.505594
3328.638713,1258.350101,-9844.739029,-1532.190996
3328.639041,370.102971,-9696.697840,689.485948
3328.639369,-1184.329507,-9400.615463,1302.362347
3328.639696,-296.082377,-7846.182985,306.438199
3328.640024,-962.267725,-7476.080014,-153.219100
3328.640351,-2368.659014,-8808.450710,536.266849
3328.640679,-2812.782580,-9622.677246,1072.533697
3328.641007,-1924.535449,-9474.636058,-536.266849
3328.641334,296.082377,-9400.615463,-1685.410096
3328.641662,518.144159,-10436.903782,0.000000
3328.641989,444.123565,-10807.006753,383.047749
3328.642317,0.000000,-9178.553681,-459.657299
3328.642645,-814.226536,-8956.491898,0.000000
3328.642972,296.082377,-9548.656652,-919.314598
3328.643300,-1110.308913,-10510.924376,612.876398
3328.643627,-888.247130,-8808.450710,2298.286494
3328.643955,-2294.638420,-7994.224174,612.876398
3328.644282,-1184.329507,-9770.718434,-612.876398
3328.644610,-666.185348,-9474.636058,-1455.581446
3328.644937,-148.041188,-9474.636058,-1378.971896
3328.645265,0.000000,-8882.471304,-383.047749
3328.645592,-222.061783,-10066.800811,-536.266849
3328.645920,444.123565,-9844.739029,-689.485948
3328.646247,1184.329507,-11399.171507,-995.924147
3328.646575,592.164754,-11103.089130,0.000000
3328.646902,962.267725,-10066.800811,-229.828649
3328.647230,740.205942,-10510.924376,-995.924147
3328.647557,2072.576638,-11621.233289,-1072.533697
3328.647885,1332.370696,-10362.883188,0.000000
3328.648212,1184.329507,-8808.450710,842.705048
3328.648540,296.082377,-8586.388927,0.000000
3328.648867,-518.144159,-8512.368333,-612.876398
3328.649195,74.020594,-9474.636058,-1455.581446
3328.649522,74.020594,-11029.068536,-612.876398
3328.649850,-444.123565,-9696.697840,766.095498
3328.650177,-740.205942,-9326.594869,0.000000
3328.650505,518.144159,-10732.986159,-919.314598
3328.650832,1998.556043,-9622.677246,-1838.629195
3328.651160,3256.906145,-9844.739029,-1149.143247
3328.651487,3256.906145,-10288.862594,1225.752797
3328.651815,2146.597232,-10658.965565,2834.553343
3328.652142,2960.823768,-9252.574275,1532.190996
3328.652470,1406.391290,-9104.533087,0.000000
3328.652797,-1258.350101,-9992.780217,459.657299
3328.653125,-1702.473667,-8216.285956,-1225.752797
3328.653452,-1702.473667,-7105.977043,-2068.457845
3328.653780,0.000000,-7254.018232,-1838.629195
3328.654107,444.123565,-9474.636058,459.657299
3328.654435,1406.391290,-9696.697840,3140.991542
3328.654762,2294.638420,-9030.512492,2145.067394
3328.655090,3034.844362,-10658.965565,-306.438199
3328.655417,1924.535449,-10732.986159,-229.828649
3328.655745,666.185348,-10066.800811,0.000000
3328.656072,444.123565,-8216.285956,-689.485948
3328.656400,0.000000,-8068.244768,-1072.533697
3328.656727,222.061783,-10140.821405,-536.266849
3328.657055,74.020594,-12065.356855,-306.438199
3328.657382,888.247130,-11621.233289,-459.657299
3328.657710,1702.473667,-10288.862594,-459.657299
3328.658037,888.247130,-10658.965565,-919.314598
3328.658365,148.041188,-10436.903782,76.609550
3328.658692,-370.102971,-9178.553681,76.609550
3328.659020,-370.102971,-8438.347739,229.828649
3328.659347,-1628.453072,-9252.574275,-536.266849
3328.659675,-2368.659014,-10362.883188,-1302.362347
3328.660002,-740.205942,-10362.883188,-2451.505594
3328.660330,-370.102971,-9326.594869,-1915.238745
3328.660657,-222.061783,-10807.006753,306.438199
3328.660985,-666.185348,-10510.924376,995.924147
3328.661312,518.144159,-9918.759623,766.095498
3328.661640,1776.494261,-9622.677246,-306.438199
3328.661967,-296.082377,-8512.368333,-383.047749
3328.662295,-1332.370696,-10436.903782,1302.362347
3328.662622,-2072.576638,-8734.430116,0.000000
3328.662950,-370.102971,-8290.306550,-1149.143247
3328.663278,0.000000,-9252.574275,-1225.752797
3328.663605,-592.164754,-10881.027347,1149.143247
3328.663933,0.000000,-9696.697840,1991.848295
3328.664260,148.041188,-7846.182985,-383.047749
3328.664588,296.082377,-9400.615463,383.047749
3328.664915,222.061783,-9992.780217,-459.657299
3328.665243,1258.350101,-10066.800811,229.828649
3328.665570,0.000000,-9548.656652,76.609550
3328.665898,444.123565,-9030.512492,-842.705048
3328.666225,1850.514855,-10066.800811,-1302.362347
3328.666553,1554.432478,-9992.780217,76.609550
3328.666880,1480.411884,-8956.491898,1532.190996
3328.667208,814.226536,-8586.388927,842.705048
3328.667535,814.226536,-9918.759623,459.657299
3328.667863,0.000000,-9918.759623,-919.314598
3328.668190,-888.247130,-9548.656652,-536.266849
3328.668518,-740.205942,-9400.615463,-612.876398
3328.668845,74.020594,-10288.862594,-1532.190996
3328.669173,888.247130,-10362.883188,-612.876398
3328.669500,0.000000,-9770.718434,-306.438199
3328.669828,740.205942,-10584.944971,0.000000
3328.670155,888.247130,-10362.883188,-536.266849
3328.670483,592.164754,-9992.780217,-766.095498
3328.670810,1480.411884,-10214.842000,0.000000
3328.671138,1850.514855,-11621.233289,766.095498
3328.671465,1924.535449,-10955.047942,1072.533697
3328.671793,1850.514855,-9474.636058,-1149.143247
3328.672120,444.123565,-9548.656652,-1532.190996
3328.672448,-592.164754,-9696.697840,-1149.143247
3328.672775,-888.247130,-8660.409521,-612.876398
3328.673103,-888.247130,-7179.997637,-229.828649
3328.673430,-1628.453072,-7105.977043,1225.752797
3328.673758,-1184.329507,-9178.553681,3064.381992
3328.674085,1184.329507,-10510.924376,1608.800546
3328.674413,1924.535449,-10436.903782,-306.438199
3328.674740,1406.391290,-10214.842000,-995.924147
3328.675068,518.144159,-9770.718434,-1455.581446
3328.675395,1184.329507,-8660.409521,-1838.629195
3328.675723,1628.453072,-8068.244768,-766.095498
3328.676050,1258.350101,-7550.100608,1685.410096
3328.676378,222.061783,-10658.965565,3140.991542
3328.676705,0.000000,-11177.109724,2221.676944
3328.677033,1480.411884,-10955.047942,-919.314598
3328.677360,518.144159,-10066.800811,-1991.848295
3328.677688,814.226536,-10362.883188,-1378.971896
3328.678015,-1184.329507,-9992.780217,-919.314598
3328.678343,74.020594,-8068.244768,-995.924147
3328.678670,222.061783,-9326.594869,-1225.752797
3328.678998,-1036.288319,-11177.109724,0.000000
3328.679325,-666.185348,-11029.068536,-459.657299
3328.679653,-1628.453072,-9622.677246,-536.266849
3328.679980,-814.226536,-9622.677246,0.000000
3328.680308,-296.082377,-11029.068536,0.000000
3328.680635,222.061783,-10436.903782,0.000000
3328.680963,814.226536,-9178.553681,-1302.362347
3328.681290,370.102971,-10584.944971,-1378.971896
3328.681618,1480.411884,-11251.130318,-536.266849
3328.681945,296.082377,-9696.697840,-459.657299
3328.682273,296.082377,-8586.388927,0.000000
3328.682600,-962.267725,-8586.388927,1149.143247
3328.682928,-962.267725,-10362.883188,1915.238745
3328.683255,-296.082377,-9474.636058,1455.581446
3328.683583,-962.267725,-8512.368333,153.219100
3328.683910,-296.082377,-8808.450710,153.219100
3328.684238,-296.082377,-9474.636058,-153.219100
3328.684565,444.123565,-9104.533087,-919.314598
3328.684893,1332.370696,-8882.471304,-1225.752797
3328.685220,666.185348,-9326.594869,-229.828649
3328.685548,962.267725,-10214.842000,1225.752797
3328.685875,444.123565,-8808.450710,76.609550
3328.686203,962.267725,-9844.739029,536.266849
3328.686530,518.144159,-10288.862594,766.095498
3328.686858,1184.329507,-10881.027347,1072.533697
3328.687185,370.102971,-9770.718434,76.609550
3328.687513,-296.082377,-8364.327145,-1455.581446
3328.687840,1184.329507,-8734.430116,-1762.019645
3328.688168,666.185348,-9252.574275,-229.828649
3328.688495,-740.205942,-10510.924376,1302.362347
3328.688823,-1850.514855,-11177.109724,0.000000
3328.689151,-962.267725,-9474.636058,-2145.067394
3328.689478,1480.411884,-8660.409521,-3370.820191
3328.689806,888.247130,-10066.800811,-383.047749
3328.690133,222.061783,-11547.212695,2145.067394
3328.690461,1036.288319,-11103.089130,1608.800546
3328.690788,3923.091493,-9326.594869,-2451.505594
3328.691116,2146.597232,-9178.553681,-3370.820191
3328.691443,0.000000,-10658.965565,0.000000
3328.691771,-666.185348,-9252.574275,1991.848295
3328.692098,-1554.432478,-8142.265362,842.705048
3328.692426,-814.226536,-8882.471304,-383.047749
3328.692753,-592.164754,-9770.718434,0.000000
3328.693081,-814.226536,-9178.553681,1225.752797
3328.693408,-296.082377,-9696.697840,153.219100
3328.693736,0.000000,-9474.636058,-2451.505594
3328.694063,1332.370696,-8956.491898,-3524.039291
3328.694391,740.205942,-9548.656652,-919.314598
3328.694718,2220.617826,-9400.615463,2068.457845
3328.695046,2516.700203,-8438.347739,2451.505594
3328.695373,2072.576638,-9918.759623,2757.943793
3328.695701,962.267725,-11621.233289,1455.581446
3328.696028,148.041188,-11103.089130,-919.314598
3328.696356,814.226536,-9548.656652,-1149.143247
3328.696683,0.000000,-8068.244768,-1532.190996
3328.697011,518.144159,-8290.306550,-1532.190996
3328.697338,518.144159,-10140.821405,-306.438199
3328.697666,0.000000,-10436.903782,383.047749
3328.697993,370.102971,-9400.615463,153.219100
3328.698321,-1110.308913,-10214.842000,-766.095498
3328.698648,-370.102971,-10214.842000,-689.485948
3328.698976,-518.144159,-10140.821405,-229.828649
3328.699303,-592.164754,-9178.553681,612.876398
3328.699631,-814.226536,-9992.780217,0.000000
3328.699958,444.123565,-9474.636058,-1532.190996
3328.700286,2516.700203,-10066.800811,-2145.067394
3328.700613,1110.308913,-12509.480420,-306.438199
3328.700941,1332.370696,-11251.130318,766.095498
3328.701268,222.061783,-8586.388927,-459.657299
3328.701596,-666.185348,-8660.409521,-1302.362347
3328.701923,-740.205942,-9992.780217,0.000000
3328.702251,-962.267725,-9844.739029,995.924147
3328.702578,74.020594,-9104.533087,689.485948
3328.702906,-444.123565,-9622.677246,153.219100
3328.703233,296.082377,-7920.203579,-1455.581446
3328.703561,296.082377,-7846.182985,-919.314598
3328.703888,0.000000,-9918.759623,842.705048
3328.704216,888.247130,-10140.821405,0.000000
3328.704543,148.041188,-9918.759623,-536.266849
3328.704871,1110.308913,-10140.821405,-842.705048
3328.705198,666.185348,-10436.903782,-766.095498
3328.705526,148.041188,-10140.821405,1532.190996
3328.705853,518.144159,-9622.677246,689.485948
3328.706181,888.247130,-7994.224174,-1455.581446
3328.706508,518.144159,-8586.388927,-995.924147
3328.706836,666.185348,-9326.594869,0.000000
3328.707163,-222.061783,-7698.141797,1915.238745
3328.707491,-1554.432478,-9104.533087,1762.019645
3328.707818,-2886.803174,-10436.903782,-229.828649
3328.708146,-1850.514855,-11843.295072,-2757.943793
3328.708473,-888.247130,-9474.636058,-4366.744339
3328.708801,592.164754,-9918.759623,-2451.505594
3328.709128,888.247130,-12065.356855,383.047749
3328.709456,3108.864956,-11399.171507,1072.533697
3328.709783,3034.844362,-10807.006753,459.657299
3328.710111,2442.679609,-10288.862594,766.095498
3328.710438,1184.329507,-8956.491898,536.266849
3328.710766,-1258.350101,-7698.141797,153.219100
3328.711093,-148.041188,-8142.265362,-306.438199
3328.711421,-1480.411884,-8660.409521,-536.266849
3328.711748,-1998.556043,-9844.739029,1991.848295
3328.712076,0.000000,-9622.677246,842.705048
3328.712403,888.247130,-9104.533087,-1532.190996
3328.712731,592.164754,-10140.821405,-1302.362347
3328.713058,370.102971,-9844.739029,-995.924147
3328.713386,1332.370696,-8512.368333,-153.219100
3328.713713,2072.576638,-7476.080014,229.828649
3328.714041,2442.679609,-8808.450710,2068.457845
3328.714368,1702.473667,-10066.800811,3907.087040
3328.714696,0.000000,-10436.903782,1991.848295
3328.715024,-592.164754,-11177.109724,-1378.971896
3328.715351,-888.247130,-9770.718434,-3830.477490
3328.715679,296.082377,-9104.533087,-3983.696590
3328.716006,888.247130,-10362.883188,-766.095498
3328.716334,1406.391290,-8956.491898,1685.410096
3328.716661,2146.597232,-9400.615463,1455.581446
3328.716989,814.226536,-11177.109724,1838.629195
3328.717316,0.000000,-10214.842000,229.828649
3328.717644,-1406.391290,-9326.594869,-612.876398
3328.717971,-1110.308913,-9178.553681,-842.705048
3328.718299,-1258.350101,-9992.780217,-1762.019645
3328.718626,-888.247130,-10214.842000,-1608.800546
3328.718954,1480.411884,-10066.800811,-383.047749
3328.719281,1480.411884,-10066.800811,-229.828649
3328.719609,592.164754,-11695.253884,76.609550
3328.719936,-370.102971,-9844.739029,-1149.143247
3328.720264,-592.164754,-8882.471304,-1838.629195
3328.720591,-296.082377,-7994.224174,-1302.362347
3328.720919,-444.123565,-9992.780217,306.438199
3328.721246,-444.123565,-10510.924376,1838.629195
3328.721574,-370.102971,-8660.409521,459.657299
3328.721901,1036.288319,-8956.491898,-1302.362347
3328.722229,370.102971,-10584.944971,-919.314598
3328.722556,666.185348,-8956.491898,1072.533697
3328.722884,0.000000,-7254.018232,536.266849
3328.723211,-814.226536,-9548.656652,229.828649
3328.723539,-148.041188,-10436.903782,-229.828649
3328.723866,148.041188,-10066.800811,-766.095498
3328.724194,296.082377,-10658.965565,0.000000
3328.724521,-888.247130,-10140.821405,-536.266849
3328.724849,592.164754,-9178.553681,-1532.190996
3328.725176,1036.288319,-8660.409521,-919.314598
3328.725504,1110.308913,-8586.388927,536.266849
3328.725831,1258.350101,-9696.697840,1685.410096
3328.726159,666.185348,-8808.450710,1838.629195
3328.726486,-518.144159,-8216.285956,1915.238745
3328.726814,-2146.597232,-9918.759623,-536.266849
3328.727141,-1406.391290,-11843.295072,-2681.334243
3328.727469,-1850.514855,-10214.842000,-2987.772442
3328.727796,0.000000,-8364.327145,-3600.648841
3328.728124,1776.494261,-10807.006753,-1455.581446
3328.728451,2664.741391,-12583.501014,536.266849
3328.728779,3330.926739,-10658.965565,2145.067394
3328.729106,1924.535449,-9400.615463,2221.676944
3328.729434,962.267725,-8660.409521,612.876398
3328.729761,962.267725,-9178.553681,-612.876398
3328.730089,0.000000,-8068.244768,0.000000
3328.730416,-814.226536,-8290.306550,-306.438199
3328.730744,-1480.411884,-9474.636058,-612.876398
3328.731071,444.123565,-9770.718434,0.000000
3328.731399,1702.473667,-10584.944971,-842.705048
3328.731726,2220.617826,-11029.068536,-1149.143247
3328.732054,962.267725,-9696.697840,0.000000
3328.732381,-370.102971,-8882.471304,536.266849
3328.732709,1406.391290,-8882.471304,0.000000
3328.733036,2590.720797,-8290.306550,612.876398
3328.733364,2146.597232,-8882.471304,2681.334243
3328.733691,0.000000,-10658.965565,2528.115143
3328.734019,-1480.411884,-10584.944971,0.000000
3328.734346,1110.308913,-10807.006753,-4366.744339
3328.734674,1332.370696,-11399.171507,-3677.258390
3328.735001,148.041188,-9992.780217,153.219100
3328.735329,0.000000,-8512.368333,1762.019645
3328.735656,1110.308913,-8734.430116,766.095498
3328.735984,1258.350101,-9770.718434,383.047749
3328.736311,-148.041188,-11029.068536,1225.752797
3328.736639,-1702.473667,-9992.780217,995.924147
3328.736966,-1702.473667,-7179.997637,-1072.533697
3328.737294,-222.061783,-8364.327145,-3140.991542
3328.737621,0.000000,-11547.212695,-1072.533697
3328.737949,0.000000,-11695.253884,1225.752797
3328.738276,296.082377,-9622.677246,1302.362347
3328.738604,-148.041188,-8882.471304,-153.219100
3328.738931,222.061783,-10955.047942,-2374.896044
3328.739259,-814.226536,-10066.800811,-1302.362347
3328.739586,-962.267725,-8142.265362,229.828649
3328.739914,-1110.308913,-9252.574275,766.095498
3328.740241,888.247130,-9104.533087,-842.705048
3328.740569,1406.391290,-9326.594869,-1149.143247
3328.740896,-296.082377,-11177.109724,76.609550
3328.741224,0.000000,-9622.677246,1149.143247
3328.741552,296.082377,-7402.059420,-459.657299
3328.741879,222.061783,-8438.347739,-536.266849
3328.742207,0.000000,-10066.800811,0.000000
3328.742534,-1258.350101,-9400.615463,1149.143247
3328.742862,-222.061783,-10214.842000,766.095498
3328.743189,-222.061783,-10362.883188,-1225.752797
3328.743517,1036.288319,-9326.594869,-2834.553343
3328.743844,962.267725,-10510.924376,-919.314598
3328.744172,1554.432478,-10510.924376,919.314598
3328.744499,1776.494261,-9252.574275,1225.752797
3328.744826,518.144159,-9178.553681,842.705048
3328.745154,2072.576638,-9326.594869,-842.705048
3328.745481,0.000000,-7994.224174,689.485948
3328.745809,-666.185348,-10362.883188,1302.362347
3328.746136,-1850.514855,-12731.542202,-229.828649
3328.746464,-1036.288319,-10436.903782,-3524.039291
3328.746791,1554.432478,-8808.450710,-4903.011187
3328.747119,740.205942,-10436.903782,-1838.629195
3328.747446,1924.535449,-11843.295072,2987.772442
3328.747773,2146.597232,-10881.027347,2681.334243
3328.748101,1480.411884,-8512.368333,689.485948
3328.748428,1480.411884,-9400.615463,-1149.143247
3328.748756,-518.144159,-8882.471304,-229.828649
3328.749083,-1258.350101,-8142.265362,1225.752797
3328.749411,-962.267725,-7994.224174,-689.485948
3328.749738,1036.288319,-9104.533087,-2528.115143
3328.750066,1406.391290,-11103.089130,-1915.238745
3328.750393,1924.535449,-11177.109724,1608.800546
3328.750721,1776.494261,-9770.718434,2298.286494
3328.751048,518.144159,-8586.388927,1225.752797
3328.751375,-296.082377,-9696.697840,0.000000
3328.751703,-1776.494261,-8660.409521,-766.095498
3328.752030,74.020594,-8068.244768,-536.266849
3328.752358,888.247130,-5995.668130,536.266849
3328.752685,666.185348,-7402.059420,383.047749
3328.753013,-518.144159,-11917.315666,0.000000
3328.753340,-1036.288319,-12657.521608,-1225.752797
3328.753668,296.082377,-10066.800811,-2145.067394
3328.753995,1480.411884,-10140.821405,-1915.238745
3328.754323,1332.370696,-9992.780217,0.000000
3328.754650,1924.535449,-10288.862594,919.314598
3328.754977,1258.350101,-9178.553681,1838.629195
3328.755305,1258.350101,-10658.965565,1455.581446
3328.755632,-1406.391290,-9474.636058,-229.828649
3328.755960,-1924.535449,-7994.224174,-1685.410096
3328.756287,-1480.411884,-7920.203579,-2374.896044
3328.756615,518.144159,-10807.006753,-919.314598
3328.756942,370.102971,-11843.295072,459.657299
3328.757270,0.000000,-11843.295072,536.266849
3328.757597,666.185348,-9326.594869,-995.924147
3328.757925,0.000000,-10066.800811,-2604.724693
3328.758252,-888.247130,-11399.171507,-536.266849
3328.758579,-1258.350101,-8512.368333,-1149.143247
3328.758907,-1110.308913,-6735.874072,76.609550
3328.759234,1998.556043,-8438.347739,-689.485948
3328.759562,1258.350101,-11547.212695,919.314598
3328.759889,444.123565,-10288.862594,2528.115143
3328.760217,-370.102971,-9030.512492,1225.752797
3328.760544,-666.185348,-8290.306550,-2068.457845
3328.760872,-222.061783,-8290.306550,-2451.505594
3328.761199,-740.205942,-9622.677246,229.828649
3328.761526,-222.061783,-10066.800811,1915.238745
3328.761854,592.164754,-9474.636058,383.047749
3328.762181,1258.350101,-9104.533087,-919.314598
3328.762509,888.247130,-9992.780217,-1302.362347
3328.762836,148.041188,-8660.409521,-459.657299
3328.763164,296.082377,-9326.594869,459.657299
3328.763491,-296.082377,-9474.636058,229.828649
3328.763819,666.185348,-10140.821405,-306.438199
3328.764146,0.000000,-10214.842000,-995.924147
3328.764474,962.267725,-11103.089130,0.000000
3328.764801,1110.308913,-10214.842000,-459.657299
3328.765128,740.205942,-8956.491898,-1149.143247
3328.765456,888.247130,-10214.842000,-842.705048
3328.765783,-222.061783,-11769.274478,-1072.533697
3328.766111,0.000000,-8512.368333,-612.876398
3328.766438,518.144159,-8586.388927,-1378.971896
3328.766766,1110.308913,-10214.842000,0.000000
3328.767093,1702.473667,-10955.047942,689.485948
3328.767421,888.247130,-11103.089130,612.876398
3328.767748,666.185348,-11177.109724,-306.438199
3328.768076,222.061783,-9548.656652,-2221.676944
3328.768403,1406.391290,-8068.244768,-2451.505594
3328.768730,222.061783,-8660.409521,-1225.752797
3328.769058,0.000000,-8882.471304,459.657299
3328.769385,-592.164754,-9844.739029,1915.238745
3328.769713,1184.329507,-9918.759623,2068.457845
3328.770040,2812.782580,-9252.574275,1149.143247
3328.770368,1480.411884,-10140.821405,1532.190996
3328.770695,-888.247130,-9622.677246,1991.848295
3328.771023,-2960.823768,-9178.553681,383.047749
3328.771350,-1554.432478,-6587.832884,-3064.381992
3328.771678,1554.432478,-6883.915261,-3447.429741
3328.772005,888.247130,-8586.388927,1225.752797
3328.772332,666.185348,-9030.512492,4290.134789
3328.772660,-296.082377,-11621.233289,3064.381992
3328.772987,1480.411884,-11177.109724,-1532.190996
3328.773315,1406.391290,-10584.944971,-3907.087040
3328.773642,592.164754,-12435.459826,-536.266849
3328.773970,1332.370696,-9992.780217,919.314598
3328.774297,1628.453072,-8438.347739,306.438199
3328.774625,2072.576638,-8586.388927,536.266849
3328.774952,370.102971,-9844.739029,76.609550
3328.775280,-296.082377,-8734.430116,995.924147
3328.775607,-1184.329507,-6957.935855,0.000000
3328.775934,-1036.288319,-8734.430116,-1608.800546
3328.776262,296.082377,-12287.418637,-2528.115143
3328.776589,222.061783,-13693.809927,-995.924147
3328.776917,962.267725,-12139.377449,0.000000
3328.777244,1036.288319,-9844.739029,-1072.533697
3328.777572,2368.659014,-11103.089130,-1225.752797
3328.777899,888.247130,-10658.965565,-2374.896044
3328.778227,-1036.288319,-8734.430116,0.000000
3328.778554,-1850.514855,-7254.018232,689.485948
3328.778881,-1628.453072,-9252.574275,229.828649
3328.779209,-1850.514855,-9474.636058,-306.438199
3328.779536,-2368.659014,-9992.780217,-689.485948
3328.779864,-1924.535449,-10732.986159,0.000000
3328.780191,-814.226536,-10732.986159,-689.485948
3328.780519,518.144159,-8734.430116,-1915.238745
3328.780846,1628.453072,-8438.347739,-1072.533697
3328.781174,1406.391290,-9252.574275,536.266849
3328.781501,814.226536,-8808.450710,2834.553343
3328.781829,0.000000,-8882.471304,2374.896044
3328.782156,74.020594,-7772.162391,383.047749
3328.782483,888.247130,-8882.471304,-995.924147
3328.782811,-666.185348,-10955.047942,-383.047749
3328.783138,-1332.370696,-11547.212695,153.219100
3328.783466,-1184.329507,-8956.491898,-1915.238745
3328.783793,1406.391290,-10066.800811,-2681.334243
3328.784121,666.185348,-10732.986159,-1378.971896
3328.784448,1480.411884,-7920.203579,1302.362347
3328.784776,962.267725,-7254.018232,2145.067394
3328.785103,0.000000,-9992.780217,2221.676944
3328.785431,-444.123565,-10584.944971,153.219100
3328.785758,-1924.535449,-8512.368333,-1762.019645
3328.786085,-370.102971,-9326.594869,-1838.629195
3328.786413,666.185348,-11547.212695,-1302.362347
3328.786740,2590.720797,-12435.459826,-306.438199
3328.787068,2812.782580,-11473.192101,-995.924147
3328.787395,1628.453072,-9918.759623,-689.485948
3328.787723,1924.535449,-10066.800811,0.000000
3328.788050,148.041188,-9992.780217,306.438199
3328.788378,592.164754,-8586.388927,153.219100
3328.788705,222.061783,-8734.430116,-536.266849
3328.789033,666.185348,-10732.986159,229.828649
3328.789360,222.061783,-11251.130318,1915.238745
3328.789687,666.185348,-9474.636058,1072.533697
3328.790015,1924.535449,-8956.491898,-689.485948
3328.790342,0.000000,-9178.553681,-919.314598
3328.790670,-1184.329507,-8586.388927,-306.438199
3328.790997,-296.082377,-6513.812290,0.000000
3328.791325,962.267725,-7031.956449,0.000000
3328.791652,-74.020594,-9326.594869,1455.581446
3328.791980,-1702.473667,-12287.418637,1608.800546
3328.792307,1110.308913,-12657.521608,-229.828649
3328.792634,1998.556043,-11251.130318,-1532.190996
3328.792962,3182.885551,-10288.862594,-1762.019645
3328.793289,2886.803174,-9992.780217,76.609550
3328.793617,1628.453072,-8808.450710,1532.190996
3328.793944,1554.432478,-8068.244768,1685.410096
3328.794272,-814.226536,-8364.327145,1532.190996
3328.794599,-1628.453072,-8216.285956,766.095498
3328.794927,-1258.350101,-8586.388927,-1149.143247
3328.795254,0.000000,-10510.924376,-1915.238745
3328.795582,592.164754,-12139.377449,0.000000
3328.795909,370.102971,-12805.562797,0.000000
3328.796236,2516.700203,-11325.150913,-1532.190996
3328.796564,2738.761985,-9030.512492,-2528.115143
3328.796891,0.000000,-9252.574275,-536.266849
3328.797219,-1628.453072,-9770.718434,842.705048
3328.797546,-1998.556043,-8438.347739,153.219100
3328.797874,-1480.411884,-8438.347739,-1072.533697
3328.798201,-2072.576638,-10732.986159,-919.314598
3328.798529,-962.267725,-11325.150913,-1225.752797
3328.798856,-518.144159,-10288.862594,-1072.533697
3328.799184,1332.370696,-10362.883188,-1915.238745
3328.799511,1924.535449,-9992.780217,-1915.238745
3328.799838,1554.432478,-9326.594869,612.876398
3328.800166,518.144159,-8290.306550,3064.381992
3328.800493,518.144159,-8956.491898,2528.115143
3328.800821,74.020594,-8364.327145,919.314598
3328.801148,-370.102971,-8808.450710,-689.485948
3328.801476,-1480.411884,-9992.780217,-842.705048
3328.801803,-888.247130,-10436.903782,-919.314598
3328.802131,-1258.350101,-10066.800811,-1149.143247
3328.802458,74.020594,-9548.656652,-1302.362347
3328.802786,0.000000,-8882.471304,-1762.019645
3328.803113,296.082377,-9548.656652,306.438199
3328.803440,222.061783,-11029.068536,2068.457845
3328.803768,148.041188,-9400.615463,1838.629195
3328.804095,1184.329507,-7994.224174,153.219100
3328.804423,-666.185348,-9992.780217,153.219100
3328.804750,-2368.659014,-11177.109724,919.314598
3328.805078,-1184.329507,-9770.718434,-1378.971896
3328.805405,666.185348,-8364.327145,-4290.134789
3328.805733,1480.411884,-9770.718434,-2681.334243
3328.806060,1776.494261,-12065.356855,0.000000
3328.806388,2368.659014,-11251.130318,2451.505594
3328.806715,1924.535449,-9400.615463,1225.752797
3328.807042,1554.432478,-9326.594869,-1072.533697
3328.807370,518.144159,-9696.697840,-1915.238745
3328.807697,-518.144159,-9326.594869,-766.095498
3328.808025,0.000000,-9548.656652,612.876398
3328.808352,222.061783,-9696.697840,153.219100
3328.808680,2146.597232,-9252.574275,-153.219100
3328.809007,2664.741391,-11325.150913,306.438199
3328.809335,1110.308913,-9622.677246,1762.019645
3328.809662,-518.144159,-8586.388927,1378.971896
3328.809989,-2664.741391,-6735.874072,-153.219100
3328.810317,148.041188,-6883.915261,-2604.724693
3328.810644,296.082377,-8438.347739,-2221.676944
3328.810972,-296.082377,-10362.883188,1838.629195
3328.811299,-1332.370696,-12065.356855,3217.601092
3328.811627,3330.926739,-11399.171507,0.000000
3328.811954,4959.379811,-11251.130318,-3447.429741
3328.812282,3256.906145,-10658.965565,-1072.533697
3328.812609,1850.514855,-8290.306550,2221.676944
3328.812937,444.123565,-8068.244768,2145.067394
3328.813264,814.226536,-7994.224174,76.609550
3328.813591,592.164754,-10584.944971,-306.438199
3328.813919,-2294.638420,-10732.986159,1072.533697
3328.814246,-1480.411884,-9696.697840,1302.362347
3328.814574,0.000000,-9030.512492,-1378.971896
3328.814901,2220.617826,-9474.636058,-3294.210641
3328.815229,-296.082377,-12435.459826,-689.485948
3328.815556,0.000000,-9918.759623,919.314598
3328.815884,-370.102971,-7105.977043,842.705048
3328.816211,-962.267725,-8882.471304,-306.438199
3328.816539,-296.082377,-11843.295072,-1762.019645
3328.816866,-2294.638420,-11177.109724,0.000000
3328.817193,-1702.473667,-9326.594869,689.485948
3328.817521,-962.267725,-9622.677246,-1302.362347
3328.817848,0.000000,-10066.800811,-2681.334243
3328.818176,-370.102971,-8882.471304,-2221.676944
3328.818503,-1480.411884,-9474.636058,306.438199
3328.818831,444.123565,-7254.018232,1302.362347
3328.819158,962.267725,-9104.533087,1608.800546
3328.819486,518.144159,-9770.718434,1608.800546
3328.819813,814.226536,-9992.780217,1455.581446
3328.820141,592.164754,-10214.842000,689.485948
3328.820468,-148.041188,-10140.821405,229.828649
3328.820795,-962.267725,-9252.574275,-2528.115143
3328.821123,370.102971,-7476.080014,-3294.210641
3328.821450,0.000000,-10288.862594,-1991.848295
3328.821778,888.247130,-11177.109724,536.266849
3328.822105,1554.432478,-10140.821405,1149.143247
3328.822433,888.247130,-10140.821405,1072.533697
3328.822760,1258.350101,-9770.718434,0.000000
3328.823088,296.082377,-9992.780217,689.485948
3328.823415,592.164754,-8290.306550,766.095498
3328.823742,-1110.308913,-8364.327145,-306.438199
3328.824070,-740.205942,-9400.615463,-2604.724693
3328.824397,-888.247130,-9548.656652,-3677.258390
3328.824725,0.000000,-9474.636058,-1915.238745
3328.825052,1850.514855,-9104.533087,306.438199
3328.825380,1998.556043,-11843.295072,1838.629195
3328.825707,2442.679609,-11843.295072,2374.896044
3328.826035,2072.576638,-11177.109724,766.095498
3328.826362,814.226536,-10066.800811,842.705048
3328.826690,814.226536,-8808.450710,-612.876398
3328.827017,370.102971,-8290.306550,-2221.676944
3328.827344,740.205942,-8586.388927,-2374.896044
3328.827672,222.061783,-9474.636058,-995.924147
3328.827999,1110.308913,-9844.739029,1302.362347
3328.828327,1110.308913,-10214.842000,3217.601092
3328.828654,518.144159,-9030.512492,2221.676944
3328.828982,740.205942,-9696.697840,1072.533697
3328.829309,-962.267725,-9992.780217,0.000000
3328.829637,-296.082377,-7698.141797,-766.095498
3328.829964,222.061783,-5773.606348,-1608.800546
3328.830292,1258.350101,-7402.059420,-1685.410096
3328.830619,-370.102971,-10955.047942,383.047749
3328.830946,296.082377,-11843.295072,919.314598
3328.831274,2072.576638,-11843.295072,153.219100
3328.831601,2220.617826,-11695.253884,-536.266849
3328.831929,2442.679609,-10362.883188,-306.438199
3328.832256,814.226536,-9844.739029,1532.190996
3328.832584,1184.329507,-9030.512492,2068.457845
3328.832911,74.020594,-8882.471304,383.047749
3328.833239,-1850.514855,-8882.471304,-1225.752797
3328.833566,-1924.535449,-8290.306550,-2068.457845
3328.833894,-1480.411884,-9030.512492,-1915.238745
3328.834221,518.144159,-10362.883188,-612.876398
3328.834548,148.041188,-14434.015869,919.314598
3328.834876,444.123565,-11325.150913,612.876398
3328.835203,962.267725,-8438.347739,-1378.971896
3328.835531,-222.061783,-9252.574275,-1149.143247
3328.835858,-814.226536,-10362.883188,0.000000
3328.836186,-2664.741391,-8734.430116,-612.876398
3328.836513,-1924.535449,-7179.997637,-1302.362347
3328.836841,-888.247130,-9844.739029,-995.924147
3328.837168,-370.102971,-10732.986159,-995.924147
3328.837495,0.000000,-10066.800811,153.219100
3328.837823,-370.102971,-9770.718434,995.924147
3328.838150,1184.329507,-9770.718434,0.000000
3328.838478,222.061783,-9178.553681,-842.705048
3328.838805,148.041188,-8438.347739,919.314598
3328.839133,-1036.288319,-8290.306550,1685.410096
3328.839460,-296.082377,-7846.182985,383.047749
3328.839788,1480.411884,-10066.800811,-1302.362347
3328.840115,148.041188,-10066.800811,-1532.190996
3328.840443,1332.370696,-9474.636058,-995.924147
3328.840770,74.020594,-10658.965565,383.047749
3328.841097,370.102971,-10955.047942,383.047749
3328.841425,-518.144159,-9918.759623,0.000000
3328.841752,74.020594,-8364.327145,0.000000
3328.842080,0.000000,-8068.244768,153.219100
3328.842407,888.247130,-10436.903782,76.609550
3328.842735,2220.617826,-9622.677246,-612.876398
3328.843062,1776.494261,-8956.491898,-1915.238745
3328.843390,-962.267725,-9474.636058,-842.705048
3328.843717,-1258.350101,-12805.562797,383.047749
3328.844045,-444.123565,-10140.821405,-1838.629195
3328.844372,2590.720797,-8216.285956,-2834.553343
3328.844699,2294.638420,-10436.903782,536.266849
3328.845027,4367.215058,-14211.954086,2298.286494
3328.845354,3404.947333,-11621.233289,1915.238745
3328.845682,1924.535449,-7772.162391,-459.657299
3328.846009,74.020594,-6439.791695,-2451.505594
3328.846337,-370.102971,-8660.409521,-2834.553343
3328.846664,148.041188,-10955.047942,-459.657299
3328.846992,0.000000,-10584.944971,306.438199
3328.847319,740.205942,-9474.636058,1302.362347
3328.847647,3034.844362,-11177.109724,1685.410096
3328.847974,1332.370696,-10288.862594,2681.334243
3328.848301,-814.226536,-9696.697840,2757.943793
3328.848629,-2738.761985,-6069.688724,-995.924147
3328.848956,-1554.432478,-5699.585753,-3600.648841
3328.849284,-2442.679609,-7550.100608,-4673.182538
3328.849611,-1036.288319,-10658.965565,-1149.143247
3328.849939,0.000000,-11843.295072,2987.772442
3328.850266,2368.659014,-11621.233289,2451.505594
3328.850594,3182.885551,-12435.459826,229.828649
3328.850921,2294.638420,-11547.212695,-1225.752797
3328.851249,1702.473667,-7846.182985,-995.924147
3328.851576,-444.123565,-7179.997637,1072.533697
3328.851903,-1036.288319,-7402.059420,1072.533697
3328.852231,592.164754,-8512.368333,-383.047749
3328.852558,0.000000,-9918.759623,383.047749
3328.852886,-296.082377,-11325.150913,1915.238745
3328.853213,74.020594,-9326.594869,536.266849
3328.853541,1776.494261,-9548.656652,-1762.019645
3328.853868,444.123565,-11769.274478,-2681.334243
3328.854196,-1184.329507,-12583.501014,-1302.362347
3328.854523,-1332.370696,-9104.533087,-153.219100
3328.854851,-296.082377,-7254.018232,-995.924147
3328.855178,1184.329507,-10584.944971,-536.266849
3328.855505,666.185348,-12139.377449,-306.438199
3328.855833,-370.102971,-10807.006753,1302.362347
3328.856160,-814.226536,-9178.553681,0.000000
3328.856488,-370.102971,-7994.224174,-1915.238745
3328.856815,-814.226536,-9030.512492,-1762.019645
3328.857143,-1184.329507,-8438.347739,306.438199
3328.857470,-592.164754,-9030.512492,2145.067394
3328.857798,-1184.329507,-9548.656652,1149.143247
3328.858125,1258.350101,-9844.739029,-919.314598
3328.858453,1258.350101,-9770.718434,-2145.067394
3328.858780,1036.288319,-9474.636058,-306.438199
3328.859107,1258.350101,-10584.944971,1838.629195
3328.859435,0.000000,-8734.430116,459.657299
3328.859762,592.164754,-9030.512492,-995.924147
3328.860090,-740.205942,-10288.862594,-612.876398
3328.860417,0.000000,-10140.821405,229.828649
3328.860745,222.061783,-9326.594869,842.705048
3328.861072,296.082377,-9474.636058,-689.485948
3328.861400,370.102971,-10510.924376,-2451.505594
3328.861727,-148.041188,-10732.986159,-1685.410096
3328.862054,888.247130,-9622.677246,536.266849
3328.862382,1110.308913,-8660.409521,229.828649
3328.862709,1554.432478,-9252.574275,383.047749
3328.863037,1332.370696,-9696.697840,1072.533697
3328.863364,740.205942,-9474.636058,1302.362347
3328.863692,1332.370696,-9178.553681,766.095498
3328.864019,296.082377,-9918.759623,-153.219100
3328.864347,-296.082377,-10584.944971,-766.095498
3328.864674,0.000000,-8956.491898,-2757.943793
3328.865002,-296.082377,-10658.965565,-1608.800546
3328.865329,444.123565,-10510.924376,-766.095498
3328.865656,888.247130,-9696.697840,153.219100
3328.865984,2072.576638,-10955.047942,229.828649
3328.866311,888.247130,-10288.862594,153.219100
3328.866639,370.102971,-9030.512492,459.657299
3328.866966,-444.123565,-8438.347739,612.876398
3328.867294,-1036.288319,-8216.285956,-612.876398
3328.867621,-592.164754,-9030.512492,-306.438199
3328.867949,-666.185348,-9992.780217,-153.219100
3328.868276,222.061783,-10140.821405,-995.924147
3328.868604,-370.102971,-9474.636058,-1072.533697
3328.868931,-666.185348,-9770.718434,-689.485948
3328.869258,0.000000,-9844.739029,-1149.143247
3328.869586,370.102971,-9252.574275,306.438199
3328.869913,592.164754,-9844.739029,995.924147
3328.870241,444.123565,-10214.842000,1072.533697
3328.870568,1924.535449,-8956.491898,229.828649
3328.870896,1998.556043,-9548.656652,-689.485948
3328.871223,1110.308913,-10362.883188,919.314598
3328.871551,296.082377,-8512.368333,919.314598
3328.871878,-888.247130,-8364.327145,536.266849
3328.872206,0.000000,-8734.430116,-612.876398
3328.872533,444.123565,-9400.615463,-1608.800546
3328.872860,0.000000,-10510.924376,0.000000
3328.873188,740.205942,-12583.501014,536.266849
3328.873515,1480.411884,-12065.356855,-1302.362347
3328.873843,1850.514855,-9770.718434,-2911.162892
3328.874170,814.226536,-9326.594869,-1991.848295
3328.874498,444.123565,-9770.718434,919.314598
3328.874825,-222.061783,-10214.842000,1685.410096
3328.875153,0.000000,-9178.553681,1072.533697
3328.875480,-592.164754,-7402.059420,-612.876398
3328.875808,-888.247130,-7624.121203,-612.876398
3328.876135,-222.061783,-8512.368333,76.609550
3328.876462,-740.205942,-9622.677246,76.609550
3328.876790,518.144159,-10288.862594,-1072.533697
3328.877117,1850.514855,-10436.903782,-1915.238745
3328.877445,2072.576638,-10658.965565,-459.657299
3328.877772,962.267725,-10510.924376,2298.286494
3328.878100,74.020594,-9030.512492,2374.896044
3328.878427,888.247130,-8660.409521,153.219100
3328.878755,-296.082377,-8290.306550,-536.266849
3328.879082,-444.123565,-8512.368333,-536.266849
3328.879410,-1480.411884,-10288.862594,459.657299
3328.879737,-962.267725,-10362.883188,-383.047749
3328.880064,814.226536,-9918.759623,-2298.286494
3328.880392,518.144159,-11251.130318,-2221.676944
3328.880719,0.000000,-10658.965565,153.219100
3328.881047,-592.164754,-9918.759623,1838.629195
3328.881374,740.205942,-8882.471304,1149.143247
3328.881702,2220.617826,-9030.512492,0.000000
3328.882029,1258.350101,-8882.471304,383.047749
3328.882357,0.000000,-9326.594869,2221.676944
3328.882684,-1036.288319,-9178.553681,1149.143247
3328.883012,-740.205942,-9326.594869,-1608.800546
3328.883339,-1110.308913,-10584.944971,-2528.115143
3328.883666,-370.102971,-10955.047942,-1915.238745
3328.883994,-666.185348,-10436.903782,-383.047749
3328.884321,-1110.308913,-10214.842000,153.219100
3328.884649,1850.514855,-9696.697840,0.000000
3328.884976,2516.700203,-9178.553681,-536.266849
3328.885304,1406.391290,-9252.574275,1378.971896
3328.885631,-1332.370696,-9992.780217,2374.896044
3328.885959,-962.267725,-8808.450710,0.000000
3328.886286,888.247130,-8512.368333,-2145.067394
3328.886614,0.000000,-10066.800811,-1225.752797
3328.886941,-1628.453072,-11325.150913,2298.286494
3328.887268,-3256.906145,-10658.965565,2451.505594
3328.887596,-1184.329507,-8882.471304,-1762.019645
3328.887923,148.041188,-8364.327145,-4903.011187
3328.888251,-1554.432478,-8364.327145,-2604.724693
3328.888578,-2664.741391,-9252.574275,1455.581446
3328.888906,-1110.308913,-9474.636058,1762.019645
3328.889233,2294.638420,-9474.636058,-919.314598
3328.889561,2516.700203,-11621.233289,-1455.581446
3328.889888,1924.535449,-10732.986159,1302.362347
3328.890215,1110.308913,-8808.450710,2145.067394
3328.890543,1036.288319,-8438.347739,1608.800546
3328.890870,2664.741391,-9400.615463,-1378.971896
3328.891198,1110.308913,-8808.450710,-1378.971896
3328.891525,-370.102971,-8660.409521,229.828649
3328.891853,-518.144159,-9918.759623,766.095498
3328.892180,1924.535449,-11251.130318,-1608.800546
3328.892508,4145.153275,-12139.377449,-3370.820191
3328.892835,3034.844362,-13545.768739,-1072.533697
3328.893163,2368.659014,-10881.027347,1149.143247
3328.893490,1702.473667,-7994.224174,689.485948
3328.893817,1110.308913,-8956.491898,-306.438199
3328.894145,888.247130,-8512.368333,-1532.190996
3328.894472,-1554.432478,-7179.997637,459.657299
3328.894800,-1628.453072,-8882.471304,1149.143247
3328.895127,0.000000,-9474.636058,-1072.533697
3328.895455,1998.556043,-10288.862594,-2757.943793
3328.895782,1702.473667,-11843.295072,-1532.190996
3328.896110,1110.308913,-11621.233289,1149.143247
3328.896437,1776.494261,-9252.574275,1532.190996
3328.896765,1036.288319,-8882.471304,1455.581446
3328.897092,1406.391290,-8364.327145,612.876398
3328.897419,592.164754,-7550.100608,842.705048
3328.897747,-296.082377,-9548.656652,2834.553343
3328.898074,-1036.288319,-8956.491898,2145.067394
3328.898402,-888.247130,-8290.306550,-1302.362347
3328.898729,-1184.329507,-9474.636058,-3753.867940
3328.899057,-2072.576638,-10955.047942,-2911.162892
3328.899384,-518.144159,-10510.924376,-536.266849
3328.899712,-296.082377,-9844.739029,1378.971896
3328.900039,518.144159,-10510.924376,1378.971896
3328.900367,0.000000,-8512.368333,1149.143247
3328.900694,-370.102971,-8956.491898,1455.581446
3328.901021,-592.164754,-9252.574275,1302.362347
3328.901349,0.000000,-8364.327145,-459.657299
3328.901676,-1110.308913,-8586.388927,-995.924147
3328.902004,-1998.556043,-10362.883188,-1149.143247
3328.902331,-1036.288319,-12139.377449,-612.876398
3328.902659,-1184.329507,-10955.047942,-306.438199
3328.902986,-1258.350101,-10807.006753,-459.657299
3328.903314,-814.226536,-10436.903782,-1072.533697
3328.903641,-888.247130,-9622.677246,-1072.533697
3328.903969,-962.267725,-9474.636058,229.828649
3328.904296,74.020594,-8734.430116,229.828649
3328.904623,370.102971,-8364.327145,-306.438199
3328.904951,370.102971,-10732.986159,-689.485948
3328.905278,-296.082377,-11251.130318,-536.266849
3328.905606,-666.185348,-9326.594869,229.828649
3328.905933,-888.247130,-9252.574275,153.219100
3328.906261,-1332.370696,-10658.965565,459.657299
3328.906588,-1480.411884,-10288.862594,-459.657299
3328.906916,-444.123565,-8956.491898,-1149.143247
3328.907243,-1184.329507,-8660.409521,-689.485948
3328.907571,0.000000,-7920.203579,-1378.971896
3328.907898,1628.453072,-8660.409521,-1838.629195
3328.908225,1554.432478,-9474.636058,229.828649
3328.908553,2368.659014,-9696.697840,1608.800546
3328.908880,1776.494261,-10510.924376,2604.724693
3328.909208,2368.659014,-9770.718434,2068.457845
3328.909535,3182.885551,-9104.533087,-459.657299
3328.909863,1258.350101,-8512.368333,-536.266849
3328.910190,814.226536,-9474.636058,383.047749
3328.910518,370.102971,-8734.430116,-153.219100
3328.910845,1702.473667,-8512.368333,-1915.238745
3328.911173,1924.535449,-10584.944971,-2221.676944
3328.911500,2368.659014,-10436.903782,-995.924147
3328.911827,3256.906145,-11621.233289,1455.581446
3328.912155,3775.050304,-11991.336260,1455.581446
3328.912482,2886.803174,-9400.615463,383.047749
3328.912810,962.267725,-7994.224174,-306.438199
3328.913137,444.123565,-10140.821405,0.000000
3328.913465,666.185348,-10732.986159,-1302.362347
3328.913792,666.185348,-9104.533087,-1838.629195
3328.914120,518.144159,-9104.533087,-1991.848295
3328.914447,1110.308913,-10658.965565,-1991.848295
3328.914775,2072.576638,-9770.718434,-306.438199
3328.915102,1406.391290,-11103.089130,2451.505594
3328.915429,1850.514855,-10436.903782,2528.115143
3328.915757,1554.432478,-9178.553681,995.924147
3328.916084,74.020594,-9474.636058,842.705048
3328.916412,-666.185348,-9770.718434,612.876398
3328.916739,-1628.453072,-8290.306550,153.219100
3328.917067,-296.082377,-8438.347739,-459.657299
3328.917394,-1628.453072,-9326.594869,-842.705048
3328.917722,-1480.411884,-9474.636058,-1762.019645
3328.918049,-2294.638420,-8882.471304,-689.485948
3328.918376,-2738.761985,-9992.780217,689.485948
3328.918704,-518.144159,-10066.800811,229.828649
3328.919031,-370.102971,-9770.718434,689.485948
3328.919359,-1480.411884,-10436.903782,1762.019645
3328.919686,-1776.494261,-10140.821405,1915.238745
3328.920014,-888.247130,-7994.224174,-229.828649
3328.920341,814.226536,-8734.430116,-1532.190996
3328.920669,0.000000,-8808.450710,-1608.800546
3328.920996,-1036.288319,-8956.491898,0.000000
3328.921324,-2664.741391,-9474.636058,536.266849
3328.921651,-1702.473667,-10066.800811,536.266849
3328.921978,0.000000,-10214.842000,-1302.362347
3328.922306,-1332.370696,-10955.047942,306.438199
3328.922633,-2442.679609,-11399.171507,1455.581446
3328.922961,-1924.535449,-10436.903782,-689.485948
3328.923288,2220.617826,-10066.800811,-3600.648841
3328.923616,1924.535449,-10436.903782,-3370.820191
3328.923943,222.061783,-9474.636058,-536.266849
3328.924271,-2294.638420,-9622.677246,1378.971896
3328.924598,-666.185348,-10510.924376,0.000000
3328.924926,1628.453072,-9178.553681,-1685.410096
3328.925253,1110.308913,-9548.656652,-306.438199
3328.925580,0.000000,-10807.006753,2681.334243
3328.925908,-888.247130,-11917.315666,2451.505594
3328.926235,1110.308913,-9696.697840,-2221.676944
3328.926563,2294.638420,-8586.388927,-5362.668486
3328.926890,-666.185348,-8142.265362,-3370.820191
3328.927218,-296.082377,-7698.141797,0.000000
3328.927545,518.144159,-8808.450710,1225.752797
3328.927873,2812.782580,-10510.924376,1532.190996
3328.928200,3478.967927,-11473.192101,1762.019645
3328.928528,2738.761985,-10955.047942,2374.896044
3328.928855,3182.885551,-11029.068536,1608.800546
3328.929182,3034.844362,-8808.450710,-995.924147
3328.929510,3552.988522,-7550.100608,-2604.724693
3328.929837,2368.659014,-7402.059420,-2068.457845
3328.930165,1332.370696,-8512.368333,842.705048
3328.930492,1184.329507,-9104.533087,3140.991542
3328.930820,1998.556043,-9474.636058,2911.162892
3328.931147,4367.215058,-11103.089130,536.266849
3328.931475,3256.906145,-12213.398043,153.219100
3328.931802,1850.514855,-11621.233289,0.000000
3328.932130,814.226536,-9992.780217,-459.657299
3328.932457,1184.329507,-8438.347739,-2221.676944
3328.932784,2294.638420,-8660.409521,-2834.553343
3328.933112,592.164754,-9770.718434,76.609550
3328.933439,0.000000,-9474.636058,1532.190996
3328.933767,-962.267725,-10140.821405,2068.457845
3328.934094,-370.102971,-9844.739029,536.266849
3328.934422,-222.061783,-8586.388927,-995.924147
3328.934749,-1332.370696,-9548.656652,0.000000
3328.935077,-1924.535449,-11251.130318,612.876398
3328.935404,-1850.514855,-9474.636058,-1072.533697
3328.935732,592.164754,-8660.409521,-2757.943793
3328.936059,-296.082377,-10288.862594,-2451.505594
3328.936386,-1406.391290,-10510.924376,536.266849
3328.936714,-2442.679609,-9252.574275,1838.629195
3328.937041,-3108.864956,-9030.512492,919.314598
3328.937369,-962.267725,-9622.677246,-1532.190996
3328.937696,-740.205942,-9770.718434,-2221.676944
3328.938024,-1110.308913,-11325.150913,459.657299
3328.938351,-1850.514855,-11621.233289,1455.581446
3328.938679,74.020594,-8882.471304,-1072.533697
3328.939006,74.020594,-9030.512492,-2757.943793
3328.939334,-2516.700203,-9400.615463,-1149.143247
3328.939661,-2294.638420,-7846.182985,229.828649
3328.939988,-962.267725,-8734.430116,1532.190996
3328.940316,-740.205942,-9474.636058,459.657299
3328.940643,-740.205942,-10658.965565,612.876398
3328.940971,-1406.391290,-9770.718434,689.485948
3328.941298,-148.041188,-9918.759623,306.438199
3328.941626,-666.185348,-10955.047942,-1225.752797
3328.941953,0.000000,-9918.759623,-3140.991542
3328.942281,-814.226536,-9474.636058,-2528.115143
3328.942608,1036.288319,-8586.388927,-689.485948
3328.942936,1110.308913,-10436.903782,766.095498
3328.943263,-518.144159,-11621.233289,1762.019645
3328.943590,370.102971,-9548.656652,0.000000
3328.943918,74.020594,-8586.388927,-2451.505594
3328.944245,1184.329507,-9992.780217,-1455.581446
3328.944573,1332.370696,-10881.027347,459.657299
3328.944900,2146.597232,-9030.512492,1991.848295
3328.945228,3627.009116,-9474.636058,76.609550
3328.945556,1850.514855,-9696.697840,0.000000
3328.945883,888.247130,-8734.430116,306.438199
3328.946211,-1480.411884,-8142.265362,229.828649
3328.946538,74.020594,-8216.285956,-995.924147
3328.946866,666.185348,-8586.388927,-2145.067394
3328.947193,1036.288319,-10658.965565,-383.047749
3328.947521,3330.926739,-12805.562797,1532.190996
3328.947848,5107.421000,-11843.295072,919.314598
3328.948176,6217.729913,-10807.006753,153.219100
3328.948503,4441.235652,-9326.594869,0.000000
3328.948831,2960.823768,-6069.688724,0.000000
3328.949158,1406.391290,-7031.956449,2068.457845
3328.949486,444.123565,-9474.636058,2528.115143
3328.949813,2072.576638,-9696.697840,306.438199
3328.950141,888.247130,-10288.862594,-612.876398
3328.950468,1850.514855,-11547.212695,-842.705048
3328.950796,370.102971,-11399.171507,-1225.752797
3328.951123,1406.391290,-11473.192101,-2221.676944
3328.951451,1480.411884,-10510.924376,-1838.629195
3328.951778,1480.411884,-8364.327145,-2145.067394
3328.952106,-444.123565,-7772.162391,0.000000
3328.952433,-2072.576638,-10066.800811,2451.505594
3328.952761,-888.247130,-8882.471304,1838.629195
3328.953088,-888.247130,-8956.491898,-536.266849
3328.953416,-1480.411884,-10584.944971,-689.485948
3328.953743,-666.185348,-11029.068536,-995.924147
3328.954071,-1776.494261,-9400.615463,-1991.848295
3328.954398,-74.020594,-10584.944971,-1685.410096
3328.954726,-222.061783,-9400.615463,-1991.848295
3328.955054,-296.082377,-8142.265362,-612.876398
3328.955381,-1998.556043,-10214.842000,2068.457845
3328.955709,-2294.638420,-10214.842000,2451.505594
3328.956036,-666.185348,-8364.327145,153.219100
3328.956364,-888.247130,-9622.677246,-1532.190996
3328.956691,-2072.576638,-11473.192101,-1762.019645
3328.957019,-2812.782580,-10732.986159,-919.314598
3328.957346,-2072.576638,-7920.203579,-1762.019645
3328.957674,0.000000,-9844.739029,-2451.505594
3328.958001,-666.185348,-10658.965565,-1762.019645
3328.958329,-1184.329507,-9992.780217,0.000000
3328.958656,-2368.659014,-8734.430116,2298.286494
3328.958984,-740.205942,-8734.430116,612.876398
3328.959311,74.020594,-9992.780217,306.438199
3328.959639,-592.164754,-10436.903782,306.438199
3328.959966,-1406.391290,-9844.739029,536.266849
3328.960294,-222.061783,-9326.594869,-459.657299
3328.960621,2442.679609,-9252.574275,-2221.676944
3328.960949,666.185348,-10288.862594,-1149.143247
3328.961276,-592.164754,-9252.574275,383.047749
3328.961604,-814.226536,-9474.636058,153.219100
3328.961931,370.102971,-9548.656652,76.609550
3328.962259,2294.638420,-10436.903782,-766.095498
3328.962586,0.000000,-11399.171507,229.828649
3328.962914,1258.350101,-10807.006753,76.609550
3328.963241,888.247130,-9030.512492,-995.924147
3328.963569,3552.988522,-9030.512492,-3677.258390
3328.963896,2886.803174,-10066.800811,-1225.752797
3328.964224,2072.576638,-9104.533087,1072.533697
3328.964552,2146.597232,-9622.677246,1991.848295
3328.964879,2294.638420,-11103.089130,1378.971896
3328.965207,4071.132681,-9918.759623,0.000000
3328.965534,2072.576638,-8586.388927,-229.828649
3328.965862,370.102971,-9770.718434,229.828649
3328.966189,444.123565,-10510.924376,-842.705048
3328.966517,0.000000,-9992.780217,-2298.286494
3328.966844,2368.659014,-9548.656652,-2757.943793
3328.967172,1406.391290,-9474.636058,-1225.752797
3328.967499,1776.494261,-9474.636058,1608.800546
3328.967827,740.205942,-9474.636058,3294.210641
3328.968154,2146.597232,-9548.656652,2451.505594
3328.968482,3330.926739,-8586.388927,0.000000
3328.968809,1702.473667,-9696.697840,536.266849
3328.969137,1702.473667,-11029.068536,1455.581446
3328.969464,1332.370696,-9770.718434,229.828649
3328.969792,2812.782580,-10140.821405,-1532.190996
3328.970119,1110.308913,-9326.594869,-2221.676944
3328.970447,0.000000,-9400.615463,-995.924147
3328.970774,-740.205942,-8586.388927,306.438199
3328.971102,-962.267725,-9104.533087,1991.848295
3328.971429,1850.514855,-9622.677246,153.219100
3328.971757,1110.308913,-11177.109724,229.828649
3328.972084,222.061783,-11843.295072,919.314598
3328.972412,-888.247130,-9104.533087,-536.266849
3328.972739,-1258.350101,-9696.697840,-2298.286494
3328.973067,-1628.453072,-10288.862594,-3677.258390
3328.973394,-3849.070898,-9252.574275,-3217.601092
3328.973722,-3923.091493,-8660.409521,-919.314598
3328.974050,-3701.029710,-8438.347739,1149.143247
3328.974377,-740.205942,-9992.780217,1991.848295
3328.974705,74.020594,-10066.800811,1378.971896
3328.975032,-1036.288319,-9770.718434,1378.971896
3328.975360,-1776.494261,-8660.409521,153.219100
3328.975687,-1628.453072,-8734.430116,-2145.067394
3328.976015,-1258.350101,-10881.027347,-2604.724693
3328.976342,-1702.473667,-10584.944971,-2451.505594
3328.976670,-1184.329507,-9400.615463,-1149.143247
3328.976997,-592.164754,-10362.883188,459.657299
3328.977325,148.041188,-10214.842000,1378.971896
3328.977652,-592.164754,-9696.697840,1072.533697
3328.977980,-1702.473667,-9474.636058,153.219100
3328.978307,-1184.329507,-10140.821405,-689.485948
3328.978635,-1036.288319,-9474.636058,-1762.019645
3328.978962,-296.082377,-8808.450710,-1608.800546
3328.979290,222.061783,-10510.924376,-919.314598
3328.979617,1332.370696,-10362.883188,-919.314598
3328.979945,1184.329507,-8882.471304,0.000000
3328.980272,222.061783,-9178.553681,1149.143247
3328.980600,1776.494261,-8586.388927,536.266849
3328.980927,1628.453072,-8882.471304,153.219100
3328.981255,444.123565,-10140.821405,536.266849
3328.981582,444.123565,-12139.377449,76.609550
3328.981910,740.205942,-10288.862594,-2298.286494
3328.982237,2960.823768,-9622.677246,-2987.772442
3328.982565,2368.659014,-10436.903782,-2528.115143
3328.982892,3404.947333,-11177.109724,306.438199
3328.983220,2738.761985,-10140.821405,2834.553343
3328.983547,3034.844362,-8364.327145,2681.334243
3328.983875,3775.050304,-8438.347739,612.876398
3328.984203,1406.391290,-8882.471304,1302.362347
3328.984530,2442.679609,-9252.574275,459.657299
3328.984858,1480.411884,-7846.182985,-459.657299
3328.985185,1480.411884,-9474.636058,-1838.629195
3328.985513,740.205942,-10288.862594,-766.095498
3328.985840,814.226536,-9992.780217,-689.485948
3328.986168,1998.556043,-10214.842000,-612.876398
3328.986495,296.082377,-9844.739029,-689.485948
3328.986823,222.061783,-7994.224174,229.828649
3328.987150,518.144159,-7994.224174,229.828649
3328.987478,1036.288319,-10214.842000,1225.752797
3328.987805,1628.453072,-10584.944971,995.924147
3328.988133,1332.370696,-10362.883188,459.657299
3328.988460,1776.494261,-10881.027347,-919.314598
3328.988788,1924.535449,-10658.965565,-1685.410096
3328.989115,1332.370696,-8734.430116,-919.314598
3328.989443,-222.061783,-9622.677246,1838.629195
3328.989770,-370.102971,-10510.924376,1915.238745
3328.990098,814.226536,-8586.388927,153.219100
3328.990425,-1110.308913,-8808.450710,383.047749
3328.990753,-1776.494261,-9548.656652,1072.533697
3328.991080,-1776.494261,-11843.295072,76.609550
3328.991408,-444.123565,-11473.192101,-1991.848295
3328.991735,-296.082377,-9474.636058,-2987.772442
3328.992063,-1702.473667,-9326.594869,-3064.381992
3328.992390,-1480.411884,-9474.636058,-1225.752797
3328.992718,-2664.741391,-9696.697840,536.266849
3328.993045,-1406.391290,-9474.636058,1225.752797
3328.993373,-2146.597232,-8734.430116,919.314598
3328.993701,-1628.453072,-8438.347739,1608.800546
3328.994028,-1332.370696,-8586.388927,842.705048
3328.994356,-1258.350101,-10214.842000,0.000000
3328.994683,518.144159,-10955.047942,-1072.533697
3328.995011,592.164754,-9622.677246,-3064.381992
3328.995338,-518.144159,-9326.594869,-1838.629195
3328.995666,-1554.432478,-9844.739029,0.000000
3328.995993,-1332.370696,-9474.636058,1302.362347
3328.996321,74.020594,-9178.553681,1072.533697
3328.996648,-888.247130,-9400.615463,995.924147
3328.996976,-888.247130,-10658.965565,1072.533697
3328.997303,-1332.370696,-10288.862594,0.000000
3328.997631,-296.082377,-9030.512492,-2145.067394
3328.997958,444.123565,-8586.388927,-3830.477490
3328.998286,222.061783,-10140.821405,-2681.334243
3328.998613,0.000000,-10658.965565,-383.047749
3328.998941,-814.226536,-8956.491898,1225.752797
3328.999268,1036.288319,-8734.430116,612.876398
3328.999596,1924.535449,-10362.883188,383.047749
3328.999923,2146.597232,-9770.718434,1072.533697
3329.000251,2072.576638,-9030.512492,153.219100
3329.000578,444.123565,-9622.677246,0.000000
3329.000906,2294.638420,-11177.109724,-1455.581446
3329.001233,1480.411884,-11325.150913,-2451.505594
3329.001561,2220.617826,-10288.862594,-2451.505594
3329.001888,1332.370696,-9252.574275,0.000000
3329.002216,888.247130,-9622.677246,1608.800546
3329.002543,2812.782580,-10584.944971,2068.457845
3329.002871,2368.659014,-10881.027347,1302.362347
3329.003199,2442.679609,-9696.697840,-229.828649
3329.003526,222.061783,-9918.759623,-766.095498
3329.003854,1628.453072,-9178.553681,-1378.971896
3329.004181,3330.926739,-8734.430116,-1762.019645
3329.004509,3182.885551,-9104.533087,0.000000
3329.004836,2072.576638,-9918.759623,2528.115143
3329.005164,1036.288319,-9918.759623,4366.744339
3329.005491,2886.803174,-9326.594869,1149.143247
3329.005819,444.123565,-8882.471304,229.828649
3329.006146,-1702.473667,-9252.574275,0.000000
3329.006474,-2220.617826,-8068.244768,-995.924147
3329.006801,-2664.741391,-7105.977043,-2068.457845
3329.007129,-148.041188,-9326.594869,-2987.772442
3329.007456,-592.164754,-11325.150913,-2145.067394
3329.007784,1332.370696,-11621.233289,689.485948
3329.008111,1554.432478,-11103.089130,2145.067394
3329.008439,3034.844362,-10436.903782,1532.190996
3329.008766,2886.803174,-9252.574275,995.924147
3329.009094,888.247130,-8956.491898,2374.896044
3329.009421,222.061783,-8734.430116,1302.362347
3329.009749,-888.247130,-10066.800811,229.828649
3329.010076,-814.226536,-9622.677246,-1532.190996
3329.010404,-1480.411884,-9400.615463,-3064.381992
3329.010731,-1406.391290,-11029.068536,-2987.772442
3329.011059,-592.164754,-11325.150913,-1225.752797
3329.011386,444.123565,-12139.377449,995.924147
3329.011714,2220.617826,-10807.006753,0.000000
3329.012041,-666.185348,-8660.409521,689.485948
3329.012369,-2294.638420,-9474.636058,919.314598
3329.012697,-3034.844362,-10140.821405,-612.876398
3329.013024,-3034.844362,-9474.636058,-1762.019645
3329.013352,-814.226536,-7994.224174,-2528.115143
3329.013679,-1110.308913,-9104.533087,-1302.362347
3329.014007,-1110.308913,-11177.109724,459.657299
3329.014334,-1702.473667,-8882.471304,0.000000
3329.014662,444.123565,-8512.368333,-842.705048
3329.014989,1628.453072,-9326.594869,-536.266849
3329.015317,370.102971,-9474.636058,1302.362347
3329.015644,0.000000,-8882.471304,2068.457845
3329.015972,296.082377,-8882.471304,2374.896044
3329.016299,2368.659014,-10436.903782,76.609550
3329.016627,1702.473667,-9992.780217,-1685.410096
3329.016954,-1184.329507,-8956.491898,-919.314598
3329.017282,-1850.514855,-8586.388927,0.000000
3329.017609,-1406.391290,-10140.821405,-766.095498
3329.017937,444.123565,-9622.677246,-1991.848295
3329.018264,-222.061783,-9252.574275,-919.314598
3329.018592,0.000000,-10658.965565,995.924147
3329.018919,1258.350101,-10881.027347,766.095498
3329.019247,1776.494261,-9474.636058,153.219100
3329.019574,3849.070898,-8660.409521,-2451.505594
3329.019902,2590.720797,-9474.636058,-1225.752797
3329.020229,444.123565,-9918.759623,1762.019645
3329.020557,-444.123565,-9622.677246,2374.896044
3329.020884,1776.494261,-10066.800811,-612.876398
3329.021212,2442.679609,-9992.780217,-2528.115143
3329.021539,592.164754,-11103.089130,-919.314598
3329.021867,0.000000,-11473.192101,919.314598
3329.022195,888.247130,-11399.171507,383.047749
3329.022522,2812.782580,-10881.027347,-1608.800546
3329.022850,2220.617826,-9770.718434,-2145.067394
3329.023177,814.226536,-9844.739029,0.000000
3329.023505,1480.411884,-8290.306550,1532.190996
3329.023832,2886.803174,-7476.080014,1149.143247
3329.024160,1628.453072,-7698.141797,1455.581446
3329.024487,74.020594,-9252.574275,2757.943793
3329.024815,370.102971,-9400.615463,1991.848295
3329.025142,-666.185348,-9992.780217,306.438199
3329.025470,-1258.350101,-10658.965565,-842.705048
3329.025797,-1258.350101,-8512.368333,-4136.915689
3329.026125,-1480.411884,-7698.141797,-2604.724693
3329.026452,-222.061783,-8586.388927,-306.438199
3329.026780,148.041188,-9622.677246,1838.629195
3329.027107,814.226536,-10955.047942,2834.553343
3329.027435,1554.432478,-9696.697840,2528.115143
3329.027762,1850.514855,-9252.574275,536.266849
3329.028090,962.267725,-9178.553681,536.266849
3329.028417,-1036.288319,-9326.594869,1225.752797
3329.028745,0.000000,-9252.574275,-689.485948
3329.029072,444.123565,-8956.491898,-2911.162892
3329.029400,-962.267725,-10881.027347,-1225.752797
3329.029727,-1850.514855,-11103.089130,0.000000
3329.030055,-1554.432478,-9844.739029,229.828649
3329.030382,814.226536,-9992.780217,0.000000
3329.030710,1258.350101,-12435.459826,153.219100
3329.031037,74.020594,-12583.501014,1225.752797
3329.031365,-962.267725,-9252.574275,76.609550
3329.031693,-814.226536,-8734.430116,-2451.505594
3329.032020,-666.185348,-9992.780217,-4673.182538
3329.032348,-2072.576638,-10362.883188,-1991.848295
3329.032675,-3330.926739,-8660.409521,-383.047749
3329.033003,-3552.988522,-8216.285956,0.000000
3329.033330,0.000000,-10436.903782,0.000000
3329.033658,1776.494261,-9178.553681,-766.095498
3329.033985,1850.514855,-9622.677246,766.095498
3329.034313,1184.329507,-11177.109724,1838.629195
3329.034640,2072.576638,-10288.862594,-229.828649
3329.034968,2886.803174,-8364.327145,-1149.143247
3329.035295,2146.597232,-6661.853478,-1225.752797
3329.035623,0.000000,-9326.594869,1838.629195
3329.035950,-814.226536,-10436.903782,2987.772442
3329.036278,0.000000,-9770.718434,1532.190996
3329.036605,444.123565,-8512.368333,-2451.505594
3329.036933,-888.247130,-9474.636058,-2221.676944
3329.037260,-962.267725,-10658.965565,-459.657299
3329.037588,-1554.432478,-9474.636058,383.047749
3329.037915,962.267725,-9030.512492,-1608.800546
3329.038243,2294.638420,-9104.533087,-3064.381992
3329.038570,1850.514855,-10362.883188,0.000000
3329.038898,2072.576638,-8808.450710,2911.162892
3329.039225,2590.720797,-8216.285956,2681.334243
3329.039553,2294.638420,-9474.636058,1072.533697
3329.039880,-148.041188,-9326.594869,0.000000
3329.040208,-888.247130,-10140.821405,-1608.800546
3329.040535,-666.185348,-9696.697840,-2451.505594
3329.040863,962.267725,-11917.315666,-2221.676944
3329.041190,2220.617826,-12509.480420,-1608.800546
3329.041518,1702.473667,-11547.212695,76.609550
3329.041846,1184.329507,-10362.883188,383.047749
3329.042173,296.082377,-8142.265362,689.485948
3329.042501,518.144159,-9474.636058,919.314598
3329.042828,1406.391290,-9030.512492,0.000000
3329.043156,1850.514855,-8142.265362,-306.438199
3329.043483,-666.185348,-8956.491898,919.314598
3329.043811,-1036.288319,-10510.924376,2068.457845
3329.044138,1110.308913,-10584.944971,-766.095498
3329.044466,740.205942,-10140.821405,-3064.381992
3329.044793,-2220.617826,-11103.089130,-2221.676944
3329.045121,-3330.926739,-9548.656652,-1302.362347
3329.045448,-2738.761985,-7476.080014,0.000000
3329.045776,0.000000,-7698.141797,612.876398
3329.046104,1776.494261,-9326.594869,995.924147
3329.046431,1110.308913,-10140.821405,3370.820191
3329.046759,444.123565,-9400.615463,2757.943793
3329.047087,592.164754,-10362.883188,-689.485948
3329.047414,814.226536,-8956.491898,-3447.429741
3329.047742,0.000000,-8734.430116,-1762.019645
3329.048070,-296.082377,-9918.759623,0.000000
3329.048398,0.000000,-9104.533087,2145.067394
3329.048725,1184.329507,-10881.027347,1455.581446
3329.049053,1702.473667,-9918.759623,0.000000
3329.049381,1184.329507,-10510.924376,76.609550
3329.049708,962.267725,-10140.821405,766.095498
3329.050036,1110.308913,-10214.842000,-229.828649
3329.050364,1332.370696,-11547.212695,-2068.457845
3329.050691,296.082377,-9400.615463,-3294.210641
3329.051019,-1184.329507,-9548.656652,-1532.190996
3329.051347,-1036.288319,-9918.759623,-306.438199
3329.051674,-1554.432478,-8808.450710,153.219100
3329.052002,-592.164754,-9770.718434,306.438199
3329.052330,-518.144159,-9178.553681,0.000000
3329.052657,-592.164754,-9326.594869,612.876398
3329.052985,-592.164754,-9400.615463,536.266849
3329.053313,1850.514855,-10214.842000,-1225.752797
3329.053640,3182.885551,-10140.821405,-2145.067394
3329.053968,1776.494261,-10584.944971,-1149.143247
3329.054296,1480.411884,-9548.656652,0.000000
3329.054623,222.061783,-9104.533087,1302.362347
3329.054951,1702.473667,-9252.574275,2145.067394
3329.055279,962.267725,-8882.471304,2068.457845
3329.055606,-222.061783,-9252.574275,1608.800546
3329.055934,-1850.514855,-8660.409521,76.609550
3329.056262,-1332.370696,-9030.512492,-1225.752797
3329.056590,888.247130,-9770.718434,-3140.991542
3329.056917,1110.308913,-9918.759623,-2528.115143
3329.057245,666.185348,-9474.636058,0.000000
3329.057573,-296.082377,-8808.450710,919.314598
3329.057900,-148.041188,-9400.615463,1532.190996
3329.058228,1850.514855,-9178.553681,689.485948
3329.058556,1184.329507,-8438.347739,536.266849
3329.058883,666.185348,-9622.677246,1685.410096
3329.059211,-740.205942,-9104.533087,919.314598
3329.059539,-518.144159,-10140.821405,-842.705048
3329.059866,444.123565,-11843.295072,-3140.991542
3329.060194,1110.308913,-11399.171507,-3830.477490
3329.060522,518.144159,-9548.656652,-1685.410096
3329.060849,-222.061783,-9844.739029,766.095498
3329.061177,296.082377,-11325.150913,2451.505594
3329.061505,444.123565,-9696.697840,1762.019645
3329.061832,0.000000,-8808.450710,0.000000
3329.062160,222.061783,-10510.924376,-766.095498
3329.062488,-740.205942,-10214.842000,-1378.971896
3329.062815,814.226536,-9474.636058,-3217.601092
3329.063143,0.000000,-9474.636058,-2528.115143
3329.063471,-740.205942,-10732.986159,-766.095498
3329.063799,-1628.453072,-9548.656652,766.095498
3329.064126,-814.226536,-10658.965565,2145.067394
3329.064454,370.102971,-9030.512492,612.876398
3329.064782,74.020594,-8438.347739,153.219100
3329.065109,-1924.535449,-8882.471304,1225.752797
3329.065437,-1258.350101,-8438.347739,766.095498
3329.065765,1110.308913,-9326.594869,-689.485948
3329.066092,3330.926739,-9252.574275,-1838.629195
3329.066420,1776.494261,-9844.739029,-842.705048
3329.066748,-444.123565,-9696.697840,2298.286494
3329.067075,-148.041188,-10362.883188,1149.143247
3329.067403,1332.370696,-10288.862594,842.705048
3329.067731,2072.576638,-8586.388927,383.047749
3329.068058,666.185348,-9548.656652,1685.410096
3329.068386,0.000000,-9030.512492,1149.143247
3329.068714,0.000000,-9474.636058,-383.047749
3329.069041,1628.453072,-8438.347739,-4060.306139
3329.069369,888.247130,-9474.636058,-3294.210641
3329.069697,814.226536,-11325.150913,-612.876398
3329.070024,740.205942,-10732.986159,1225.752797
3329.070352,74.020594,-11177.109724,1608.800546
3329.070680,1110.308913,-10584.944971,229.828649
3329.071008,518.144159,-10436.903782,-689.485948
3329.071335,-444.123565,-9178.553681,-383.047749
3329.071663,-2442.679609,-7772.162391,76.609550
3329.071991,-1480.411884,-8512.368333,-1838.629195
3329.072318,518.144159,-8956.491898,-3600.648841
3329.072646,1258.350101,-10955.047942,-2604.724693
3329.072974,814.226536,-11103.089130,0.000000
3329.073301,814.226536,-10658.965565,1302.362347
3329.073629,1628.453072,-10732.986159,842.705048
3329.073957,1850.514855,-9622.677246,0.000000
3329.074284,1110.308913,-9770.718434,229.828649
3329.074612,0.000000,-9474.636058,1608.800546
3329.074940,370.102971,-9474.636058,689.485948
3329.075267,888.247130,-8808.450710,-1915.238745
3329.075595,222.061783,-9918.759623,-2221.676944
3329.075923,-1554.432478,-10584.944971,-995.924147
3329.076250,-1554.432478,-8586.388927,383.047749
3329.076578,-888.247130,-9474.636058,1302.362347
3329.076906,370.102971,-9104.533087,536.266849
3329.077233,0.000000,-9548.656652,919.314598
3329.077561,-814.226536,-9918.759623,1685.410096
3329.077889,-888.247130,-8364.327145,459.657299
3329.078216,2368.659014,-8956.491898,-1532.190996
3329.078544,2220.617826,-7994.224174,-2604.724693
3329.078872,-962.267725,-9474.636058,229.828649
3329.079200,-2294.638420,-10658.965565,1915.238745
3329.079527,-222.061783,-10584.944971,-306.438199
3329.079855,1850.514855,-9992.780217,-1455.581446
3329.080183,1258.350101,-9548.656652,0.000000
3329.080510,-222.061783,-10436.903782,1302.362347
3329.080838,-740.205942,-9844.739029,1838.629195
3329.081166,592.164754,-9030.512492,-1378.971896
3329.081493,1332.370696,-8882.471304,-3983.696590
3329.081821,0.000000,-10510.924376,-2145.067394
3329.082149,222.061783,-9770.718434,76.609550
3329.082476,740.205942,-9400.615463,1532.190996
3329.082804,1184.329507,-11843.295072,1991.848295
3329.083132,1110.308913,-10881.027347,1991.848295
3329.083459,148.041188,-9474.636058,766.095498
3329.083787,-518.144159,-8882.471304,0.000000
3329.084115,-1702.473667,-8660.409521,-1455.581446
3329.084442,-1258.350101,-9326.594869,-2451.505594
3329.084770,0.000000,-9474.636058,-2834.553343
3329.085098,1332.370696,-10732.986159,-1149.143247
3329.085425,2886.803174,-9252.574275,612.876398
