#time,accel_x,accel_y,accel_z
2149.646227,0.000000,-9030.512492,459.657299
2149.646555,0.000000,-9178.553681,-153.219100
2149.646882,-222.061783,-9474.636058,-153.219100
2149.647210,-148.041188,-9474.636058,0.000000
2149.647537,148.041188,-9844.739029,76.609550
2149.647865,518.144159,-10140.821405,919.314598
2149.648192,370.102971,-9548.656652,153.219100
2149.648520,666.185348,-9770.718434,306.438199
2149.648847,444.123565,-9252.574275,76.609550
2149.649175,444.123565,-9178.553681,536.266849
2149.649502,370.102971,-9030.512492,536.266849
2149.649830,-148.041188,-8364.327145,536.266849
2149.650157,0.000000,-8142.265362,459.657299
2149.650485,0.000000,-8882.471304,-229.828649
2149.650812,0.000000,-8956.491898,0.000000
2149.651140,74.020594,-9548.656652,-459.657299
2149.651468,518.144159,-10140.821405,-689.485948
2149.651795,740.205942,-10140.821405,0.000000
2149.652123,888.247130,-9992.780217,0.000000
2149.652450,888.247130,-10214.842000,0.000000
2149.652778,740.205942,-9622.677246,536.266849
2149.653105,592.164754,-9548.656652,0.000000
2149.653433,296.082377,-9474.636058,-383.047749
2149.653760,0.000000,-9622.677246,-383.047749
2149.654088,0.000000,-9474.636058,-766.095498
2149.654415,-148.041188,-10140.821405,-612.876398
2149.654743,370.102971,-10732.986159,-1225.752797
2149.655070,444.123565,-10510.924376,-1302.362347
2149.655398,370.102971,-10584.944971,-842.705048
2149.655725,444.123565,-10807.006753,-689.485948
2149.656053,370.102971,-10732.986159,0.000000
2149.656380,740.205942,-10288.862594,0.000000
2149.656708,740.205942,-9770.718434,0.000000
2149.657035,296.082377,-9400.615463,0.000000
2149.657363,0.000000,-8808.450710,766.095498
2149.657690,0.000000,-8808.450710,-153.219100
2149.658018,-296.082377,-9104.533087,0.000000
2149.658345,0.000000,-9252.574275,-306.438199
2149.658673,0.000000,-9548.656652,-306.438199
2149.659000,518.144159,-9844.739029,306.438199
2149.659328,666.185348,-9844.739029,-229.828649
2149.659655,296.082377,-9548.656652,842.705048
2149.659983,740.205942,-9474.636058,919.314598
2149.660310,592.164754,-9178.553681,536.266849
2149.660638,444.123565,-9030.512492,536.266849
2149.660965,74.020594,-8808.450710,383.047749
2149.661293,0.000000,-8734.430116,306.438199
2149.661620,0.000000,-9104.533087,-306.438199
2149.661948,0.000000,-9474.636058,0.000000
2149.662275,74.020594,-9474.636058,-383.047749
2149.662603,222.061783,-10288.862594,-383.047749
2149.662931,444.123565,-10066.800811,-229.828649
2149.663258,888.247130,-10214.842000,-153.219100
2149.663586,592.164754,-10288.862594,-459.657299
2149.663913,518.144159,-9548.656652,229.828649
2149.664241,666.185348,-9474.636058,-153.219100
2149.664568,370.102971,-9474.636058,-383.047749
2149.664896,74.020594,-9474.636058,-383.047749
2149.665223,0.000000,-9696.697840,-689.485948
2149.665551,0.000000,-9918.759623,-919.314598
2149.665878,74.020594,-10288.862594,-1225.752797
2149.666206,0.000000,-10066.800811,-1149.143247
2149.666533,74.020594,-10436.903782,-153.219100
2149.666861,740.205942,-10436.903782,-1072.533697
2149.667188,518.144159,-10510.924376,-306.438199
2149.667516,518.144159,-10436.903782,-229.828649
2149.667843,222.061783,-9770.718434,0.000000
2149.668171,370.102971,-9474.636058,0.000000
2149.668498,296.082377,-9252.574275,-383.047749
2149.668826,-222.061783,-8438.347739,306.438199
2149.669153,0.000000,-8660.409521,0.000000
2149.669481,0.000000,-9326.594869,-153.219100
2149.669808,74.020594,-9548.656652,0.000000
2149.670136,444.123565,-9696.697840,-306.438199
2149.670463,814.226536,-9400.615463,0.000000
2149.670791,1850.514855,-9178.553681,76.609550
2149.671118,1998.556043,-9104.533087,536.266849
2149.671446,2812.782580,-8734.430116,306.438199
2149.671773,2886.803174,-8660.409521,536.266849
2149.672101,3330.926739,-9030.512492,0.000000
2149.672428,3256.906145,-9104.533087,0.000000
2149.672756,3552.988522,-8290.306550,-229.828649
2149.673083,4959.379811,-9252.574275,-306.438199
2149.673411,4589.276840,-11473.192101,459.657299
2149.673739,4885.359217,-11399.171507,-306.438199
2149.674066,4811.338623,-10881.027347,-229.828649
2149.674394,4515.256246,-10584.944971,-229.828649
2149.674721,4885.359217,-9548.656652,-306.438199
2149.675049,5329.482782,-8808.450710,383.047749
2149.675376,5995.668130,-8586.388927,383.047749
2149.675704,7328.038826,-8438.347739,612.876398
2149.676031,8290.306550,-8290.306550,153.219100
2149.676359,7105.977043,-8660.409521,153.219100
2149.676686,7624.121203,-9104.533087,229.828649
2149.677014,8438.347739,-9622.677246,-1225.752797
2149.677341,8660.409521,-11843.295072,-919.314598
2149.677669,9474.636058,-12879.583391,-306.438199
2149.677996,9400.615463,-12361.439231,-229.828649
2149.678324,7994.224174,-11399.171507,919.314598
2149.678651,6735.874072,-11325.150913,1302.362347
2149.678979,5625.565159,-9474.636058,383.047749
2149.679306,4071.132681,-8364.327145,612.876398
2149.679634,3108.864956,-7772.162391,995.924147
2149.679961,2886.803174,-7105.977043,76.609550
2149.680289,1998.556043,-7105.977043,76.609550
2149.680616,2738.761985,-7402.059420,536.266849
2149.680944,3404.947333,-8216.285956,-229.828649
2149.681271,4071.132681,-10140.821405,-919.314598
2149.681599,4589.276840,-11399.171507,-689.485948
2149.681926,4293.194464,-11843.295072,-536.266849
2149.682254,2664.741391,-12583.501014,0.000000
2149.682581,740.205942,-12435.459826,919.314598
2149.682909,-1036.288319,-11473.192101,76.609550
2149.683236,-2886.803174,-9992.780217,-383.047749
2149.683564,-4441.235652,-8882.471304,-306.438199
2149.683891,-4811.338623,-7402.059420,-383.047749
2149.684219,-5255.462188,-7031.956449,153.219100
2149.684546,-5107.421000,-6883.915261,842.705048
2149.684874,-3997.112087,-5921.647536,306.438199
2149.685202,-2664.741391,-6883.915261,0.000000
2149.685529,0.000000,-8660.409521,-842.705048
2149.685857,2146.597232,-9770.718434,-536.266849
2149.686184,3182.885551,-11769.274478,-229.828649
2149.686512,3256.906145,-13323.706956,-153.219100
2149.686839,1776.494261,-15026.180623,-1225.752797
2149.687167,-740.205942,-14730.098246,-1378.971896
2149.687494,-4219.173869,-13841.851115,-2604.724693
2149.687822,-6069.688724,-12435.459826,-2757.943793
2149.688149,-7179.997637,-10214.842000,-2528.115143
2149.688477,-7254.018232,-8438.347739,-1225.752797
2149.688804,-6957.935855,-5847.626942,612.876398
2149.689132,-6143.709319,-4071.132681,1072.533697
2149.689459,-4737.318029,-3849.070898,1532.190996
2149.689787,-2812.782580,-3552.988522,1072.533697
2149.690114,0.000000,-4959.379811,306.438199
2149.690442,3404.947333,-8438.347739,-612.876398
2149.690769,5403.503377,-11325.150913,0.000000
2149.691097,6143.709319,-13915.871710,0.000000
2149.691424,5847.626942,-16654.633695,-1225.752797
2149.691752,3552.988522,-16802.674883,-2068.457845
2149.692079,666.185348,-15840.407159,-2681.334243
2149.692407,-1554.432478,-13101.645173,-3217.601092
2149.692734,-2664.741391,-10066.800811,-1991.848295
2149.693062,-2220.617826,-6661.853478,-306.438199
2149.693389,-1406.391290,-4737.318029,2298.286494
2149.693717,-666.185348,-1850.514855,3753.867940
2149.694044,518.144159,-814.226536,4213.525239
2149.694372,2590.720797,-2146.597232,3217.601092
2149.694699,5033.400406,-4145.153275,1762.019645
2149.695027,7920.203579,-8438.347739,0.000000
2149.695354,9992.780217,-12583.501014,0.000000
2149.695682,10214.842000,-16506.592507,-536.266849
2149.696010,9326.594869,-19837.519246,-2145.067394
2149.696337,5773.606348,-19985.560434,-2374.896044
2149.696665,1406.391290,-17394.839637,-2757.943793
2149.696992,-518.144159,-14804.118840,-3983.696590
2149.697320,-2738.761985,-10658.965565,-3064.381992
2149.697647,-4737.318029,-7105.977043,-1225.752797
2149.697975,-3330.926739,-4663.297435,1072.533697
2149.698302,-3108.864956,-740.205942,3830.477490
2149.698630,-2886.803174,518.144159,5209.449386
2149.698957,0.000000,-1258.350101,3370.820191
2149.699285,3404.947333,-4885.359217,1302.362347
2149.699612,6735.874072,-8808.450710,842.705048
2149.699940,9326.594869,-13471.748144,153.219100
2149.700267,9622.677246,-17024.736666,0.000000
2149.700595,6883.915261,-20281.642811,0.000000
2149.700922,2886.803174,-20947.828159,-2221.676944
2149.701250,-1924.535449,-17616.901420,-2987.772442
2149.701577,-5477.523971,-14063.912898,-3677.258390
2149.701905,-7994.224174,-10066.800811,-3370.820191
2149.702232,-9400.615463,-6957.935855,-1991.848295
2149.702560,-9474.636058,-2738.761985,919.314598
2149.702887,-7698.141797,370.102971,2451.505594
2149.703215,-6217.729913,1924.535449,4673.182538
2149.703542,-3923.091493,518.144159,3753.867940
2149.703870,2294.638420,-2738.761985,2145.067394
2149.704197,5107.421000,-7772.162391,1915.238745
2149.704525,7254.018232,-12361.439231,2604.724693
2149.704852,9178.553681,-16062.468941,612.876398
2149.705180,5625.565159,-20429.683999,-153.219100
2149.705507,148.041188,-21539.992912,-2604.724693
2149.705835,-2886.803174,-18061.024985,-5132.839837
2149.706162,-7698.141797,-14656.077652,-6052.154434
2149.706490,-10584.944971,-11029.068536,-4596.572988
2149.706817,-9252.574275,-6291.750507,-2911.162892
2149.707145,-8956.491898,-3552.988522,-919.314598
2149.707473,-8068.244768,-1258.350101,2528.115143
2149.707800,-4441.235652,1332.370696,3294.210641
2149.708128,0.000000,0.000000,1838.629195
2149.708455,4219.173869,-4515.256246,2911.162892
2149.708783,8586.388927,-6661.853478,3064.381992
2149.709110,11547.212695,-11769.274478,1838.629195
2149.709438,11695.253884,-18949.272115,842.705048
2149.709765,8808.450710,-21465.972318,-1072.533697
2149.710093,5107.421000,-21614.013506,-4290.134789
2149.710420,-666.185348,-19541.436869,-5132.839837
2149.710748,-4737.318029,-16802.674883,-6205.373534
2149.711075,-6439.791695,-11251.130318,-5898.935335
2149.711403,-7920.203579,-6069.688724,-2221.676944
2149.711730,-5995.668130,-2294.638420,612.876398
2149.712058,-2960.823768,814.226536,2451.505594
2149.712385,-888.247130,1406.391290,3983.696590
2149.712713,2590.720797,0.000000,4826.401637
2149.713040,6365.771101,-2664.741391,4290.134789
2149.713368,10140.821405,-8142.265362,3600.648841
2149.713695,12953.603985,-12583.501014,3217.601092
2149.714023,12509.480420,-18431.127956,1072.533697
2149.714350,10066.800811,-21317.931130,-766.095498
2149.714678,4071.132681,-20133.601622,-2298.286494
2149.715005,-296.082377,-17912.983796,-3524.039291
2149.715333,-5699.585753,-15100.201217,-4749.792088
2149.715660,-7550.100608,-10510.924376,-4366.744339
2149.715988,-7920.203579,-5107.421000,-2221.676944
2149.716315,-7550.100608,74.020594,689.485948
2149.716643,-5403.503377,1702.473667,3600.648841
2149.716970,-3478.967927,1850.514855,4673.182538
2149.717298,370.102971,444.123565,3753.867940
2149.717625,4071.132681,-4367.215058,2834.553343
2149.717953,8734.430116,-9622.677246,1915.238745
2149.718280,13471.748144,-15248.242405,612.876398
2149.718608,11177.109724,-20355.663405,0.000000
2149.718935,7031.956449,-21984.116477,-995.924147
2149.719263,1702.473667,-20651.745782,-2834.553343
2149.719590,-4293.194464,-16802.674883,-3447.429741
2149.719918,-7402.059420,-13471.748144,-4903.011187
2149.720245,-9178.553681,-9400.615463,-4903.011187
2149.720573,-10881.027347,-6069.688724,-2834.553343
2149.720900,-9104.533087,-1776.494261,0.000000
2149.721228,-7846.182985,1628.453072,2987.772442
2149.721555,-5033.400406,740.205942,3294.210641
2149.721883,-666.185348,-1110.308913,2451.505594
2149.722210,4663.297435,-6365.771101,689.485948
2149.722538,8586.388927,-10881.027347,1532.190996
2149.722865,10732.986159,-15396.283594,1838.629195
2149.723193,10214.842000,-20577.725188,0.000000
2149.723520,4885.359217,-21095.869347,0.000000
2149.723848,0.000000,-18283.086767,-1838.629195
2149.724175,-5033.400406,-15396.283594,-4596.572988
2149.724502,-9252.574275,-12361.439231,-4673.182538
2149.724830,-9548.656652,-8068.244768,-5132.839837
2149.725157,-10658.965565,-3478.967927,-3140.991542
2149.725485,-9326.594869,74.020594,919.314598
2149.725812,-6365.771101,1554.432478,4443.353888
2149.726140,-2590.720797,-444.123565,3677.258390
2149.726467,2738.761985,-2960.823768,2911.162892
2149.726795,6587.832884,-6439.791695,2298.286494
2149.727122,11547.212695,-10066.800811,2145.067394
2149.727450,13619.789333,-15248.242405,2604.724693
2149.727777,12435.459826,-20281.642811,1762.019645
2149.728105,7179.997637,-20725.766376,-612.876398
2149.728432,666.185348,-17838.963202,-2451.505594
2149.728760,-3478.967927,-15100.201217,-5132.839837
2149.729087,-7179.997637,-11843.295072,-6128.763984
2149.729415,-9400.615463,-7476.080014,-4443.353888
2149.729742,-8512.368333,-3701.029710,-1915.238745
2149.730070,-5329.482782,-666.185348,842.705048
2149.730397,-2738.761985,-444.123565,2834.553343
2149.730725,1110.308913,-1850.514855,3600.648841
2149.731052,5477.523971,-3404.947333,3294.210641
2149.731380,9696.697840,-7920.203579,2145.067394
2149.731707,12435.459826,-12805.562797,2451.505594
2149.732035,13249.686362,-16876.695478,2298.286494
2149.732362,11843.295072,-21391.951724,153.219100
2149.732690,5625.565159,-19763.498651,0.000000
2149.733017,-296.082377,-17838.963202,-2911.162892
2149.733344,-4663.297435,-16580.613101,-5515.887586
2149.733672,-9696.697840,-12287.418637,-5822.325785
2149.733999,-9844.739029,-8438.347739,-4443.353888
2149.734327,-9326.594869,-2812.782580,-766.095498
2149.734654,-7179.997637,1036.288319,2604.724693
2149.734982,-4515.256246,962.267725,3447.429741
2149.735309,-962.267725,-962.267725,3524.039291
2149.735637,3775.050304,-4293.194464,3140.991542
2149.735964,7624.121203,-7031.956449,2451.505594
2149.736292,11843.295072,-12213.398043,2298.286494
2149.736619,12435.459826,-16210.510130,1455.581446
2149.736947,9030.512492,-20503.704593,459.657299
2149.737274,3775.050304,-19245.354492,-1378.971896
2149.737602,-1480.411884,-16802.674883,-2757.943793
2149.737929,-6143.709319,-13619.789333,-4826.401637
2149.738257,-9622.677246,-10658.965565,-4596.572988
2149.738584,-10955.047942,-6661.853478,-3677.258390
2149.738912,-10658.965565,-2220.617826,-383.047749
2149.739239,-8808.450710,-222.061783,2221.676944
2149.739567,-5329.482782,-518.144159,2145.067394
2149.739894,-1702.473667,-2294.638420,1685.410096
2149.740222,3627.009116,-5255.462188,1302.362347
2149.740549,7105.977043,-8364.327145,1302.362347
2149.740877,11177.109724,-13915.871710,1455.581446
2149.741204,12213.398043,-18579.169144,1149.143247
2149.741531,8808.450710,-20503.704593,0.000000
2149.741859,3182.885551,-19467.416275,-2221.676944
2149.742186,-2516.700203,-16432.571912,-2987.772442
2149.742514,-6809.894666,-12953.603985,-4060.306139
2149.742841,-9104.533087,-9178.553681,-4903.011187
2149.743169,-10807.006753,-5329.482782,-3140.991542
2149.743496,-10288.862594,-2368.659014,-766.095498
2149.743824,-7624.121203,-592.164754,1455.581446
2149.744151,-4219.173869,-592.164754,2374.896044
2149.744479,518.144159,-2886.803174,2298.286494
2149.744806,5107.421000,-6365.771101,1762.019645
2149.745134,9178.553681,-9030.512492,2145.067394
2149.745461,13323.706956,-14211.954086,2145.067394
2149.745789,13619.789333,-18135.045579,2068.457845
2149.746116,9918.759623,-19467.416275,153.219100
2149.746444,3923.091493,-18431.127956,-1685.410096
2149.746771,-1480.411884,-16284.530724,-3753.867940
2149.747099,-6439.791695,-11621.233289,-5822.325785
2149.747426,-8734.430116,-8734.430116,-5056.230287
2149.747754,-9844.739029,-4293.194464,-2298.286494
2149.748081,-7772.162391,-740.205942,0.000000
2149.748409,-5033.400406,0.000000,1915.238745
2149.748736,-666.185348,-1776.494261,3064.381992
2149.749064,3849.070898,-2590.720797,3217.601092
2149.749391,8068.244768,-5847.626942,3140.991542
2149.749719,12139.377449,-10288.862594,3677.258390
2149.750046,14804.118840,-14878.139434,2987.772442
2149.750373,13027.624579,-18357.107362,1608.800546
2149.750701,8512.368333,-19393.395680,-536.266849
2149.751028,2738.761985,-19097.313304,-3447.429741
2149.751356,-3997.112087,-16728.654289,-4290.134789
2149.751683,-7402.059420,-12657.521608,-5898.935335
2149.752011,-9696.697840,-8586.388927,-4979.620737
2149.752338,-10881.027347,-5625.565159,-2604.724693
2149.752666,-9104.533087,-592.164754,229.828649
2149.752993,-6291.750507,888.247130,2451.505594
2149.753321,-1184.329507,-1628.453072,2987.772442
2149.753648,2368.659014,-3701.029710,2987.772442
2149.753976,6291.750507,-6365.771101,3600.648841
2149.754303,9622.677246,-10807.006753,2757.943793
2149.754631,12509.480420,-14656.077652,2374.896044
2149.754958,11251.130318,-17838.963202,612.876398
2149.755286,5847.626942,-20799.786970,-2145.067394
2149.755613,-444.123565,-20355.663405,-3370.820191
2149.755941,-5255.462188,-14952.160028,-4290.134789
2149.756268,-8808.450710,-10658.965565,-4826.401637
2149.756596,-10881.027347,-8068.244768,-3600.648841
2149.756923,-11991.336260,-4071.132681,-1225.752797
2149.757251,-9326.594869,148.041188,842.705048
2149.757578,-6883.915261,222.061783,2068.457845
2149.757906,-3034.844362,-1184.329507,2528.115143
2149.758233,2072.576638,-3256.906145,2834.553343
2149.758561,5625.565159,-6291.750507,3447.429741
2149.758888,9844.739029,-10881.027347,3217.601092
2149.759215,11843.295072,-15396.283594,1378.971896
2149.759543,10955.047942,-20133.601622,-1072.533697
2149.759870,5477.523971,-19689.478057,-1532.190996
2149.760198,148.041188,-18357.107362,-3064.381992
2149.760525,-4441.235652,-15396.283594,-4673.182538
2149.760853,-8142.265362,-11991.336260,-4519.963438
2149.761180,-9178.553681,-6883.915261,-3907.087040
2149.761508,-10510.924376,-3034.844362,-1302.362347
2149.761835,-8438.347739,-666.185348,1378.971896
2149.762163,-4811.338623,-666.185348,2145.067394
2149.762490,-1850.514855,-2368.659014,2298.286494
2149.762818,3034.844362,-4589.276840,2451.505594
2149.763145,7476.080014,-8882.471304,2145.067394
2149.763473,11917.315666,-13027.624579,2451.505594
2149.763800,14211.954086,-16728.654289,1685.410096
2149.764128,11917.315666,-19763.498651,995.924147
2149.764455,6217.729913,-18949.272115,-1378.971896
2149.764783,444.123565,-17098.757260,-2911.162892
2149.765110,-4293.194464,-14359.995275,-4213.525239
2149.765438,-6809.894666,-9252.574275,-3830.477490
2149.765765,-9548.656652,-5921.647536,-3140.991542
2149.766093,-9992.780217,-2220.617826,-153.219100
2149.766420,-7031.956449,0.000000,612.876398
2149.766748,-4811.338623,222.061783,2221.676944
2149.767075,74.020594,-2072.576638,3140.991542
2149.767403,4811.338623,-3552.988522,2145.067394
2149.767730,9622.677246,-9770.718434,2528.115143
2149.768057,12879.583391,-13101.645173,3217.601092
2149.768385,14137.933492,-16506.592507,2451.505594
2149.768712,11103.089130,-19689.478057,536.266849
2149.769040,4885.359217,-20355.663405,-1762.019645
2149.769367,-74.020594,-18727.210333,-3907.087040
2149.769695,-5255.462188,-14063.912898,-4826.401637
2149.770022,-9104.533087,-9622.677246,-4749.792088
2149.770350,-10807.006753,-6217.729913,-2987.772442
2149.770677,-10436.903782,-3256.906145,-1838.629195
2149.771005,-8586.388927,0.000000,1225.752797
2149.771332,-4737.318029,444.123565,2604.724693
2149.771660,-370.102971,-1850.514855,2145.067394
2149.771987,5107.421000,-6291.750507,3217.601092
2149.772315,8586.388927,-9104.533087,3294.210641
2149.772642,12657.521608,-12509.480420,2681.334243
2149.772970,13323.706956,-16432.571912,1762.019645
2149.773297,9696.697840,-20799.786970,-612.876398
2149.773625,3701.029710,-20281.642811,-2451.505594
2149.773952,-2664.741391,-17246.798449,-3600.648841
2149.774280,-7031.956449,-12879.583391,-4826.401637
2149.774607,-9178.553681,-10584.944971,-4519.963438
2149.774935,-9548.656652,-7105.977043,-3524.039291
2149.775262,-10214.842000,-2442.679609,76.609550
2149.775590,-7698.141797,666.185348,2068.457845
2149.775917,-3997.112087,-444.123565,2145.067394
2149.776245,-444.123565,-2220.617826,2757.943793
2149.776572,4737.318029,-4441.235652,2451.505594
2149.776899,8660.409521,-7254.018232,3524.039291
2149.777227,12065.356855,-13323.706956,3524.039291
2149.777554,13545.768739,-17690.922014,995.924147
2149.777882,9696.697840,-21095.869347,-1072.533697
2149.778209,2812.782580,-18801.230927,-2451.505594
2149.778537,-2072.576638,-16136.489536,-3983.696590
2149.778864,-7105.977043,-12805.562797,-4673.182538
2149.779192,-8734.430116,-9252.574275,-3600.648841
2149.779519,-9622.677246,-5477.523971,-2528.115143
2149.779847,-9326.594869,-1036.288319,536.266849
2149.780174,-6883.915261,740.205942,1991.848295
2149.780502,-3256.906145,-1258.350101,2681.334243
2149.780829,814.226536,-2812.782580,2068.457845
2149.781157,5181.441594,-4441.235652,2451.505594
2149.781484,9104.533087,-9474.636058,2298.286494
2149.781812,13545.768739,-15396.283594,1532.190996
2149.782139,13471.748144,-19319.375086,229.828649
2149.782467,8956.491898,-21317.931130,-919.314598
2149.782794,3701.029710,-19689.478057,-2451.505594
2149.783122,-2812.782580,-15988.448347,-3370.820191
2149.783449,-6661.853478,-12435.459826,-4290.134789
2149.783777,-9622.677246,-8882.471304,-4903.011187
2149.784104,-11177.109724,-4959.379811,-2298.286494
2149.784432,-9178.553681,-592.164754,0.000000
2149.784759,-6883.915261,518.144159,1302.362347
2149.785086,-3108.864956,-2146.597232,2528.115143
2149.785414,1702.473667,-2960.823768,2834.553343
2149.785741,6217.729913,-6217.729913,3447.429741
2149.786069,8660.409521,-10214.842000,3677.258390
2149.786396,13693.809927,-14952.160028,2145.067394
2149.786724,13027.624579,-18727.210333,229.828649
2149.787051,8586.388927,-21095.869347,-229.828649
2149.787379,1480.411884,-18801.230927,-1608.800546
2149.787706,-3552.988522,-15322.262999,-3830.477490
2149.788034,-7846.182985,-11251.130318,-5056.230287
2149.788361,-10732.986159,-7105.977043,-4903.011187
2149.788689,-10807.006753,-3923.091493,-2451.505594
2149.789016,-9770.718434,-592.164754,-229.828649
2149.789344,-6365.771101,74.020594,2145.067394
2149.789671,-2368.659014,0.000000,3064.381992
2149.789999,2442.679609,-2960.823768,2911.162892
2149.790326,6809.894666,-7402.059420,4366.744339
2149.790654,11547.212695,-9844.739029,4596.572988
2149.790981,14656.077652,-14285.974681,2451.505594
2149.791309,13175.665768,-19245.354492,766.095498
2149.791636,7179.997637,-20355.663405,-766.095498
2149.791964,1332.370696,-18653.189738,-3140.991542
2149.792291,-4737.318029,-14804.118840,-4366.744339
2149.792619,-8438.347739,-11695.253884,-6665.030833
2149.792946,-9622.677246,-8882.471304,-5439.278036
2149.793274,-11399.171507,-4663.297435,-1608.800546
2149.793601,-8586.388927,-296.082377,76.609550
2149.793928,-5329.482782,0.000000,2068.457845
2149.794256,-2368.659014,-1776.494261,2834.553343
2149.794583,3182.885551,-3997.112087,2681.334243
2149.794911,7920.203579,-7031.956449,2681.334243
2149.795238,11177.109724,-10955.047942,3677.258390
2149.795566,14804.118840,-15988.448347,2145.067394
2149.795893,12361.439231,-19467.416275,766.095498
2149.796221,7328.038826,-20133.601622,-1149.143247
2149.796548,0.000000,-17394.839637,-2451.505594
2149.796876,-4737.318029,-15988.448347,-4596.572988
2149.797203,-7994.224174,-12287.418637,-5822.325785
2149.797531,-10807.006753,-7624.121203,-3830.477490
2149.797858,-9918.759623,-4441.235652,-1302.362347
2149.798186,-8882.471304,-148.041188,1915.238745
2149.798513,-6587.832884,296.082377,3677.258390
2149.798841,-1702.473667,-1332.370696,3140.991542
2149.799168,2072.576638,-3701.029710,2987.772442
2149.799496,6513.812290,-6439.791695,2757.943793
2149.799823,10140.821405,-11621.233289,2068.457845
2149.800151,12731.542202,-16284.530724,842.705048
2149.800478,12139.377449,-20281.642811,-459.657299
2149.800806,5773.606348,-19763.498651,-1072.533697
2149.801133,0.000000,-17616.901420,-2451.505594
2149.801461,-4589.276840,-14508.036463,-3983.696590
2149.801788,-8364.327145,-10140.821405,-4673.182538
2149.802116,-10288.862594,-7031.956449,-4366.744339
2149.802443,-10510.924376,-3330.926739,-1149.143247
2149.802770,-8808.450710,222.061783,919.314598
2149.803098,-4885.359217,0.000000,2451.505594
2149.803425,-1406.391290,-2590.720797,2604.724693
2149.803753,3330.926739,-4663.297435,2068.457845
2149.804080,7624.121203,-7698.141797,2145.067394
2149.804408,11547.212695,-12435.459826,1915.238745
2149.804735,15026.180623,-18431.127956,536.266849
2149.805063,11547.212695,-19541.436869,1225.752797
2149.805390,6365.771101,-20281.642811,-1532.190996
2149.805718,0.000000,-18875.251521,-2834.553343
2149.806045,-6143.709319,-14211.954086,-3830.477490
2149.806373,-9178.553681,-9548.656652,-5745.716235
2149.806700,-11621.233289,-6143.709319,-3907.087040
2149.807028,-11325.150913,-4441.235652,-536.266849
2149.807355,-7698.141797,0.000000,459.657299
2149.807683,-4737.318029,0.000000,2145.067394
2149.808010,-814.226536,-2886.803174,2451.505594
2149.808338,4737.318029,-4959.379811,2451.505594
2149.808665,8364.327145,-7031.956449,2451.505594
2149.808993,12509.480420,-13249.686362,1608.800546
2149.809320,14211.954086,-16876.695478,2451.505594
2149.809648,10881.027347,-19245.354492,995.924147
2149.809975,4737.318029,-19615.457463,-536.266849
2149.810303,-1258.350101,-18061.024985,-2681.334243
2149.810630,-6439.791695,-13323.706956,-5362.668486
2149.810958,-10140.821405,-9252.574275,-5515.887586
2149.811285,-11621.233289,-6291.750507,-4366.744339
2149.811612,-10658.965565,-1628.453072,-995.924147
2149.811940,-7328.038826,370.102971,1149.143247
2149.812267,-3923.091493,-444.123565,3294.210641
2149.812595,1480.411884,-1998.556043,2987.772442
2149.812922,4737.318029,-4663.297435,3370.820191
2149.813250,9548.656652,-9474.636058,3217.601092
2149.813577,13915.871710,-13249.686362,3370.820191
2149.813905,14211.954086,-17690.922014,1685.410096
2149.814232,10584.944971,-19985.560434,842.705048
2149.814560,5107.421000,-19689.478057,-1991.848295
2149.814887,-1702.473667,-17616.901420,-3907.087040
2149.815215,-7698.141797,-13323.706956,-4903.011187
2149.815542,-9030.512492,-10362.883188,-6281.983084
2149.815869,-10732.986159,-6291.750507,-3064.381992
2149.816197,-9770.718434,-2072.576638,0.000000
2149.816524,-7328.038826,814.226536,2604.724693
2149.816851,-3701.029710,-1036.288319,3217.601092
2149.817179,148.041188,-2368.659014,2757.943793
2149.817506,4589.276840,-5255.462188,2451.505594
2149.817834,8142.265362,-8290.306550,3140.991542
2149.818161,12361.439231,-14211.954086,2528.115143
2149.818488,12509.480420,-18431.127956,153.219100
2149.818816,8438.347739,-21169.889941,-995.924147
2149.819143,2886.803174,-19245.354492,-2681.334243
2149.819470,-2368.659014,-16358.551318,-3907.087040
2149.819798,-7105.977043,-13323.706956,-4519.963438
2149.820125,-9474.636058,-9178.553681,-4060.306139
2149.820452,-10288.862594,-4885.359217,-2604.724693
2149.820780,-9992.780217,-814.226536,306.438199
2149.821107,-7402.059420,2294.638420,2987.772442
2149.821435,-3256.906145,-592.164754,2528.115143
2149.821762,666.185348,-3478.967927,2528.115143
2149.822089,4737.318029,-5477.523971,2451.505594
2149.822417,9326.594869,-9622.677246,2374.896044
2149.822744,12435.459826,-15692.365970,2221.676944
2149.823071,12731.542202,-19245.354492,919.314598
2149.823399,8956.491898,-21317.931130,-919.314598
2149.823726,3034.844362,-20133.601622,-2604.724693
2149.824053,-2368.659014,-16802.674883,-3294.210641
2149.824381,-6513.812290,-11843.295072,-4596.572988
2149.824708,-9474.636058,-8290.306550,-4519.963438
2149.825035,-10955.047942,-5033.400406,-2221.676944
2149.825363,-9474.636058,-222.061783,612.876398
2149.825690,-7550.100608,1702.473667,1455.581446
2149.826018,-3552.988522,-1036.288319,2298.286494
2149.826345,888.247130,-2812.782580,2145.067394
2149.826672,5625.565159,-6513.812290,2451.505594
2149.827000,9992.780217,-10807.006753,2451.505594
2149.827327,14359.995275,-14952.160028,2834.553343
2149.827654,14211.954086,-18949.272115,689.485948
2149.827982,9474.636058,-21095.869347,-229.828649
2149.828309,2368.659014,-18727.210333,-1532.190996
2149.828636,-2516.700203,-15470.304188,-3524.039291
2149.828964,-7550.100608,-11251.130318,-4903.011187
2149.829291,-10140.821405,-8512.368333,-4136.915689
2149.829619,-11843.295072,-4885.359217,-2374.896044
2149.829946,-9326.594869,-962.267725,0.000000
2149.830273,-6217.729913,148.041188,1838.629195
2149.830601,-2960.823768,-1258.350101,2145.067394
2149.830928,2886.803174,-3849.070898,1991.848295
2149.831255,7031.956449,-6957.935855,3140.991542
2149.831583,11325.150913,-10140.821405,3140.991542
2149.831910,15248.242405,-14730.098246,1378.971896
2149.832237,13619.789333,-19541.436869,1838.629195
2149.832565,8586.388927,-20207.622217,-306.438199
2149.832892,2368.659014,-18061.024985,-2298.286494
2149.833220,-3849.070898,-15840.407159,-4060.306139
2149.833547,-7920.203579,-12361.439231,-5592.497135
2149.833874,-9474.636058,-8438.347739,-5592.497135
2149.834202,-11695.253884,-4219.173869,-2374.896044
2149.834529,-8586.388927,-1924.535449,0.000000
2149.834856,-5847.626942,0.000000,1685.410096
2149.835184,-2738.761985,-1776.494261,2681.334243
2149.835511,1628.453072,-3552.988522,2987.772442
2149.835838,6513.812290,-6809.894666,2451.505594
2149.836166,10732.986159,-11177.109724,2374.896044
2149.836493,13323.706956,-15840.407159,1991.848295
2149.836820,11621.233289,-19689.478057,229.828649
2149.837148,5477.523971,-19911.539840,-689.485948
2149.837475,592.164754,-18061.024985,-2451.505594
2149.837803,-4737.318029,-15544.324782,-4136.915689
2149.838130,-9252.574275,-11399.171507,-4903.011187
2149.838457,-10214.842000,-6809.894666,-4290.134789
2149.838785,-11103.089130,-2960.823768,-1225.752797
2149.839112,-8068.244768,-222.061783,1455.581446
2149.839439,-5847.626942,1480.411884,3600.648841
2149.839767,-1924.535449,-1258.350101,2681.334243
2149.840094,2664.741391,-4737.318029,2451.505594
2149.840421,6957.935855,-7476.080014,2374.896044
2149.840749,11177.109724,-11843.295072,2451.505594
2149.841076,13323.706956,-16358.551318,1685.410096
2149.841404,11029.068536,-20059.581028,536.266849
2149.841731,6217.729913,-21317.931130,-2528.115143
2149.842058,-222.061783,-17394.839637,-3140.991542
2149.842386,-5181.441594,-14434.015869,-4673.182538
2149.842713,-7920.203579,-11325.150913,-5056.230287
2149.843040,-10881.027347,-6439.791695,-3370.820191
2149.843368,-10288.862594,-2368.659014,-1149.143247
2149.843695,-8068.244768,1110.308913,995.924147
2149.844022,-6143.709319,222.061783,2451.505594
2149.844350,-592.164754,-1998.556043,2604.724693
2149.844677,4145.153275,-4515.256246,1991.848295
2149.845005,7402.059420,-8660.409521,2604.724693
2149.845332,12953.603985,-12953.603985,2298.286494
2149.845659,15100.201217,-17098.757260,1302.362347
2149.845987,12287.418637,-21539.992912,76.609550
2149.846314,6291.750507,-20429.683999,0.000000
2149.846641,666.185348,-18431.127956,-3140.991542
2149.846969,-4515.256246,-14952.160028,-4979.620737
2149.847296,-9030.512492,-10436.903782,-4903.011187
2149.847623,-10140.821405,-6291.750507,-4366.744339
2149.847951,-11473.192101,-2368.659014,-229.828649
2149.848278,-8660.409521,0.000000,1378.971896
2149.848606,-5181.441594,1406.391290,2221.676944
2149.848933,-1332.370696,-1406.391290,1762.019645
2149.849260,4589.276840,-6069.688724,2681.334243
2149.849588,9030.512492,-8290.306550,3140.991542
2149.849915,13175.665768,-13767.830521,2068.457845
2149.850242,13767.830521,-17246.798449,2757.943793
2149.850570,11769.274478,-18135.045579,1762.019645
2149.850897,6217.729913,-19541.436869,-1991.848295
2149.851224,-1480.411884,-18431.127956,-3140.991542
2149.851552,-6661.853478,-12287.418637,-4443.353888
2149.851879,-8586.388927,-8956.491898,-6358.592633
2149.852206,-11843.295072,-6587.832884,-3370.820191
2149.852534,-12065.356855,-814.226536,-153.219100
2149.852861,-8290.306550,444.123565,536.266849
2149.853189,-5847.626942,-1406.391290,2987.772442
2149.853516,-1258.350101,-2294.638420,2528.115143
2149.853843,5255.462188,-5033.400406,1455.581446
2149.854171,7402.059420,-8734.430116,3064.381992
2149.854498,12361.439231,-14434.015869,2911.162892
2149.854825,13249.686362,-18135.045579,536.266849
2149.855153,8882.471304,-20207.622217,76.609550
2149.855480,3701.029710,-19837.519246,-2987.772442
2149.855807,-2590.720797,-16358.551318,-3830.477490
2149.856135,-7105.977043,-13397.727550,-4979.620737
2149.856462,-9918.759623,-9696.697840,-4903.011187
2149.856790,-11769.274478,-4737.318029,-2604.724693
2149.857117,-9992.780217,-1110.308913,229.828649
2149.857444,-7698.141797,1036.288319,2298.286494
2149.857772,-3627.009116,-1036.288319,2834.553343
2149.858099,148.041188,-2294.638420,2298.286494
2149.858426,4589.276840,-5403.503377,2298.286494
2149.858754,9474.636058,-9992.780217,2374.896044
2149.859081,12361.439231,-14582.057057,2681.334243
2149.859408,12583.501014,-18135.045579,1532.190996
2149.859736,9326.594869,-21836.075289,-1225.752797
2149.860063,2886.803174,-19985.560434,-2757.943793
2149.860391,-2072.576638,-16136.489536,-3907.087040
2149.860718,-6365.771101,-11695.253884,-4749.792088
2149.861045,-9400.615463,-8586.388927,-3370.820191
2149.861373,-9770.718434,-4811.338623,-1991.848295
2149.861700,-9178.553681,222.061783,612.876398
2149.862027,-7179.997637,1554.432478,2451.505594
2149.862355,-2294.638420,74.020594,2451.505594
2149.862682,1850.514855,-2294.638420,2298.286494
2149.863009,5329.482782,-7105.977043,2528.115143
2149.863337,10584.944971,-10584.944971,2834.553343
2149.863664,14359.995275,-14952.160028,1225.752797
2149.863991,14359.995275,-20281.642811,612.876398
2149.864319,9548.656652,-22428.240043,-919.314598
2149.864646,4441.235652,-19837.519246,-2374.896044
2149.864974,-1924.535449,-16284.530724,-3294.210641
2149.865301,-6957.935855,-12213.398043,-4213.525239
2149.865628,-8956.491898,-8068.244768,-4673.182538
2149.865956,-11177.109724,-4145.153275,-2221.676944
2149.866283,-9326.594869,-1702.473667,-306.438199
2149.866610,-6291.750507,592.164754,2145.067394
2149.866938,-3108.864956,-1258.350101,1685.410096
2149.867265,1628.453072,-3997.112087,1838.629195
2149.867592,6365.771101,-6587.832884,3064.381992
2149.867920,11399.171507,-10140.821405,2451.505594
2149.868247,13397.727550,-15914.427753,2528.115143
2149.868575,13619.789333,-19763.498651,1762.019645
2149.868902,9178.553681,-19467.416275,-689.485948
2149.869229,2294.638420,-18061.024985,-2451.505594
2149.869557,-3627.009116,-15840.407159,-3064.381992
2149.869884,-7994.224174,-11029.068536,-4060.306139
2149.870211,-10955.047942,-7105.977043,-3524.039291
2149.870539,-13175.665768,-3923.091493,-1532.190996
2149.870866,-11325.150913,-592.164754,-459.657299
2149.871193,-8216.285956,592.164754,1149.143247
2149.871521,-5625.565159,-1850.514855,1532.190996
2149.871848,1332.370696,-3330.926739,1685.410096
2149.872176,6291.750507,-5625.565159,2757.943793
2149.872503,9474.636058,-12065.356855,2451.505594
2149.872830,12879.583391,-16210.510130,2834.553343
2149.873158,13027.624579,-17912.983796,689.485948
2149.873485,7402.059420,-20651.745782,-766.095498
2149.873812,-962.267725,-19171.333898,-2451.505594
2149.874140,-3775.050304,-14582.057057,-4443.353888
2149.874467,-8956.491898,-10214.842000,-4979.620737
2149.874794,-11177.109724,-7994.224174,-3447.429741
2149.875122,-10732.986159,-3034.844362,-1608.800546
2149.875449,-7624.121203,-1480.411884,-229.828649
2149.875777,-5847.626942,-1184.329507,1991.848295
2149.876104,-1702.473667,-1998.556043,1991.848295
2149.876431,3478.967927,-3330.926739,1762.019645
2149.876759,7402.059420,-7476.080014,3140.991542
2149.877086,11991.336260,-12509.480420,2987.772442
2149.877413,14211.954086,-17098.757260,1455.581446
2149.877741,13027.624579,-19985.560434,229.828649
2149.878068,8290.306550,-20059.581028,-2834.553343
2149.878395,1036.288319,-18949.272115,-2834.553343
2149.878723,-5477.523971,-15026.180623,-3294.210641
2149.879050,-7402.059420,-11103.089130,-5056.230287
2149.879377,-10732.986159,-6365.771101,-3907.087040
2149.879705,-11103.089130,-2738.761985,-1149.143247
2149.880032,-7105.977043,296.082377,1072.533697
2149.880360,-4885.359217,444.123565,1991.848295
2149.880687,-444.123565,-2146.597232,3217.601092
2149.881014,3849.070898,-3478.967927,3907.087040
2149.881342,8586.388927,-6883.915261,3140.991542
2149.881669,12361.439231,-11769.274478,3524.039291
2149.881996,14211.954086,-15988.448347,1838.629195
2149.882324,13175.665768,-21021.848753,-536.266849
2149.882651,5921.647536,-20947.828159,-612.876398
2149.882978,74.020594,-17542.880825,-1991.848295
2149.883306,-4515.256246,-14137.933492,-4213.525239
2149.883633,-9030.512492,-11251.130318,-4290.134789
2149.883961,-10955.047942,-5995.668130,-3064.381992
2149.884288,-11547.212695,-1480.411884,-1149.143247
2149.884615,-9474.636058,1110.308913,842.705048
2149.884943,-5255.462188,-296.082377,2451.505594
2149.885270,-1184.329507,-1480.411884,1915.238745
2149.885597,3701.029710,-4811.338623,2911.162892
2149.885925,9400.615463,-9400.615463,2604.724693
2149.886252,13101.645173,-13323.706956,2374.896044
2149.886579,15396.283594,-18801.230927,689.485948
2149.886907,11103.089130,-19985.560434,766.095498
2149.887234,5847.626942,-20207.622217,-1915.238745
2149.887562,-518.144159,-17542.880825,-3370.820191
2149.887889,-6439.791695,-13915.871710,-4136.915689
2149.888216,-9400.615463,-8956.491898,-4979.620737
2149.888544,-11991.336260,-6069.688724,-3677.258390
2149.888871,-12139.377449,-3034.844362,-1838.629195
2149.889198,-9252.574275,370.102971,459.657299
2149.889526,-7179.997637,0.000000,1455.581446
2149.889853,-2812.782580,-2368.659014,2221.676944
2149.890180,2812.782580,-5995.668130,2068.457845
2149.890508,7920.203579,-8734.430116,2681.334243
2149.890835,12583.501014,-14804.118840,2451.505594
2149.891162,14434.015869,-17987.004391,1762.019645
2149.891490,11251.130318,-20133.601622,536.266849
2149.891817,5403.503377,-18801.230927,-995.924147
2149.892145,-1850.514855,-15248.242405,-2374.896044
2149.892472,-6587.832884,-11917.315666,-4596.572988
2149.892799,-10436.903782,-7994.224174,-4979.620737
2149.893127,-12509.480420,-4441.235652,-3447.429741
2149.893454,-10436.903782,-1850.514855,-766.095498
2149.893781,-8364.327145,962.267725,2068.457845
2149.894109,-3478.967927,-370.102971,1838.629195
2149.894436,518.144159,-3108.864956,2221.676944
2149.894763,4737.318029,-5329.482782,2528.115143
2149.895091,9696.697840,-10362.883188,2298.286494
2149.895418,12953.603985,-14285.974681,2911.162892
2149.895746,14137.933492,-18579.169144,1838.629195
2149.896073,11547.212695,-21984.116477,-919.314598
2149.896400,4071.132681,-20873.807564,-3217.601092
2149.896728,-1480.411884,-16432.571912,-2757.943793
2149.897055,-6735.874072,-12065.356855,-4673.182538
2149.897382,-10436.903782,-8882.471304,-4596.572988
2149.897710,-11695.253884,-4811.338623,-3064.381992
2149.898037,-10140.821405,-1332.370696,-612.876398
2149.898364,-6957.935855,740.205942,1762.019645
2149.898692,-2294.638420,-888.247130,2911.162892
2149.899019,1702.473667,-2960.823768,3140.991542
2149.899347,5625.565159,-5551.544565,4290.134789
2149.899674,11103.089130,-9474.636058,3294.210641
2149.900001,13841.851115,-14878.139434,1991.848295
2149.900329,14508.036463,-20429.683999,306.438199
2149.900656,10436.903782,-20207.622217,-766.095498
2149.900983,2960.823768,-19023.292709,-1991.848295
2149.901311,-2146.597232,-17616.901420,-3447.429741
2149.901638,-7254.018232,-11917.315666,-4290.134789
2149.901965,-9770.718434,-6957.935855,-4443.353888
2149.902293,-12361.439231,-3256.906145,-1378.971896
2149.902620,-10214.842000,-444.123565,229.828649
2149.902948,-6143.709319,1406.391290,1225.752797
2149.903275,-4441.235652,0.000000,3217.601092
2149.903602,1258.350101,-2886.803174,4060.306139
2149.903930,6587.832884,-5847.626942,3140.991542
2149.904257,9844.739029,-9918.759623,2911.162892
2149.904584,14359.995275,-17172.777854,1685.410096
2149.904912,14063.912898,-20059.581028,76.609550
2149.905239,9696.697840,-21243.910535,-919.314598
2149.905566,2590.720797,-18653.189738,-1608.800546
2149.905894,-3478.967927,-16580.613101,-3370.820191
2149.906221,-8068.244768,-12139.377449,-4596.572988
2149.906548,-11473.192101,-7476.080014,-4673.182538
2149.906876,-12731.542202,-2886.803174,-2374.896044
2149.907203,-10881.027347,148.041188,-612.876398
2149.907531,-8142.265362,666.185348,1072.533697
2149.907858,-4663.297435,-1554.432478,2528.115143
2149.908185,1036.288319,-3330.926739,2068.457845
2149.908513,5921.647536,-7402.059420,2068.457845
2149.908840,11029.068536,-12583.501014,1915.238745
2149.909167,15026.180623,-17394.839637,1378.971896
2149.909495,14137.933492,-20725.766376,766.095498
2149.909822,9178.553681,-20281.642811,383.047749
2149.910149,2812.782580,-18653.189738,-1608.800546
2149.910477,-2886.803174,-15026.180623,-2757.943793
2149.910804,-8142.265362,-10510.924376,-4366.744339
2149.911132,-11177.109724,-6735.874072,-4903.011187
2149.911459,-12139.377449,-3256.906145,-2374.896044
2149.911786,-10066.800811,-296.082377,0.000000
2149.912114,-7105.977043,1258.350101,2221.676944
2149.912441,-3034.844362,-518.144159,3294.210641
2149.912768,2072.576638,-3627.009116,3064.381992
2149.913096,7698.141797,-7624.121203,2451.505594
2149.913423,11917.315666,-12287.418637,2834.553343
2149.913750,14730.098246,-17246.798449,2374.896044
2149.914078,13101.645173,-19467.416275,1838.629195
2149.914405,8142.265362,-19467.416275,0.000000
2149.914733,888.247130,-18283.086767,-1838.629195
2149.915060,-4885.359217,-13545.768739,-3447.429741
2149.915387,-9400.615463,-9918.759623,-4903.011187
2149.915715,-11843.295072,-6587.832884,-3907.087040
2149.916042,-12361.439231,-3256.906145,-2681.334243
2149.916369,-9178.553681,222.061783,-536.266849
2149.916697,-7031.956449,888.247130,2604.724693
2149.917024,-1406.391290,-1110.308913,3140.991542
2149.917352,4145.153275,-4441.235652,2451.505594
2149.917679,9030.512492,-8438.347739,2987.772442
2149.918006,13323.706956,-12805.562797,2987.772442
2149.918334,15322.262999,-17320.819043,1838.629195
2149.918661,13027.624579,-20651.745782,766.095498
2149.918989,7105.977043,-20577.725188,-1378.971896
2149.919316,740.205942,-18505.148550,-3447.429741
2149.919644,-4367.215058,-15914.427753,-5132.839837
2149.919971,-8068.244768,-10881.027347,-5286.058936
2149.920298,-10658.965565,-6291.750507,-3753.867940
2149.920626,-11769.274478,-3182.885551,-536.266849
2149.920953,-8364.327145,148.041188,1072.533697
2149.921281,-5329.482782,1184.329507,1685.410096
2149.921608,-1554.432478,-1702.473667,2451.505594
2149.921936,3182.885551,-3849.070898,2911.162892
2149.922263,9474.636058,-8364.327145,2298.286494
2149.922591,12139.377449,-13989.892304,2757.943793
2149.922918,13619.789333,-17616.901420,1991.848295
2149.923245,12287.418637,-20133.601622,-536.266849
2149.923573,5625.565159,-19763.498651,-2221.676944
2149.923900,-1702.473667,-16506.592507,-2221.676944
2149.924228,-5107.421000,-13027.624579,-5056.230287
2149.924555,-10140.821405,-8660.409521,-4290.134789
2149.924883,-11991.336260,-4441.235652,-2681.334243
2149.925210,-10436.903782,-296.082377,-459.657299
2149.925537,-9770.718434,1924.535449,1991.848295
2149.925865,-5329.482782,-1258.350101,2604.724693
2149.926192,-1184.329507,-1332.370696,2374.896044
2149.926520,2590.720797,-4219.173869,1608.800546
2149.926847,7994.224174,-8660.409521,2145.067394
2149.927175,12361.439231,-13175.665768,2221.676944
2149.927502,14804.118840,-19689.478057,919.314598
2149.927829,11695.253884,-21391.951724,536.266849
2149.928157,5699.585753,-19541.436869,-1532.190996
2149.928484,370.102971,-17616.901420,-3370.820191
2149.928812,-6069.688724,-13027.624579,-4596.572988
2149.929139,-9548.656652,-8438.347739,-4596.572988
2149.929467,-11547.212695,-4737.318029,-2757.943793
2149.929794,-11917.315666,-1776.494261,-153.219100
2149.930121,-8290.306550,814.226536,766.095498
2149.930449,-5107.421000,-222.061783,2145.067394
2149.930776,-1258.350101,-2886.803174,2145.067394
2149.931104,4589.276840,-6513.812290,1915.238745
2149.931431,9104.533087,-9844.739029,2298.286494
2149.931759,13249.686362,-15322.262999,2298.286494
2149.932086,14137.933492,-19911.539840,1302.362347
2149.932413,10881.027347,-21317.931130,459.657299
2149.932741,5033.400406,-19911.539840,-1532.190996
2149.933068,-1258.350101,-16950.716072,-3140.991542
2149.933396,-6513.812290,-12583.501014,-4366.744339
2149.933723,-10214.842000,-8438.347739,-4749.792088
2149.934051,-11843.295072,-4441.235652,-3140.991542
2149.934378,-10658.965565,-1258.350101,-689.485948
2149.934705,-8216.285956,1258.350101,1685.410096
2149.935033,-4515.256246,74.020594,2681.334243
2149.935360,814.226536,-2146.597232,2451.505594
2149.935688,5181.441594,-5477.523971,3753.867940
2149.936015,11621.233289,-9252.574275,3217.601092
2149.936343,15100.201217,-15174.221811,3140.991542
2149.936670,15322.262999,-19615.457463,1991.848295
2149.936997,10807.006753,-20207.622217,689.485948
2149.937325,4959.379811,-19319.375086,-2757.943793
2149.937652,-2368.659014,-16210.510130,-3140.991542
2149.937980,-8068.244768,-12879.583391,-4903.011187
2149.938307,-9548.656652,-8586.388927,-5669.106685
2149.938635,-12879.583391,-4515.256246,-2068.457845
2149.938962,-10066.800811,-592.164754,76.609550
2149.939289,-7328.038826,1554.432478,1225.752797
2149.939617,-5181.441594,-1110.308913,2911.162892
2149.939944,740.205942,-2442.679609,2068.457845
2149.940272,6217.729913,-6513.812290,2068.457845
2149.940599,10584.944971,-10436.903782,2145.067394
2149.940927,14878.139434,-16506.592507,2528.115143
2149.941254,14063.912898,-19911.539840,1455.581446
2149.941582,9696.697840,-21465.972318,-383.047749
2149.941909,2812.782580,-19837.519246,-2604.724693
2149.942236,-2960.823768,-17246.798449,-4826.401637
2149.942564,-8068.244768,-12065.356855,-4366.744339
2149.942891,-10881.027347,-7698.141797,-3830.477490
2149.943219,-12139.377449,-3256.906145,-2145.067394
2149.943546,-10732.986159,0.000000,306.438199
2149.943874,-8364.327145,2442.679609,2528.115143
2149.944201,-4441.235652,444.123565,2451.505594
2149.944528,592.164754,-3478.967927,1991.848295
2149.944856,5329.482782,-6439.791695,2374.896044
2149.945183,11177.109724,-10214.842000,2298.286494
2149.945511,13767.830521,-16358.551318,2298.286494
2149.945838,13545.768739,-20947.828159,1149.143247
2149.946166,9178.553681,-21836.075289,-766.095498
2149.946493,2664.741391,-20133.601622,-2681.334243
2149.946820,-2738.761985,-15766.386565,-4213.525239
2149.947148,-7179.997637,-11029.068536,-5898.935335
2149.947475,-10288.862594,-6883.915261,-4366.744339
2149.947803,-12213.398043,-2442.679609,-1149.143247
2149.948130,-10066.800811,1110.308913,766.095498
2149.948458,-7402.059420,2146.597232,1915.238745
2149.948785,-4071.132681,-888.247130,2298.286494
2149.949112,1480.411884,-2738.761985,1225.752797
2149.949440,6661.853478,-7624.121203,1838.629195
2149.949767,10658.965565,-13471.748144,2145.067394
2149.950095,15248.242405,-19245.354492,1991.848295
2149.950422,13175.665768,-21391.951724,1072.533697
2149.950750,8068.244768,-21614.013506,-612.876398
2149.951077,2220.617826,-19467.416275,-2757.943793
2149.951404,-3775.050304,-15100.201217,-3370.820191
2149.951732,-8808.450710,-10140.821405,-4443.353888
2149.952059,-11547.212695,-5329.482782,-3600.648841
2149.952387,-11399.171507,-1850.514855,-1685.410096
2149.952714,-9474.636058,814.226536,0.000000
2149.953042,-7105.977043,1924.535449,2374.896044
2149.953369,-2220.617826,-444.123565,2145.067394
2149.953696,2886.803174,-3923.091493,2298.286494
2149.954024,7994.224174,-8734.430116,3217.601092
2149.954351,13693.809927,-12435.459826,3447.429741
2149.954679,15766.386565,-17024.736666,2757.943793
2149.955006,13693.809927,-20873.807564,1838.629195
2149.955334,8142.265362,-21021.848753,-612.876398
2149.955661,1850.514855,-17542.880825,-2681.334243
2149.955988,-4293.194464,-13841.851115,-4443.353888
2149.956316,-9104.533087,-9326.594869,-4290.134789
2149.956643,-10955.047942,-5995.668130,-4366.744339
2149.956971,-11917.315666,-2368.659014,-1838.629195
2149.957298,-9474.636058,1110.308913,383.047749
2149.957626,-6217.729913,666.185348,1915.238745
2149.957953,-1850.514855,-2368.659014,1838.629195
2149.958280,4367.215058,-5033.400406,2145.067394
2149.958608,9548.656652,-8660.409521,2834.553343
2149.958935,13249.686362,-13175.665768,2987.772442
2149.959263,15470.304188,-18357.107362,2374.896044
2149.959590,12805.562797,-20873.807564,459.657299
2149.959918,6883.915261,-20799.786970,-1685.410096
2149.960245,0.000000,-18209.066173,-2911.162892
2149.960573,-5329.482782,-14508.036463,-4213.525239
2149.960900,-8660.409521,-10584.944971,-4979.620737
2149.961227,-11769.274478,-6291.750507,-3294.210641
2149.961555,-11843.295072,-1554.432478,-919.314598
2149.961882,-10140.821405,1406.391290,766.095498
2149.962210,-6883.915261,-222.061783,2298.286494
2149.962537,-2146.597232,-2368.659014,2145.067394
2149.962865,2590.720797,-4293.194464,3064.381992
2149.963192,7994.224174,-8586.388927,2604.724693
2149.963519,12139.377449,-13545.768739,2374.896044
2149.963847,14211.954086,-19171.333898,1225.752797
2149.964174,10510.924376,-20577.725188,229.828649
2149.964502,5625.565159,-20429.683999,-1991.848295
2149.964829,-370.102971,-17616.901420,-3447.429741
2149.965157,-6143.709319,-12731.542202,-4290.134789
2149.965484,-8586.388927,-9104.533087,-3677.258390
2149.965811,-11325.150913,-4959.379811,-2451.505594
2149.966139,-11991.336260,-296.082377,0.000000
2149.966466,-9326.594869,2368.659014,1455.581446
2149.966794,-6291.750507,592.164754,2298.286494
2149.967121,-1702.473667,-1850.514855,2298.286494
2149.967449,3775.050304,-5551.544565,1991.848295
2149.967776,8068.244768,-9326.594869,2451.505594
2149.968103,12731.542202,-15322.262999,1991.848295
2149.968431,14211.954086,-20725.766376,229.828649
2149.968758,11177.109724,-22280.198854,-536.266849
2149.969086,6291.750507,-20873.807564,-1685.410096
2149.969413,-518.144159,-17320.819043,-2298.286494
2149.969741,-5699.585753,-12657.521608,-3677.258390
2149.970068,-9770.718434,-8290.306550,-3753.867940
2149.970395,-11695.253884,-4737.318029,-2221.676944
2149.970723,-11177.109724,-666.185348,-306.438199
2149.971050,-8734.430116,1850.514855,536.266849
2149.971378,-4515.256246,-518.144159,919.314598
2149.971705,148.041188,-2368.659014,1685.410096
2149.972033,5847.626942,-6217.729913,2604.724693
2149.972360,10288.862594,-10140.821405,2757.943793
2149.972687,15100.201217,-15618.345376,3447.429741
2149.973015,15618.345376,-19689.478057,1149.143247
2149.973342,12435.459826,-22058.137072,536.266849
2149.973670,5847.626942,-19097.313304,-919.314598
2149.973997,-222.061783,-16284.530724,-2374.896044
2149.974325,-6143.709319,-12509.480420,-4213.525239
2149.974652,-9252.574275,-7994.224174,-4596.572988
2149.974979,-11029.068536,-3182.885551,-3447.429741
2149.975307,-11473.192101,74.020594,-383.047749
2149.975634,-7994.224174,1184.329507,1378.971896
2149.975962,-4071.132681,-296.082377,2145.067394
2149.976289,1332.370696,-2072.576638,1685.410096
2149.976617,5773.606348,-6513.812290,3677.258390
2149.976944,11251.130318,-10362.883188,3753.867940
2149.977272,15840.407159,-16802.674883,2068.457845
2149.977599,13101.645173,-17616.901420,2604.724693
2149.977926,10658.965565,-19615.457463,306.438199
2149.978254,5107.421000,-19911.539840,-2987.772442
2149.978581,-3404.947333,-16654.633695,-3830.477490
2149.978909,-8586.388927,-11325.150913,-4903.011187
2149.979236,-10436.903782,-8364.327145,-5439.278036
2149.979564,-13545.768739,-3775.050304,-2681.334243
2149.979891,-12213.398043,814.226536,-459.657299
2149.980218,-8438.347739,1332.370696,1149.143247
2149.980546,-5255.462188,-1702.473667,2145.067394
2149.980873,518.144159,-3849.070898,1762.019645
2149.981201,5625.565159,-6661.853478,2145.067394
2149.981528,9474.636058,-10732.986159,3447.429741
2149.981856,13989.892304,-16802.674883,2451.505594
2149.982183,13249.686362,-20355.663405,689.485948
2149.982510,7772.162391,-21243.910535,-919.314598
2149.982838,2738.761985,-19541.436869,-3447.429741
2149.983165,-4515.256246,-14508.036463,-4596.572988
2149.983493,-9030.512492,-12287.418637,-5515.887586
2149.983820,-10658.965565,-8438.347739,-4443.353888
2149.984148,-13101.645173,-2590.720797,-689.485948
2149.984475,-10510.924376,888.247130,1072.533697
2149.984802,-7624.121203,2072.576638,2451.505594
2149.985130,-4293.194464,-1184.329507,2374.896044
2149.985457,962.267725,-3108.864956,2757.943793
2149.985785,5847.626942,-6069.688724,2451.505594
2149.986112,9548.656652,-11325.150913,2681.334243
2149.986440,13767.830521,-18135.045579,1072.533697
2149.986767,12953.603985,-19097.313304,612.876398
2149.987094,9326.594869,-21762.054695,-1225.752797
2149.987422,2516.700203,-18875.251521,-1838.629195
2149.987749,-2960.823768,-14582.057057,-3447.429741
2149.988077,-7328.038826,-9474.636058,-4596.572988
2149.988404,-10436.903782,-7105.977043,-4596.572988
2149.988732,-11917.315666,-1850.514855,-995.924147
2149.989059,-8882.471304,1776.494261,1072.533697
2149.989386,-7105.977043,2146.597232,2374.896044
2149.989714,-2294.638420,-740.205942,2298.286494
2149.990041,3849.070898,-3849.070898,1225.752797
2149.990369,8734.430116,-7624.121203,2451.505594
2149.990696,13249.686362,-12805.562797,3370.820191
2149.991024,15396.283594,-17838.963202,1149.143247
2149.991351,15396.283594,-22872.363608,459.657299
2149.991678,9622.677246,-21317.931130,-1072.533697
2149.992006,3404.947333,-19393.395680,-2451.505594
2149.992333,-2516.700203,-15470.304188,-2911.162892
2149.992661,-7254.018232,-10732.986159,-3753.867940
2149.992988,-11695.253884,-5255.462188,-3370.820191
2149.993316,-12509.480420,-1850.514855,-383.047749
2149.993643,-9918.759623,1258.350101,229.828649
2149.993970,-6809.894666,0.000000,536.266849
2149.994298,-3182.885551,-1554.432478,1762.019645
2149.994625,2812.782580,-3997.112087,2298.286494
2149.994953,9178.553681,-8438.347739,2221.676944
2149.995280,12879.583391,-13027.624579,4213.525239
2149.995608,15692.365970,-18579.169144,2757.943793
2149.995935,12657.521608,-20059.581028,1608.800546
2149.996263,7254.018232,-20651.745782,-1302.362347
2149.996590,666.185348,-17394.839637,-2987.772442
2149.996917,-5995.668130,-14211.954086,-4366.744339
2149.997245,-10658.965565,-9992.780217,-3830.477490
2149.997572,-12435.459826,-5477.523971,-2987.772442
2149.997900,-13027.624579,148.041188,-1762.019645
2149.998227,-11029.068536,1184.329507,383.047749
2149.998555,-7920.203579,518.144159,2451.505594
2149.998882,-2368.659014,-2294.638420,1685.410096
2149.999209,2886.803174,-5403.503377,2681.334243
2149.999537,8512.368333,-9178.553681,2834.553343
2149.999864,13397.727550,-13027.624579,2451.505594
2150.000192,14656.077652,-18431.127956,1532.190996
2150.000519,12805.562797,-20799.786970,383.047749
2150.000847,5625.565159,-19763.498651,-1685.410096
2150.001174,-888.247130,-17394.839637,-3447.429741
2150.001501,-6513.812290,-12583.501014,-5362.668486
2150.001829,-10510.924376,-7920.203579,-5898.935335
2150.002156,-12509.480420,-6069.688724,-3753.867940
2150.002484,-12583.501014,-1332.370696,-1455.581446
2150.002811,-8882.471304,1850.514855,536.266849
2150.003139,-5995.668130,222.061783,1608.800546
2150.003466,-1776.494261,-2886.803174,2528.115143
2150.003793,4589.276840,-6513.812290,2528.115143
2150.004121,9326.594869,-9400.615463,2987.772442
2150.004448,13471.748144,-15766.386565,2374.896044
2150.004776,15840.407159,-20133.601622,612.876398
2150.005103,13175.665768,-21762.054695,-766.095498
2150.005431,6069.688724,-19097.313304,-1302.362347
2150.005758,-666.185348,-17172.777854,-2298.286494
2150.006085,-5699.585753,-12731.542202,-4290.134789
2150.006413,-9548.656652,-7846.182985,-4443.353888
2150.006740,-12287.418637,-3404.947333,-2681.334243
2150.007068,-11399.171507,222.061783,229.828649
2150.007395,-8808.450710,1850.514855,1608.800546
2150.007723,-4367.215058,592.164754,2451.505594
2150.008050,0.000000,-2220.617826,2451.505594
2150.008377,5477.523971,-5625.565159,2451.505594
2150.008705,11325.150913,-9844.739029,3217.601092
2150.009032,15766.386565,-15988.448347,1532.190996
2150.009360,15100.201217,-20281.642811,1072.533697
2150.009687,11769.274478,-21984.116477,229.828649
2150.010015,6143.709319,-19319.375086,-842.705048
2150.010342,-592.164754,-17098.757260,-2834.553343
2150.010669,-5699.585753,-13471.748144,-4443.353888
2150.010997,-10362.883188,-7920.203579,-3447.429741
2150.011324,-12583.501014,-3478.967927,-2068.457845
2150.011652,-12213.398043,888.247130,459.657299
2150.011979,-9770.718434,2664.741391,1532.190996
2150.012307,-4885.359217,-592.164754,1302.362347
2150.012634,-518.144159,-2738.761985,1915.238745
2150.012961,5773.606348,-6069.688724,1915.238745
2150.013289,12213.398043,-11029.068536,1608.800546
2150.013616,15470.304188,-17764.942608,2528.115143
2150.013944,16136.489536,-19911.539840,2145.067394
2150.014271,11843.295072,-21317.931130,306.438199
2150.014599,4737.318029,-21169.889941,-1838.629195
2150.014926,-2590.720797,-16210.510130,-3140.991542
2150.015254,-7698.141797,-11325.150913,-5056.230287
2150.015581,-12953.603985,-6587.832884,-4749.792088
2150.015908,-14434.015869,-3108.864956,-2374.896044
2150.016236,-12361.439231,444.123565,-612.876398
2150.016563,-10955.047942,2886.803174,1685.410096
2150.016891,-5403.503377,-1110.308913,1685.410096
2150.017218,296.082377,-3034.844362,1685.410096
2150.017546,6439.791695,-6735.874072,2068.457845
2150.017873,10732.986159,-10807.006753,4136.915689
2150.018200,16062.468941,-16950.716072,3447.429741
2150.018528,15174.221811,-19097.313304,1455.581446
2150.018855,9474.636058,-20799.786970,842.705048
2150.019183,2516.700203,-19097.313304,-1838.629195
2150.019510,-3849.070898,-16580.613101,-4060.306139
2150.019837,-8660.409521,-10584.944971,-6052.154434
2150.020165,-12509.480420,-6735.874072,-5056.230287
2150.020492,-13693.809927,-2960.823768,-2911.162892
2150.020820,-10807.006753,740.205942,-153.219100
2150.021147,-8882.471304,2368.659014,2068.457845
2150.021474,-4145.153275,-888.247130,2528.115143
2150.021802,1702.473667,-3478.967927,2451.505594
2150.022129,7402.059420,-6957.935855,2221.676944
2150.022457,12731.542202,-12805.562797,3217.601092
2150.022784,16062.468941,-17987.004391,2528.115143
2150.023111,15544.324782,-21317.931130,689.485948
2150.023439,9252.574275,-21021.848753,0.000000
2150.023766,3256.906145,-19615.457463,-2987.772442
2150.024094,-3701.029710,-15100.201217,-3983.696590
2150.024421,-8364.327145,-11325.150913,-5362.668486
2150.024748,-11473.192101,-7105.977043,-4213.525239
2150.025076,-13175.665768,-2294.638420,-1915.238745
2150.025403,-9918.759623,2220.617826,612.876398
2150.025731,-7105.977043,2220.617826,2528.115143
2150.026058,-2516.700203,-962.267725,2604.724693
2150.026385,2960.823768,-3330.926739,2604.724693
2150.026713,7994.224174,-7031.956449,3140.991542
2150.027040,12583.501014,-12065.356855,3064.381992
2150.027368,17024.736666,-18875.251521,1685.410096
2150.027695,13471.748144,-20577.725188,2145.067394
2150.028022,9622.677246,-22724.322419,-1149.143247
2150.028350,2146.597232,-18653.189738,-1915.238745
2150.028677,-4145.153275,-15470.304188,-3370.820191
2150.029005,-7920.203579,-10140.821405,-4673.182538
2150.029332,-12361.439231,-7031.956449,-2451.505594
2150.029659,-12213.398043,-2442.679609,-766.095498
2150.029987,-9844.739029,2072.576638,842.705048
2150.030314,-6957.935855,2072.576638,2451.505594
2150.030642,-3256.906145,0.000000,3140.991542
2150.030969,1628.453072,-3552.988522,2374.896044
2150.031296,7920.203579,-8882.471304,1685.410096
2150.031624,13693.809927,-13841.851115,1532.190996
2150.031951,15692.365970,-18431.127956,1991.848295
2150.032279,14434.015869,-22132.157666,766.095498
2150.032606,8068.244768,-21317.931130,0.000000
2150.032933,1332.370696,-18727.210333,-2528.115143
2150.033261,-5477.523971,-13841.851115,-3907.087040
2150.033588,-10066.800811,-10362.883188,-4596.572988
2150.033916,-12139.377449,-6735.874072,-4366.744339
2150.034243,-13767.830521,-740.205942,-995.924147
2150.034570,-11695.253884,2072.576638,0.000000
2150.034898,-7846.182985,444.123565,1532.190996
2150.035225,-3775.050304,-1776.494261,1608.800546
2150.035553,3108.864956,-5033.400406,1149.143247
2150.035880,7772.162391,-8882.471304,1915.238745
2150.036207,14730.098246,-14878.139434,1225.752797
2150.036535,16580.613101,-18727.210333,2145.067394
2150.036862,11769.274478,-21688.034101,1455.581446
2150.037190,7105.977043,-19985.560434,-536.266849
2150.037517,-814.226536,-16654.633695,-2528.115143
2150.037844,-6365.771101,-12879.583391,-5362.668486
2150.038172,-11399.171507,-9104.533087,-5669.106685
2150.038499,-13323.706956,-4367.215058,-4290.134789
2150.038826,-13101.645173,296.082377,0.000000
2150.039154,-10436.903782,1702.473667,2451.505594
2150.039481,-6069.688724,444.123565,2298.286494
2150.039809,-2146.597232,-1702.473667,2451.505594
2150.040136,4737.318029,-5255.462188,2451.505594
2150.040463,10881.027347,-10584.944971,2451.505594
2150.040791,14434.015869,-15322.262999,3524.039291
2150.041118,16358.551318,-18727.210333,2068.457845
2150.041446,13249.686362,-22280.198854,536.266849
2150.041773,5403.503377,-21317.931130,-766.095498
2150.042100,518.144159,-17024.736666,-3217.601092
2150.042428,-6217.729913,-11991.336260,-5362.668486
2150.042755,-10584.944971,-9104.533087,-5209.449386
2150.043083,-11991.336260,-5033.400406,-3447.429741
2150.043410,-11325.150913,74.020594,-919.314598
2150.043737,-8956.491898,2812.782580,2221.676944
2150.044065,-4959.379811,1110.308913,3524.039291
2150.044392,518.144159,-2368.659014,2221.676944
2150.044720,5329.482782,-6587.832884,2451.505594
2150.045047,9696.697840,-9696.697840,3140.991542
2150.045374,15026.180623,-16358.551318,1762.019645
2150.045702,16136.489536,-21391.951724,919.314598
2150.046029,11473.192101,-22872.363608,383.047749
2150.046357,5847.626942,-18949.272115,-1762.019645
2150.046684,-296.082377,-17024.736666,-2987.772442
2150.047011,-6291.750507,-13693.809927,-4979.620737
2150.047339,-9844.739029,-8068.244768,-5056.230287
2150.047666,-12361.439231,-2442.679609,-2451.505594
2150.047994,-11177.109724,1184.329507,842.705048
2150.048321,-8734.430116,2812.782580,1072.533697
2150.048648,-5329.482782,1036.288319,2221.676944
2150.048976,-518.144159,-2072.576638,2451.505594
2150.049303,4737.318029,-5551.544565,2374.896044
2150.049631,11399.171507,-11029.068536,1685.410096
2150.049958,15618.345376,-17098.757260,2374.896044
2150.050285,14878.139434,-19541.436869,2145.067394
2150.050613,11547.212695,-21762.054695,0.000000
2150.050940,4959.379811,-20577.725188,-1685.410096
2150.051268,-2146.597232,-15692.365970,-2451.505594
2150.051595,-7105.977043,-11547.212695,-4290.134789
2150.051922,-11695.253884,-7254.018232,-3600.648841
2150.052250,-14063.912898,-1998.556043,-2145.067394
2150.052577,-12065.356855,1184.329507,-1225.752797
2150.052905,-10732.986159,1776.494261,383.047749
2150.053232,-6735.874072,-592.164754,1762.019645
2150.053559,-888.247130,-2812.782580,1302.362347
2150.053887,4071.132681,-7254.018232,1608.800546
2150.054214,10140.821405,-12065.356855,2374.896044
2150.054542,15026.180623,-17912.983796,2145.067394
2150.054869,14211.954086,-21243.910535,1685.410096
2150.055196,11251.130318,-23168.445985,612.876398
2150.055524,4737.318029,-20133.601622,-2221.676944
2150.055851,-2960.823768,-15248.242405,-2834.553343
2150.056179,-8068.244768,-11399.171507,-4903.011187
2150.056506,-12361.439231,-5625.565159,-4903.011187
2150.056833,-13323.706956,-2442.679609,-2834.553343
2150.057161,-12287.418637,1776.494261,-383.047749
2150.057488,-8586.388927,2812.782580,1072.533697
2150.057816,-3404.947333,-962.267725,2068.457845
2150.058143,592.164754,-3108.864956,2068.457845
2150.058470,7402.059420,-7550.100608,1991.848295
2150.058798,12805.562797,-12509.480420,2604.724693
2150.059125,16284.530724,-17912.983796,2757.943793
2150.059453,16062.468941,-21021.848753,1532.190996
2150.059780,11251.130318,-21021.848753,0.000000
2150.060107,4589.276840,-17987.004391,-1915.238745
2150.060435,-3404.947333,-14656.077652,-3294.210641
2150.060762,-8512.368333,-10140.821405,-5209.449386
2150.061090,-11547.212695,-5551.544565,-4290.134789
2150.061417,-12657.521608,-1406.391290,-2757.943793
2150.061744,-9844.739029,1628.453072,0.000000
2150.062072,-7254.018232,2072.576638,1991.848295
2150.062399,-2220.617826,0.000000,3600.648841
2150.062727,2294.638420,-3849.070898,2451.505594
2150.063054,7105.977043,-7920.203579,3447.429741
2150.063381,12879.583391,-12657.521608,3140.991542
2150.063709,15322.262999,-16876.695478,2451.505594
2150.064036,15248.242405,-22576.281231,842.705048
2150.064364,11029.068536,-23538.548956,-1225.752797
2150.064691,2368.659014,-18135.045579,-1378.971896
2150.065018,-2738.761985,-14952.160028,-4290.134789
2150.065346,-9030.512492,-11325.150913,-5132.839837
2150.065673,-12361.439231,-7179.997637,-4519.963438
2150.066001,-12361.439231,-962.267725,-1455.581446
2150.066328,-11029.068536,2146.597232,1685.410096
2150.066655,-7698.141797,2812.782580,3524.039291
2150.066983,-2368.659014,-814.226536,2451.505594
2150.067310,2072.576638,-4071.132681,2451.505594
2150.067638,7920.203579,-8438.347739,3140.991542
2150.067965,13027.624579,-13027.624579,2681.334243
2150.068292,15988.448347,-19171.333898,995.924147
2150.068620,13545.768739,-22280.198854,0.000000
2150.068947,8882.471304,-21317.931130,-612.876398
2150.069275,2220.617826,-18061.024985,-2068.457845
2150.069602,-5477.523971,-14508.036463,-2681.334243
2150.069929,-9918.759623,-10288.862594,-3753.867940
2150.070257,-13027.624579,-4663.297435,-3677.258390
2150.070584,-13397.727550,-222.061783,-2068.457845
2150.070912,-11621.233289,2368.659014,0.000000
2150.071239,-8660.409521,1850.514855,2221.676944
2150.071566,-3701.029710,-962.267725,1838.629195
2150.071894,2294.638420,-5551.544565,1149.143247
2150.072221,7698.141797,-9178.553681,2145.067394
2150.072549,13767.830521,-14952.160028,2221.676944
2150.072876,15100.201217,-20281.642811,1915.238745
2150.073203,14211.954086,-23020.404796,459.657299
2150.073531,8364.327145,-21465.972318,-1149.143247
2150.073858,962.267725,-17838.963202,-2528.115143
2150.074186,-4441.235652,-13767.830521,-3447.429741
2150.074513,-10066.800811,-8586.388927,-4366.744339
2150.074840,-12657.521608,-4737.318029,-3600.648841
2150.075168,-13767.830521,666.185348,-842.705048
2150.075495,-10658.965565,2590.720797,0.000000
2150.075823,-7105.977043,296.082377,1838.629195
2150.076150,-3775.050304,-1480.411884,2681.334243
2150.076477,3923.091493,-4959.379811,1455.581446
2150.076805,9918.759623,-10362.883188,2145.067394
2150.077132,14063.912898,-16506.592507,2451.505594
2150.077460,16950.716072,-20429.683999,1532.190996
2150.077787,13693.809927,-21762.054695,842.705048
2150.078114,7624.121203,-20503.704593,-766.095498
2150.078442,1480.411884,-17468.860231,-2298.286494
2150.078769,-6365.771101,-12361.439231,-4060.306139
2150.079097,-10214.842000,-8586.388927,-4519.963438
2150.079424,-12583.501014,-3552.988522,-3447.429741
2150.079751,-12361.439231,222.061783,-1072.533697
2150.080079,-10362.883188,2294.638420,1149.143247
2150.080406,-6439.791695,1110.308913,2145.067394
2150.080734,-962.267725,-2664.741391,1838.629195
2150.081061,5107.421000,-7402.059420,2604.724693
2150.081388,10288.862594,-10140.821405,3064.381992
2150.081716,15914.427753,-16136.489536,2451.505594
2150.082043,15766.386565,-20873.807564,1991.848295
2150.082371,12731.542202,-21984.116477,919.314598
2150.082698,6365.771101,-19689.478057,-1378.971896
2150.083025,-444.123565,-17098.757260,-2834.553343
2150.083353,-5625.565159,-13693.809927,-4673.182538
2150.083680,-10066.800811,-8142.265362,-5132.839837
2150.084008,-12435.459826,-3997.112087,-3140.991542
2150.084335,-11843.295072,0.000000,-383.047749
2150.084662,-8808.450710,2664.741391,1838.629195
2150.084990,-5773.606348,888.247130,2145.067394
2150.085317,-666.185348,-2294.638420,2757.943793
2150.085645,5921.647536,-6291.750507,2528.115143
2150.085972,11473.192101,-11029.068536,2145.067394
2150.086299,15174.221811,-17098.757260,2451.505594
2150.086627,15248.242405,-21021.848753,1532.190996
2150.086954,12361.439231,-21910.095883,-536.266849
2150.087282,4959.379811,-19911.539840,-1455.581446
2150.087609,-2368.659014,-17320.819043,-2757.943793
2150.087936,-7179.997637,-12213.398043,-4749.792088
2150.088264,-11621.233289,-7254.018232,-4596.572988
2150.088591,-13323.706956,-3997.112087,-2757.943793
2150.088919,-12361.439231,1332.370696,0.000000
2150.089246,-10140.821405,3108.864956,919.314598
2150.089573,-6217.729913,0.000000,1991.848295
2150.089901,-1036.288319,-2590.720797,1532.190996
2150.090228,4959.379811,-5773.606348,2221.676944
2150.090556,9992.780217,-10732.986159,2681.334243
2150.090883,14434.015869,-17172.777854,2374.896044
2150.091210,14878.139434,-20799.786970,1072.533697
2150.091538,11547.212695,-22132.157666,0.000000
2150.091865,4145.153275,-19985.560434,-995.924147
2150.092193,-1110.308913,-16506.592507,-3447.429741
2150.092520,-7179.997637,-10881.027347,-4673.182538
2150.092847,-11547.212695,-6587.832884,-3907.087040
2150.093175,-13249.686362,-2442.679609,-2451.505594
2150.093502,-12139.377449,1776.494261,-383.047749
2150.093830,-9252.574275,2368.659014,766.095498
2150.094157,-5921.647536,-370.102971,1378.971896
2150.094484,370.102971,-3627.009116,536.266849
2150.094812,6365.771101,-6883.915261,1762.019645
2150.095139,11547.212695,-11843.295072,1378.971896
2150.095467,15618.345376,-18949.272115,842.705048
2150.095794,15174.221811,-22502.260637,1455.581446
2150.096121,11621.233289,-21021.848753,536.266849
2150.096449,4959.379811,-19319.375086,-1991.848295
2150.096776,-2368.659014,-17246.798449,-3140.991542
2150.097104,-7698.141797,-11177.109724,-4673.182538
2150.097431,-11103.089130,-5699.585753,-4290.134789
2150.097758,-13619.789333,-1850.514855,-1149.143247
2150.098086,-11917.315666,888.247130,76.609550
2150.098413,-9104.533087,1776.494261,1455.581446
2150.098741,-4515.256246,-1258.350101,1302.362347
2150.099068,814.226536,-3182.885551,2068.457845
2150.099395,7031.956449,-7254.018232,1991.848295
2150.099723,12435.459826,-12435.459826,2834.553343
2150.100050,16580.613101,-18505.148550,2911.162892
2150.100378,15470.304188,-21243.910535,1302.362347
2150.100705,10362.883188,-21539.992912,459.657299
2150.101032,3849.070898,-18653.189738,-1149.143247
2150.101360,-2664.741391,-13989.892304,-3217.601092
2150.101687,-8956.491898,-9474.636058,-4979.620737
2150.102015,-11621.233289,-6661.853478,-4749.792088
2150.102342,-13175.665768,-1406.391290,-1608.800546
2150.102669,-10140.821405,2664.741391,766.095498
2150.102997,-6883.915261,2442.679609,2145.067394
2150.103324,-3404.947333,-1036.288319,2757.943793
2150.103652,4071.132681,-4219.173869,3294.210641
2150.103979,8808.450710,-7624.121203,3064.381992
2150.104306,13693.809927,-13323.706956,2681.334243
2150.104634,16580.613101,-19467.416275,1838.629195
2150.104961,14359.995275,-21910.095883,1072.533697
2150.105289,9918.759623,-21465.972318,-919.314598
2150.105616,1998.556043,-18727.210333,-2451.505594
2150.105943,-4293.194464,-16358.551318,-4596.572988
2150.106271,-9918.759623,-10362.883188,-5822.325785
2150.106598,-12953.603985,-6143.709319,-4826.401637
2150.106926,-13101.645173,-2368.659014,-2451.505594
2150.107253,-12065.356855,2368.659014,229.828649
2150.107580,-8660.409521,2146.597232,1762.019645
2150.107908,-4145.153275,-814.226536,2604.724693
2150.108235,2368.659014,-4737.318029,2145.067394
2150.108563,7476.080014,-7920.203579,2451.505594
2150.108890,13175.665768,-13249.686362,2681.334243
2150.109217,16728.654289,-20355.663405,1149.143247
2150.109545,12805.562797,-20577.725188,995.924147
2150.109872,8586.388927,-20503.704593,-459.657299
2150.110200,2294.638420,-20281.642811,-2834.553343
2150.110527,-5033.400406,-14508.036463,-4060.306139
2150.110854,-9474.636058,-8586.388927,-4596.572988
2150.111182,-12731.542202,-4293.194464,-3140.991542
2150.111509,-14285.974681,-592.164754,459.657299
2150.111837,-11251.130318,2812.782580,919.314598
2150.112164,-8734.430116,2220.617826,1838.629195
2150.112491,-4885.359217,-814.226536,1685.410096
2150.112819,2516.700203,-4145.153275,1762.019645
2150.113146,8586.388927,-8586.388927,1762.019645
2150.113473,13545.768739,-14878.139434,2911.162892
2150.113801,15914.427753,-19911.539840,2145.067394
2150.114128,13471.748144,-22132.157666,919.314598
2150.114456,8956.491898,-22280.198854,-919.314598
2150.114783,2072.576638,-18357.107362,-2145.067394
2150.115110,-5181.441594,-13027.624579,-4213.525239
2150.115438,-10881.027347,-8438.347739,-3907.087040
2150.115765,-12583.501014,-4737.318029,-3983.696590
2150.116093,-12879.583391,-296.082377,-1915.238745
2150.116420,-11177.109724,3034.844362,536.266849
2150.116747,-6809.894666,1850.514855,1532.190996
2150.117075,-1702.473667,-3330.926739,842.705048
2150.117402,4293.194464,-6365.771101,1915.238745
2150.117730,10955.047942,-9918.759623,1455.581446
2150.118057,16062.468941,-15840.407159,2374.896044
2150.118384,17320.819043,-21095.869347,2757.943793
2150.118712,15470.304188,-22058.137072,1225.752797
2150.119039,8734.430116,-20799.786970,-995.924147
2150.119366,1554.432478,-18505.148550,-3140.991542
2150.119694,-6217.729913,-11991.336260,-3600.648841
2150.120021,-9252.574275,-7105.977043,-5362.668486
2150.120349,-12731.542202,-5033.400406,-3983.696590
2150.120676,-13619.789333,0.000000,-689.485948
2150.121003,-8512.368333,2960.823768,0.000000
2150.121331,-6069.688724,518.144159,2374.896044
2150.121658,-814.226536,-1184.329507,2757.943793
2150.121985,6143.709319,-5921.647536,2451.505594
2150.122313,10362.883188,-11177.109724,3140.991542
2150.122640,15248.242405,-18135.045579,2681.334243
2150.122968,15396.283594,-18801.230927,2757.943793
2150.123295,13027.624579,-19985.560434,1762.019645
2150.123622,5699.585753,-21243.910535,-1532.190996
2150.123950,-1480.411884,-16728.654289,-3447.429741
2150.124277,-8438.347739,-10658.965565,-4979.620737
2150.124604,-12213.398043,-7994.224174,-4826.401637
2150.124932,-14434.015869,-3775.050304,-2681.334243
2150.125259,-13841.851115,1998.556043,-689.485948
2150.125587,-11473.192101,2886.803174,1072.533697
2150.125914,-7328.038826,0.000000,2757.943793
2150.126241,-444.123565,-2368.659014,2145.067394
2150.126569,4589.276840,-5625.565159,2374.896044
2150.126896,10066.800811,-10140.821405,3140.991542
2150.127223,15618.345376,-16580.613101,2221.676944
2150.127551,15544.324782,-22206.178260,1378.971896
2150.127878,10362.883188,-22280.198854,1072.533697
2150.128206,4959.379811,-19245.354492,-1991.848295
2150.128533,-2442.679609,-17098.757260,-4519.963438
2150.128860,-8660.409521,-13101.645173,-5975.544884
2150.129188,-11399.171507,-7476.080014,-5286.058936
2150.129515,-14359.995275,-1776.494261,-2221.676944
2150.129842,-13545.768739,1776.494261,842.705048
2150.130170,-9770.718434,3256.906145,995.924147
2150.130497,-5107.421000,0.000000,1072.533697
2150.130825,-740.205942,-2516.700203,2374.896044
2150.131152,6143.709319,-6291.750507,2068.457845
2150.131479,13027.624579,-12361.439231,1685.410096
2150.131807,15544.324782,-18727.210333,2451.505594
2150.132134,15026.180623,-21317.931130,1302.362347
2150.132461,11769.274478,-22650.301825,-689.485948
2150.132789,4589.276840,-20207.622217,-2068.457845
2150.133116,-1628.453072,-15914.427753,-3524.039291
2150.133444,-6957.935855,-9178.553681,-4213.525239
2150.133771,-12361.439231,-5477.523971,-3983.696590
2150.134098,-13619.789333,-1702.473667,-1838.629195
2150.134426,-11473.192101,3182.885551,842.705048
2150.134753,-9622.677246,4663.297435,1455.581446
2150.135080,-3701.029710,-370.102971,1762.019645
2150.135408,1184.329507,-3404.947333,1838.629195
2150.135735,8882.471304,-7254.018232,2374.896044
2150.136063,13323.706956,-11769.274478,3140.991542
2150.136390,17542.880825,-19023.292709,2451.505594
2150.136717,17098.757260,-22798.343014,842.705048
2150.137045,11843.295072,-22206.178260,306.438199
2150.137372,5255.462188,-19023.292709,-1532.190996
2150.137699,-1332.370696,-15026.180623,-2987.772442
2150.138027,-7402.059420,-10362.883188,-4290.134789
2150.138354,-11473.192101,-5477.523971,-4826.401637
2150.138682,-13027.624579,-1480.411884,-2145.067394
2150.139009,-11547.212695,1850.514855,-153.219100
2150.139336,-8290.306550,2146.597232,1455.581446
2150.139664,-4589.276840,-444.123565,1685.410096
2150.139991,2072.576638,-5033.400406,1915.238745
2150.140318,8586.388927,-8956.491898,2681.334243
2150.140646,14211.954086,-13841.851115,2528.115143
2150.140973,16654.633695,-18949.272115,2681.334243
2150.141301,15248.242405,-21317.931130,1762.019645
2150.141628,9548.656652,-21317.931130,0.000000
2150.141955,1998.556043,-18653.189738,-1991.848295
2150.142283,-5033.400406,-14359.995275,-3217.601092
2150.142610,-10732.986159,-9326.594869,-4826.401637
2150.142937,-13989.892304,-5847.626942,-4443.353888
2150.143265,-15026.180623,-1480.411884,-2604.724693
2150.143592,-13397.727550,2812.782580,-536.266849
2150.143920,-9918.759623,2590.720797,1838.629195
2150.144247,-5551.544565,-1258.350101,2604.724693
2150.144574,1998.556043,-3849.070898,2068.457845
2150.144902,9548.656652,-6661.853478,2987.772442
2150.145229,12361.439231,-12731.542202,2834.553343
2150.145556,15174.221811,-19467.416275,2604.724693
2150.145884,15248.242405,-21317.931130,383.047749
2150.146211,7846.182985,-21317.931130,-842.705048
2150.146539,222.061783,-19615.457463,-2987.772442
2150.146866,-3701.029710,-14359.995275,-5592.497135
2150.147193,-11325.150913,-10214.842000,-5515.887586
2150.147521,-14063.912898,-5403.503377,-2604.724693
2150.147848,-13767.830521,444.123565,-536.266849
2150.148175,-11325.150913,2590.720797,-306.438199
2150.148503,-7476.080014,148.041188,1072.533697
2150.148830,-2590.720797,-1332.370696,1378.971896
2150.149158,3330.926739,-4663.297435,1991.848295
2150.149485,10140.821405,-9548.656652,3140.991542
2150.149812,14508.036463,-15618.345376,2987.772442
2150.150140,16654.633695,-21317.931130,1915.238745
2150.150467,14359.995275,-23020.404796,0.000000
2150.150794,9548.656652,-22502.260637,-2451.505594
2150.151122,1998.556043,-18949.272115,-2604.724693
2150.151449,-5403.503377,-14285.974681,-3294.210641
2150.151777,-9030.512492,-9918.759623,-4826.401637
2150.152104,-13249.686362,-3404.947333,-2987.772442
2150.152431,-13027.624579,1776.494261,-1149.143247
2150.152759,-9548.656652,2664.741391,536.266849
2150.153086,-7846.182985,1628.453072,2681.334243
2150.153413,-1184.329507,-888.247130,2451.505594
2150.153741,3034.844362,-4663.297435,2604.724693
2150.154068,9104.533087,-9252.574275,2681.334243
2150.154396,15396.283594,-15840.407159,2528.115143
2150.154723,16876.695478,-20355.663405,1455.581446
2150.155050,14582.057057,-23168.445985,766.095498
2150.155378,9104.533087,-21836.075289,-1302.362347
2150.155705,1998.556043,-18283.086767,-2145.067394
2150.156032,-4589.276840,-13175.665768,-3447.429741
2150.156360,-9770.718434,-8512.368333,-3753.867940
2150.156687,-12583.501014,-3108.864956,-2911.162892
2150.157015,-11917.315666,962.267725,0.000000
2150.157342,-9770.718434,3330.926739,842.705048
2150.157669,-7105.977043,1554.432478,2374.896044
2150.157997,-1628.453072,-2368.659014,2374.896044
2150.158324,4145.153275,-6883.915261,2145.067394
2150.158651,9696.697840,-11473.192101,1762.019645
2150.158979,15100.201217,-16062.468941,2834.553343
2150.159306,15618.345376,-21169.889941,1685.410096
2150.159634,12657.521608,-22206.178260,306.438199
2150.159961,6883.915261,-20429.683999,-1378.971896
2150.160288,0.000000,-17690.922014,-3064.381992
2150.160616,-6809.894666,-12953.603985,-4136.915689
2150.160943,-12509.480420,-7846.182985,-4749.792088
2150.161270,-13915.871710,-3849.070898,-4136.915689
2150.161598,-14137.933492,1110.308913,-766.095498
2150.161925,-12139.377449,3627.009116,689.485948
2150.162253,-8068.244768,1480.411884,2451.505594
2150.162580,-1998.556043,-2294.638420,1991.848295
2150.162907,4737.318029,-7772.162391,2068.457845
2150.163235,11103.089130,-11029.068536,2834.553343
2150.163562,14730.098246,-15914.427753,2451.505594
2150.163889,15100.201217,-21021.848753,1608.800546
2150.164217,11103.089130,-22206.178260,1149.143247
2150.164544,5847.626942,-20207.622217,-919.314598
2150.164872,-1850.514855,-15618.345376,-2834.553343
2150.165199,-7920.203579,-12287.418637,-4903.011187
2150.165526,-11621.233289,-7994.224174,-5286.058936
2150.165854,-14211.954086,-2146.597232,-2987.772442
2150.166181,-13323.706956,1036.288319,-612.876398
2150.166508,-10436.903782,3330.926739,383.047749
2150.166836,-5699.585753,444.123565,1685.410096
2150.167163,222.061783,-2442.679609,2221.676944
2150.167491,5255.462188,-5699.585753,3524.039291
2150.167818,12287.418637,-11843.295072,2604.724693
2150.168145,16210.510130,-17616.901420,1455.581446
2150.168473,15174.221811,-21465.972318,536.266849
2150.168800,12583.501014,-22428.240043,-383.047749
2150.169127,5551.544565,-20725.766376,-2221.676944
2150.169455,-592.164754,-17764.942608,-2834.553343
2150.169782,-6809.894666,-11991.336260,-4366.744339
2150.170110,-10732.986159,-7179.997637,-4903.011187
2150.170437,-13027.624579,-3775.050304,-2451.505594
2150.170764,-11917.315666,1406.391290,0.000000
2150.171092,-8734.430116,3330.926739,842.705048
2150.171419,-4737.318029,-518.144159,1838.629195
2150.171746,666.185348,-2812.782580,2221.676944
2150.172074,6513.812290,-6513.812290,2298.286494
2150.172401,12879.583391,-12287.418637,2528.115143
2150.172729,15470.304188,-16876.695478,2528.115143
2150.173056,16062.468941,-21317.931130,1302.362347
2150.173383,12805.562797,-23242.466579,0.000000
2150.173711,4959.379811,-19615.457463,-919.314598
2150.174038,0.000000,-16284.530724,-3064.381992
2150.174365,-6587.832884,-11103.089130,-3983.696590
2150.174693,-11621.233289,-6661.853478,-3140.991542
2150.175020,-11843.295072,-888.247130,-842.705048
2150.175348,-11769.274478,2960.823768,306.438199
2150.175675,-9474.636058,2516.700203,1685.410096
2150.176002,-5255.462188,666.185348,2451.505594
2150.176330,222.061783,-2220.617826,1991.848295
2150.176657,6143.709319,-7920.203579,2221.676944
2150.176984,12509.480420,-13101.645173,1915.238745
2150.177312,15618.345376,-18653.189738,2528.115143
2150.177639,14804.118840,-21910.095883,1149.143247
2150.177966,10288.862594,-22650.301825,0.000000
2150.178294,3330.926739,-18875.251521,-1608.800546
2150.178621,-3627.009116,-14359.995275,-3524.039291
2150.178949,-10140.821405,-10436.903782,-4519.963438
2150.179276,-12435.459826,-5921.647536,-5132.839837
2150.179603,-14137.933492,-592.164754,-2145.067394
2150.179931,-13471.748144,2812.782580,0.000000
2150.180258,-10140.821405,2590.720797,1915.238745
2150.180585,-4885.359217,-962.267725,1608.800546
2150.180913,1184.329507,-4515.256246,1608.800546
2150.181240,7105.977043,-8882.471304,2068.457845
2150.181568,13545.768739,-14508.036463,1762.019645
2150.181895,16580.613101,-20725.766376,1378.971896
2150.182222,14359.995275,-21910.095883,1762.019645
2150.182550,9696.697840,-21317.931130,0.000000
2150.182877,2886.803174,-19097.313304,-2221.676944
2150.183204,-4441.235652,-14285.974681,-3753.867940
2150.183532,-9918.759623,-9252.574275,-5745.716235
2150.183859,-13841.851115,-4663.297435,-4673.182538
2150.184187,-15988.448347,222.061783,-1608.800546
2150.184514,-11695.253884,3404.947333,0.000000
2150.184841,-9474.636058,3701.029710,1838.629195
2150.185169,-2960.823768,-888.247130,2068.457845
2150.185496,5107.421000,-3478.967927,2681.334243
2150.185823,9030.512492,-8142.265362,2987.772442
2150.186151,15100.201217,-14804.118840,3524.039291
2150.186478,17246.798449,-18135.045579,3064.381992
2150.186806,15396.283594,-22206.178260,766.095498
2150.187133,8808.450710,-22502.260637,-766.095498
2150.187460,2886.803174,-18949.272115,-2604.724693
2150.187788,-3997.112087,-13693.809927,-4213.525239
2150.188115,-10140.821405,-9548.656652,-4213.525239
2150.188442,-12361.439231,-4589.276840,-3294.210641
2150.188770,-13101.645173,0.000000,-1455.581446
2150.189097,-11399.171507,2590.720797,-383.047749
2150.189425,-7698.141797,1924.535449,1762.019645
2150.189752,-3182.885551,-370.102971,2451.505594
2150.190079,4071.132681,-4219.173869,3217.601092
2150.190407,9622.677246,-9770.718434,3370.820191
2150.190734,14952.160028,-15766.386565,2298.286494
2150.191061,17690.922014,-21317.931130,1225.752797
2150.191389,14211.954086,-22798.343014,-612.876398
2150.191716,8734.430116,-22872.363608,-1378.971896
2150.192044,1776.494261,-19911.539840,-2834.553343
2150.192371,-4441.235652,-15100.201217,-4443.353888
2150.192698,-10140.821405,-9030.512492,-4136.915689
2150.193026,-13101.645173,-3108.864956,-2374.896044
2150.193353,-12879.583391,1332.370696,612.876398
2150.193680,-10807.006753,2664.741391,842.705048
2150.194008,-7846.182985,2146.597232,1762.019645
2150.194335,-3775.050304,-1184.329507,2145.067394
2150.194663,2960.823768,-5255.462188,1838.629195
2150.194990,8734.430116,-9030.512492,2757.943793
2150.195317,14730.098246,-16432.571912,2451.505594
2150.195645,16580.613101,-20355.663405,2145.067394
2150.195972,13693.809927,-22724.322419,459.657299
2150.196299,8364.327145,-20873.807564,-1915.238745
2150.196627,370.102971,-17172.777854,-2145.067394
2150.196954,-4959.379811,-13767.830521,-4290.134789
2150.197282,-11029.068536,-8438.347739,-3600.648841
2150.197609,-13915.871710,-2738.761985,-2681.334243
2150.197936,-12731.542202,3034.844362,-1149.143247
2150.198264,-11547.212695,3627.009116,842.705048
2150.198591,-7846.182985,962.267725,2298.286494
2150.198918,-2368.659014,-1998.556043,2145.067394
2150.199246,3997.112087,-6291.750507,1149.143247
2150.199573,10214.842000,-11843.295072,1378.971896
2150.199901,14730.098246,-17320.819043,1991.848295
2150.200228,15914.427753,-20799.786970,1608.800546
2150.200555,13397.727550,-22724.322419,1225.752797
2150.200883,7105.977043,-20799.786970,0.000000
2150.201210,1036.288319,-17912.983796,-2987.772442
2150.201537,-6883.915261,-11991.336260,-4596.572988
2150.201865,-12213.398043,-7476.080014,-5132.839837
2150.202192,-14211.954086,-2886.803174,-3370.820191
2150.202520,-14434.015869,444.123565,-995.924147
2150.202847,-9622.677246,2294.638420,459.657299
2150.203174,-6809.894666,1184.329507,1838.629195
2150.203502,-222.061783,-2960.823768,919.314598
2150.203829,6439.791695,-7179.997637,2145.067394
2150.204156,11769.274478,-11769.274478,2757.943793
2150.204484,16506.592507,-17098.757260,2221.676944
2150.204811,16062.468941,-22058.137072,2221.676944
2150.205139,12731.542202,-21984.116477,689.485948
2150.205466,7179.997637,-20281.642811,-1455.581446
2150.205793,-1554.432478,-16210.510130,-2068.457845
2150.206121,-7031.956449,-11547.212695,-4366.744339
2150.206448,-11621.233289,-7254.018232,-4903.011187
2150.206775,-14508.036463,-2516.700203,-2834.553343
2150.207103,-12657.521608,1628.453072,-306.438199
2150.207430,-10881.027347,4219.173869,1455.581446
2150.207758,-6291.750507,592.164754,2681.334243
2150.208085,-370.102971,-2960.823768,2911.162892
2150.208412,5699.585753,-6513.812290,2681.334243
2150.208740,11843.295072,-11103.089130,2374.896044
2150.209067,15766.386565,-17987.004391,2451.505594
2150.209394,16432.571912,-22428.240043,1072.533697
2150.209722,11325.150913,-22132.157666,306.438199
2150.210049,4071.132681,-19615.457463,-995.924147
2150.210377,-2146.597232,-16136.489536,-3753.867940
2150.210704,-8364.327145,-11103.089130,-4903.011187
2150.211031,-12361.439231,-6735.874072,-3753.867940
2150.211359,-13027.624579,-2220.617826,-1838.629195
2150.211686,-12139.377449,2664.741391,1149.143247
2150.212013,-9474.636058,3034.844362,1991.848295
2150.212341,-5551.544565,-518.144159,2145.067394
2150.212668,-148.041188,-3256.906145,2145.067394
2150.212996,6661.853478,-7402.059420,1838.629195
2150.213323,11991.336260,-12879.583391,1532.190996
2150.213650,15840.407159,-20133.601622,1838.629195
2150.213978,16728.654289,-22206.178260,919.314598
2150.214305,11621.233289,-21095.869347,0.000000
2150.214632,6143.709319,-20651.745782,-2528.115143
2150.214960,-666.185348,-15692.365970,-3217.601092
2150.215287,-6661.853478,-9918.759623,-4979.620737
2150.215615,-10140.821405,-6143.709319,-4060.306139
2150.215942,-12953.603985,222.061783,-995.924147
2150.216269,-9844.739029,3256.906145,153.219100
2150.216597,-7846.182985,2442.679609,1991.848295
2150.216924,-4219.173869,-518.144159,2681.334243
2150.217251,3775.050304,-4441.235652,1378.971896
2150.217579,7994.224174,-7476.080014,1762.019645
2150.217906,13619.789333,-13471.748144,1532.190996
2150.218234,17838.963202,-19911.539840,1378.971896
2150.218561,16580.613101,-22724.322419,612.876398
2150.218889,11695.253884,-22058.137072,689.485948
2150.219216,4811.338623,-18727.210333,-1302.362347
2150.219543,-2146.597232,-14656.077652,-3140.991542
2150.219871,-8808.450710,-9918.759623,-4673.182538
2150.220198,-13619.789333,-5033.400406,-3907.087040
2150.220526,-14952.160028,370.102971,-2911.162892
2150.220853,-13027.624579,2886.803174,-919.314598
2150.221180,-9992.780217,2368.659014,919.314598
2150.221508,-3849.070898,-962.267725,2068.457845
2150.221835,-296.082377,-3923.091493,3677.258390
2150.222163,5551.544565,-9030.512492,3064.381992
2150.222490,13693.809927,-15544.324782,1378.971896
2150.222818,13915.871710,-20207.622217,2528.115143
2150.223145,12879.583391,-21021.848753,2757.943793
2150.223472,10140.821405,-21910.095883,153.219100
2150.223800,0.000000,-19615.457463,-2528.115143
2150.224127,-7105.977043,-14211.954086,-3907.087040
2150.224455,-11325.150913,-8586.388927,-5286.058936
2150.224782,-16950.716072,-3849.070898,-3064.381992
2150.225109,-16654.633695,-740.205942,-995.924147
2150.225437,-14063.912898,4293.194464,-229.828649
2150.225764,-10214.842000,3330.926739,1149.143247
2150.226092,-4441.235652,-1258.350101,1378.971896
2150.226419,1850.514855,-4219.173869,2451.505594
2150.226747,9030.512492,-9030.512492,3370.820191
2150.227074,15766.386565,-15544.324782,3983.696590
2150.227401,16580.613101,-19763.498651,3753.867940
2150.227729,15692.365970,-22724.322419,1302.362347
2150.228056,9178.553681,-21688.034101,-612.876398
2150.228384,1850.514855,-19467.416275,-2604.724693
2150.228711,-3701.029710,-14508.036463,-4519.963438
2150.229038,-10510.924376,-9992.780217,-4903.011187
2150.229366,-12509.480420,-6661.853478,-4213.525239
2150.229693,-13397.727550,222.061783,-1149.143247
2150.230021,-9178.553681,3478.967927,-536.266849
2150.230348,-6291.750507,1184.329507,229.828649
2150.230676,-2442.679609,-814.226536,2374.896044
2150.231003,5329.482782,-4367.215058,1838.629195
2150.231330,11843.295072,-10362.883188,1991.848295
2150.231658,15988.448347,-16358.551318,2757.943793
2150.231985,18283.086767,-21021.848753,1532.190996
2150.232313,16802.674883,-22798.343014,919.314598
2150.232640,9474.636058,-21836.075289,-995.924147
2150.232968,1998.556043,-17764.942608,-2911.162892
2150.233295,-3923.091493,-14063.912898,-5132.839837
2150.233622,-9474.636058,-9992.780217,-4673.182538
2150.233950,-11917.315666,-4145.153275,-2528.115143
2150.234277,-11695.253884,2220.617826,-842.705048
2150.234605,-10362.883188,4515.256246,1762.019645
2150.234932,-5995.668130,1480.411884,2757.943793
2150.235259,-592.164754,-888.247130,1991.848295
2150.235587,4515.256246,-5033.400406,2834.553343
2150.235914,11029.068536,-10658.965565,2451.505594
2150.236242,16210.510130,-17468.860231,1685.410096
2150.236569,16580.613101,-22280.198854,1762.019645
2150.236897,13249.686362,-23020.404796,919.314598
2150.237224,6957.935855,-20799.786970,0.000000
2150.237551,-888.247130,-16876.695478,-1762.019645
2150.237879,-6809.894666,-12287.418637,-4060.306139
2150.238206,-12509.480420,-7624.121203,-4213.525239
2150.238534,-15544.324782,-2294.638420,-2987.772442
2150.238861,-15396.283594,2294.638420,-612.876398
2150.239188,-12879.583391,3627.009116,1072.533697
2150.239516,-8290.306550,1702.473667,1915.238745
2150.239843,-3404.947333,-1184.329507,2068.457845
2150.240171,3775.050304,-7031.956449,2221.676944
2150.240498,10584.944971,-12139.377449,1838.629195
2150.240826,15174.221811,-18949.272115,1838.629195
2150.241153,15470.304188,-22872.363608,1762.019645
2150.241480,11621.233289,-23760.610738,766.095498
2150.241808,5329.482782,-21021.848753,-995.924147
2150.242135,-2220.617826,-16358.551318,-2757.943793
2150.242463,-8586.388927,-10955.047942,-4749.792088
2150.242790,-13619.789333,-7476.080014,-4903.011187
2150.243118,-16062.468941,-2886.803174,-3370.820191
2150.243445,-15100.201217,2368.659014,-766.095498
2150.243772,-11843.295072,3256.906145,76.609550
2150.244100,-7254.018232,592.164754,1149.143247
2150.244427,-1258.350101,-2368.659014,2068.457845
2150.244755,6587.832884,-6809.894666,2604.724693
2150.245082,12361.439231,-11399.171507,3370.820191
2150.245409,17838.963202,-18357.107362,2757.943793
2150.245737,18209.066173,-21614.013506,2221.676944
2150.246064,13693.809927,-22354.219448,1149.143247
2150.246392,6365.771101,-19837.519246,-1378.971896
2150.246719,-666.185348,-15914.427753,-3064.381992
2150.247047,-6957.935855,-11325.150913,-5745.716235
2150.247374,-11695.253884,-6883.915261,-4903.011187
2150.247701,-13397.727550,-1628.453072,-2298.286494
2150.248029,-11473.192101,2516.700203,-229.828649
2150.248356,-7550.100608,2590.720797,536.266849
2150.248684,-3775.050304,-962.267725,1302.362347
2150.249011,1184.329507,-3108.864956,3140.991542
2150.249338,8956.491898,-8882.471304,2145.067394
2150.249666,13915.871710,-12657.521608,2834.553343
2150.249993,17838.963202,-18135.045579,3064.381992
2150.250321,18431.127956,-21762.054695,1532.190996
2150.250648,13249.686362,-23168.445985,-536.266849
2150.250976,4737.318029,-19245.354492,-1072.533697
2150.251303,-296.082377,-16062.468941,-4443.353888
2150.251630,-8586.388927,-11103.089130,-4903.011187
2150.251958,-12879.583391,-6069.688724,-3830.477490
2150.252285,-12879.583391,0.000000,-2374.896044
2150.252613,-12731.542202,3034.844362,153.219100
2150.252940,-8808.450710,2960.823768,2528.115143
2150.253268,-4441.235652,814.226536,2374.896044
2150.253595,74.020594,-1998.556043,3064.381992
2150.253922,7105.977043,-8142.265362,2451.505594
2150.254250,12731.542202,-14804.118840,1455.581446
2150.254577,15544.324782,-20429.683999,1608.800546
2150.254905,14359.995275,-22132.157666,1225.752797
2150.255232,10436.903782,-23538.548956,-689.485948
2150.255559,1628.453072,-18727.210333,-1225.752797
2150.255887,-4071.132681,-14804.118840,-3370.820191
2150.256214,-10140.821405,-10510.924376,-4519.963438
2150.256542,-15692.365970,-4959.379811,-2681.334243
2150.256869,-14656.077652,814.226536,-1685.410096
2150.257197,-14508.036463,4441.235652,689.485948
2150.257524,-11769.274478,2590.720797,1915.238745
2150.257851,-5625.565159,666.185348,2221.676944
2150.258179,592.164754,-3849.070898,1915.238745
2150.258506,6883.915261,-9474.636058,1991.848295
2150.258834,13471.748144,-14285.974681,1991.848295
2150.259161,17024.736666,-21021.848753,842.705048
2150.259488,15544.324782,-25167.002028,536.266849
2150.259816,8734.430116,-22428.240043,0.000000
2150.260143,3627.009116,-18135.045579,-2604.724693
2150.260471,-4737.318029,-13471.748144,-3753.867940
2150.260798,-10807.006753,-10362.883188,-5056.230287
2150.261126,-13175.665768,-4145.153275,-3830.477490
2150.261453,-15396.283594,1406.391290,-1302.362347
2150.261780,-12583.501014,3034.844362,0.000000
2150.262108,-8882.471304,3478.967927,536.266849
2150.262435,-2368.659014,-740.205942,995.924147
2150.262763,1776.494261,-4885.359217,2604.724693
2150.263090,10584.944971,-9548.656652,2145.067394
2150.263418,18431.127956,-14582.057057,1991.848295
2150.263745,17320.819043,-21614.013506,2298.286494
2150.264072,16432.571912,-22872.363608,2451.505594
2150.264400,12657.521608,-21539.992912,0.000000
2150.264727,3034.844362,-18727.210333,-995.924147
2150.265055,-3923.091493,-14285.974681,-4826.401637
2150.265382,-8660.409521,-8586.388927,-6588.421283
2150.265709,-14137.933492,-4293.194464,-3907.087040
2150.266037,-14063.912898,592.164754,-612.876398
2150.266364,-11177.109724,4663.297435,995.924147
2150.266692,-7550.100608,1924.535449,1225.752797
2150.267019,-2590.720797,-1184.329507,2145.067394
2150.267347,4367.215058,-4737.318029,2528.115143
2150.267674,10584.944971,-8660.409521,2987.772442
2150.268001,16210.510130,-15470.304188,3600.648841
2150.268329,17764.942608,-21243.910535,2681.334243
2150.268656,15026.180623,-22428.240043,1991.848295
2150.268984,8734.430116,-19097.313304,0.000000
2150.269311,2294.638420,-17912.983796,-3370.820191
2150.269638,-4885.359217,-14285.974681,-5362.668486
2150.269966,-11843.295072,-9252.574275,-4366.744339
2150.270293,-12953.603985,-4293.194464,-3217.601092
2150.270621,-13841.851115,962.267725,0.000000
2150.270948,-11621.233289,3552.988522,1762.019645
2150.271276,-7031.956449,1554.432478,2987.772442
2150.271603,-3256.906145,-1332.370696,2374.896044
2150.271930,2812.782580,-5181.441594,1838.629195
2150.272258,9474.636058,-9844.739029,1608.800546
2150.272585,13619.789333,-16580.613101,1685.410096
2150.272913,15322.262999,-22576.281231,2068.457845
2150.273240,12879.583391,-23316.487173,153.219100
2150.273567,7105.977043,-21688.034101,-1838.629195
2150.273895,222.061783,-18727.210333,-3600.648841
2150.274222,-6439.791695,-12287.418637,-5132.839837
2150.274550,-12213.398043,-7772.162391,-4903.011187
2150.274877,-14730.098246,-2960.823768,-2681.334243
2150.275205,-14285.974681,2368.659014,0.000000
2150.275532,-11621.233289,4885.359217,689.485948
2150.275859,-7624.121203,2072.576638,1838.629195
2150.276187,-2442.679609,-2072.576638,1302.362347
2150.276514,4737.318029,-6217.729913,1532.190996
2150.276842,9770.718434,-10732.986159,1072.533697
2150.277169,14730.098246,-18283.086767,1302.362347
2150.277497,16358.551318,-23612.569550,1378.971896
2150.277824,12435.459826,-23316.487173,1455.581446
2150.278151,7105.977043,-21465.972318,-1991.848295
2150.278479,-296.082377,-16802.674883,-1608.800546
2150.278806,-6513.812290,-11991.336260,-3830.477490
2150.279134,-10881.027347,-6587.832884,-3830.477490
2150.279461,-14878.139434,-814.226536,-2068.457845
2150.279788,-13471.748144,2442.679609,-995.924147
2150.280116,-11621.233289,5033.400406,383.047749
2150.280443,-6883.915261,2442.679609,995.924147
2150.280771,-370.102971,-2146.597232,1685.410096
2150.281098,5107.421000,-6661.853478,3140.991542
2150.281426,12953.603985,-11843.295072,2451.505594
2150.281753,17542.880825,-18727.210333,2221.676944
2150.282080,17024.736666,-22428.240043,2068.457845
2150.282408,14804.118840,-24278.754898,612.876398
2150.282735,7994.224174,-21317.931130,-383.047749
2150.283063,1036.288319,-16802.674883,-2451.505594
2150.283390,-5699.585753,-10584.944971,-4060.306139
2150.283717,-11177.109724,-6587.832884,-4136.915689
2150.284045,-14211.954086,-1924.535449,-2604.724693
2150.284372,-13027.624579,2220.617826,-995.924147
2150.284700,-10288.862594,2960.823768,-306.438199
2150.285027,-5329.482782,-740.205942,1072.533697
2150.285355,518.144159,-3182.885551,2298.286494
2150.285682,6883.915261,-6661.853478,2911.162892
2150.286009,14137.933492,-13175.665768,2604.724693
2150.286337,16802.674883,-19541.436869,3217.601092
2150.286664,16654.633695,-21762.054695,2911.162892
2150.286992,14359.995275,-22502.260637,383.047749
2150.287319,5033.400406,-19541.436869,-1378.971896
2150.287647,-1406.391290,-16284.530724,-2604.724693
2150.287974,-7179.997637,-10955.047942,-5669.106685
2150.288301,-13101.645173,-6217.729913,-4673.182538
2150.288629,-14063.912898,-1258.350101,-2681.334243
2150.288956,-12731.542202,3775.050304,-153.219100
2150.289284,-11325.150913,3627.009116,1225.752797
2150.289611,-5625.565159,0.000000,2221.676944
2150.289938,-518.144159,-2368.659014,2451.505594
2150.290266,5773.606348,-6143.709319,3217.601092
2150.290593,11251.130318,-12139.377449,3140.991542
2150.290921,16284.530724,-20429.683999,1915.238745
2150.291248,14878.139434,-22724.322419,1072.533697
2150.291576,10066.800811,-21984.116477,76.609550
2150.291903,3182.885551,-18653.189738,-1762.019645
2150.292230,-3404.947333,-15544.324782,-4213.525239
2150.292558,-9474.636058,-9844.739029,-4979.620737
2150.292885,-13175.665768,-5995.668130,-4443.353888
2150.293213,-15026.180623,0.000000,-1762.019645
2150.293540,-12805.562797,2886.803174,0.000000
2150.293867,-9252.574275,2886.803174,1072.533697
2150.294195,-5699.585753,-148.041188,2604.724693
2150.294522,1036.288319,-3108.864956,2221.676944
2150.294850,7624.121203,-7402.059420,2528.115143
2150.295177,13027.624579,-14359.995275,1455.581446
2150.295505,16506.592507,-21317.931130,995.924147
2150.295832,14730.098246,-23686.590144,536.266849
2150.296159,10658.965565,-22872.363608,-766.095498
2150.296487,4145.153275,-20429.683999,-1838.629195
2150.296814,-3627.009116,-15026.180623,-3140.991542
2150.297142,-8808.450710,-9548.656652,-4290.134789
2150.297469,-12435.459826,-5477.523971,-3830.477490
2150.297797,-14285.974681,-148.041188,-1532.190996
2150.298124,-12139.377449,3256.906145,0.000000
2150.298451,-9622.677246,3627.009116,1685.410096
2150.298779,-4219.173869,222.061783,2298.286494
2150.299106,1998.556043,-3552.988522,2451.505594
2150.299434,8512.368333,-8438.347739,2834.553343
2150.299761,14804.118840,-14804.118840,2451.505594
2150.300088,18209.066173,-20799.786970,2374.896044
2150.300416,16284.530724,-22576.281231,1455.581446
2150.300743,11769.274478,-22428.240043,536.266849
2150.301071,3701.029710,-18653.189738,-919.314598
2150.301398,-2146.597232,-13693.809927,-3370.820191
2150.301726,-7846.182985,-8290.306550,-4290.134789
2150.302053,-13471.748144,-3923.091493,-3064.381992
2150.302380,-13619.789333,518.144159,-1378.971896
2150.302708,-11621.233289,3627.009116,306.438199
2150.303035,-8808.450710,2664.741391,1149.143247
2150.303363,-3108.864956,-1110.308913,1838.629195
2150.303690,3256.906145,-4663.297435,1532.190996
2150.304017,9992.780217,-9844.739029,2451.505594
2150.304345,15322.262999,-15914.427753,2604.724693
2150.304672,17838.963202,-21910.095883,2068.457845
2150.305000,15322.262999,-22946.384202,1762.019645
2150.305327,8956.491898,-21021.848753,76.609550
2150.305655,2146.597232,-18283.086767,-2145.067394
2150.305982,-5033.400406,-13545.768739,-3677.258390
2150.306309,-9992.780217,-8586.388927,-5822.325785
2150.306637,-13471.748144,-4441.235652,-4519.963438
2150.306964,-15322.262999,518.144159,-1915.238745
2150.307292,-12065.356855,2812.782580,-612.876398
2150.307619,-9474.636058,1776.494261,2068.457845
2150.307947,-4737.318029,-740.205942,1838.629195
2150.308274,3034.844362,-5699.585753,1685.410096
2150.308601,9030.512492,-10510.924376,2221.676944
2150.308929,14582.057057,-16580.613101,2298.286494
2150.309256,16210.510130,-21984.116477,2681.334243
2150.309584,12657.521608,-22650.301825,1225.752797
2150.309911,6883.915261,-20799.786970,-689.485948
2150.310238,-814.226536,-16580.613101,-3140.991542
2150.310566,-7105.977043,-11695.253884,-5286.058936
2150.310893,-11547.212695,-8734.430116,-5209.449386
2150.311221,-14285.974681,-2886.803174,-2834.553343
2150.311548,-13693.809927,2220.617826,-766.095498
2150.311876,-12065.356855,4441.235652,1225.752797
2150.312203,-7476.080014,1628.453072,1915.238745
2150.312530,-1998.556043,-1776.494261,2145.067394
2150.312858,5107.421000,-5847.626942,2451.505594
2150.313185,11547.212695,-10881.027347,1915.238745
2150.313513,15988.448347,-17246.798449,2145.067394
2150.313840,15766.386565,-22354.219448,1762.019645
2150.314167,13175.665768,-23686.590144,766.095498
2150.314495,7031.956449,-20799.786970,-995.924147
2150.314822,0.000000,-17690.922014,-3447.429741
2150.315150,-5921.647536,-13841.851115,-5362.668486
2150.315477,-10288.862594,-8512.368333,-5286.058936
2150.315805,-12879.583391,-2590.720797,-2911.162892
2150.316132,-13175.665768,2072.576638,0.000000
2150.316459,-11399.171507,3849.070898,1608.800546
2150.316787,-6291.750507,1850.514855,1762.019645
2150.317114,-1110.308913,-1406.391290,1608.800546
2150.317442,5847.626942,-6883.915261,1838.629195
2150.317769,13175.665768,-11695.253884,2145.067394
2150.318096,16876.695478,-17690.922014,2145.067394
2150.318424,17246.798449,-22576.281231,1915.238745
2150.318751,13989.892304,-23834.631332,612.876398
2150.319079,7772.162391,-21317.931130,-612.876398
2150.319408,1332.370696,-17024.736666,-2528.115143
2150.319735,-5033.400406,-11177.109724,-4749.792088
2150.320062,-10214.842000,-7624.121203,-4290.134789
2150.320390,-12953.603985,-2368.659014,-1685.410096
2150.320717,-13693.809927,3108.864956,919.314598
2150.321044,-10584.944971,3923.091493,842.705048
2150.321372,-5625.565159,518.144159,1072.533697
2150.321699,-1776.494261,-2368.659014,1455.581446
2150.322027,5921.647536,-6735.874072,2298.286494
2150.322354,12879.583391,-12361.439231,2145.067394
2150.322681,15544.324782,-18283.086767,2987.772442
2150.323009,15618.345376,-20873.807564,2757.943793
2150.323336,12509.480420,-22280.198854,383.047749
2150.323664,4737.318029,-20429.683999,-1225.752797
2150.323991,-2368.659014,-15322.262999,-3370.820191
2150.324318,-7031.956449,-10436.903782,-4826.401637
2150.324646,-12879.583391,-5995.668130,-2987.772442
2150.324973,-15026.180623,-1110.308913,-1991.848295
2150.325301,-14137.933492,3108.864956,-1149.143247
2150.325628,-13027.624579,2738.761985,383.047749
2150.325955,-7476.080014,0.000000,459.657299
2150.326283,-1332.370696,-3775.050304,76.609550
2150.326610,4885.359217,-8586.388927,1762.019645
2150.326938,11695.253884,-13619.789333,3140.991542
2150.327265,16506.592507,-19245.354492,2145.067394
2150.327592,14211.954086,-22650.301825,1532.190996
2150.327920,11177.109724,-23390.507767,-536.266849
2150.328247,2812.782580,-18061.024985,-2221.676944
2150.328575,-3330.926739,-15174.221811,-4290.134789
2150.328902,-8660.409521,-10955.047942,-5898.935335
2150.329229,-12509.480420,-6439.791695,-3600.648841
2150.329557,-14211.954086,-592.164754,-1072.533697
2150.329884,-12509.480420,3034.844362,995.924147
2150.330211,-8956.491898,2146.597232,459.657299
2150.330539,-3849.070898,148.041188,995.924147
2150.330866,2072.576638,-3478.967927,2068.457845
2150.331194,9178.553681,-8364.327145,2528.115143
2150.331521,14508.036463,-12953.603985,3600.648841
2150.331848,16654.633695,-18727.210333,2451.505594
2150.332176,16654.633695,-24426.796086,1225.752797
2150.332503,10362.883188,-21910.095883,0.000000
2150.332831,4367.215058,-18727.210333,-2451.505594
2150.333158,-2664.741391,-14878.139434,-4366.744339
2150.333485,-8956.491898,-9770.718434,-4060.306139
2150.333813,-11103.089130,-5847.626942,-3524.039291
2150.334140,-13545.768739,0.000000,-612.876398
2150.334468,-11843.295072,3330.926739,1072.533697
2150.334795,-7772.162391,3627.009116,1838.629195
2150.335122,-3404.947333,296.082377,1685.410096
2150.335450,2664.741391,-4589.276840,2451.505594
2150.335777,9474.636058,-8438.347739,3294.210641
2150.336105,14730.098246,-12139.377449,2987.772442
2150.336432,18653.189738,-21391.951724,1532.190996
2150.336759,14137.933492,-23538.548956,153.219100
2150.337087,10732.986159,-22650.301825,-536.266849
2150.337414,4737.318029,-19763.498651,-2068.457845
2150.337741,-3775.050304,-14878.139434,-3140.991542
2150.338069,-7920.203579,-11325.150913,-6052.154434
2150.338396,-11917.315666,-5033.400406,-4060.306139
2150.338724,-14285.974681,0.000000,-689.485948
2150.339051,-11251.130318,2738.761985,536.266849
2150.339378,-8956.491898,4071.132681,2068.457845
2150.339706,-5107.421000,-666.185348,1302.362347
2150.340033,2812.782580,-5847.626942,1302.362347
2150.340361,8216.285956,-9030.512492,2298.286494
2150.340688,13619.789333,-14211.954086,1991.848295
2150.341015,15914.427753,-20429.683999,3064.381992
2150.341343,13841.851115,-23020.404796,229.828649
2150.341670,7772.162391,-22502.260637,-766.095498
2150.341998,518.144159,-18061.024985,-1838.629195
2150.342325,-5033.400406,-13323.706956,-4290.134789
2150.342652,-10881.027347,-8808.450710,-4596.572988
2150.342980,-14359.995275,-3923.091493,-3217.601092
2150.343307,-15026.180623,444.123565,-1072.533697
2150.343635,-14137.933492,3330.926739,459.657299
2150.343962,-9474.636058,1998.556043,689.485948
2150.344289,-3997.112087,-2146.597232,536.266849
2150.344617,2368.659014,-6291.750507,1455.581446
2150.344944,8512.368333,-9548.656652,2528.115143
2150.345272,14656.077652,-15692.365970,3064.381992
2150.345599,16654.633695,-21391.951724,1991.848295
2150.345926,14434.015869,-22354.219448,1072.533697
2150.346254,8290.306550,-19763.498651,-229.828649
2150.346581,1258.350101,-17394.839637,-1915.238745
2150.346908,-4959.379811,-13397.727550,-4519.963438
2150.347236,-9622.677246,-7550.100608,-5209.449386
2150.347563,-13323.706956,-3182.885551,-3677.258390
2150.347891,-13767.830521,592.164754,-459.657299
2150.348218,-9548.656652,2220.617826,76.609550
2150.348545,-6735.874072,1184.329507,1149.143247
2150.348873,-1332.370696,-2368.659014,1608.800546
2150.349200,5921.647536,-6217.729913,1455.581446
2150.349528,11917.315666,-10066.800811,2681.334243
2150.349855,16136.489536,-16432.571912,2757.943793
2150.350182,17246.798449,-22280.198854,1762.019645
2150.350510,14656.077652,-23464.528361,689.485948
2150.350837,8068.244768,-20133.601622,-689.485948
2150.351165,0.000000,-17246.798449,-2221.676944
2150.351492,-6883.915261,-12287.418637,-4290.134789
2150.351819,-11547.212695,-7772.162391,-4596.572988
2150.352147,-13989.892304,-3182.885551,-3064.381992
2150.352474,-13841.851115,2072.576638,-383.047749
2150.352802,-10807.006753,3404.947333,306.438199
2150.353129,-6365.771101,518.144159,1532.190996
2150.353456,-666.185348,-2812.782580,2068.457845
2150.353784,5699.585753,-5773.606348,3524.039291
2150.354111,12361.439231,-9622.677246,2911.162892
2150.354439,17542.880825,-17912.983796,2298.286494
2150.354766,17024.736666,-22206.178260,2145.067394
2150.355093,14211.954086,-22650.301825,689.485948
2150.355421,7105.977043,-20873.807564,-153.219100
2150.355748,-370.102971,-17616.901420,-2068.457845
2150.356075,-4885.359217,-12731.542202,-5056.230287
2150.356403,-11177.109724,-8068.244768,-4519.963438
2150.356730,-14656.077652,-2960.823768,-2528.115143
2150.357058,-13101.645173,2442.679609,229.828649
2150.357385,-11103.089130,3552.988522,995.924147
2150.357712,-7179.997637,222.061783,1378.971896
2150.358040,-2220.617826,-2146.597232,1915.238745
2150.358367,5477.523971,-6291.750507,1455.581446
2150.358695,11103.089130,-12139.377449,2145.067394
2150.359022,15766.386565,-17838.963202,2068.457845
2150.359349,15988.448347,-22132.157666,842.705048
2150.359677,11399.171507,-22428.240043,229.828649
2150.360004,5033.400406,-19097.313304,-766.095498
2150.360332,-1406.391290,-15988.448347,-3217.601092
2150.360659,-7698.141797,-12213.398043,-4596.572988
2150.360986,-12213.398043,-7698.141797,-4213.525239
2150.361314,-14137.933492,-444.123565,-2451.505594
2150.361641,-13767.830521,3997.112087,689.485948
2150.361969,-11769.274478,3404.947333,1378.971896
2150.362296,-6883.915261,444.123565,1072.533697
2150.362623,-1184.329507,-2960.823768,1072.533697
2150.362951,4663.297435,-7476.080014,1685.410096
2150.363278,11917.315666,-13323.706956,842.705048
2150.363606,16506.592507,-19319.375086,1532.190996
2150.363933,16358.551318,-22354.219448,1302.362347
2150.364260,11843.295072,-21317.931130,766.095498
2150.364588,4885.359217,-19319.375086,-842.705048
2150.364915,-2294.638420,-14508.036463,-2834.553343
2150.365242,-7402.059420,-9030.512492,-4903.011187
2150.365570,-11251.130318,-5625.565159,-4903.011187
2150.365897,-14730.098246,-370.102971,-1685.410096
2150.366225,-12731.542202,2886.803174,76.609550
2150.366552,-9622.677246,3923.091493,919.314598
2150.366879,-4737.318029,-740.205942,1378.971896
2150.367207,1628.453072,-4441.235652,1455.581446
2150.367534,7994.224174,-8882.471304,2145.067394
2150.367862,14211.954086,-14211.954086,1685.410096
2150.368189,17616.901420,-20947.828159,2298.286494
2150.368516,16062.468941,-23242.466579,1915.238745
2150.368844,11843.295072,-22798.343014,536.266849
2150.369171,4145.153275,-19319.375086,-1225.752797
2150.369499,-3182.885551,-14730.098246,-3140.991542
2150.369826,-8586.388927,-10288.862594,-5822.325785
2150.370153,-13027.624579,-5921.647536,-4290.134789
2150.370481,-15248.242405,-1480.411884,-1455.581446
2150.370808,-12435.459826,2960.823768,383.047749
2150.371136,-9474.636058,2886.803174,2145.067394
2150.371463,-2960.823768,-666.185348,1915.238745
2150.371790,2442.679609,-4441.235652,2757.943793
2150.372118,8364.327145,-7031.956449,3217.601092
2150.372445,14211.954086,-14359.995275,2451.505594
2150.372773,17246.798449,-19319.375086,2604.724693
2150.373100,15248.242405,-20059.581028,2681.334243
2150.373427,11177.109724,-22280.198854,-612.876398
2150.373755,2886.803174,-20725.766376,-1915.238745
2150.374082,-3478.967927,-14730.098246,-3524.039291
2150.374409,-7920.203579,-9178.553681,-6205.373534
2150.374737,-13471.748144,-5773.606348,-3370.820191
2150.375064,-15026.180623,-370.102971,-1838.629195
2150.375392,-11547.212695,3775.050304,153.219100
2150.375719,-10881.027347,2812.782580,1915.238745
2150.376046,-4515.256246,-296.082377,1378.971896
2150.376374,2072.576638,-4293.194464,1455.581446
2150.376701,7698.141797,-8438.347739,2834.553343
2150.377029,14582.057057,-14211.954086,2528.115143
2150.377356,16580.613101,-20651.745782,1608.800546
2150.377683,13989.892304,-23020.404796,383.047749
2150.378011,9326.594869,-21910.095883,-1685.410096
2150.378338,1554.432478,-18727.210333,-2451.505594
2150.378666,-4515.256246,-14137.933492,-3983.696590
2150.378993,-9548.656652,-9918.759623,-4979.620737
2150.379320,-12657.521608,-5921.647536,-3753.867940
2150.379648,-14656.077652,888.247130,-995.924147
2150.379975,-12731.542202,4959.379811,842.705048
2150.380303,-9474.636058,1850.514855,1378.971896
2150.380630,-4219.173869,-1924.535449,1149.143247
2150.380957,1924.535449,-5329.482782,1302.362347
2150.381285,8438.347739,-9770.718434,1991.848295
2150.381612,13915.871710,-15618.345376,2221.676944
2150.381940,16876.695478,-21984.116477,1532.190996
2150.382267,14804.118840,-23390.507767,995.924147
2150.382594,10140.821405,-22428.240043,153.219100
2150.382922,2072.576638,-18061.024985,-1225.752797
2150.383249,-3923.091493,-12139.377449,-3600.648841
2150.383576,-9696.697840,-7179.997637,-4979.620737
2150.383904,-13323.706956,-3997.112087,-3524.039291
2150.384231,-13619.789333,888.247130,-229.828649
2150.384559,-12065.356855,4737.318029,1302.362347
2150.384886,-6957.935855,1628.453072,842.705048
2150.385213,-1998.556043,-740.205942,689.485948
2150.385541,3923.091493,-5773.606348,1455.581446
2150.385868,11177.109724,-10881.027347,1608.800546
2150.386196,15174.221811,-15544.324782,2145.067394
2150.386523,18135.045579,-21910.095883,1149.143247
2150.386850,15174.221811,-22502.260637,1762.019645
2150.387178,9178.553681,-21688.034101,0.000000
2150.387505,2738.761985,-18283.086767,-1149.143247
2150.387833,-5551.544565,-11621.233289,-2681.334243
2150.388160,-9474.636058,-7402.059420,-5669.106685
2150.388487,-13545.768739,-3627.009116,-3830.477490
2150.388815,-14952.160028,1258.350101,-1149.143247
2150.389142,-10732.986159,3404.947333,153.219100
2150.389470,-7772.162391,888.247130,1991.848295
2150.389797,-2072.576638,-1998.556043,1685.410096
2150.390124,5181.441594,-6439.791695,2068.457845
2150.390452,10955.047942,-10807.006753,2451.505594
2150.390779,16284.530724,-17616.901420,2451.505594
2150.391107,16654.633695,-22502.260637,2145.067394
2150.391434,14063.912898,-22650.301825,1149.143247
2150.391761,7624.121203,-20947.828159,-689.485948
2150.392089,-1184.329507,-16580.613101,-1608.800546
2150.392416,-5995.668130,-11695.253884,-4060.306139
2150.392743,-11695.253884,-8438.347739,-4749.792088
2150.393071,-15396.283594,-3627.009116,-3140.991542
2150.393398,-14137.933492,1332.370696,-919.314598
2150.393726,-12213.398043,3552.988522,229.828649
2150.394053,-7031.956449,74.020594,1762.019645
2150.394380,-2146.597232,-1702.473667,2221.676944
2150.394708,4959.379811,-5995.668130,2757.943793
2150.395035,10658.965565,-10881.027347,2987.772442
2150.395363,15618.345376,-16876.695478,2374.896044
2150.395690,15100.201217,-19245.354492,1838.629195
2150.396017,11843.295072,-22576.281231,842.705048
2150.396345,5921.647536,-21317.931130,-1378.971896
2150.396672,-1850.514855,-15618.345376,-1838.629195
2150.397000,-5921.647536,-11399.171507,-4979.620737
2150.397327,-11251.130318,-8512.368333,-4903.011187
2150.397654,-14137.933492,-4145.153275,-2221.676944
2150.397982,-12953.603985,2590.720797,0.000000
2150.398309,-11695.253884,3627.009116,1685.410096
2150.398637,-7179.997637,74.020594,2068.457845
2150.398964,-1110.308913,-2368.659014,1072.533697
2150.399291,4515.256246,-6957.935855,1149.143247
2150.399619,11251.130318,-12583.501014,1685.410096
2150.399946,15692.365970,-17024.736666,919.314598
2150.400274,16802.674883,-21984.116477,76.609550
2150.400601,11695.253884,-23316.487173,-689.485948
2150.400928,5329.482782,-20355.663405,-689.485948
2150.401256,0.000000,-14952.160028,-2757.943793
2150.401583,-6661.853478,-10732.986159,-4979.620737
2150.401910,-10362.883188,-8438.347739,-5439.278036
2150.402238,-12139.377449,-1258.350101,-2681.334243
2150.402565,-12731.542202,3108.864956,1072.533697
2150.402893,-10214.842000,2590.720797,2451.505594
2150.403220,-5403.503377,444.123565,2298.286494
2150.403547,148.041188,-2960.823768,842.705048
2150.403875,6143.709319,-8364.327145,1455.581446
2150.404202,11917.315666,-12879.583391,1915.238745
2150.404530,17468.860231,-20355.663405,1378.971896
2150.404857,15766.386565,-22058.137072,2528.115143
2150.405184,12731.542202,-22428.240043,1225.752797
2150.405512,6069.688724,-19541.436869,-612.876398
2150.405839,-1850.514855,-15322.262999,-1838.629195
2150.406167,-6735.874072,-8586.388927,-4366.744339
2150.406494,-11843.295072,-5181.441594,-4136.915689
2150.406821,-14582.057057,-888.247130,-1685.410096
2150.407149,-12657.521608,3330.926739,612.876398
2150.407476,-10214.842000,4589.276840,1378.971896
2150.407804,-5329.482782,592.164754,1838.629195
2150.408131,1480.411884,-4145.153275,1302.362347
2150.408458,7994.224174,-8808.450710,1532.190996
2150.408786,12805.562797,-12657.521608,2757.943793
2150.409113,17690.922014,-19763.498651,2068.457845
2150.409441,16284.530724,-21984.116477,2451.505594
2150.409768,11251.130318,-23094.425390,383.047749
2150.410095,5699.585753,-19985.560434,-995.924147
2150.410423,-2738.761985,-14211.954086,-2298.286494
2150.410750,-7328.038826,-10288.862594,-5745.716235
2150.411077,-12287.418637,-6957.935855,-4749.792088
2150.411405,-15396.283594,-2368.659014,-1915.238745
2150.411732,-12139.377449,2294.638420,-536.266849
2150.412060,-11325.150913,3034.844362,1455.581446
2150.412387,-5625.565159,-962.267725,1072.533697
2150.412714,1924.535449,-4367.215058,1225.752797
2150.413042,6587.832884,-8068.244768,2604.724693
2150.413369,14063.912898,-14211.954086,2528.115143
2150.413697,18135.045579,-19023.292709,1685.410096
2150.414024,13915.871710,-21317.931130,2068.457845
2150.414351,9844.739029,-21243.910535,842.705048
2150.414679,4145.153275,-19097.313304,-1991.848295
2150.415006,-3997.112087,-14878.139434,-3830.477490
2150.415334,-9770.718434,-9992.780217,-5056.230287
2150.415661,-12065.356855,-5921.647536,-4136.915689
2150.415988,-15248.242405,-518.144159,-842.705048
2150.416316,-12953.603985,3775.050304,919.314598
2150.416643,-9770.718434,2960.823768,2068.457845
2150.416971,-4811.338623,-1110.308913,842.705048
2150.417298,2146.597232,-5107.421000,919.314598
2150.417625,7624.121203,-8586.388927,2221.676944
2150.417953,13101.645173,-13471.748144,2528.115143
2150.418280,16580.613101,-20577.725188,2145.067394
2150.418608,13841.851115,-23316.487173,612.876398
2150.418935,8882.471304,-21910.095883,-689.485948
2150.419262,3182.885551,-18875.251521,-3524.039291
2150.419590,-3849.070898,-12731.542202,-3524.039291
2150.419917,-8660.409521,-9252.574275,-4903.011187
2150.420245,-11769.274478,-6365.771101,-4060.306139
2150.420572,-14359.995275,0.000000,0.000000
2150.420899,-11843.295072,5329.482782,1149.143247
2150.421227,-7994.224174,3923.091493,2451.505594
2150.421554,-3701.029710,-1036.288319,995.924147
2150.421882,2442.679609,-5033.400406,1378.971896
2150.422209,9178.553681,-9844.739029,1455.581446
2150.422536,14878.139434,-15692.365970,1455.581446
2150.422864,15914.427753,-21836.075289,995.924147
2150.423191,14434.015869,-23760.610738,612.876398
2150.423519,10955.047942,-21614.013506,-842.705048
2150.423846,2516.700203,-18727.210333,-1685.410096
2150.424173,-4589.276840,-12953.603985,-3600.648841
2150.424501,-8216.285956,-7402.059420,-4903.011187
2150.424828,-12879.583391,-3775.050304,-2681.334243
2150.425156,-14063.912898,74.020594,306.438199
2150.425483,-11103.089130,4811.338623,1225.752797
2150.425810,-8068.244768,2590.720797,1225.752797
2150.426138,-2738.761985,-1850.514855,0.000000
2150.426465,4515.256246,-6291.750507,1072.533697
2150.426793,10510.924376,-10140.821405,3140.991542
2150.427120,16210.510130,-15396.283594,3830.477490
2150.427447,17912.983796,-21762.054695,2298.286494
2150.427775,15470.304188,-24426.796086,995.924147
2150.428102,9326.594869,-19985.560434,536.266849
2150.428430,2738.761985,-16506.592507,-1608.800546
2150.428757,-5329.482782,-12435.459826,-2528.115143
2150.429084,-10288.862594,-8956.491898,-4290.134789
2150.429412,-12583.501014,-4071.132681,-3677.258390
2150.429739,-14878.139434,1480.411884,-536.266849
2150.430067,-12139.377449,3108.864956,919.314598
