#time,accel_x,accel_y,accel_z
2303.070486,-148.041188,-9474.636058,153.219100
2303.070813,-962.267725,-9696.697840,0.000000
2303.071141,0.000000,-9326.594869,-612.876398
2303.071468,0.000000,-9770.718434,-919.314598
2303.071796,0.000000,-9844.739029,-229.828649
2303.072123,74.020594,-10066.800811,-306.438199
2303.072451,518.144159,-10362.883188,0.000000
2303.072779,518.144159,-9844.739029,0.000000
2303.073106,592.164754,-9548.656652,0.000000
2303.073434,666.185348,-9178.553681,459.657299
2303.073761,444.123565,-9030.512492,306.438199
2303.074089,0.000000,-8438.347739,689.485948
2303.074416,0.000000,-8882.471304,229.828649
2303.074744,-370.102971,-9178.553681,-306.438199
2303.075071,-148.041188,-9770.718434,-383.047749
2303.075399,0.000000,-10066.800811,-766.095498
2303.075727,-370.102971,-10066.800811,-612.876398
2303.076054,518.144159,-9992.780217,-306.438199
2303.076382,592.164754,-9622.677246,-153.219100
2303.076709,666.185348,-9918.759623,153.219100
2303.077037,666.185348,-9474.636058,76.609550
2303.077364,296.082377,-9030.512492,0.000000
2303.077692,370.102971,-8882.471304,-766.095498
2303.078019,296.082377,-8660.409521,-689.485948
2303.078347,0.000000,-9178.553681,-306.438199
2303.078675,222.061783,-9622.677246,-842.705048
2303.079002,222.061783,-9918.759623,-766.095498
2303.079330,296.082377,-10214.842000,-842.705048
2303.079657,592.164754,-10584.944971,-842.705048
2303.079985,962.267725,-10732.986159,0.000000
2303.080312,666.185348,-10436.903782,-919.314598
2303.080640,888.247130,-9770.718434,229.828649
2303.080967,888.247130,-9474.636058,0.000000
2303.081295,222.061783,-9548.656652,76.609550
2303.081622,0.000000,-9548.656652,0.000000
2303.081950,-296.082377,-9326.594869,-229.828649
2303.082278,-296.082377,-9622.677246,-459.657299
2303.082605,222.061783,-10436.903782,-919.314598
2303.082933,148.041188,-9844.739029,-612.876398
2303.083260,74.020594,-10066.800811,-612.876398
2303.083588,518.144159,-10288.862594,0.000000
2303.083915,592.164754,-9992.780217,76.609550
2303.084243,740.205942,-9252.574275,76.609550
2303.084570,592.164754,-8364.327145,536.266849
2303.084898,1258.350101,-8290.306550,689.485948
2303.085226,2072.576638,-8364.327145,842.705048
2303.085553,2368.659014,-7994.224174,229.828649
2303.085881,3034.844362,-8364.327145,0.000000
2303.086208,3849.070898,-9474.636058,-383.047749
2303.086536,4737.318029,-10140.821405,0.000000
2303.086863,6069.688724,-9252.574275,-689.485948
2303.087191,6883.915261,-10510.924376,-536.266849
2303.087518,6883.915261,-11547.212695,76.609550
2303.087846,7105.977043,-11251.130318,306.438199
2303.088174,7179.997637,-10288.862594,229.828649
2303.088501,7105.977043,-9474.636058,536.266849
2303.088829,7105.977043,-9178.553681,0.000000
2303.089156,7031.956449,-9104.533087,-306.438199
2303.089484,7105.977043,-8808.450710,0.000000
2303.089811,7920.203579,-7772.162391,-306.438199
2303.090139,7846.182985,-9252.574275,-1149.143247
2303.090466,7624.121203,-10066.800811,76.609550
2303.090794,7846.182985,-9770.718434,-229.828649
2303.091122,7994.224174,-9918.759623,-383.047749
2303.091449,8290.306550,-11399.171507,229.828649
2303.091777,8216.285956,-11769.274478,0.000000
2303.092104,7624.121203,-10584.944971,0.000000
2303.092432,6661.853478,-10066.800811,1149.143247
2303.092759,6365.771101,-9844.739029,306.438199
2303.093087,5995.668130,-8734.430116,0.000000
2303.093414,5773.606348,-7846.182985,0.000000
2303.093742,6587.832884,-8142.265362,383.047749
2303.094070,7624.121203,-8734.430116,76.609550
2303.094397,8512.368333,-9918.759623,1378.971896
2303.094725,7550.100608,-9918.759623,1685.410096
2303.095052,6291.750507,-10510.924376,1149.143247
2303.095380,4145.153275,-10955.047942,842.705048
2303.095707,2812.782580,-11177.109724,0.000000
2303.096035,888.247130,-10807.006753,-689.485948
2303.096362,-740.205942,-10584.944971,689.485948
2303.096690,-2220.617826,-9918.759623,-229.828649
2303.097018,-3701.029710,-9844.739029,153.219100
2303.097345,-4071.132681,-8660.409521,0.000000
2303.097673,-4219.173869,-6809.894666,-306.438199
2303.098000,-3478.967927,-6217.729913,-689.485948
2303.098328,-1406.391290,-6587.832884,-1072.533697
2303.098655,666.185348,-7920.203579,383.047749
2303.098983,1406.391290,-9178.553681,1302.362347
2303.099310,2516.700203,-11325.150913,1149.143247
2303.099638,1850.514855,-12879.583391,0.000000
2303.099966,-222.061783,-13101.645173,-612.876398
2303.100293,-2146.597232,-13101.645173,-1302.362347
2303.100621,-3478.967927,-12213.398043,-2221.676944
2303.100948,-4367.215058,-11621.233289,-1608.800546
2303.101276,-4885.359217,-10436.903782,-842.705048
2303.101603,-4367.215058,-8290.306550,-766.095498
2303.101931,-5403.503377,-6513.812290,0.000000
2303.102258,-4737.318029,-5329.482782,-306.438199
2303.102586,-3775.050304,-5477.523971,-842.705048
2303.102914,-2960.823768,-6809.894666,-383.047749
2303.103241,-666.185348,-7772.162391,-995.924147
2303.103569,1110.308913,-9474.636058,-842.705048
2303.103896,962.267725,-11547.212695,0.000000
2303.104224,444.123565,-13767.830521,76.609550
2303.104551,1110.308913,-13545.768739,-1225.752797
2303.104879,222.061783,-13619.789333,-2451.505594
2303.105206,-1036.288319,-12805.562797,-2145.067394
2303.105534,-814.226536,-10584.944971,-1991.848295
2303.105862,-888.247130,-7031.956449,0.000000
2303.106189,0.000000,-7031.956449,689.485948
2303.106517,-444.123565,-5255.462188,1685.410096
2303.106844,0.000000,-5255.462188,1302.362347
2303.107172,1406.391290,-6143.709319,995.924147
2303.107499,2886.803174,-7105.977043,689.485948
2303.107827,3330.926739,-8956.491898,842.705048
2303.108154,3775.050304,-10510.924376,2068.457845
2303.108482,4515.256246,-11769.274478,612.876398
2303.108810,4811.338623,-13323.706956,-1378.971896
2303.109137,4145.153275,-14434.015869,-1532.190996
2303.109465,3701.029710,-13027.624579,-1915.238745
2303.109792,2442.679609,-10955.047942,-1915.238745
2303.110120,1406.391290,-9696.697840,-995.924147
2303.110447,1110.308913,-8586.388927,0.000000
2303.110775,1998.556043,-7624.121203,383.047749
2303.111102,2442.679609,-7254.018232,1762.019645
2303.111430,3478.967927,-6883.915261,1302.362347
2303.111758,4589.276840,-7772.162391,1838.629195
2303.112085,4071.132681,-8216.285956,2374.896044
2303.112413,3997.112087,-9326.594869,1991.848295
2303.112740,3923.091493,-11251.130318,459.657299
2303.113068,3552.988522,-13027.624579,-612.876398
2303.113395,2442.679609,-13471.748144,-1608.800546
2303.113723,0.000000,-12657.521608,-1455.581446
2303.114050,-1628.453072,-13397.727550,-2374.896044
2303.114378,-3034.844362,-12361.439231,-2757.943793
2303.114706,-3997.112087,-10436.903782,-2757.943793
2303.115033,-3701.029710,-7772.162391,-1225.752797
2303.115361,-2886.803174,-6735.874072,459.657299
2303.115688,-1850.514855,-6365.771101,1455.581446
2303.116016,-888.247130,-6143.709319,2528.115143
2303.116343,-444.123565,-5625.565159,2681.334243
2303.116671,222.061783,-6883.915261,1991.848295
2303.116998,370.102971,-9326.594869,1532.190996
2303.117326,148.041188,-11103.089130,383.047749
2303.117654,-296.082377,-11917.315666,0.000000
2303.117981,-1332.370696,-12509.480420,-536.266849
2303.118309,-2664.741391,-12583.501014,-1072.533697
2303.118636,-3849.070898,-12287.418637,-1532.190996
2303.118964,-4219.173869,-10658.965565,-1915.238745
2303.119291,-4293.194464,-8364.327145,-2221.676944
2303.119619,-4219.173869,-6439.791695,-766.095498
2303.119946,-3627.009116,-5847.626942,0.000000
2303.120274,-2220.617826,-6217.729913,995.924147
2303.120602,-962.267725,-7105.977043,1378.971896
2303.120929,222.061783,-8216.285956,1149.143247
2303.121257,814.226536,-9696.697840,76.609550
2303.121584,888.247130,-10066.800811,-689.485948
2303.121912,888.247130,-12213.398043,-1149.143247
2303.122239,-592.164754,-12435.459826,-1685.410096
2303.122567,-222.061783,-13027.624579,-1915.238745
2303.122894,74.020594,-12139.377449,-2145.067394
2303.123222,666.185348,-11769.274478,-2374.896044
2303.123550,962.267725,-10214.842000,-1915.238745
2303.123877,888.247130,-9400.615463,0.000000
2303.124205,1258.350101,-8216.285956,-306.438199
2303.124532,1850.514855,-7846.182985,-229.828649
2303.124860,2294.638420,-8956.491898,-306.438199
2303.125187,3256.906145,-9326.594869,459.657299
2303.125515,3552.988522,-9770.718434,995.924147
2303.125842,3849.070898,-10214.842000,1225.752797
2303.126170,3552.988522,-10214.842000,842.705048
2303.126498,3034.844362,-11325.150913,612.876398
2303.126825,1628.453072,-10214.842000,-229.828649
2303.127153,1702.473667,-10510.924376,-1149.143247
2303.127480,2294.638420,-10140.821405,-1685.410096
2303.127808,1406.391290,-9400.615463,-612.876398
2303.128135,1554.432478,-9326.594869,766.095498
2303.128463,2146.597232,-9030.512492,1991.848295
2303.128790,1628.453072,-8290.306550,2145.067394
2303.129118,1628.453072,-8216.285956,1532.190996
2303.129446,592.164754,-7328.038826,1455.581446
2303.129773,1258.350101,-8068.244768,1302.362347
2303.130101,1924.535449,-9104.533087,1072.533697
2303.130428,1332.370696,-8956.491898,842.705048
2303.130756,370.102971,-8882.471304,0.000000
2303.131083,518.144159,-9622.677246,-612.876398
2303.131411,-74.020594,-11029.068536,-306.438199
2303.131738,-1110.308913,-11029.068536,-995.924147
2303.132066,-666.185348,-11103.089130,-1838.629195
2303.132393,-1036.288319,-10584.944971,-995.924147
2303.132721,-814.226536,-10658.965565,0.000000
2303.133048,222.061783,-10140.821405,536.266849
2303.133376,-222.061783,-8808.450710,1072.533697
2303.133703,-592.164754,-8512.368333,229.828649
2303.134031,0.000000,-8512.368333,-612.876398
2303.134358,-740.205942,-8660.409521,-689.485948
2303.134686,-1628.453072,-9030.512492,-842.705048
2303.135013,-1480.411884,-9844.739029,-995.924147
2303.135341,-1850.514855,-10881.027347,-1991.848295
2303.135668,-2664.741391,-11177.109724,-1455.581446
2303.135996,-2146.597232,-11769.274478,-1991.848295
2303.136323,-2368.659014,-11621.233289,-1608.800546
2303.136651,-2220.617826,-11177.109724,-1455.581446
2303.136978,-1480.411884,-10066.800811,-995.924147
2303.137306,-1554.432478,-9104.533087,0.000000
2303.137633,-666.185348,-8216.285956,536.266849
2303.137961,0.000000,-7328.038826,-383.047749
2303.138288,-148.041188,-7476.080014,-536.266849
2303.138616,0.000000,-8512.368333,-383.047749
2303.138943,0.000000,-9474.636058,-689.485948
2303.139271,444.123565,-10288.862594,-383.047749
2303.139598,518.144159,-10288.862594,-229.828649
2303.139926,814.226536,-10510.924376,306.438199
2303.140253,592.164754,-11251.130318,383.047749
2303.140581,888.247130,-10288.862594,0.000000
2303.140908,1036.288319,-8956.491898,76.609550
2303.141236,370.102971,-8734.430116,153.219100
2303.141563,1110.308913,-8956.491898,766.095498
2303.141891,1628.453072,-8364.327145,459.657299
2303.142218,1184.329507,-8364.327145,612.876398
2303.142546,1258.350101,-9696.697840,0.000000
2303.142873,1258.350101,-9844.739029,-153.219100
2303.143201,1480.411884,-10362.883188,-306.438199
2303.143528,1480.411884,-10436.903782,153.219100
2303.143856,2442.679609,-9696.697840,-229.828649
2303.144183,2516.700203,-10436.903782,0.000000
2303.144511,2590.720797,-11399.171507,1149.143247
2303.144838,1924.535449,-9992.780217,306.438199
2303.145166,1702.473667,-9548.656652,229.828649
2303.145493,740.205942,-8956.491898,-306.438199
2303.145821,740.205942,-8808.450710,-612.876398
2303.146148,962.267725,-9548.656652,-383.047749
2303.146476,1036.288319,-10214.842000,383.047749
2303.146803,1702.473667,-10658.965565,536.266849
2303.147131,2590.720797,-11325.150913,0.000000
2303.147458,1554.432478,-10288.862594,459.657299
2303.147786,962.267725,-9918.759623,766.095498
2303.148113,1332.370696,-9474.636058,76.609550
2303.148441,740.205942,-9400.615463,-306.438199
2303.148768,0.000000,-8734.430116,-612.876398
2303.149096,-296.082377,-8734.430116,-383.047749
2303.149423,-1184.329507,-8956.491898,0.000000
2303.149751,-1184.329507,-9918.759623,-459.657299
2303.150078,-1184.329507,-9770.718434,-612.876398
2303.150406,-1702.473667,-9696.697840,-459.657299
2303.150733,-1554.432478,-9548.656652,153.219100
2303.151061,-518.144159,-9178.553681,76.609550
2303.151388,-370.102971,-8956.491898,229.828649
2303.151716,-444.123565,-8660.409521,612.876398
2303.152043,-370.102971,-8808.450710,0.000000
2303.152371,-666.185348,-9770.718434,-612.876398
2303.152698,-1332.370696,-9252.574275,-842.705048
2303.153026,-1554.432478,-9622.677246,-1072.533697
2303.153353,-1776.494261,-10436.903782,-995.924147
2303.153681,-2294.638420,-10288.862594,-1838.629195
2303.154008,-888.247130,-9992.780217,-1608.800546
2303.154336,-814.226536,-10436.903782,-459.657299
2303.154663,-1184.329507,-10214.842000,229.828649
2303.154991,-222.061783,-9770.718434,842.705048
2303.155318,-444.123565,-8882.471304,306.438199
2303.155646,-592.164754,-8660.409521,153.219100
2303.155973,74.020594,-8512.368333,-153.219100
2303.156301,74.020594,-8734.430116,-919.314598
2303.156628,148.041188,-10510.924376,-536.266849
2303.156955,444.123565,-10881.027347,-383.047749
2303.157283,0.000000,-10881.027347,-1072.533697
2303.157610,-222.061783,-10807.006753,-612.876398
2303.157938,222.061783,-10436.903782,-459.657299
2303.158265,888.247130,-9770.718434,459.657299
2303.158593,1628.453072,-9178.553681,919.314598
2303.158920,1776.494261,-8734.430116,1915.238745
2303.159248,1702.473667,-8290.306550,1072.533697
2303.159575,1036.288319,-7920.203579,1149.143247
2303.159903,148.041188,-8438.347739,842.705048
2303.160230,666.185348,-9252.574275,-383.047749
2303.160558,814.226536,-10362.883188,-1149.143247
2303.160885,1332.370696,-10140.821405,-689.485948
2303.161213,1036.288319,-10807.006753,-383.047749
2303.161540,1776.494261,-12509.480420,76.609550
2303.161868,2146.597232,-11399.171507,153.219100
2303.162195,2294.638420,-10288.862594,-229.828649
2303.162523,1998.556043,-9030.512492,-306.438199
2303.162850,2146.597232,-8512.368333,0.000000
2303.163178,1184.329507,-7698.141797,689.485948
2303.163505,222.061783,-7550.100608,1455.581446
2303.163833,592.164754,-8438.347739,459.657299
2303.164160,222.061783,-9770.718434,-612.876398
2303.164488,-222.061783,-10807.006753,-1072.533697
2303.164815,0.000000,-11843.295072,-919.314598
2303.165143,888.247130,-11769.274478,-1532.190996
2303.165470,1110.308913,-11399.171507,-766.095498
2303.165798,1110.308913,-11029.068536,0.000000
2303.166125,1332.370696,-9400.615463,459.657299
2303.166453,1406.391290,-9326.594869,76.609550
2303.166780,444.123565,-8808.450710,-306.438199
2303.167108,-1036.288319,-7846.182985,-459.657299
2303.167435,-2072.576638,-7846.182985,-766.095498
2303.167763,-2146.597232,-8586.388927,0.000000
2303.168090,-1258.350101,-9030.512492,-612.876398
2303.168418,-370.102971,-9918.759623,-766.095498
2303.168745,-296.082377,-10807.006753,229.828649
2303.169073,740.205942,-10881.027347,153.219100
2303.169400,592.164754,-10732.986159,0.000000
2303.169728,0.000000,-10140.821405,0.000000
2303.170055,592.164754,-9252.574275,229.828649
2303.170383,518.144159,-8808.450710,0.000000
2303.170710,0.000000,-9474.636058,76.609550
2303.171038,-370.102971,-9770.718434,-383.047749
2303.171365,-1480.411884,-9844.739029,-459.657299
2303.171693,-1924.535449,-9178.553681,-842.705048
2303.172020,-1554.432478,-9400.615463,-1072.533697
2303.172348,-1110.308913,-9400.615463,-459.657299
2303.172675,-370.102971,-9474.636058,459.657299
2303.173003,814.226536,-9030.512492,689.485948
2303.173330,1184.329507,-9326.594869,536.266849
2303.173658,814.226536,-9326.594869,919.314598
2303.173985,296.082377,-9474.636058,306.438199
2303.174313,-222.061783,-9474.636058,-766.095498
2303.174640,0.000000,-10510.924376,-1532.190996
2303.174968,-296.082377,-10288.862594,-1378.971896
2303.175295,-296.082377,-10584.944971,-1149.143247
2303.175623,74.020594,-10732.986159,-459.657299
2303.175950,666.185348,-10658.965565,-459.657299
2303.176278,1110.308913,-10436.903782,-383.047749
2303.176605,1036.288319,-9696.697840,229.828649
2303.176933,1776.494261,-8882.471304,76.609550
2303.177260,2072.576638,-8216.285956,689.485948
2303.177588,1554.432478,-7994.224174,919.314598
2303.177915,1036.288319,-9178.553681,536.266849
2303.178243,1110.308913,-10066.800811,153.219100
2303.178570,148.041188,-11177.109724,-383.047749
2303.178898,0.000000,-11547.212695,-766.095498
2303.179225,0.000000,-10732.986159,-1302.362347
2303.179553,74.020594,-10066.800811,-1149.143247
2303.179880,74.020594,-10510.924376,0.000000
2303.180208,1184.329507,-9992.780217,153.219100
2303.180535,1702.473667,-8512.368333,459.657299
2303.180863,1702.473667,-7402.059420,766.095498
2303.181190,1406.391290,-7402.059420,689.485948
2303.181518,962.267725,-7846.182985,612.876398
2303.181845,740.205942,-8512.368333,76.609550
2303.182173,888.247130,-9030.512492,-612.876398
2303.182500,1258.350101,-9770.718434,-689.485948
2303.182828,1184.329507,-11399.171507,-383.047749
2303.183155,814.226536,-12361.439231,-306.438199
2303.183483,1110.308913,-11695.253884,-689.485948
2303.183810,370.102971,-10362.883188,-689.485948
2303.184138,518.144159,-9770.718434,229.828649
2303.184465,1332.370696,-9104.533087,-229.828649
2303.184792,962.267725,-8290.306550,153.219100
2303.185120,74.020594,-8290.306550,459.657299
2303.185447,-518.144159,-9252.574275,0.000000
2303.185775,-1036.288319,-9474.636058,-766.095498
2303.186102,-1036.288319,-9326.594869,-612.876398
2303.186430,-740.205942,-10584.944971,-842.705048
2303.186757,-444.123565,-10214.842000,-612.876398
2303.187085,148.041188,-11621.233289,0.000000
2303.187412,444.123565,-11103.089130,-153.219100
2303.187740,444.123565,-10584.944971,0.000000
2303.188067,222.061783,-10140.821405,383.047749
2303.188395,-370.102971,-9918.759623,842.705048
2303.188722,-592.164754,-9548.656652,76.609550
2303.189050,-1850.514855,-8882.471304,-536.266849
2303.189377,-1850.514855,-8734.430116,-383.047749
2303.189705,-1332.370696,-9178.553681,0.000000
2303.190032,-1036.288319,-9770.718434,229.828649
2303.190360,-1036.288319,-9474.636058,0.000000
2303.190687,-296.082377,-8882.471304,-153.219100
2303.191015,370.102971,-9252.574275,-306.438199
2303.191342,888.247130,-9474.636058,-612.876398
2303.191670,962.267725,-9474.636058,0.000000
2303.191997,814.226536,-9696.697840,612.876398
2303.192325,666.185348,-9918.759623,229.828649
2303.192652,518.144159,-10658.965565,-383.047749
2303.192980,-370.102971,-10510.924376,-383.047749
2303.193307,-814.226536,-9844.739029,153.219100
2303.193635,0.000000,-9918.759623,76.609550
2303.193962,222.061783,-9844.739029,0.000000
2303.194290,296.082377,-9178.553681,-612.876398
2303.194617,1184.329507,-8956.491898,0.000000
2303.194945,1628.453072,-8882.471304,153.219100
2303.195272,2442.679609,-8660.409521,-689.485948
2303.195600,2146.597232,-8882.471304,-383.047749
2303.195927,1258.350101,-9622.677246,-306.438199
2303.196255,1110.308913,-10140.821405,-306.438199
2303.196582,1184.329507,-10881.027347,-842.705048
2303.196910,1110.308913,-11843.295072,-995.924147
2303.197237,888.247130,-12139.377449,-766.095498
2303.197565,962.267725,-11325.150913,-919.314598
2303.197892,296.082377,-9918.759623,-1225.752797
2303.198220,888.247130,-9770.718434,-689.485948
2303.198547,1258.350101,-8660.409521,0.000000
2303.198875,1258.350101,-7698.141797,0.000000
2303.199202,962.267725,-7624.121203,306.438199
2303.199530,962.267725,-8586.388927,229.828649
2303.199857,1110.308913,-9252.574275,306.438199
2303.200185,518.144159,-9326.594869,-612.876398
2303.200512,222.061783,-9030.512492,153.219100
2303.200840,0.000000,-10436.903782,-919.314598
2303.201167,-296.082377,-11399.171507,-306.438199
2303.201495,74.020594,-10807.006753,-612.876398
2303.201822,222.061783,-10510.924376,-229.828649
2303.202150,-222.061783,-9622.677246,612.876398
2303.202477,0.000000,-9030.512492,153.219100
2303.202805,-592.164754,-7772.162391,0.000000
2303.203132,-962.267725,-8438.347739,229.828649
2303.203460,-962.267725,-8734.430116,0.000000
2303.203787,-518.144159,-9252.574275,0.000000
2303.204115,-370.102971,-9622.677246,306.438199
2303.204442,-222.061783,-9474.636058,0.000000
2303.204770,148.041188,-9918.759623,-153.219100
2303.205097,-296.082377,-10658.965565,-153.219100
2303.205425,444.123565,-10214.842000,-919.314598
2303.205752,296.082377,-10362.883188,-1378.971896
2303.206080,148.041188,-10658.965565,-612.876398
2303.206407,0.000000,-10436.903782,0.000000
2303.206735,-666.185348,-10066.800811,306.438199
2303.207062,-1554.432478,-9770.718434,995.924147
2303.207390,-1776.494261,-9696.697840,76.609550
2303.207717,-1702.473667,-9326.594869,0.000000
2303.208045,-1480.411884,-9400.615463,-229.828649
2303.208372,-1110.308913,-8882.471304,0.000000
2303.208700,-518.144159,-8882.471304,229.828649
2303.209027,222.061783,-9030.512492,0.000000
2303.209355,1702.473667,-9548.656652,-1302.362347
2303.209682,1258.350101,-9622.677246,-1608.800546
2303.210010,814.226536,-9844.739029,-842.705048
2303.210337,1110.308913,-10362.883188,-612.876398
2303.210665,1110.308913,-10658.965565,0.000000
2303.210992,666.185348,-10362.883188,229.828649
2303.211320,962.267725,-10732.986159,995.924147
2303.211647,1258.350101,-10288.862594,306.438199
2303.211974,1406.391290,-9474.636058,306.438199
2303.212302,1110.308913,-9474.636058,306.438199
2303.212629,1184.329507,-8142.265362,536.266849
2303.212957,1850.514855,-7994.224174,306.438199
2303.213284,1776.494261,-8142.265362,0.000000
2303.213612,1480.411884,-8882.471304,0.000000
2303.213939,1258.350101,-10140.821405,-306.438199
2303.214267,888.247130,-10658.965565,-919.314598
2303.214594,296.082377,-10214.842000,-1378.971896
2303.214922,0.000000,-10955.047942,-1685.410096
2303.215249,0.000000,-11473.192101,-1072.533697
2303.215577,518.144159,-11103.089130,-689.485948
2303.215904,666.185348,-9918.759623,-1225.752797
2303.216232,518.144159,-9992.780217,-766.095498
2303.216559,518.144159,-8512.368333,0.000000
2303.216887,0.000000,-8586.388927,0.000000
2303.217214,296.082377,-9178.553681,0.000000
2303.217542,888.247130,-9622.677246,-612.876398
2303.217869,740.205942,-10362.883188,0.000000
2303.218197,814.226536,-10140.821405,612.876398
2303.218524,1258.350101,-10510.924376,-459.657299
2303.218852,888.247130,-10362.883188,-459.657299
2303.219179,740.205942,-10436.903782,0.000000
2303.219507,666.185348,-10362.883188,-612.876398
2303.219834,444.123565,-9622.677246,-689.485948
2303.220162,222.061783,-9252.574275,-153.219100
2303.220489,-370.102971,-8438.347739,842.705048
2303.220817,-814.226536,-8882.471304,995.924147
2303.221144,-592.164754,-9474.636058,919.314598
2303.221472,-1036.288319,-9844.739029,689.485948
2303.221799,-1258.350101,-9474.636058,536.266849
2303.222127,-1036.288319,-9548.656652,536.266849
2303.222454,-814.226536,-9178.553681,842.705048
2303.222782,-518.144159,-8438.347739,689.485948
2303.223109,222.061783,-8216.285956,306.438199
2303.223437,518.144159,-8734.430116,-689.485948
2303.223764,148.041188,-9178.553681,-842.705048
2303.224092,518.144159,-9252.574275,-306.438199
2303.224419,0.000000,-9178.553681,-229.828649
2303.224747,-518.144159,-9770.718434,0.000000
2303.225074,148.041188,-10362.883188,-1072.533697
2303.225402,222.061783,-10584.944971,-383.047749
2303.225729,296.082377,-10214.842000,-306.438199
2303.226057,888.247130,-10140.821405,0.000000
2303.226384,592.164754,-9622.677246,306.438199
2303.226712,0.000000,-9548.656652,229.828649
2303.227039,814.226536,-9400.615463,-689.485948
2303.227367,814.226536,-9030.512492,-1149.143247
2303.227694,1036.288319,-9474.636058,-1685.410096
2303.228022,666.185348,-10436.903782,-1149.143247
2303.228349,1110.308913,-11103.089130,-689.485948
2303.228677,444.123565,-10584.944971,-995.924147
2303.229004,74.020594,-10807.006753,-1225.752797
2303.229332,0.000000,-10732.986159,-1072.533697
2303.229659,0.000000,-10436.903782,0.000000
2303.229987,74.020594,-9918.759623,0.000000
2303.230314,592.164754,-9474.636058,153.219100
2303.230642,-296.082377,-8438.347739,536.266849
2303.230969,0.000000,-8364.327145,459.657299
2303.231297,-370.102971,-8882.471304,0.000000
2303.231624,0.000000,-9622.677246,-842.705048
2303.231952,814.226536,-10510.924376,-842.705048
2303.232279,814.226536,-10214.842000,-1378.971896
2303.232607,1110.308913,-9918.759623,0.000000
2303.232934,1628.453072,-9844.739029,536.266849
2303.233262,1480.411884,-9474.636058,766.095498
2303.233589,1628.453072,-9696.697840,536.266849
2303.233917,1110.308913,-9178.553681,229.828649
2303.234244,222.061783,-8290.306550,766.095498
2303.234572,74.020594,-8142.265362,995.924147
2303.234899,-592.164754,-8216.285956,995.924147
2303.235227,-666.185348,-8882.471304,306.438199
2303.235554,-592.164754,-9622.677246,-306.438199
2303.235882,-666.185348,-10436.903782,-306.438199
2303.236209,-370.102971,-11029.068536,0.000000
2303.236537,518.144159,-10658.965565,-306.438199
2303.236865,740.205942,-10140.821405,229.828649
2303.237192,888.247130,-9696.697840,0.000000
2303.237520,1332.370696,-9104.533087,-536.266849
2303.237847,1184.329507,-8808.450710,-995.924147
2303.238175,592.164754,-8882.471304,-612.876398
2303.238502,370.102971,-9178.553681,-995.924147
2303.238830,0.000000,-9696.697840,-536.266849
2303.239157,-666.185348,-11251.130318,-612.876398
2303.239485,-518.144159,-11029.068536,-1225.752797
2303.239812,814.226536,-10881.027347,-1149.143247
2303.240140,1036.288319,-11029.068536,-306.438199
2303.240467,1702.473667,-11399.171507,536.266849
2303.240795,1184.329507,-10362.883188,459.657299
2303.241123,888.247130,-9622.677246,766.095498
2303.241450,1110.308913,-9104.533087,-612.876398
2303.241778,518.144159,-8734.430116,-766.095498
2303.242105,148.041188,-9252.574275,-766.095498
2303.242433,0.000000,-9770.718434,-842.705048
2303.242760,-370.102971,-9696.697840,-1072.533697
2303.243088,-666.185348,-10066.800811,-995.924147
2303.243415,-1110.308913,-9992.780217,0.000000
2303.243743,-740.205942,-9770.718434,383.047749
2303.244070,-222.061783,-9770.718434,383.047749
2303.244398,518.144159,-9252.574275,383.047749
2303.244725,296.082377,-8660.409521,919.314598
2303.245053,0.000000,-8216.285956,1149.143247
2303.245381,148.041188,-8512.368333,766.095498
2303.245708,296.082377,-8956.491898,153.219100
2303.246036,0.000000,-9474.636058,-612.876398
2303.246363,0.000000,-10732.986159,-1378.971896
2303.246691,370.102971,-10732.986159,-2068.457845
2303.247018,444.123565,-10436.903782,-689.485948
2303.247346,814.226536,-10658.965565,-153.219100
2303.247673,1628.453072,-9992.780217,76.609550
2303.248001,1776.494261,-9326.594869,383.047749
2303.248328,1406.391290,-9252.574275,689.485948
2303.248656,0.000000,-8142.265362,612.876398
2303.248984,-444.123565,-8438.347739,689.485948
2303.249311,-666.185348,-9178.553681,0.000000
2303.249639,-666.185348,-10436.903782,-383.047749
2303.249966,-962.267725,-10955.047942,-995.924147
2303.250294,-444.123565,-11547.212695,-995.924147
2303.250621,740.205942,-12065.356855,-1302.362347
2303.250949,444.123565,-10436.903782,-612.876398
2303.251276,1332.370696,-10362.883188,0.000000
2303.251604,1036.288319,-9696.697840,383.047749
2303.251931,1406.391290,-8438.347739,-306.438199
2303.252259,1110.308913,-8216.285956,-536.266849
2303.252586,444.123565,-7624.121203,0.000000
2303.252914,592.164754,-8290.306550,76.609550
2303.253242,148.041188,-9622.677246,0.000000
2303.253569,370.102971,-10658.965565,-842.705048
2303.253897,740.205942,-11103.089130,-766.095498
2303.254224,1184.329507,-11177.109724,-306.438199
2303.254552,962.267725,-10510.924376,229.828649
2303.254879,1628.453072,-10658.965565,306.438199
2303.255207,1332.370696,-10066.800811,229.828649
2303.255534,1036.288319,-8586.388927,612.876398
2303.255862,1036.288319,-7698.141797,306.438199
2303.256189,148.041188,-7846.182985,-306.438199
2303.256517,-1110.308913,-8364.327145,76.609550
2303.256845,-1110.308913,-8882.471304,-306.438199
2303.257172,-740.205942,-9178.553681,-1455.581446
2303.257500,-1110.308913,-9844.739029,-1915.238745
2303.257827,0.000000,-10807.006753,-766.095498
2303.258155,148.041188,-11399.171507,-689.485948
2303.258482,1110.308913,-11399.171507,919.314598
2303.258810,1998.556043,-10881.027347,842.705048
2303.259137,1036.288319,-9918.759623,766.095498
2303.259465,814.226536,-9030.512492,919.314598
2303.259792,592.164754,-8734.430116,0.000000
2303.260120,0.000000,-8882.471304,-306.438199
2303.260447,-444.123565,-9400.615463,-689.485948
2303.260775,-444.123565,-9770.718434,-689.485948
2303.261103,-148.041188,-9992.780217,-766.095498
2303.261430,0.000000,-9992.780217,-842.705048
2303.261758,518.144159,-10066.800811,-612.876398
2303.262085,1110.308913,-9696.697840,0.000000
2303.262413,1184.329507,-9918.759623,0.000000
2303.262740,1110.308913,-9178.553681,76.609550
2303.263068,444.123565,-9400.615463,459.657299
2303.263395,0.000000,-9548.656652,536.266849
2303.263723,-592.164754,-9770.718434,306.438199
2303.264050,-962.267725,-9844.739029,-689.485948
2303.264378,-1406.391290,-10436.903782,-919.314598
2303.264705,-2072.576638,-10140.821405,-766.095498
2303.265033,-1184.329507,-9770.718434,-995.924147
2303.265361,-370.102971,-9992.780217,0.000000
2303.265688,370.102971,-9474.636058,536.266849
2303.266016,1036.288319,-7920.203579,306.438199
2303.266343,1258.350101,-8142.265362,306.438199
2303.266671,1036.288319,-8364.327145,459.657299
2303.266998,1184.329507,-9030.512492,0.000000
2303.267326,740.205942,-9770.718434,-612.876398
2303.267653,-592.164754,-10658.965565,-842.705048
2303.267981,0.000000,-11251.130318,-1225.752797
2303.268308,222.061783,-11177.109724,-1225.752797
2303.268636,518.144159,-11473.192101,-766.095498
2303.268964,1110.308913,-11177.109724,0.000000
2303.269291,1850.514855,-10362.883188,459.657299
2303.269619,1036.288319,-9178.553681,612.876398
2303.269946,1554.432478,-8808.450710,459.657299
2303.270274,1480.411884,-7994.224174,0.000000
2303.270601,814.226536,-7772.162391,0.000000
2303.270929,666.185348,-9326.594869,0.000000
2303.271256,222.061783,-9548.656652,-153.219100
2303.271584,-222.061783,-9474.636058,-306.438199
2303.271911,-518.144159,-10066.800811,-995.924147
2303.272239,-518.144159,-11325.150913,-1072.533697
2303.272566,222.061783,-11843.295072,-1072.533697
2303.272894,740.205942,-10807.006753,-536.266849
2303.273222,888.247130,-10288.862594,0.000000
2303.273549,666.185348,-8882.471304,842.705048
2303.273877,814.226536,-8216.285956,1072.533697
2303.274204,74.020594,-7698.141797,612.876398
2303.274532,0.000000,-8660.409521,383.047749
2303.274859,148.041188,-9104.533087,-306.438199
2303.275187,518.144159,-8882.471304,-919.314598
2303.275514,518.144159,-9844.739029,-612.876398
2303.275842,592.164754,-9918.759623,-766.095498
2303.276169,592.164754,-10140.821405,-153.219100
2303.276497,962.267725,-10362.883188,-459.657299
2303.276824,888.247130,-10510.924376,-536.266849
2303.277152,814.226536,-10288.862594,153.219100
2303.277480,370.102971,-9622.677246,536.266849
2303.277807,-370.102971,-9474.636058,459.657299
2303.278135,-1036.288319,-9400.615463,0.000000
2303.278462,-1776.494261,-9400.615463,-383.047749
2303.278790,-2368.659014,-9918.759623,-842.705048
2303.279117,-1702.473667,-9770.718434,-1302.362347
2303.279445,-888.247130,-9474.636058,-1302.362347
2303.279772,-296.082377,-9474.636058,-459.657299
2303.280100,296.082377,-9770.718434,306.438199
2303.280427,1110.308913,-9400.615463,229.828649
2303.280755,1776.494261,-9548.656652,-689.485948
2303.281083,1184.329507,-9474.636058,-766.095498
2303.281410,592.164754,-9548.656652,-383.047749
2303.281738,370.102971,-10214.842000,-383.047749
2303.282065,0.000000,-10881.027347,0.000000
2303.282393,74.020594,-10881.027347,229.828649
2303.282720,222.061783,-10732.986159,612.876398
2303.283048,1110.308913,-10807.006753,-306.438199
2303.283375,1036.288319,-9548.656652,76.609550
2303.283703,592.164754,-9252.574275,-229.828649
2303.284030,296.082377,-9178.553681,229.828649
2303.284358,1258.350101,-8142.265362,0.000000
2303.284685,1554.432478,-8142.265362,0.000000
2303.285013,1258.350101,-9104.533087,229.828649
2303.285341,888.247130,-10066.800811,995.924147
2303.285668,1036.288319,-9770.718434,0.000000
2303.285996,0.000000,-9474.636058,-919.314598
2303.286323,-1184.329507,-9992.780217,-919.314598
2303.286651,-1036.288319,-10955.047942,-766.095498
2303.286978,0.000000,-10288.862594,-766.095498
2303.287306,518.144159,-9252.574275,-536.266849
2303.287633,888.247130,-9474.636058,0.000000
2303.287961,1036.288319,-8660.409521,459.657299
2303.288288,962.267725,-8364.327145,383.047749
2303.288616,888.247130,-8956.491898,-229.828649
2303.288944,74.020594,-9474.636058,-612.876398
2303.289271,0.000000,-9992.780217,-612.876398
2303.289599,1184.329507,-9844.739029,-842.705048
2303.289926,1110.308913,-10066.800811,-1072.533697
2303.290254,1332.370696,-10510.924376,76.609550
2303.290581,962.267725,-10732.986159,-842.705048
2303.290909,296.082377,-10881.027347,-995.924147
2303.291236,-296.082377,-10066.800811,-919.314598
2303.291564,-148.041188,-9622.677246,-536.266849
2303.291891,-296.082377,-9474.636058,-612.876398
2303.292219,-222.061783,-9696.697840,0.000000
2303.292546,-370.102971,-9178.553681,689.485948
2303.292874,-666.185348,-9992.780217,306.438199
2303.293202,-962.267725,-10362.883188,229.828649
2303.293529,-666.185348,-9844.739029,0.000000
2303.293857,-888.247130,-9326.594869,-612.876398
2303.294184,-592.164754,-9326.594869,76.609550
2303.294512,666.185348,-10214.842000,-306.438199
2303.294839,1406.391290,-8882.471304,229.828649
2303.295167,1110.308913,-9548.656652,383.047749
2303.295494,666.185348,-9474.636058,306.438199
2303.295822,74.020594,-9548.656652,153.219100
2303.296149,0.000000,-9844.739029,76.609550
2303.296477,-592.164754,-9770.718434,-459.657299
2303.296804,-814.226536,-9770.718434,306.438199
2303.297132,74.020594,-9992.780217,766.095498
2303.297460,444.123565,-9326.594869,1072.533697
2303.297787,222.061783,-8956.491898,766.095498
2303.298115,592.164754,-8808.450710,76.609550
2303.298442,1110.308913,-9030.512492,-612.876398
2303.298770,1406.391290,-8660.409521,-1149.143247
2303.299097,1110.308913,-9474.636058,-689.485948
2303.299425,1258.350101,-9844.739029,-459.657299
2303.299752,666.185348,-10584.944971,229.828649
2303.300080,222.061783,-10658.965565,-459.657299
2303.300407,0.000000,-9696.697840,-689.485948
2303.300735,-592.164754,-10288.862594,-1149.143247
2303.301063,0.000000,-10732.986159,-536.266849
2303.301390,518.144159,-10214.842000,-383.047749
2303.301718,222.061783,-9622.677246,-383.047749
2303.302045,444.123565,-9252.574275,76.609550
2303.302373,666.185348,-9474.636058,-306.438199
2303.302700,740.205942,-9474.636058,-842.705048
2303.303028,518.144159,-10140.821405,-919.314598
2303.303355,0.000000,-10436.903782,-995.924147
2303.303683,444.123565,-9844.739029,-995.924147
2303.304010,518.144159,-9918.759623,-459.657299
2303.304338,518.144159,-10955.047942,-842.705048
2303.304665,740.205942,-10658.965565,-306.438199
2303.304993,592.164754,-9696.697840,-306.438199
2303.305321,148.041188,-9474.636058,0.000000
2303.305648,0.000000,-9474.636058,0.000000
2303.305976,-296.082377,-8586.388927,0.000000
2303.306303,-296.082377,-9030.512492,766.095498
2303.306631,-222.061783,-9770.718434,153.219100
2303.306958,0.000000,-10584.944971,-383.047749
2303.307286,-592.164754,-10066.800811,-153.219100
2303.307613,-518.144159,-9622.677246,0.000000
2303.307941,0.000000,-9326.594869,0.000000
2303.308268,518.144159,-9326.594869,383.047749
2303.308596,814.226536,-8660.409521,229.828649
2303.308924,1110.308913,-8512.368333,0.000000
2303.309251,1258.350101,-8956.491898,76.609550
2303.309579,1332.370696,-8956.491898,0.000000
2303.309906,444.123565,-8882.471304,0.000000
2303.310234,0.000000,-9474.636058,153.219100
2303.310561,0.000000,-10066.800811,229.828649
2303.310889,370.102971,-10436.903782,0.000000
2303.311216,962.267725,-10066.800811,612.876398
2303.311544,1258.350101,-9918.759623,536.266849
2303.311871,1036.288319,-10510.924376,689.485948
2303.312199,888.247130,-9770.718434,536.266849
2303.312526,592.164754,-9178.553681,76.609550
2303.312854,1184.329507,-8956.491898,0.000000
2303.313182,1036.288319,-8734.430116,-1149.143247
2303.313509,888.247130,-9696.697840,-1302.362347
2303.313837,888.247130,-10140.821405,-612.876398
2303.314164,518.144159,-10584.944971,-612.876398
2303.314492,-296.082377,-10214.842000,-306.438199
2303.314819,-740.205942,-9918.759623,-229.828649
2303.315147,-740.205942,-10214.842000,0.000000
2303.315474,0.000000,-9770.718434,229.828649
2303.315802,0.000000,-9474.636058,0.000000
2303.316129,0.000000,-9104.533087,306.438199
2303.316457,148.041188,-9252.574275,-306.438199
2303.316784,0.000000,-9474.636058,-842.705048
2303.317112,-148.041188,-9770.718434,-842.705048
2303.317440,222.061783,-10066.800811,-842.705048
2303.317767,296.082377,-9992.780217,-1608.800546
2303.318095,888.247130,-9696.697840,-1149.143247
2303.318422,518.144159,-9548.656652,0.000000
2303.318750,444.123565,-10140.821405,612.876398
2303.319077,444.123565,-9844.739029,919.314598
2303.319405,222.061783,-8956.491898,0.000000
2303.319732,-370.102971,-8586.388927,0.000000
2303.320060,-1628.453072,-9030.512492,0.000000
2303.320387,-592.164754,-9252.574275,-459.657299
2303.320715,-666.185348,-9696.697840,-612.876398
2303.321043,-592.164754,-10955.047942,-842.705048
2303.321370,-370.102971,-10362.883188,-459.657299
2303.321698,148.041188,-10066.800811,-383.047749
2303.322025,1036.288319,-10584.944971,-612.876398
2303.322353,740.205942,-9474.636058,919.314598
2303.322680,814.226536,-8956.491898,306.438199
2303.323008,1184.329507,-8956.491898,766.095498
2303.323335,1110.308913,-8660.409521,689.485948
2303.323663,1110.308913,-9104.533087,229.828649
2303.323990,296.082377,-9178.553681,306.438199
2303.324318,-444.123565,-9252.574275,-766.095498
2303.324645,0.000000,-10658.965565,-536.266849
2303.324973,-296.082377,-11769.274478,-612.876398
2303.325301,518.144159,-11103.089130,0.000000
2303.325628,1332.370696,-10066.800811,0.000000
2303.325956,1184.329507,-10066.800811,229.828649
2303.326283,1110.308913,-9844.739029,1455.581446
2303.326611,1924.535449,-8586.388927,919.314598
2303.326938,1998.556043,-8068.244768,383.047749
2303.327266,1776.494261,-8290.306550,-689.485948
2303.327593,962.267725,-9178.553681,-383.047749
2303.327921,0.000000,-9474.636058,-612.876398
2303.328248,74.020594,-10066.800811,-536.266849
2303.328576,-222.061783,-10288.862594,-842.705048
2303.328903,-370.102971,-10214.842000,-1608.800546
2303.329231,0.000000,-10584.944971,-766.095498
2303.329559,518.144159,-11029.068536,459.657299
2303.329886,1036.288319,-10362.883188,1225.752797
2303.330214,1110.308913,-9474.636058,919.314598
2303.330541,814.226536,-8734.430116,153.219100
2303.330869,888.247130,-8660.409521,-153.219100
2303.331196,74.020594,-9326.594869,-1149.143247
2303.331524,0.000000,-9696.697840,-919.314598
2303.331851,-518.144159,-9770.718434,-1302.362347
2303.332179,-148.041188,-10362.883188,-1608.800546
2303.332506,-148.041188,-10584.944971,-1302.362347
2303.332834,222.061783,-11029.068536,-842.705048
2303.333162,296.082377,-10658.965565,0.000000
2303.333489,-296.082377,-9178.553681,0.000000
2303.333817,444.123565,-8660.409521,306.438199
2303.334144,-148.041188,-9178.553681,766.095498
2303.334472,-518.144159,-8808.450710,842.705048
2303.334799,-444.123565,-9252.574275,459.657299
2303.335127,-444.123565,-9474.636058,-612.876398
2303.335454,-370.102971,-10066.800811,-1149.143247
2303.335782,-444.123565,-10510.924376,-919.314598
2303.336110,148.041188,-10807.006753,-919.314598
2303.336437,-296.082377,-9844.739029,-536.266849
2303.336765,0.000000,-9548.656652,-306.438199
2303.337092,518.144159,-8956.491898,536.266849
2303.337420,592.164754,-8438.347739,919.314598
2303.337748,666.185348,-7698.141797,995.924147
2303.338075,74.020594,-7550.100608,842.705048
2303.338403,-444.123565,-8438.347739,153.219100
2303.338731,-1406.391290,-9400.615463,-536.266849
2303.339058,-1184.329507,-10288.862594,-766.095498
2303.339386,-518.144159,-10807.006753,-1302.362347
2303.339713,148.041188,-11029.068536,-919.314598
2303.340041,666.185348,-11325.150913,229.828649
2303.340369,1036.288319,-10955.047942,0.000000
2303.340696,1480.411884,-9770.718434,689.485948
2303.341024,1332.370696,-8882.471304,536.266849
2303.341352,1036.288319,-8882.471304,-306.438199
2303.341679,1406.391290,-8364.327145,-995.924147
2303.342007,666.185348,-8808.450710,-689.485948
2303.342334,296.082377,-9474.636058,-229.828649
2303.342662,518.144159,-10066.800811,-459.657299
2303.342990,222.061783,-10436.903782,-1149.143247
2303.343317,-592.164754,-10658.965565,-1302.362347
2303.343645,518.144159,-11473.192101,-995.924147
2303.343972,1406.391290,-11621.233289,-995.924147
2303.344300,1480.411884,-10807.006753,76.609550
2303.344628,1406.391290,-10066.800811,612.876398
2303.344955,1332.370696,-8734.430116,919.314598
2303.345283,1036.288319,-8586.388927,536.266849
2303.345611,74.020594,-8586.388927,0.000000
2303.345938,-518.144159,-8734.430116,-459.657299
2303.346266,-740.205942,-9622.677246,-842.705048
2303.346593,-222.061783,-9770.718434,-1608.800546
2303.346921,-518.144159,-9474.636058,-1072.533697
2303.347249,-148.041188,-9844.739029,-229.828649
2303.347576,592.164754,-10140.821405,306.438199
2303.347904,1554.432478,-9844.739029,842.705048
2303.348232,1406.391290,-9622.677246,612.876398
2303.348559,740.205942,-9104.533087,383.047749
2303.348887,666.185348,-8882.471304,919.314598
2303.349214,370.102971,-8882.471304,459.657299
2303.349542,74.020594,-9474.636058,383.047749
2303.349870,-592.164754,-9770.718434,-612.876398
2303.350197,-740.205942,-9844.739029,-1149.143247
2303.350525,0.000000,-10066.800811,-995.924147
2303.350852,74.020594,-10066.800811,-766.095498
2303.351180,666.185348,-9844.739029,0.000000
2303.351508,962.267725,-9474.636058,153.219100
2303.351835,888.247130,-9252.574275,306.438199
2303.352163,1110.308913,-8216.285956,842.705048
2303.352491,1036.288319,-8512.368333,-383.047749
2303.352818,-444.123565,-9474.636058,0.000000
2303.353146,-1406.391290,-9622.677246,-536.266849
2303.353473,-1332.370696,-10362.883188,-1225.752797
2303.353801,-888.247130,-11325.150913,-1378.971896
2303.354129,-740.205942,-11325.150913,-1149.143247
2303.354456,296.082377,-10288.862594,-689.485948
2303.354784,296.082377,-10140.821405,153.219100
2303.355111,1036.288319,-10066.800811,306.438199
2303.355439,888.247130,-8956.491898,306.438199
2303.355767,1406.391290,-8512.368333,383.047749
2303.356094,1702.473667,-8216.285956,-229.828649
2303.356422,1258.350101,-8364.327145,536.266849
2303.356750,666.185348,-9400.615463,766.095498
2303.357077,-518.144159,-9992.780217,229.828649
2303.357405,-518.144159,-9992.780217,-689.485948
2303.357732,-1554.432478,-10436.903782,-995.924147
2303.358060,-888.247130,-11177.109724,-689.485948
2303.358388,148.041188,-10807.006753,-459.657299
2303.358715,296.082377,-9770.718434,612.876398
2303.359043,518.144159,-9326.594869,1455.581446
2303.359371,962.267725,-8364.327145,612.876398
2303.359698,444.123565,-8068.244768,383.047749
2303.360026,-222.061783,-8586.388927,612.876398
2303.360353,74.020594,-8956.491898,-383.047749
2303.360681,148.041188,-9104.533087,-919.314598
2303.361009,444.123565,-9326.594869,-689.485948
2303.361336,518.144159,-10510.924376,-689.485948
2303.361664,444.123565,-10955.047942,306.438199
2303.361991,740.205942,-11177.109724,0.000000
2303.362319,888.247130,-10510.924376,-689.485948
2303.362647,296.082377,-9622.677246,-383.047749
2303.362974,148.041188,-9400.615463,76.609550
2303.363302,666.185348,-9252.574275,536.266849
2303.363630,740.205942,-8142.265362,612.876398
2303.363957,296.082377,-9252.574275,76.609550
2303.364285,-148.041188,-10214.842000,-229.828649
2303.364612,0.000000,-10584.944971,-1072.533697
2303.364940,0.000000,-10362.883188,-1302.362347
2303.365268,148.041188,-9844.739029,-1378.971896
2303.365595,888.247130,-10214.842000,-612.876398
2303.365923,1036.288319,-9844.739029,229.828649
2303.366251,1406.391290,-9548.656652,689.485948
2303.366578,1258.350101,-9696.697840,459.657299
2303.366906,370.102971,-9474.636058,-153.219100
2303.367233,-296.082377,-9252.574275,-306.438199
2303.367561,-1258.350101,-9326.594869,0.000000
2303.367889,-1628.453072,-9474.636058,0.000000
2303.368216,-814.226536,-9104.533087,0.000000
2303.368544,74.020594,-9474.636058,-383.047749
2303.368871,518.144159,-9844.739029,153.219100
2303.369199,814.226536,-10066.800811,459.657299
2303.369527,1406.391290,-9474.636058,76.609550
2303.369854,1258.350101,-8956.491898,-153.219100
2303.370182,1110.308913,-8290.306550,0.000000
2303.370510,1924.535449,-9326.594869,0.000000
2303.370837,1036.288319,-9548.656652,536.266849
2303.371165,444.123565,-10214.842000,459.657299
2303.371492,-222.061783,-9992.780217,-229.828649
2303.371820,-1110.308913,-9548.656652,-919.314598
2303.372148,-814.226536,-10732.986159,-995.924147
2303.372475,-444.123565,-10214.842000,-383.047749
2303.372803,-222.061783,-9622.677246,0.000000
2303.373130,592.164754,-10140.821405,76.609550
2303.373458,1406.391290,-9844.739029,153.219100
2303.373786,1628.453072,-9030.512492,-306.438199
2303.374113,1110.308913,-9622.677246,-153.219100
2303.374441,296.082377,-10362.883188,-306.438199
2303.374769,296.082377,-9992.780217,-689.485948
2303.375096,518.144159,-9992.780217,-1608.800546
2303.375424,0.000000,-10288.862594,-383.047749
2303.375751,296.082377,-10955.047942,-689.485948
2303.376079,666.185348,-10955.047942,-689.485948
2303.376407,518.144159,-10436.903782,-383.047749
2303.376734,592.164754,-9918.759623,-306.438199
2303.377062,592.164754,-9326.594869,459.657299
2303.377390,74.020594,-8882.471304,842.705048
2303.377717,0.000000,-8142.265362,0.000000
2303.378045,-148.041188,-8808.450710,-306.438199
2303.378372,-444.123565,-9770.718434,0.000000
2303.378700,-518.144159,-9622.677246,0.000000
2303.379028,-518.144159,-9400.615463,-306.438199
2303.379355,-666.185348,-9992.780217,-536.266849
2303.379683,0.000000,-10214.842000,-1685.410096
2303.380010,222.061783,-9696.697840,-1685.410096
2303.380338,370.102971,-9992.780217,0.000000
2303.380666,888.247130,-9474.636058,383.047749
2303.380993,1332.370696,-9252.574275,76.609550
2303.381321,296.082377,-8882.471304,766.095498
2303.381649,-518.144159,-8882.471304,76.609550
2303.381976,-148.041188,-9178.553681,689.485948
2303.382304,0.000000,-9844.739029,229.828649
2303.382631,74.020594,-9548.656652,-536.266849
2303.382959,962.267725,-9548.656652,-459.657299
2303.383287,1332.370696,-10436.903782,229.828649
2303.383614,1406.391290,-10510.924376,536.266849
2303.383942,1184.329507,-9770.718434,-229.828649
2303.384270,666.185348,-9548.656652,-919.314598
2303.384597,1406.391290,-9622.677246,-995.924147
2303.384925,1332.370696,-9696.697840,-1225.752797
2303.385252,592.164754,-10214.842000,0.000000
2303.385580,-444.123565,-10510.924376,536.266849
2303.385908,-962.267725,-9918.759623,536.266849
2303.386235,-1110.308913,-9474.636058,-229.828649
2303.386563,-888.247130,-9548.656652,-536.266849
2303.386890,-148.041188,-9474.636058,-229.828649
2303.387218,0.000000,-9104.533087,0.000000
2303.387546,444.123565,-9474.636058,76.609550
2303.387873,1036.288319,-9474.636058,0.000000
2303.388201,888.247130,-9400.615463,0.000000
2303.388529,666.185348,-9918.759623,-229.828649
2303.388856,518.144159,-10436.903782,-383.047749
2303.389184,666.185348,-9918.759623,-1991.848295
2303.389511,0.000000,-9474.636058,-766.095498
2303.389839,-518.144159,-9918.759623,0.000000
2303.390167,-296.082377,-10066.800811,612.876398
2303.390494,0.000000,-9474.636058,306.438199
2303.390822,0.000000,-8734.430116,0.000000
2303.391149,-666.185348,-8364.327145,-612.876398
2303.391477,0.000000,-8438.347739,0.000000
2303.391805,222.061783,-9252.574275,76.609550
2303.392132,814.226536,-9770.718434,0.000000
2303.392460,518.144159,-10807.006753,0.000000
2303.392788,592.164754,-10955.047942,-612.876398
2303.393115,222.061783,-11029.068536,-1762.019645
2303.393443,-370.102971,-10066.800811,-766.095498
2303.393770,-592.164754,-9992.780217,-536.266849
2303.394098,0.000000,-10214.842000,-766.095498
2303.394426,296.082377,-10288.862594,-536.266849
2303.394753,148.041188,-9252.574275,-229.828649
2303.395081,148.041188,-9178.553681,-229.828649
2303.395409,0.000000,-8734.430116,459.657299
2303.395736,-444.123565,-8660.409521,-689.485948
2303.396064,-444.123565,-9400.615463,-536.266849
2303.396391,296.082377,-10955.047942,0.000000
2303.396719,1406.391290,-10362.883188,0.000000
2303.397047,2368.659014,-9992.780217,0.000000
2303.397374,2368.659014,-10584.944971,459.657299
2303.397702,2146.597232,-10362.883188,766.095498
2303.398029,1332.370696,-8808.450710,612.876398
2303.398357,1702.473667,-9474.636058,0.000000
2303.398685,1184.329507,-8660.409521,-459.657299
2303.399012,1110.308913,-8364.327145,-383.047749
2303.399340,370.102971,-8956.491898,612.876398
2303.399668,74.020594,-9622.677246,919.314598
2303.399995,0.000000,-9474.636058,0.000000
2303.400323,-444.123565,-9548.656652,0.000000
2303.400650,-592.164754,-9400.615463,76.609550
2303.400978,-222.061783,-9178.553681,536.266849
2303.401306,444.123565,-9622.677246,919.314598
2303.401633,814.226536,-9474.636058,766.095498
2303.401961,1332.370696,-8882.471304,-306.438199
2303.402289,814.226536,-9252.574275,-612.876398
2303.402616,222.061783,-9918.759623,0.000000
2303.402944,444.123565,-10436.903782,-1072.533697
2303.403271,222.061783,-10658.965565,-1532.190996
2303.403599,0.000000,-10214.842000,-1378.971896
2303.403927,370.102971,-10140.821405,-842.705048
2303.404254,0.000000,-10214.842000,76.609550
2303.404582,74.020594,-9770.718434,306.438199
2303.404909,148.041188,-8956.491898,842.705048
2303.405237,0.000000,-9474.636058,383.047749
2303.405565,-444.123565,-9400.615463,0.000000
2303.405892,0.000000,-9178.553681,-459.657299
2303.406220,148.041188,-9844.739029,-1302.362347
2303.406548,-222.061783,-10955.047942,-1302.362347
2303.406875,-222.061783,-11473.192101,-1455.581446
2303.407203,74.020594,-11325.150913,-2451.505594
2303.407530,-888.247130,-10510.924376,-1149.143247
2303.407858,-814.226536,-9992.780217,-612.876398
2303.408186,-370.102971,-9252.574275,-383.047749
2303.408513,-740.205942,-8808.450710,612.876398
2303.408841,-740.205942,-8290.306550,766.095498
2303.409168,-666.185348,-7698.141797,612.876398
2303.409496,-666.185348,-8290.306550,536.266849
2303.409824,-666.185348,-8512.368333,0.000000
2303.410151,-296.082377,-9474.636058,-612.876398
2303.410479,-222.061783,-10510.924376,-919.314598
2303.410807,518.144159,-10955.047942,-766.095498
2303.411134,1036.288319,-10807.006753,0.000000
2303.411462,1258.350101,-9918.759623,459.657299
2303.411789,1406.391290,-9844.739029,995.924147
2303.412117,2220.617826,-9770.718434,995.924147
2303.412445,1776.494261,-8734.430116,153.219100
2303.412772,1628.453072,-8142.265362,0.000000
2303.413100,1110.308913,-7994.224174,459.657299
2303.413428,0.000000,-8068.244768,536.266849
2303.413755,0.000000,-8882.471304,536.266849
2303.414083,148.041188,-9696.697840,-306.438199
2303.414410,-888.247130,-10288.862594,-842.705048
2303.414738,-296.082377,-10881.027347,-919.314598
2303.415066,444.123565,-10955.047942,-536.266849
2303.415393,1036.288319,-10732.986159,0.000000
2303.415721,1554.432478,-10436.903782,383.047749
2303.416048,1998.556043,-9992.780217,306.438199
2303.416376,1332.370696,-9178.553681,0.000000
2303.416704,1258.350101,-8586.388927,-842.705048
2303.417031,962.267725,-9474.636058,-1149.143247
2303.417359,148.041188,-9844.739029,-919.314598
2303.417687,370.102971,-10362.883188,-919.314598
2303.418014,370.102971,-10955.047942,-536.266849
2303.418342,962.267725,-10436.903782,-153.219100
2303.418669,1258.350101,-10584.944971,-306.438199
2303.418997,666.185348,-10140.821405,612.876398
2303.419325,518.144159,-8734.430116,536.266849
2303.419652,518.144159,-8956.491898,76.609550
2303.419980,222.061783,-9400.615463,0.000000
2303.420308,296.082377,-8956.491898,0.000000
2303.420635,444.123565,-8586.388927,-766.095498
2303.420963,-444.123565,-9770.718434,-383.047749
2303.421290,-370.102971,-10807.006753,-536.266849
2303.421618,-444.123565,-10436.903782,-1378.971896
2303.421946,-1406.391290,-9548.656652,-689.485948
2303.422273,-1036.288319,-9992.780217,-153.219100
2303.422601,-296.082377,-9178.553681,0.000000
2303.422928,-222.061783,-8512.368333,689.485948
2303.423256,0.000000,-8734.430116,536.266849
2303.423584,0.000000,-8142.265362,229.828649
2303.423911,-370.102971,-7920.203579,76.609550
2303.424239,-888.247130,-8586.388927,0.000000
2303.424567,-592.164754,-9548.656652,-766.095498
2303.424894,0.000000,-10362.883188,-1455.581446
2303.425222,666.185348,-11399.171507,-1149.143247
2303.425549,518.144159,-10955.047942,-536.266849
2303.425877,1332.370696,-10510.924376,-153.219100
2303.426205,1628.453072,-10066.800811,689.485948
2303.426532,1628.453072,-9770.718434,383.047749
2303.426860,666.185348,-9548.656652,229.828649
2303.427187,0.000000,-9104.533087,0.000000
2303.427515,-592.164754,-8142.265362,-383.047749
2303.427843,-592.164754,-8808.450710,-919.314598
2303.428170,-1406.391290,-10066.800811,-306.438199
2303.428498,-962.267725,-10881.027347,-229.828649
2303.428826,-518.144159,-11029.068536,-842.705048
2303.429153,-518.144159,-10955.047942,-1149.143247
2303.429481,0.000000,-10436.903782,-306.438199
2303.429808,888.247130,-10214.842000,76.609550
2303.430136,1702.473667,-9918.759623,995.924147
2303.430464,1332.370696,-8808.450710,229.828649
2303.430791,1998.556043,-8586.388927,229.828649
2303.431119,814.226536,-8808.450710,229.828649
2303.431447,444.123565,-9252.574275,-153.219100
2303.431774,370.102971,-9622.677246,-842.705048
2303.432102,0.000000,-10140.821405,-1378.971896
2303.432429,666.185348,-10881.027347,-995.924147
2303.432757,1036.288319,-10214.842000,-306.438199
2303.433085,1184.329507,-9474.636058,766.095498
2303.433412,1702.473667,-10140.821405,1072.533697
2303.433740,1628.453072,-9400.615463,536.266849
2303.434067,1036.288319,-8438.347739,919.314598
2303.434395,296.082377,-7698.141797,1149.143247
2303.434723,592.164754,-7698.141797,229.828649
2303.435050,-296.082377,-8882.471304,76.609550
2303.435378,-962.267725,-10288.862594,-919.314598
2303.435706,-740.205942,-10584.944971,-1225.752797
2303.436033,-370.102971,-11177.109724,-1991.848295
2303.436361,-296.082377,-11325.150913,-1762.019645
2303.436688,0.000000,-10584.944971,-842.705048
2303.437013,296.082377,-9770.718434,153.219100
2303.437341,1036.288319,-9326.594869,689.485948
2303.437668,666.185348,-9474.636058,842.705048
2303.437996,444.123565,-8586.388927,766.095498
2303.438323,814.226536,-8734.430116,-306.438199
2303.438650,814.226536,-8882.471304,-1225.752797
2303.438978,0.000000,-9252.574275,-612.876398
2303.439305,296.082377,-10362.883188,-1149.143247
2303.439633,1036.288319,-10807.006753,0.000000
2303.439960,1332.370696,-10955.047942,-1149.143247
2303.440287,1406.391290,-10807.006753,-459.657299
2303.440615,1480.411884,-10584.944971,229.828649
2303.440942,1184.329507,-10066.800811,306.438199
2303.441270,1406.391290,-9622.677246,766.095498
2303.441597,666.185348,-8660.409521,612.876398
2303.441924,0.000000,-8216.285956,383.047749
2303.442252,-962.267725,-9252.574275,229.828649
2303.442579,-1998.556043,-9104.533087,0.000000
2303.442907,-1554.432478,-9400.615463,-919.314598
2303.443234,-1850.514855,-9178.553681,-1149.143247
2303.443561,-1702.473667,-9474.636058,-459.657299
2303.443889,-888.247130,-9252.574275,766.095498
2303.444216,592.164754,-9770.718434,1072.533697
2303.444544,1036.288319,-9252.574275,536.266849
2303.444871,1036.288319,-8808.450710,229.828649
2303.445198,1036.288319,-8882.471304,0.000000
2303.445526,444.123565,-9696.697840,0.000000
2303.445853,0.000000,-9992.780217,306.438199
2303.446181,-370.102971,-10288.862594,-536.266849
2303.446508,-1036.288319,-10436.903782,-1378.971896
2303.446835,-666.185348,-10955.047942,-1378.971896
2303.447163,-148.041188,-10658.965565,-1072.533697
2303.447490,74.020594,-10732.986159,-919.314598
2303.447818,222.061783,-10288.862594,0.000000
2303.448145,222.061783,-9252.574275,536.266849
2303.448472,1036.288319,-7994.224174,536.266849
2303.448800,1184.329507,-8438.347739,766.095498
2303.449127,1110.308913,-9252.574275,-383.047749
2303.449455,444.123565,-9992.780217,-689.485948
2303.449782,222.061783,-10807.006753,-1302.362347
2303.450109,222.061783,-11547.212695,-1225.752797
2303.450437,0.000000,-11399.171507,-689.485948
2303.450764,-370.102971,-10510.924376,-842.705048
2303.451092,-296.082377,-10362.883188,-766.095498
2303.451419,888.247130,-10510.924376,-1685.410096
2303.451746,814.226536,-9400.615463,76.609550
2303.452074,814.226536,-8142.265362,1302.362347
2303.452401,888.247130,-7772.162391,1378.971896
2303.452729,814.226536,-7402.059420,0.000000
2303.453056,814.226536,-7476.080014,153.219100
2303.453383,518.144159,-9400.615463,-1149.143247
2303.453711,1332.370696,-9992.780217,-536.266849
2303.454038,1998.556043,-10288.862594,-919.314598
2303.454366,1628.453072,-10658.965565,-306.438199
2303.454693,2146.597232,-11251.130318,0.000000
2303.455020,2516.700203,-11251.130318,842.705048
2303.455348,1776.494261,-10140.821405,76.609550
2303.455675,1332.370696,-9696.697840,612.876398
2303.456002,1184.329507,-8956.491898,76.609550
2303.456330,296.082377,-7920.203579,229.828649
2303.456657,-814.226536,-7994.224174,842.705048
2303.456985,-1480.411884,-8882.471304,306.438199
2303.457312,-2220.617826,-9104.533087,76.609550
2303.457639,-1406.391290,-9252.574275,-689.485948
2303.457967,-740.205942,-9770.718434,-612.876398
2303.458294,0.000000,-10658.965565,-766.095498
2303.458622,740.205942,-11325.150913,0.000000
2303.458949,814.226536,-11029.068536,76.609550
2303.459276,962.267725,-10658.965565,0.000000
2303.459604,1184.329507,-10288.862594,-153.219100
2303.459931,518.144159,-10140.821405,-766.095498
2303.460259,-962.267725,-10214.842000,-383.047749
2303.460586,-1036.288319,-10066.800811,-842.705048
2303.460913,-1480.411884,-9474.636058,-383.047749
2303.461241,-1998.556043,-9474.636058,76.609550
2303.461568,-1554.432478,-9030.512492,-306.438199
2303.461896,-1036.288319,-9474.636058,-536.266849
2303.462223,-962.267725,-9326.594869,0.000000
2303.462550,-370.102971,-8882.471304,229.828649
2303.462878,-222.061783,-8364.327145,0.000000
2303.463205,0.000000,-9622.677246,0.000000
2303.463533,74.020594,-10362.883188,0.000000
2303.463860,0.000000,-10732.986159,-612.876398
2303.464187,0.000000,-10807.006753,-766.095498
2303.464515,-444.123565,-11177.109724,-1149.143247
2303.464842,-1184.329507,-10066.800811,0.000000
2303.465170,-1776.494261,-9474.636058,-153.219100
2303.465497,-592.164754,-9326.594869,0.000000
2303.465824,444.123565,-9104.533087,0.000000
2303.466152,740.205942,-8438.347739,536.266849
2303.466479,1258.350101,-7476.080014,612.876398
2303.466807,2072.576638,-7105.977043,383.047749
2303.467134,1998.556043,-8512.368333,0.000000
2303.467461,1776.494261,-9844.739029,0.000000
2303.467789,1998.556043,-10807.006753,-689.485948
2303.468116,1776.494261,-11399.171507,-1072.533697
2303.468444,2294.638420,-10955.047942,-995.924147
2303.468771,1998.556043,-10732.986159,-1149.143247
2303.469098,1702.473667,-10807.006753,-689.485948
2303.469426,2072.576638,-10584.944971,-612.876398
2303.469753,1850.514855,-9918.759623,-383.047749
2303.470081,1184.329507,-9104.533087,76.609550
2303.470408,1110.308913,-8068.244768,306.438199
2303.470735,1332.370696,-7846.182985,306.438199
2303.471063,888.247130,-7920.203579,766.095498
2303.471390,444.123565,-8882.471304,766.095498
2303.471718,0.000000,-9548.656652,-383.047749
2303.472045,962.267725,-10288.862594,-766.095498
2303.472372,518.144159,-10584.944971,-689.485948
2303.472700,814.226536,-10732.986159,-842.705048
2303.473027,1110.308913,-11103.089130,-459.657299
2303.473355,1480.411884,-10658.965565,-459.657299
2303.473682,1258.350101,-9622.677246,-229.828649
2303.474009,1036.288319,-9696.697840,306.438199
2303.474337,148.041188,-9252.574275,919.314598
2303.474664,-518.144159,-8956.491898,229.828649
2303.474992,-888.247130,-8956.491898,0.000000
2303.475319,-1406.391290,-9030.512492,153.219100
2303.475646,-1480.411884,-9030.512492,459.657299
2303.475974,-740.205942,-9252.574275,76.609550
2303.476301,0.000000,-8956.491898,1225.752797
2303.476629,0.000000,-8512.368333,536.266849
2303.476956,-444.123565,-9844.739029,-766.095498
2303.477283,74.020594,-11177.109724,-842.705048
2303.477611,0.000000,-9844.739029,-1072.533697
2303.477938,-296.082377,-9918.759623,-689.485948
2303.478266,-888.247130,-11325.150913,0.000000
2303.478593,-1480.411884,-10955.047942,-153.219100
2303.478920,-1702.473667,-10066.800811,-689.485948
2303.479248,-2590.720797,-9474.636058,-229.828649
2303.479575,-1998.556043,-9252.574275,-689.485948
2303.479903,-888.247130,-9326.594869,-536.266849
2303.480230,-1258.350101,-8882.471304,612.876398
2303.480557,-444.123565,-8216.285956,1149.143247
2303.480885,222.061783,-8068.244768,-306.438199
2303.481212,148.041188,-8586.388927,-536.266849
2303.481540,-296.082377,-9622.677246,-919.314598
2303.481867,740.205942,-11621.233289,-1149.143247
2303.482194,1184.329507,-11695.253884,-1225.752797
2303.482522,1406.391290,-11029.068536,-995.924147
2303.482849,888.247130,-10732.986159,-459.657299
2303.483177,518.144159,-10214.842000,306.438199
2303.483504,592.164754,-9918.759623,-383.047749
2303.483831,1332.370696,-9326.594869,-612.876398
2303.484159,370.102971,-8290.306550,-153.219100
2303.484486,222.061783,-7994.224174,612.876398
2303.484814,666.185348,-7994.224174,766.095498
2303.485141,370.102971,-8216.285956,689.485948
2303.485468,1036.288319,-9474.636058,383.047749
2303.485796,1184.329507,-9992.780217,-459.657299
2303.486123,1332.370696,-10436.903782,-459.657299
2303.486451,1480.411884,-10140.821405,-612.876398
2303.486778,1850.514855,-9992.780217,-536.266849
2303.487105,2146.597232,-10658.965565,76.609550
2303.487433,1628.453072,-10140.821405,842.705048
2303.487760,1702.473667,-9252.574275,766.095498
2303.488088,1628.453072,-8512.368333,-383.047749
2303.488415,1628.453072,-9030.512492,-383.047749
2303.488742,1036.288319,-9178.553681,0.000000
2303.489070,518.144159,-9844.739029,383.047749
2303.489397,370.102971,-10362.883188,612.876398
2303.489725,814.226536,-9844.739029,459.657299
2303.490052,1184.329507,-9844.739029,306.438199
2303.490379,962.267725,-9474.636058,153.219100
2303.490707,888.247130,-10066.800811,229.828649
2303.491034,444.123565,-10214.842000,0.000000
2303.491362,444.123565,-9400.615463,-383.047749
2303.491689,814.226536,-9474.636058,-1072.533697
2303.492016,222.061783,-9696.697840,-612.876398
2303.492344,444.123565,-10140.821405,-612.876398
2303.492671,370.102971,-10288.862594,-612.876398
2303.492999,-370.102971,-10732.986159,-306.438199
2303.493326,-1184.329507,-10066.800811,0.000000
2303.493653,-1332.370696,-9622.677246,229.828649
2303.493981,-1258.350101,-9400.615463,536.266849
2303.494308,-1184.329507,-8956.491898,383.047749
2303.494635,-1628.453072,-8586.388927,0.000000
2303.494963,-962.267725,-8290.306550,-229.828649
2303.495290,-814.226536,-8142.265362,-919.314598
2303.495618,-592.164754,-9104.533087,-1455.581446
2303.495945,-592.164754,-10066.800811,-1149.143247
2303.496272,-592.164754,-10732.986159,-1302.362347
2303.496600,0.000000,-10436.903782,-1378.971896
2303.496927,-1184.329507,-9770.718434,-459.657299
2303.497255,74.020594,-9844.739029,0.000000
2303.497582,222.061783,-9548.656652,229.828649
2303.497909,-222.061783,-9104.533087,536.266849
2303.498237,-592.164754,-8808.450710,153.219100
2303.498564,-740.205942,-9252.574275,-306.438199
2303.498892,-592.164754,-8956.491898,-306.438199
2303.499219,-1110.308913,-8512.368333,-919.314598
2303.499546,0.000000,-9474.636058,-689.485948
2303.499874,-296.082377,-10510.924376,-995.924147
2303.500201,0.000000,-10584.944971,-842.705048
2303.500529,814.226536,-10584.944971,-459.657299
2303.500856,740.205942,-10214.842000,-306.438199
2303.501183,1184.329507,-9548.656652,0.000000
2303.501511,1702.473667,-9548.656652,1072.533697
2303.501838,2146.597232,-9918.759623,842.705048
2303.502166,1850.514855,-9622.677246,536.266849
2303.502493,1036.288319,-9030.512492,153.219100
2303.502820,592.164754,-9548.656652,0.000000
2303.503148,222.061783,-10510.924376,-306.438199
2303.503475,296.082377,-11251.130318,0.000000
2303.503803,148.041188,-10510.924376,229.828649
2303.504130,1036.288319,-10140.821405,153.219100
2303.504457,1406.391290,-9918.759623,76.609550
2303.504785,1406.391290,-9326.594869,766.095498
2303.505112,1702.473667,-8586.388927,842.705048
2303.505440,1406.391290,-8290.306550,153.219100
2303.505767,1332.370696,-8808.450710,153.219100
2303.506094,1480.411884,-8808.450710,229.828649
2303.506422,1036.288319,-8882.471304,-153.219100
2303.506749,888.247130,-10214.842000,-536.266849
2303.507077,592.164754,-11325.150913,-383.047749
2303.507404,370.102971,-11251.130318,-536.266849
2303.507731,-148.041188,-11103.089130,-229.828649
2303.508059,740.205942,-10658.965565,-612.876398
2303.508386,296.082377,-9548.656652,-459.657299
2303.508714,0.000000,-8586.388927,919.314598
2303.509041,222.061783,-8290.306550,689.485948
2303.509368,1110.308913,-8290.306550,0.000000
2303.509696,592.164754,-8734.430116,-612.876398
2303.510023,0.000000,-8956.491898,-1762.019645
2303.510351,-370.102971,-9548.656652,-1225.752797
2303.510678,740.205942,-11621.233289,-2068.457845
2303.511005,518.144159,-11473.192101,-1072.533697
2303.511333,518.144159,-11399.171507,-919.314598
2303.511660,296.082377,-11103.089130,-229.828649
2303.511988,518.144159,-10436.903782,229.828649
2303.512315,0.000000,-10362.883188,383.047749
2303.512642,-962.267725,-9548.656652,919.314598
2303.512970,-518.144159,-8956.491898,229.828649
2303.513297,-444.123565,-8364.327145,-536.266849
2303.513625,-814.226536,-8512.368333,-689.485948
2303.513952,-1036.288319,-9030.512492,-383.047749
2303.514279,-370.102971,-9696.697840,-306.438199
2303.514607,0.000000,-9548.656652,-306.438199
2303.514934,74.020594,-9252.574275,229.828649
2303.515262,444.123565,-9400.615463,0.000000
2303.515589,814.226536,-9474.636058,766.095498
2303.515916,1480.411884,-9992.780217,536.266849
2303.516244,1110.308913,-9696.697840,229.828649
2303.516571,592.164754,-9770.718434,153.219100
2303.516899,0.000000,-9992.780217,229.828649
2303.517226,-740.205942,-9918.759623,-536.266849
2303.517553,-814.226536,-9696.697840,76.609550
2303.517881,-740.205942,-10214.842000,-1072.533697
2303.518208,-740.205942,-9992.780217,-536.266849
2303.518536,-222.061783,-9326.594869,306.438199
2303.518863,0.000000,-9030.512492,612.876398
2303.519190,518.144159,-9178.553681,766.095498
2303.519518,1110.308913,-8586.388927,995.924147
2303.519845,888.247130,-8290.306550,0.000000
2303.520173,1036.288319,-8808.450710,-229.828649
2303.520500,1110.308913,-9548.656652,-842.705048
2303.520827,740.205942,-10732.986159,-995.924147
2303.521155,222.061783,-12065.356855,-1072.533697
2303.521482,0.000000,-12805.562797,-1302.362347
2303.521810,666.185348,-12139.377449,-2145.067394
2303.522137,-74.020594,-10955.047942,-919.314598
2303.522464,0.000000,-10288.862594,229.828649
2303.522792,740.205942,-9770.718434,842.705048
2303.523119,666.185348,-8364.327145,1532.190996
2303.523447,666.185348,-7105.977043,1302.362347
2303.523774,962.267725,-6957.935855,229.828649
2303.524101,814.226536,-7698.141797,-612.876398
2303.524429,222.061783,-8586.388927,766.095498
2303.524756,0.000000,-9548.656652,-383.047749
2303.525084,74.020594,-10881.027347,-1838.629195
2303.525411,592.164754,-12139.377449,-1685.410096
2303.525738,962.267725,-11991.336260,-995.924147
2303.526066,1184.329507,-11473.192101,-153.219100
2303.526393,1554.432478,-10510.924376,612.876398
2303.526721,1036.288319,-9918.759623,536.266849
2303.527048,222.061783,-8216.285956,1149.143247
2303.527375,0.000000,-7402.059420,536.266849
2303.527703,222.061783,-6883.915261,0.000000
2303.528030,296.082377,-7994.224174,153.219100
2303.528358,-222.061783,-9252.574275,0.000000
2303.528685,74.020594,-8882.471304,0.000000
2303.529012,1258.350101,-10214.842000,-1302.362347
2303.529340,814.226536,-10732.986159,-766.095498
2303.529667,1036.288319,-11399.171507,-612.876398
2303.529995,1702.473667,-11473.192101,-153.219100
2303.530322,1850.514855,-11251.130318,76.609550
2303.530649,1258.350101,-10584.944971,306.438199
2303.530977,296.082377,-10362.883188,0.000000
2303.531304,-370.102971,-9474.636058,-306.438199
2303.531631,-1702.473667,-8956.491898,-229.828649
2303.531959,-2294.638420,-9030.512492,-1378.971896
2303.532286,-2294.638420,-9622.677246,-689.485948
2303.532614,-1480.411884,-8660.409521,-306.438199
2303.532941,-444.123565,-8364.327145,-229.828649
2303.533268,0.000000,-9474.636058,383.047749
2303.533596,1184.329507,-10066.800811,689.485948
2303.533923,1406.391290,-8956.491898,306.438199
2303.534251,1332.370696,-9252.574275,0.000000
2303.534578,1184.329507,-9770.718434,-306.438199
2303.534905,592.164754,-10288.862594,-612.876398
2303.535233,148.041188,-11029.068536,-306.438199
2303.535560,-518.144159,-11473.192101,-306.438199
2303.535888,-666.185348,-11325.150913,-1225.752797
2303.536215,-1850.514855,-10807.006753,-766.095498
2303.536542,-1406.391290,-9992.780217,-306.438199
2303.536870,-592.164754,-9252.574275,-153.219100
2303.537197,-148.041188,-8660.409521,766.095498
2303.537524,0.000000,-7772.162391,1302.362347
2303.537852,592.164754,-6661.853478,689.485948
2303.538179,1406.391290,-7105.977043,612.876398
2303.538506,962.267725,-8142.265362,0.000000
2303.538834,222.061783,-9474.636058,-689.485948
2303.539161,1110.308913,-11251.130318,-1225.752797
2303.539488,1480.411884,-11769.274478,-1685.410096
2303.539816,1406.391290,-12213.398043,-1915.238745
2303.540143,1258.350101,-12731.542202,-612.876398
2303.540470,1554.432478,-11621.233289,-459.657299
2303.540798,1480.411884,-9918.759623,0.000000
2303.541125,444.123565,-9178.553681,306.438199
2303.541452,370.102971,-8586.388927,1302.362347
2303.541780,962.267725,-7402.059420,995.924147
2303.542107,666.185348,-6735.874072,459.657299
2303.542434,222.061783,-7994.224174,0.000000
2303.542762,-222.061783,-8882.471304,-459.657299
2303.543089,0.000000,-9252.574275,-1225.752797
2303.543416,814.226536,-10066.800811,-995.924147
2303.543744,962.267725,-11103.089130,-1302.362347
2303.544071,1776.494261,-11695.253884,-919.314598
2303.544398,2072.576638,-11917.315666,0.000000
2303.544726,1628.453072,-11251.130318,766.095498
2303.545053,962.267725,-9474.636058,1225.752797
2303.545380,0.000000,-8586.388927,383.047749
2303.545708,-888.247130,-8512.368333,0.000000
2303.546035,-1702.473667,-8438.347739,76.609550
2303.546362,-1406.391290,-8438.347739,0.000000
2303.546690,-1036.288319,-8586.388927,0.000000
2303.547017,-814.226536,-8956.491898,-306.438199
2303.547344,-592.164754,-9252.574275,306.438199
2303.547672,814.226536,-10066.800811,-1149.143247
2303.547999,1184.329507,-9622.677246,-766.095498
2303.548326,1406.391290,-10066.800811,-689.485948
2303.548654,1184.329507,-10658.965565,-229.828649
2303.548981,1110.308913,-10658.965565,-383.047749
2303.549308,666.185348,-10436.903782,0.000000
2303.549636,-518.144159,-10584.944971,-689.485948
2303.549963,-1110.308913,-11251.130318,-1455.581446
2303.550290,-1998.556043,-10658.965565,-995.924147
2303.550618,-1998.556043,-9844.739029,-612.876398
2303.550945,-962.267725,-9104.533087,-306.438199
2303.551272,-740.205942,-8808.450710,229.828649
2303.551600,-370.102971,-8586.388927,689.485948
2303.551927,740.205942,-8290.306550,1608.800546
2303.552254,1776.494261,-8068.244768,383.047749
2303.552582,1554.432478,-8734.430116,153.219100
2303.552909,1332.370696,-9770.718434,-612.876398
2303.553236,1258.350101,-11103.089130,-842.705048
2303.553564,888.247130,-11843.295072,-995.924147
2303.553891,592.164754,-11843.295072,-995.924147
2303.554219,444.123565,-11621.233289,-842.705048
2303.554546,74.020594,-10807.006753,-612.876398
2303.554873,592.164754,-10584.944971,-612.876398
2303.555201,444.123565,-9770.718434,383.047749
2303.555528,222.061783,-8438.347739,1455.581446
2303.555855,740.205942,-7105.977043,1532.190996
2303.556183,740.205942,-7105.977043,1149.143247
2303.556510,148.041188,-7328.038826,612.876398
2303.556837,-666.185348,-8956.491898,1149.143247
2303.557165,296.082377,-9104.533087,-689.485948
2303.557492,148.041188,-9622.677246,-919.314598
2303.557819,-296.082377,-10140.821405,-1378.971896
2303.558147,74.020594,-11251.130318,-1378.971896
2303.558474,962.267725,-11547.212695,-689.485948
2303.558801,1110.308913,-10955.047942,306.438199
2303.559129,370.102971,-9474.636058,306.438199
2303.559456,1036.288319,-8882.471304,459.657299
2303.559783,148.041188,-8956.491898,459.657299
2303.560111,-592.164754,-9030.512492,919.314598
2303.560438,-666.185348,-8808.450710,0.000000
2303.560765,-444.123565,-9030.512492,-766.095498
2303.561093,-370.102971,-8290.306550,-153.219100
2303.561420,0.000000,-9178.553681,-1378.971896
2303.561747,444.123565,-10288.862594,-919.314598
2303.562075,1036.288319,-10510.924376,-842.705048
2303.562402,1406.391290,-10658.965565,-1149.143247
2303.562729,1406.391290,-10436.903782,-995.924147
2303.563057,2368.659014,-10362.883188,0.000000
2303.563384,1480.411884,-10807.006753,0.000000
2303.563711,444.123565,-10881.027347,0.000000
2303.564039,-444.123565,-11177.109724,0.000000
2303.564366,-592.164754,-11029.068536,0.000000
2303.564693,-1184.329507,-9770.718434,-306.438199
2303.565021,-1554.432478,-9178.553681,-306.438199
2303.565348,-518.144159,-8956.491898,459.657299
2303.565675,-1110.308913,-8586.388927,536.266849
2303.566003,222.061783,-8142.265362,766.095498
2303.566330,1184.329507,-7994.224174,383.047749
2303.566657,1036.288319,-8142.265362,-383.047749
2303.566985,1036.288319,-9548.656652,-306.438199
2303.567312,1184.329507,-9992.780217,-306.438199
2303.567639,1036.288319,-9918.759623,-459.657299
2303.567967,666.185348,-10436.903782,0.000000
2303.568294,444.123565,-11177.109724,0.000000
2303.568621,740.205942,-10140.821405,0.000000
2303.568949,148.041188,-9918.759623,0.000000
2303.569276,-370.102971,-9622.677246,153.219100
2303.569603,-148.041188,-9252.574275,229.828649
2303.569931,74.020594,-8068.244768,766.095498
2303.570258,518.144159,-7105.977043,153.219100
2303.570585,740.205942,-8438.347739,229.828649
2303.570913,296.082377,-9770.718434,306.438199
2303.571240,0.000000,-9622.677246,-229.828649
2303.571567,888.247130,-9770.718434,-1302.362347
2303.571895,962.267725,-10214.842000,-1608.800546
2303.572222,444.123565,-10881.027347,-766.095498
2303.572550,518.144159,-11177.109724,536.266849
2303.572877,1036.288319,-10288.862594,-536.266849
2303.573204,592.164754,-10881.027347,-536.266849
2303.573532,370.102971,-10510.924376,-919.314598
2303.573859,296.082377,-9474.636058,-153.219100
2303.574186,-148.041188,-9696.697840,459.657299
2303.574514,0.000000,-10066.800811,0.000000
2303.574841,0.000000,-9770.718434,-306.438199
2303.575168,-370.102971,-9030.512492,536.266849
2303.575496,0.000000,-8512.368333,383.047749
2303.575823,222.061783,-9030.512492,-612.876398
2303.576150,814.226536,-9696.697840,-306.438199
2303.576478,814.226536,-9178.553681,-306.438199
2303.576805,1258.350101,-9400.615463,-306.438199
2303.577132,1554.432478,-9918.759623,689.485948
2303.577460,1406.391290,-10214.842000,153.219100
2303.577787,888.247130,-10214.842000,0.000000
2303.578114,-370.102971,-10807.006753,0.000000
2303.578442,-444.123565,-11177.109724,0.000000
2303.578769,-888.247130,-10584.944971,-306.438199
2303.579096,-1258.350101,-9474.636058,689.485948
2303.579424,-814.226536,-8586.388927,1149.143247
2303.579751,-518.144159,-7772.162391,995.924147
2303.580078,0.000000,-7994.224174,-306.438199
2303.580406,0.000000,-7846.182985,-229.828649
2303.580733,666.185348,-8216.285956,-995.924147
2303.581060,888.247130,-8956.491898,-766.095498
2303.581388,1110.308913,-9548.656652,-459.657299
2303.581715,1628.453072,-10362.883188,-612.876398
2303.582042,1776.494261,-11769.274478,0.000000
2303.582370,1406.391290,-11843.295072,-229.828649
2303.582697,1480.411884,-11991.336260,-1149.143247
2303.583024,740.205942,-10955.047942,-383.047749
2303.583352,370.102971,-9622.677246,153.219100
2303.583679,-296.082377,-9326.594869,612.876398
2303.584006,-444.123565,-9178.553681,229.828649
2303.584334,74.020594,-8364.327145,919.314598
2303.584661,370.102971,-7994.224174,-1072.533697
2303.584988,222.061783,-8808.450710,-1302.362347
2303.585316,148.041188,-9770.718434,-842.705048
2303.585643,666.185348,-9992.780217,-153.219100
2303.585970,222.061783,-9992.780217,76.609550
2303.586298,-222.061783,-9992.780217,-306.438199
2303.586625,0.000000,-10214.842000,-459.657299
2303.586952,74.020594,-10362.883188,0.000000
2303.587280,74.020594,-10510.924376,-153.219100
2303.587607,0.000000,-10510.924376,229.828649
2303.587934,-740.205942,-9548.656652,306.438199
2303.588262,-1184.329507,-8956.491898,153.219100
2303.588589,-1110.308913,-9474.636058,76.609550
2303.588916,-962.267725,-9770.718434,-383.047749
2303.589244,0.000000,-9770.718434,-689.485948
2303.589571,0.000000,-8882.471304,-459.657299
2303.589898,444.123565,-8586.388927,0.000000
2303.590226,444.123565,-9104.533087,1072.533697
2303.590553,1332.370696,-9474.636058,689.485948
2303.590881,1776.494261,-9474.636058,-306.438199
2303.591208,592.164754,-9400.615463,-612.876398
2303.591535,814.226536,-10066.800811,-766.095498
2303.591863,962.267725,-10732.986159,-689.485948
2303.592190,518.144159,-11251.130318,-306.438199
2303.592517,222.061783,-11621.233289,0.000000
2303.592845,-222.061783,-11547.212695,-153.219100
2303.593172,-296.082377,-10214.842000,0.000000
2303.593499,-518.144159,-9178.553681,0.000000
2303.593827,-444.123565,-8882.471304,-229.828649
2303.594154,0.000000,-8734.430116,536.266849
2303.594481,518.144159,-7698.141797,536.266849
2303.594809,1036.288319,-7476.080014,536.266849
2303.595136,1110.308913,-8660.409521,0.000000
2303.595463,1332.370696,-9178.553681,-229.828649
2303.595791,1332.370696,-9770.718434,-1378.971896
2303.596118,962.267725,-10955.047942,-1685.410096
2303.596445,1110.308913,-11843.295072,-1378.971896
2303.596773,1480.411884,-11917.315666,-689.485948
2303.597100,1554.432478,-11103.089130,76.609550
2303.597427,1406.391290,-10214.842000,536.266849
2303.597755,962.267725,-9696.697840,919.314598
2303.598082,74.020594,-8808.450710,0.000000
2303.598409,-296.082377,-7550.100608,0.000000
2303.598737,592.164754,-7624.121203,-306.438199
2303.599064,296.082377,-7920.203579,-536.266849
2303.599391,74.020594,-8956.491898,0.000000
2303.599719,0.000000,-9770.718434,-229.828649
2303.600046,518.144159,-10140.821405,-1532.190996
2303.600373,444.123565,-10214.842000,-1149.143247
2303.600701,444.123565,-10955.047942,-995.924147
2303.601028,-148.041188,-10955.047942,0.000000
2303.601355,370.102971,-11029.068536,689.485948
2303.601683,518.144159,-10214.842000,536.266849
2303.602010,-296.082377,-9548.656652,306.438199
2303.602337,-592.164754,-8956.491898,0.000000
2303.602665,-962.267725,-9178.553681,-689.485948
2303.602992,-1036.288319,-9178.553681,-459.657299
2303.603319,-1110.308913,-9918.759623,-1225.752797
2303.603647,-222.061783,-9844.739029,-842.705048
2303.603974,222.061783,-9474.636058,-536.266849
2303.604301,518.144159,-9400.615463,76.609550
2303.604629,1036.288319,-9030.512492,0.000000
2303.604956,1406.391290,-9844.739029,-383.047749
2303.605283,1554.432478,-10140.821405,-306.438199
2303.605611,1184.329507,-10214.842000,153.219100
2303.605938,888.247130,-9844.739029,153.219100
2303.606265,0.000000,-10066.800811,-153.219100
2303.606593,-888.247130,-10510.924376,-536.266849
2303.606920,-1258.350101,-11029.068536,0.000000
2303.607247,-1406.391290,-11177.109724,-766.095498
2303.607575,-1554.432478,-9622.677246,-689.485948
2303.607902,-888.247130,-9030.512492,-612.876398
2303.608230,-222.061783,-8660.409521,919.314598
2303.608557,444.123565,-8290.306550,1378.971896
2303.608884,1036.288319,-7476.080014,919.314598
2303.609212,1110.308913,-7476.080014,459.657299
2303.609539,1110.308913,-8068.244768,-612.876398
2303.609866,962.267725,-8586.388927,-995.924147
2303.610194,592.164754,-9696.697840,-459.657299
2303.610521,666.185348,-11177.109724,-995.924147
2303.610848,1110.308913,-12361.439231,-1149.143247
2303.611176,1036.288319,-12287.418637,-689.485948
2303.611503,1776.494261,-11473.192101,0.000000
2303.611830,1776.494261,-10732.986159,612.876398
2303.612158,1184.329507,-9548.656652,1072.533697
2303.612485,370.102971,-8068.244768,1378.971896
2303.612812,666.185348,-7994.224174,766.095498
2303.613140,74.020594,-7179.997637,76.609550
2303.613467,-222.061783,-7476.080014,-383.047749
2303.613794,-962.267725,-8734.430116,-919.314598
2303.614122,0.000000,-10288.862594,-1915.238745
2303.614449,0.000000,-10584.944971,-2911.162892
2303.614776,148.041188,-11399.171507,-2145.067394
2303.615104,222.061783,-11917.315666,-919.314598
2303.615431,1110.308913,-11695.253884,-383.047749
2303.615758,1776.494261,-10807.006753,153.219100
2303.616086,1110.308913,-10584.944971,383.047749
2303.616413,444.123565,-9844.739029,536.266849
2303.616740,0.000000,-9104.533087,1302.362347
2303.617068,-814.226536,-8142.265362,229.828649
2303.617395,-666.185348,-8882.471304,-689.485948
2303.617722,-444.123565,-9326.594869,-995.924147
2303.618050,148.041188,-9104.533087,-842.705048
2303.618377,1110.308913,-8512.368333,-383.047749
2303.618704,1406.391290,-9400.615463,1072.533697
2303.619032,1628.453072,-9474.636058,536.266849
2303.619359,1628.453072,-9696.697840,306.438199
2303.619686,1258.350101,-10140.821405,153.219100
2303.620014,518.144159,-10066.800811,0.000000
2303.620341,370.102971,-10140.821405,-612.876398
2303.620668,-518.144159,-10214.842000,-842.705048
2303.620996,-1554.432478,-10288.862594,-459.657299
2303.621323,-1776.494261,-10732.986159,-383.047749
2303.621650,-1480.411884,-10510.924376,-766.095498
2303.621978,-2220.617826,-8882.471304,-383.047749
2303.622305,-1110.308913,-8586.388927,0.000000
2303.622632,0.000000,-8216.285956,536.266849
2303.622960,666.185348,-7402.059420,1072.533697
2303.623287,888.247130,-7254.018232,1302.362347
2303.623614,1332.370696,-8438.347739,766.095498
2303.623942,1406.391290,-9474.636058,153.219100
2303.624269,1036.288319,-10214.842000,-1149.143247
2303.624596,592.164754,-11399.171507,-2068.457845
2303.624924,0.000000,-12361.439231,-2221.676944
2303.625251,148.041188,-12361.439231,-1838.629195
2303.625578,444.123565,-11621.233289,-1302.362347
2303.625906,444.123565,-10807.006753,-229.828649
2303.626233,518.144159,-10362.883188,842.705048
2303.626561,296.082377,-9474.636058,1378.971896
2303.626888,148.041188,-8068.244768,919.314598
2303.627215,814.226536,-7179.997637,229.828649
2303.627543,740.205942,-6661.853478,-229.828649
2303.627870,0.000000,-8216.285956,0.000000
2303.628197,74.020594,-9326.594869,459.657299
2303.628525,370.102971,-10066.800811,-995.924147
2303.628852,296.082377,-10881.027347,-1915.238745
2303.629179,148.041188,-11769.274478,-1915.238745
2303.629507,370.102971,-12065.356855,-995.924147
2303.629834,888.247130,-11621.233289,-459.657299
2303.630161,1258.350101,-10732.986159,919.314598
2303.630489,222.061783,-9474.636058,1149.143247
2303.630816,222.061783,-7698.141797,1072.533697
2303.631143,0.000000,-7550.100608,229.828649
2303.631471,-592.164754,-7846.182985,229.828649
2303.631798,-888.247130,-7772.162391,-229.828649
2303.632125,-592.164754,-8290.306550,-536.266849
2303.632453,444.123565,-8956.491898,-229.828649
2303.632780,370.102971,-9400.615463,-536.266849
2303.633107,1480.411884,-10658.965565,-919.314598
2303.633435,1998.556043,-10658.965565,-306.438199
2303.633762,2072.576638,-10732.986159,-383.047749
2303.634089,1480.411884,-10955.047942,0.000000
2303.634417,962.267725,-10658.965565,612.876398
2303.634744,74.020594,-9992.780217,0.000000
2303.635071,-592.164754,-9474.636058,-306.438199
2303.635399,-1628.453072,-10288.862594,-919.314598
2303.635726,-2072.576638,-10658.965565,-766.095498
2303.636053,-1702.473667,-9770.718434,-612.876398
2303.636381,-1850.514855,-8512.368333,-229.828649
2303.636708,-888.247130,-8660.409521,-536.266849
2303.637036,370.102971,-9178.553681,0.000000
2303.637363,1036.288319,-9622.677246,-766.095498
2303.637691,1702.473667,-8808.450710,-612.876398
2303.638018,1554.432478,-9474.636058,-536.266849
2303.638346,1628.453072,-10066.800811,-766.095498
2303.638673,1184.329507,-10436.903782,-612.876398
2303.639001,0.000000,-10510.924376,-689.485948
2303.639328,-296.082377,-11251.130318,-612.876398
2303.639656,740.205942,-11251.130318,-995.924147
2303.639983,296.082377,-10214.842000,-1378.971896
2303.640311,74.020594,-9844.739029,612.876398
2303.640638,296.082377,-8660.409521,1455.581446
2303.640966,518.144159,-8068.244768,1685.410096
2303.641293,962.267725,-7846.182985,1608.800546
2303.641621,1036.288319,-7328.038826,689.485948
2303.641948,1184.329507,-8068.244768,229.828649
2303.642276,888.247130,-9104.533087,306.438199
2303.642603,592.164754,-9622.677246,-306.438199
2303.642931,518.144159,-10214.842000,-1302.362347
2303.643258,0.000000,-10658.965565,-1532.190996
2303.643586,-222.061783,-11769.274478,-919.314598
2303.643913,222.061783,-11473.192101,-1455.581446
2303.644241,1332.370696,-10807.006753,-1149.143247
2303.644568,1184.329507,-9918.759623,-612.876398
2303.644896,74.020594,-8956.491898,1149.143247
2303.645223,148.041188,-8586.388927,1072.533697
2303.645551,0.000000,-8734.430116,459.657299
2303.645878,-592.164754,-8882.471304,229.828649
2303.646206,-740.205942,-9178.553681,-459.657299
2303.646533,74.020594,-9400.615463,-919.314598
2303.646861,0.000000,-10066.800811,-1225.752797
2303.647188,0.000000,-10362.883188,-1302.362347
2303.647516,222.061783,-11103.089130,-995.924147
2303.647843,666.185348,-10881.027347,-995.924147
2303.648171,1184.329507,-10584.944971,-229.828649
2303.648498,1332.370696,-10510.924376,0.000000
2303.648826,1110.308913,-10140.821405,306.438199
2303.649154,518.144159,-9474.636058,459.657299
2303.649481,-444.123565,-9400.615463,153.219100
2303.649809,-1332.370696,-10214.842000,76.609550
2303.650136,-1850.514855,-10066.800811,-229.828649
2303.650464,-1110.308913,-9030.512492,-995.924147
2303.650791,-888.247130,-8734.430116,-459.657299
2303.651119,-814.226536,-7994.224174,-306.438199
2303.651446,1110.308913,-9474.636058,383.047749
2303.651774,1702.473667,-9030.512492,306.438199
2303.652101,1924.535449,-8660.409521,383.047749
2303.652429,2072.576638,-9770.718434,76.609550
2303.652756,1406.391290,-9844.739029,229.828649
2303.653084,518.144159,-9400.615463,0.000000
2303.653411,74.020594,-9992.780217,0.000000
2303.653739,-222.061783,-10807.006753,0.000000
2303.654066,0.000000,-10732.986159,-612.876398
2303.654394,518.144159,-10436.903782,-766.095498
2303.654721,0.000000,-9622.677246,306.438199
2303.655049,0.000000,-8586.388927,689.485948
2303.655376,444.123565,-8290.306550,459.657299
2303.655704,444.123565,-8438.347739,-612.876398
2303.656031,962.267725,-8290.306550,-383.047749
2303.656359,1702.473667,-8734.430116,-536.266849
2303.656686,1036.288319,-9696.697840,0.000000
2303.657014,1036.288319,-10658.965565,-459.657299
2303.657341,888.247130,-10436.903782,-1072.533697
2303.657669,-444.123565,-10881.027347,-1072.533697
2303.657996,-1924.535449,-10732.986159,-536.266849
2303.658324,-666.185348,-10658.965565,-1149.143247
2303.658651,0.000000,-10288.862594,-766.095498
2303.658979,-296.082377,-9918.759623,153.219100
2303.659306,0.000000,-9400.615463,842.705048
2303.659634,148.041188,-9178.553681,612.876398
2303.659961,370.102971,-8956.491898,76.609550
2303.660289,444.123565,-9400.615463,-306.438199
2303.660616,148.041188,-8956.491898,-1302.362347
2303.660944,962.267725,-9326.594869,-1072.533697
2303.661271,962.267725,-9252.574275,-459.657299
2303.661599,370.102971,-9474.636058,0.000000
2303.661926,444.123565,-9844.739029,229.828649
2303.662254,1036.288319,-9770.718434,-612.876398
2303.662581,962.267725,-10436.903782,-842.705048
2303.662909,222.061783,-9696.697840,-459.657299
2303.663236,0.000000,-9770.718434,0.000000
2303.663564,74.020594,-10066.800811,76.609550
2303.663891,-296.082377,-10140.821405,306.438199
2303.664219,-740.205942,-10066.800811,76.609550
2303.664546,-666.185348,-9770.718434,76.609550
2303.664874,-740.205942,-8882.471304,76.609550
2303.665201,-148.041188,-8808.450710,-689.485948
2303.665529,370.102971,-9474.636058,-153.219100
2303.665856,1110.308913,-9030.512492,0.000000
2303.666184,1776.494261,-8512.368333,76.609550
2303.666511,1850.514855,-9104.533087,0.000000
2303.666839,1554.432478,-10214.842000,153.219100
2303.667166,1110.308913,-9622.677246,-306.438199
2303.667494,0.000000,-10436.903782,612.876398
2303.667821,222.061783,-11547.212695,-306.438199
2303.668149,1110.308913,-11399.171507,-536.266849
2303.668476,888.247130,-10584.944971,-383.047749
2303.668804,0.000000,-10214.842000,383.047749
2303.669132,74.020594,-9548.656652,1302.362347
2303.669459,-370.102971,-8216.285956,842.705048
2303.669787,0.000000,-7698.141797,-689.485948
2303.670114,740.205942,-8660.409521,-995.924147
2303.670442,1184.329507,-8956.491898,-383.047749
2303.670769,888.247130,-9178.553681,0.000000
2303.671097,740.205942,-9770.718434,383.047749
2303.671424,296.082377,-10140.821405,-383.047749
2303.671752,444.123565,-10436.903782,-612.876398
2303.672079,-370.102971,-10658.965565,-306.438199
2303.672407,-444.123565,-10658.965565,0.000000
2303.672734,0.000000,-9992.780217,153.219100
2303.673062,-296.082377,-9474.636058,0.000000
2303.673389,-444.123565,-9400.615463,536.266849
2303.673717,-518.144159,-9548.656652,459.657299
2303.674044,-296.082377,-8660.409521,0.000000
2303.674372,-296.082377,-8808.450710,-995.924147
2303.674699,-1036.288319,-9030.512492,-1302.362347
2303.675027,-888.247130,-8734.430116,-1225.752797
2303.675354,0.000000,-9104.533087,-536.266849
2303.675682,74.020594,-9548.656652,-383.047749
2303.676009,222.061783,-9918.759623,0.000000
2303.676337,518.144159,-9844.739029,0.000000
2303.676664,518.144159,-10362.883188,0.000000
2303.676992,0.000000,-10510.924376,-383.047749
2303.677319,-370.102971,-10658.965565,-536.266849
2303.677647,-296.082377,-10881.027347,-229.828649
2303.677974,-148.041188,-10732.986159,-306.438199
2303.678302,0.000000,-10955.047942,-383.047749
2303.678629,-222.061783,-9992.780217,-153.219100
2303.678957,0.000000,-8734.430116,76.609550
2303.679284,-148.041188,-9104.533087,-229.828649
2303.679612,148.041188,-8586.388927,0.000000
2303.679939,444.123565,-8216.285956,306.438199
2303.680267,888.247130,-8142.265362,689.485948
2303.680594,1628.453072,-8364.327145,766.095498
2303.680922,1850.514855,-9030.512492,0.000000
2303.681249,1036.288319,-10066.800811,-536.266849
2303.681577,666.185348,-10658.965565,-306.438199
2303.681904,518.144159,-11621.233289,-306.438199
2303.682232,1184.329507,-11917.315666,-383.047749
2303.682559,1406.391290,-10881.027347,-153.219100
2303.682887,740.205942,-10140.821405,459.657299
2303.683214,962.267725,-9622.677246,1149.143247
2303.683542,1110.308913,-8956.491898,2068.457845
2303.683869,814.226536,-7254.018232,689.485948
2303.684197,592.164754,-7105.977043,0.000000
2303.684524,962.267725,-7920.203579,0.000000
2303.684852,1036.288319,-8438.347739,0.000000
2303.685179,740.205942,-9178.553681,-536.266849
2303.685507,444.123565,-10214.842000,-919.314598
2303.685834,444.123565,-10955.047942,-1685.410096
2303.686162,518.144159,-11547.212695,-1072.533697
2303.686489,0.000000,-11251.130318,-306.438199
2303.686817,296.082377,-11103.089130,0.000000
2303.687144,666.185348,-10584.944971,0.000000
2303.687472,74.020594,-9622.677246,0.000000
2303.687799,0.000000,-9474.636058,0.000000
2303.688127,0.000000,-9548.656652,0.000000
2303.688454,-666.185348,-9474.636058,-689.485948
2303.688782,-1184.329507,-9178.553681,-1149.143247
2303.689109,-1184.329507,-9178.553681,-1302.362347
2303.689437,-444.123565,-9474.636058,-1225.752797
2303.689765,222.061783,-10066.800811,-306.438199
2303.690092,444.123565,-9918.759623,0.000000
2303.690420,370.102971,-10066.800811,153.219100
2303.690747,148.041188,-9548.656652,0.000000
2303.691075,-444.123565,-9252.574275,-229.828649
2303.691402,-1184.329507,-10066.800811,-229.828649
2303.691730,-592.164754,-9844.739029,-306.438199
2303.692057,0.000000,-9918.759623,-612.876398
2303.692385,-518.144159,-9992.780217,-383.047749
2303.692712,-444.123565,-9844.739029,153.219100
2303.693040,-1110.308913,-9992.780217,-383.047749
2303.693367,-1184.329507,-9474.636058,76.609550
2303.693695,-444.123565,-8512.368333,0.000000
2303.694022,666.185348,-7846.182985,76.609550
2303.694350,1184.329507,-7994.224174,1302.362347
2303.694677,1258.350101,-8216.285956,2145.067394
2303.695005,1110.308913,-7994.224174,1149.143247
2303.695332,740.205942,-9474.636058,76.609550
2303.695660,-148.041188,-10140.821405,-1225.752797
2303.695987,-740.205942,-10807.006753,-2068.457845
2303.696315,-666.185348,-11695.253884,-1762.019645
2303.696642,74.020594,-11399.171507,-919.314598
2303.696970,1036.288319,-10362.883188,0.000000
2303.697297,1628.453072,-10066.800811,842.705048
2303.697625,1184.329507,-9622.677246,1072.533697
2303.697952,888.247130,-8660.409521,383.047749
2303.698280,666.185348,-7994.224174,76.609550
2303.698607,444.123565,-7624.121203,-383.047749
2303.698935,1332.370696,-8364.327145,-766.095498
2303.699262,592.164754,-8734.430116,0.000000
2303.699590,814.226536,-9770.718434,-229.828649
2303.699917,1332.370696,-11399.171507,-919.314598
2303.700245,1184.329507,-12139.377449,-1762.019645
2303.700572,814.226536,-12139.377449,-1225.752797
2303.700900,666.185348,-11325.150913,-153.219100
2303.701227,1258.350101,-10436.903782,536.266849
2303.701555,1184.329507,-9844.739029,1225.752797
2303.701882,0.000000,-8734.430116,1838.629195
2303.702210,222.061783,-8142.265362,1072.533697
2303.702537,-592.164754,-8438.347739,306.438199
2303.702865,-1258.350101,-8734.430116,-612.876398
2303.703192,-1776.494261,-8882.471304,-1838.629195
2303.703520,-1702.473667,-8956.491898,-1378.971896
2303.703847,74.020594,-9400.615463,-536.266849
2303.704175,814.226536,-9474.636058,0.000000
2303.704502,1110.308913,-10140.821405,229.828649
2303.704830,1184.329507,-9992.780217,612.876398
2303.705157,1702.473667,-10066.800811,76.609550
2303.705485,1110.308913,-10288.862594,229.828649
2303.705812,740.205942,-10214.842000,383.047749
2303.706140,444.123565,-9992.780217,229.828649
2303.706467,74.020594,-9992.780217,-229.828649
2303.706795,-370.102971,-10510.924376,-766.095498
2303.707122,-888.247130,-10510.924376,-1149.143247
2303.707450,-814.226536,-10066.800811,-766.095498
2303.707777,-370.102971,-9474.636058,-689.485948
2303.708105,0.000000,-9030.512492,-383.047749
2303.708432,666.185348,-8734.430116,0.000000
2303.708760,962.267725,-8290.306550,153.219100
2303.709087,592.164754,-8364.327145,383.047749
2303.709415,592.164754,-8660.409521,-229.828649
2303.709743,222.061783,-9474.636058,-1302.362347
2303.710070,0.000000,-10732.986159,-1149.143247
2303.710398,-740.205942,-11399.171507,-1225.752797
2303.710725,-370.102971,-11769.274478,-689.485948
2303.711053,74.020594,-11029.068536,-995.924147
2303.711380,444.123565,-10362.883188,-689.485948
2303.711708,148.041188,-10066.800811,766.095498
2303.712035,518.144159,-9326.594869,1838.629195
2303.712363,740.205942,-8068.244768,1302.362347
2303.712690,592.164754,-6957.935855,459.657299
2303.713018,296.082377,-7254.018232,229.828649
2303.713345,370.102971,-8216.285956,1302.362347
2303.713673,0.000000,-9326.594869,229.828649
2303.714000,148.041188,-9992.780217,-842.705048
2303.714328,74.020594,-11103.089130,-2221.676944
2303.714655,0.000000,-11769.274478,-1762.019645
2303.714983,148.041188,-11325.150913,-383.047749
2303.715310,666.185348,-10955.047942,612.876398
2303.715638,1036.288319,-10140.821405,842.705048
2303.715965,592.164754,-9548.656652,1072.533697
2303.716293,370.102971,-8438.347739,842.705048
2303.716620,222.061783,-7920.203579,459.657299
2303.716948,-444.123565,-8068.244768,-459.657299
2303.717275,-518.144159,-8808.450710,-842.705048
2303.717603,-888.247130,-9252.574275,-1225.752797
2303.717930,0.000000,-9030.512492,-2221.676944
2303.718258,1036.288319,-10362.883188,-1302.362347
2303.718585,1184.329507,-11325.150913,-766.095498
2303.718913,1480.411884,-11473.192101,0.000000
2303.719240,1702.473667,-10732.986159,76.609550
2303.719568,1480.411884,-10140.821405,-306.438199
2303.719895,740.205942,-10140.821405,0.000000
2303.720223,518.144159,-9770.718434,306.438199
2303.720550,518.144159,-9474.636058,-306.438199
2303.720878,0.000000,-9474.636058,-459.657299
2303.721205,-888.247130,-9696.697840,-536.266849
2303.721533,-1184.329507,-9474.636058,-766.095498
2303.721860,-518.144159,-9104.533087,-459.657299
2303.722188,0.000000,-8808.450710,76.609550
2303.722515,518.144159,-8734.430116,0.000000
2303.722843,1924.535449,-9252.574275,919.314598
2303.723170,1998.556043,-8956.491898,995.924147
2303.723498,1702.473667,-9030.512492,919.314598
2303.723825,962.267725,-9622.677246,459.657299
2303.724153,-370.102971,-10066.800811,0.000000
2303.724480,-518.144159,-10140.821405,-1302.362347
2303.724808,-1184.329507,-9918.759623,-1608.800546
2303.725135,-1110.308913,-10510.924376,-689.485948
2303.725463,0.000000,-10658.965565,-229.828649
2303.725790,592.164754,-9992.780217,229.828649
2303.726118,740.205942,-9622.677246,842.705048
2303.726445,592.164754,-8586.388927,1378.971896
2303.726773,740.205942,-8438.347739,306.438199
2303.727100,666.185348,-8364.327145,-229.828649
2303.727428,1554.432478,-8068.244768,0.000000
2303.727755,962.267725,-8882.471304,0.000000
2303.728083,518.144159,-10066.800811,383.047749
2303.728410,518.144159,-11177.109724,-766.095498
2303.728738,296.082377,-11843.295072,-1991.848295
2303.729065,-592.164754,-11843.295072,-1608.800546
2303.729393,-1110.308913,-11399.171507,-1149.143247
2303.729721,-296.082377,-10732.986159,-306.438199
2303.730048,444.123565,-9918.759623,766.095498
2303.730376,666.185348,-9326.594869,1225.752797
2303.730703,592.164754,-8660.409521,1455.581446
2303.731031,592.164754,-8364.327145,536.266849
2303.731358,-148.041188,-8956.491898,-766.095498
2303.731686,-814.226536,-8438.347739,-1149.143247
2303.732013,-592.164754,-9178.553681,-1532.190996
2303.732341,-148.041188,-9770.718434,-1225.752797
2303.732668,444.123565,-10658.965565,-766.095498
2303.732996,592.164754,-10881.027347,-536.266849
2303.733323,1258.350101,-10955.047942,0.000000
2303.733651,1110.308913,-10658.965565,0.000000
2303.733978,592.164754,-10140.821405,229.828649
2303.734306,888.247130,-9548.656652,76.609550
2303.734633,0.000000,-8512.368333,306.438199
2303.734961,-666.185348,-8734.430116,153.219100
2303.735288,-296.082377,-9474.636058,0.000000
2303.735616,-444.123565,-9104.533087,-536.266849
2303.735943,-296.082377,-9400.615463,-1685.410096
2303.736271,-888.247130,-9474.636058,-995.924147
2303.736598,-296.082377,-9770.718434,-1149.143247
2303.736926,666.185348,-9770.718434,-995.924147
2303.737253,1554.432478,-9548.656652,-153.219100
2303.737581,1628.453072,-9474.636058,306.438199
2303.737909,2072.576638,-9548.656652,689.485948
2303.738236,1776.494261,-9548.656652,229.828649
2303.738564,296.082377,-9474.636058,-229.828649
2303.738891,-148.041188,-10066.800811,-153.219100
2303.739219,0.000000,-10732.986159,-612.876398
2303.739546,74.020594,-10658.965565,-919.314598
2303.739874,518.144159,-9992.780217,-842.705048
2303.740201,592.164754,-9622.677246,383.047749
2303.740529,740.205942,-9474.636058,1378.971896
2303.740856,740.205942,-8808.450710,306.438199
2303.741184,1850.514855,-9474.636058,0.000000
2303.741512,1776.494261,-9030.512492,0.000000
2303.741839,1406.391290,-9030.512492,76.609550
2303.742167,740.205942,-9326.594869,76.609550
2303.742494,0.000000,-9770.718434,76.609550
2303.742822,-592.164754,-10214.842000,-383.047749
2303.743149,-962.267725,-10288.862594,-383.047749
2303.743477,-814.226536,-10658.965565,-689.485948
2303.743804,-592.164754,-10436.903782,-459.657299
2303.744132,-296.082377,-9770.718434,0.000000
2303.744459,-296.082377,-9474.636058,995.924147
2303.744787,222.061783,-8290.306550,995.924147
2303.745114,444.123565,-8364.327145,842.705048
2303.745442,-444.123565,-8364.327145,766.095498
2303.745770,-740.205942,-8956.491898,0.000000
2303.746097,-1184.329507,-9400.615463,-842.705048
2303.746425,-962.267725,-9474.636058,-1072.533697
2303.746752,-592.164754,-9770.718434,-1302.362347
2303.747080,-592.164754,-10732.986159,-995.924147
2303.747407,-222.061783,-11177.109724,0.000000
2303.747735,148.041188,-10066.800811,-229.828649
2303.748062,222.061783,-9548.656652,-536.266849
2303.748390,222.061783,-10214.842000,0.000000
2303.748717,814.226536,-9548.656652,76.609550
2303.749045,1332.370696,-9474.636058,0.000000
2303.749373,518.144159,-9770.718434,0.000000
2303.749700,370.102971,-10362.883188,-459.657299
2303.750028,0.000000,-10066.800811,-612.876398
2303.750355,-962.267725,-8882.471304,-919.314598
2303.750683,-296.082377,-9770.718434,-1608.800546
2303.751010,74.020594,-9770.718434,-1378.971896
2303.751338,592.164754,-9400.615463,-459.657299
2303.751665,1258.350101,-9400.615463,612.876398
2303.751993,1850.514855,-9474.636058,689.485948
2303.752320,1850.514855,-9104.533087,612.876398
2303.752648,888.247130,-9178.553681,76.609550
2303.752975,518.144159,-10066.800811,-383.047749
2303.753303,740.205942,-10584.944971,-306.438199
2303.753631,888.247130,-10658.965565,0.000000
2303.753958,888.247130,-10214.842000,229.828649
2303.754286,962.267725,-9252.574275,919.314598
2303.754613,888.247130,-8586.388927,459.657299
2303.754941,740.205942,-9252.574275,459.657299
2303.755268,1184.329507,-8808.450710,0.000000
2303.755596,1406.391290,-8438.347739,0.000000
2303.755923,1702.473667,-8290.306550,306.438199
2303.756251,1924.535449,-8956.491898,612.876398
2303.756578,1332.370696,-9400.615463,383.047749
2303.756906,370.102971,-9992.780217,536.266849
2303.757234,148.041188,-9400.615463,-612.876398
2303.757561,0.000000,-9992.780217,-1225.752797
2303.757889,-1184.329507,-10955.047942,-689.485948
2303.758216,-666.185348,-10807.006753,229.828649
2303.758544,0.000000,-9992.780217,0.000000
2303.758871,222.061783,-9548.656652,229.828649
2303.759199,0.000000,-9770.718434,-306.438199
2303.759526,0.000000,-9474.636058,-229.828649
2303.759854,148.041188,-9030.512492,-689.485948
2303.760181,0.000000,-9252.574275,-612.876398
2303.760509,-148.041188,-9400.615463,-612.876398
2303.760837,0.000000,-10066.800811,-459.657299
2303.761164,222.061783,-10584.944971,-306.438199
2303.761492,0.000000,-10288.862594,-306.438199
2303.761819,148.041188,-10288.862594,-536.266849
2303.762147,0.000000,-10214.842000,-1072.533697
2303.762474,-740.205942,-9770.718434,-766.095498
2303.762802,-592.164754,-10362.883188,-229.828649
2303.763129,-222.061783,-10140.821405,-306.438199
2303.763457,0.000000,-9844.739029,-612.876398
2303.763784,-222.061783,-9918.759623,-689.485948
2303.764112,-444.123565,-10214.842000,-1149.143247
2303.764439,-1110.308913,-9252.574275,-306.438199
2303.764767,-1184.329507,-9326.594869,-229.828649
2303.765095,-1184.329507,-8956.491898,0.000000
2303.765422,-666.185348,-8364.327145,229.828649
2303.765750,0.000000,-8808.450710,229.828649
2303.766077,148.041188,-8808.450710,229.828649
2303.766405,370.102971,-8660.409521,459.657299
2303.766732,296.082377,-9326.594869,-229.828649
2303.767060,0.000000,-9992.780217,-536.266849
2303.767387,222.061783,-10436.903782,-766.095498
2303.767715,518.144159,-10881.027347,-766.095498
2303.768042,444.123565,-10288.862594,-383.047749
2303.768370,814.226536,-9770.718434,229.828649
2303.768698,1110.308913,-9104.533087,-306.438199
2303.769025,1110.308913,-9252.574275,536.266849
2303.769353,1702.473667,-9178.553681,689.485948
2303.769680,1850.514855,-8068.244768,76.609550
2303.770008,1406.391290,-8068.244768,0.000000
2303.770335,1850.514855,-8956.491898,-306.438199
2303.770663,1406.391290,-8660.409521,383.047749
2303.770990,1184.329507,-10288.862594,383.047749
2303.771318,888.247130,-11547.212695,-153.219100
2303.771645,592.164754,-11621.233289,-1072.533697
2303.771973,444.123565,-11547.212695,-1072.533697
2303.772300,370.102971,-10955.047942,-536.266849
2303.772628,740.205942,-10288.862594,-383.047749
2303.772956,222.061783,-9474.636058,383.047749
2303.773283,518.144159,-9104.533087,-229.828649
2303.773611,222.061783,-8216.285956,-306.438199
2303.773938,444.123565,-8808.450710,-229.828649
2303.774266,148.041188,-8956.491898,-306.438199
2303.774593,0.000000,-9326.594869,-459.657299
2303.774921,222.061783,-9918.759623,-153.219100
2303.775248,296.082377,-10066.800811,-306.438199
2303.775576,592.164754,-10066.800811,76.609550
2303.775903,444.123565,-10732.986159,229.828649
2303.776231,962.267725,-10658.965565,459.657299
2303.776559,740.205942,-9992.780217,0.000000
2303.776886,296.082377,-9770.718434,0.000000
2303.777214,0.000000,-9474.636058,0.000000
2303.777541,0.000000,-9178.553681,0.000000
2303.777869,-222.061783,-9696.697840,-536.266849
2303.778196,-1332.370696,-9696.697840,-842.705048
2303.778524,-1258.350101,-9622.677246,-536.266849
2303.778851,-1554.432478,-9326.594869,-689.485948
2303.779179,-1480.411884,-8956.491898,-306.438199
2303.779506,-888.247130,-8808.450710,0.000000
2303.779834,0.000000,-8586.388927,153.219100
2303.780161,-222.061783,-8512.368333,0.000000
2303.780489,148.041188,-9326.594869,306.438199
2303.780817,444.123565,-9548.656652,0.000000
2303.781144,666.185348,-10214.842000,-1072.533697
2303.781472,296.082377,-10658.965565,-1378.971896
2303.781799,148.041188,-11325.150913,-766.095498
2303.782127,-296.082377,-10955.047942,0.000000
2303.782454,370.102971,-10288.862594,76.609550
2303.782782,592.164754,-10362.883188,-459.657299
2303.783109,740.205942,-9474.636058,306.438199
2303.783437,1036.288319,-8956.491898,689.485948
2303.783764,666.185348,-8512.368333,995.924147
2303.784092,222.061783,-8216.285956,1072.533697
2303.784420,592.164754,-8438.347739,-919.314598
2303.784747,148.041188,-8660.409521,-995.924147
2303.785075,222.061783,-10362.883188,-919.314598
2303.785402,0.000000,-11103.089130,-459.657299
2303.785730,0.000000,-11547.212695,-842.705048
2303.786057,74.020594,-11399.171507,-1149.143247
2303.786385,222.061783,-10436.903782,-612.876398
2303.786712,74.020594,-9992.780217,76.609550
2303.787040,962.267725,-9400.615463,919.314598
2303.787367,1036.288319,-8438.347739,536.266849
2303.787695,814.226536,-7698.141797,459.657299
2303.788022,296.082377,-7846.182985,689.485948
2303.788350,-222.061783,-8364.327145,536.266849
2303.788678,296.082377,-8956.491898,-689.485948
2303.789005,740.205942,-10140.821405,-919.314598
2303.789333,814.226536,-10510.924376,-1685.410096
2303.789660,1628.453072,-11177.109724,-1149.143247
2303.789988,1406.391290,-11399.171507,-153.219100
2303.790315,1480.411884,-10955.047942,612.876398
2303.790643,1628.453072,-10214.842000,153.219100
2303.790970,1036.288319,-9326.594869,76.609550
2303.791298,148.041188,-9178.553681,76.609550
2303.791625,222.061783,-9104.533087,459.657299
2303.791953,-370.102971,-8364.327145,-459.657299
2303.792281,-888.247130,-8808.450710,-1302.362347
2303.792608,-1406.391290,-9918.759623,-919.314598
2303.792936,-1258.350101,-10214.842000,-995.924147
2303.793263,-370.102971,-9844.739029,-842.705048
2303.793591,0.000000,-9622.677246,-1149.143247
2303.793918,814.226536,-9252.574275,-766.095498
2303.794246,1406.391290,-9918.759623,459.657299
2303.794573,1184.329507,-10214.842000,995.924147
2303.794901,1036.288319,-9918.759623,612.876398
2303.795228,666.185348,-9622.677246,-229.828649
2303.795556,592.164754,-9622.677246,-1915.238745
2303.795884,148.041188,-9104.533087,-995.924147
2303.796211,-148.041188,-9992.780217,-919.314598
2303.796539,0.000000,-10214.842000,0.000000
2303.796866,592.164754,-9696.697840,0.000000
2303.797194,814.226536,-8956.491898,0.000000
2303.797521,888.247130,-8956.491898,612.876398
2303.797849,1258.350101,-8882.471304,995.924147
2303.798176,1480.411884,-7994.224174,1608.800546
2303.798504,1406.391290,-8660.409521,306.438199
2303.798831,592.164754,-9178.553681,229.828649
2303.799159,0.000000,-10140.821405,306.438199
2303.799486,-444.123565,-10658.965565,-383.047749
2303.799814,-370.102971,-11177.109724,-1302.362347
2303.800142,-370.102971,-11251.130318,-2145.067394
2303.800469,-444.123565,-10658.965565,-842.705048
2303.800797,-1036.288319,-9992.780217,612.876398
2303.801124,0.000000,-9400.615463,1532.190996
2303.801452,740.205942,-8438.347739,1378.971896
2303.801779,222.061783,-8068.244768,766.095498
2303.802107,0.000000,-7772.162391,536.266849
2303.802434,0.000000,-8364.327145,536.266849
2303.802762,296.082377,-9844.739029,-306.438199
2303.803089,74.020594,-10066.800811,-1762.019645
2303.803417,-148.041188,-10584.944971,-1762.019645
2303.803745,222.061783,-11917.315666,-1532.190996
2303.804072,814.226536,-12213.398043,-1149.143247
2303.804400,1332.370696,-11547.212695,-689.485948
2303.804727,1258.350101,-11399.171507,-383.047749
2303.805055,666.185348,-9770.718434,995.924147
2303.805382,518.144159,-8438.347739,1838.629195
2303.805710,148.041188,-7698.141797,1378.971896
2303.806037,0.000000,-7994.224174,229.828649
2303.806365,-666.185348,-8512.368333,-536.266849
2303.806692,-1184.329507,-9030.512492,-995.924147
2303.807020,-592.164754,-9844.739029,-766.095498
2303.807347,-296.082377,-11251.130318,-1072.533697
2303.807675,-592.164754,-10807.006753,-842.705048
2303.808003,0.000000,-10436.903782,-689.485948
2303.808330,888.247130,-10584.944971,-306.438199
2303.808658,1406.391290,-9992.780217,-153.219100
2303.808985,1258.350101,-9252.574275,612.876398
2303.809313,740.205942,-8216.285956,842.705048
2303.809640,222.061783,-7698.141797,306.438199
2303.809968,0.000000,-8364.327145,-383.047749
2303.810295,-592.164754,-8882.471304,-689.485948
2303.810623,-222.061783,-9696.697840,-1072.533697
2303.810950,666.185348,-10288.862594,-612.876398
2303.811278,1554.432478,-10436.903782,-306.438199
2303.811606,1924.535449,-10288.862594,76.609550
2303.811933,1702.473667,-10362.883188,919.314598
2303.812261,1850.514855,-10288.862594,995.924147
2303.812588,1628.453072,-9918.759623,383.047749
2303.812916,814.226536,-9622.677246,0.000000
2303.813243,370.102971,-9178.553681,-536.266849
2303.813571,-592.164754,-8882.471304,-383.047749
2303.813898,-1554.432478,-9696.697840,0.000000
2303.814226,-1776.494261,-10214.842000,-1072.533697
2303.814553,-1184.329507,-9622.677246,-842.705048
2303.814881,-666.185348,-9696.697840,-689.485948
2303.815208,-370.102971,-9474.636058,0.000000
2303.815536,222.061783,-9400.615463,1378.971896
2303.815864,1258.350101,-9400.615463,1762.019645
2303.816191,1480.411884,-9178.553681,1455.581446
2303.816519,1258.350101,-8734.430116,459.657299
2303.816846,518.144159,-9474.636058,383.047749
2303.817174,518.144159,-10807.006753,-536.266849
2303.817501,0.000000,-10658.965565,-1149.143247
2303.817829,-296.082377,-10362.883188,-1532.190996
2303.818156,-666.185348,-10214.842000,-1378.971896
2303.818484,-296.082377,-10436.903782,-383.047749
2303.818811,222.061783,-10140.821405,76.609550
2303.819139,592.164754,-9474.636058,0.000000
2303.819467,814.226536,-8808.450710,459.657299
2303.819794,814.226536,-8290.306550,766.095498
2303.820122,518.144159,-8364.327145,842.705048
2303.820449,222.061783,-9178.553681,383.047749
2303.820777,370.102971,-9622.677246,0.000000
2303.821104,148.041188,-10732.986159,-1302.362347
2303.821432,-222.061783,-11473.192101,-2221.676944
2303.821759,0.000000,-11103.089130,-1608.800546
2303.822087,-370.102971,-11547.212695,-1149.143247
2303.822414,0.000000,-11399.171507,-766.095498
2303.822742,148.041188,-9992.780217,-306.438199
2303.823070,444.123565,-8586.388927,0.000000
2303.823397,888.247130,-7698.141797,842.705048
2303.823725,814.226536,-7920.203579,1532.190996
2303.824052,740.205942,-8438.347739,766.095498
2303.824380,222.061783,-8364.327145,0.000000
2303.824707,0.000000,-9474.636058,-766.095498
2303.825035,0.000000,-10658.965565,-995.924147
2303.825362,814.226536,-11029.068536,-1149.143247
2303.825690,1776.494261,-11251.130318,-842.705048
2303.826017,1924.535449,-10955.047942,0.000000
2303.826345,2072.576638,-11325.150913,306.438199
2303.826672,1628.453072,-10584.944971,1149.143247
2303.827000,1036.288319,-8882.471304,1149.143247
2303.827328,592.164754,-7624.121203,229.828649
2303.827655,222.061783,-7476.080014,919.314598
2303.827983,-592.164754,-7846.182985,383.047749
2303.828310,-1036.288319,-8216.285956,842.705048
2303.828638,-1110.308913,-8438.347739,306.438199
2303.828965,-666.185348,-9622.677246,-689.485948
2303.829293,-740.205942,-10362.883188,-842.705048
2303.829620,-370.102971,-10658.965565,-153.219100
2303.829948,1332.370696,-10881.027347,76.609550
2303.830275,2294.638420,-10658.965565,-153.219100
2303.830603,1406.391290,-9770.718434,1149.143247
2303.830931,1332.370696,-9548.656652,306.438199
2303.831258,0.000000,-9326.594869,459.657299
2303.831586,-740.205942,-9474.636058,-306.438199
2303.831913,-1184.329507,-9474.636058,-1455.581446
2303.832241,-1332.370696,-9918.759623,-1149.143247
2303.832568,-666.185348,-10066.800811,-842.705048
2303.832896,0.000000,-9844.739029,76.609550
2303.833223,0.000000,-10140.821405,0.000000
2303.833551,148.041188,-10066.800811,0.000000
2303.833878,148.041188,-9326.594869,-766.095498
2303.834206,-666.185348,-9622.677246,-459.657299
2303.834533,0.000000,-10584.944971,-689.485948
2303.834861,148.041188,-10436.903782,-612.876398
2303.835189,-592.164754,-10140.821405,-995.924147
2303.835516,-444.123565,-10955.047942,-689.485948
2303.835844,-592.164754,-11473.192101,-1378.971896
2303.836171,-740.205942,-11103.089130,-766.095498
2303.836499,-962.267725,-9622.677246,-689.485948
2303.836826,-222.061783,-8586.388927,-459.657299
2303.837153,518.144159,-8586.388927,536.266849
2303.837481,1332.370696,-8438.347739,1302.362347
2303.837808,1776.494261,-7698.141797,1302.362347
2303.838136,1776.494261,-7772.162391,1149.143247
2303.838463,1850.514855,-9030.512492,229.828649
2303.838791,1776.494261,-9770.718434,-919.314598
2303.839118,1480.411884,-10658.965565,-995.924147
2303.839446,740.205942,-10436.903782,-536.266849
2303.839773,1406.391290,-9992.780217,0.000000
2303.840100,1628.453072,-9696.697840,-689.485948
2303.840428,962.267725,-9770.718434,0.000000
2303.840755,1110.308913,-9696.697840,612.876398
2303.841083,1554.432478,-9326.594869,536.266849
2303.841410,1480.411884,-8438.347739,459.657299
2303.841738,888.247130,-7846.182985,995.924147
2303.842065,222.061783,-7402.059420,306.438199
2303.842392,222.061783,-8808.450710,76.609550
2303.842720,0.000000,-9548.656652,-229.828649
2303.843047,148.041188,-9992.780217,-1072.533697
2303.843375,0.000000,-10362.883188,-1378.971896
2303.843702,0.000000,-10658.965565,-766.095498
2303.844030,296.082377,-11029.068536,-919.314598
2303.844357,1110.308913,-11177.109724,-995.924147
2303.844684,666.185348,-10140.821405,-612.876398
2303.845012,962.267725,-9474.636058,0.000000
2303.845339,888.247130,-9474.636058,76.609550
2303.845667,74.020594,-9326.594869,306.438199
2303.845994,-370.102971,-9400.615463,229.828649
2303.846322,-518.144159,-9474.636058,536.266849
2303.846649,-518.144159,-10140.821405,76.609550
2303.846976,-962.267725,-10140.821405,-689.485948
2303.847304,-370.102971,-10732.986159,-612.876398
2303.847631,-296.082377,-9844.739029,-229.828649
2303.847959,74.020594,-9178.553681,-689.485948
2303.848286,518.144159,-10140.821405,-612.876398
2303.848614,296.082377,-10214.842000,-459.657299
2303.848941,-296.082377,-9178.553681,1072.533697
2303.849268,-296.082377,-9178.553681,0.000000
2303.849596,-1036.288319,-9548.656652,-689.485948
2303.849923,-1924.535449,-9474.636058,-383.047749
2303.850251,-2146.597232,-9474.636058,-229.828649
2303.850578,-1776.494261,-8956.491898,-383.047749
2303.850906,-1036.288319,-9400.615463,612.876398
2303.851233,-444.123565,-9474.636058,-919.314598
2303.851560,0.000000,-8882.471304,306.438199
2303.851888,740.205942,-9252.574275,153.219100
2303.852215,1110.308913,-9474.636058,153.219100
2303.852543,1258.350101,-10066.800811,-306.438199
2303.852870,1110.308913,-10140.821405,-766.095498
2303.853198,888.247130,-9918.759623,-1072.533697
2303.853525,1184.329507,-10584.944971,-1149.143247
2303.853853,888.247130,-10881.027347,-1149.143247
2303.854180,666.185348,-10362.883188,-459.657299
2303.854507,592.164754,-9474.636058,-153.219100
2303.854835,814.226536,-9326.594869,0.000000
2303.855162,592.164754,-9252.574275,0.000000
2303.855490,740.205942,-9252.574275,766.095498
2303.855817,296.082377,-8956.491898,76.609550
2303.856145,1258.350101,-8216.285956,153.219100
2303.856472,1850.514855,-10140.821405,-766.095498
2303.856799,1406.391290,-10436.903782,-612.876398
2303.857127,1036.288319,-10510.924376,-612.876398
2303.857454,888.247130,-10510.924376,-459.657299
2303.857782,518.144159,-9918.759623,-229.828649
2303.858109,444.123565,-9622.677246,0.000000
2303.858437,962.267725,-9844.739029,76.609550
2303.858764,1036.288319,-9548.656652,229.828649
2303.859091,1776.494261,-8660.409521,766.095498
2303.859419,1110.308913,-8290.306550,1072.533697
2303.859746,814.226536,-8586.388927,1149.143247
2303.860074,296.082377,-9178.553681,689.485948
2303.860401,740.205942,-10140.821405,383.047749
2303.860729,814.226536,-10362.883188,-1225.752797
2303.861056,518.144159,-9992.780217,-689.485948
2303.861383,444.123565,-10658.965565,-306.438199
2303.861711,222.061783,-10807.006753,-383.047749
2303.862038,444.123565,-10362.883188,-536.266849
2303.862366,0.000000,-8956.491898,-689.485948
2303.862693,74.020594,-9400.615463,-1149.143247
2303.863021,74.020594,-9252.574275,-459.657299
2303.863348,-222.061783,-8734.430116,76.609550
2303.863675,-740.205942,-8956.491898,76.609550
2303.864003,-888.247130,-10140.821405,0.000000
2303.864330,-592.164754,-10436.903782,-383.047749
2303.864658,-592.164754,-10214.842000,0.000000
2303.864985,-1110.308913,-10436.903782,0.000000
2303.865313,-518.144159,-9992.780217,0.000000
2303.865640,-740.205942,-9770.718434,-689.485948
2303.865967,148.041188,-10066.800811,-995.924147
2303.866295,148.041188,-9992.780217,-842.705048
2303.866622,222.061783,-9992.780217,-612.876398
2303.866950,0.000000,-9770.718434,-995.924147
2303.867277,-592.164754,-9326.594869,-1608.800546
2303.867605,-296.082377,-9474.636058,-1302.362347
2303.867932,-222.061783,-9548.656652,-153.219100
2303.868260,0.000000,-9918.759623,0.000000
2303.868587,296.082377,-9548.656652,306.438199
2303.868914,444.123565,-8882.471304,612.876398
2303.869242,370.102971,-8216.285956,1072.533697
2303.869569,74.020594,-8586.388927,1302.362347
2303.869897,518.144159,-9030.512492,689.485948
2303.870224,444.123565,-8808.450710,0.000000
2303.870552,296.082377,-9548.656652,-612.876398
2303.870879,518.144159,-10362.883188,-766.095498
2303.871206,888.247130,-11251.130318,-919.314598
2303.871534,814.226536,-10436.903782,-536.266849
2303.871861,0.000000,-9992.780217,-689.485948
2303.872189,-444.123565,-9474.636058,0.000000
2303.872516,1036.288319,-9400.615463,76.609550
2303.872844,1406.391290,-8882.471304,383.047749
2303.873171,888.247130,-8438.347739,536.266849
2303.873498,444.123565,-8512.368333,919.314598
2303.873826,740.205942,-8734.430116,459.657299
2303.874153,74.020594,-9696.697840,0.000000
2303.874481,-148.041188,-10288.862594,-842.705048
2303.874808,74.020594,-11029.068536,-995.924147
2303.875136,1258.350101,-11621.233289,-995.924147
2303.875463,1332.370696,-11621.233289,-689.485948
2303.875790,1110.308913,-11251.130318,-229.828649
2303.876118,592.164754,-10436.903782,-153.219100
2303.876445,1036.288319,-9770.718434,153.219100
2303.876773,518.144159,-9030.512492,-383.047749
2303.877100,296.082377,-8660.409521,0.000000
2303.877428,0.000000,-8512.368333,76.609550
2303.877755,0.000000,-8734.430116,0.000000
2303.878082,0.000000,-10066.800811,0.000000
2303.878410,0.000000,-10584.944971,0.000000
2303.878737,-222.061783,-10214.842000,-229.828649
2303.879065,0.000000,-10510.924376,229.828649
2303.879392,518.144159,-10584.944971,-536.266849
2303.879720,370.102971,-9622.677246,76.609550
2303.880047,518.144159,-9400.615463,689.485948
2303.880374,666.185348,-8808.450710,842.705048
2303.880702,814.226536,-8290.306550,229.828649
2303.881029,148.041188,-7920.203579,-766.095498
2303.881357,-518.144159,-8660.409521,-306.438199
2303.881684,-1628.453072,-9104.533087,-1072.533697
2303.882012,-666.185348,-9992.780217,-1072.533697
2303.882339,0.000000,-10140.821405,-383.047749
2303.882667,370.102971,-9992.780217,306.438199
2303.882994,370.102971,-9696.697840,1149.143247
2303.883321,592.164754,-9474.636058,1455.581446
2303.883649,518.144159,-9030.512492,689.485948
2303.883976,-666.185348,-8586.388927,0.000000
2303.884304,0.000000,-9400.615463,-459.657299
2303.884631,370.102971,-9474.636058,-1225.752797
2303.884959,370.102971,-9844.739029,-1455.581446
2303.885286,0.000000,-10510.924376,-612.876398
2303.885613,296.082377,-11103.089130,-1302.362347
2303.885941,518.144159,-11029.068536,-1302.362347
2303.886268,74.020594,-9992.780217,-1225.752797
2303.886596,296.082377,-9696.697840,-689.485948
2303.886923,1184.329507,-9622.677246,76.609550
