#time,accel_x,accel_y,accel_z
2890.299759,370.102971,-9326.594869,229.828649
2890.300087,0.000000,-8882.471304,153.219100
2890.300414,0.000000,-8882.471304,0.000000
2890.300742,0.000000,-8808.450710,-306.438199
2890.301070,370.102971,-9474.636058,-1455.581446
2890.301397,0.000000,-9474.636058,-383.047749
2890.301725,222.061783,-9770.718434,-459.657299
2890.302053,518.144159,-9992.780217,-612.876398
2890.302381,592.164754,-10066.800811,0.000000
2890.302708,666.185348,-10066.800811,0.000000
2890.303036,814.226536,-9770.718434,153.219100
2890.303364,814.226536,-9918.759623,76.609550
2890.303691,370.102971,-9474.636058,0.000000
2890.304019,222.061783,-9400.615463,76.609550
2890.304347,0.000000,-9548.656652,-612.876398
2890.304674,0.000000,-9992.780217,-766.095498
2890.305002,0.000000,-10510.924376,-995.924147
2890.305330,222.061783,-10140.821405,-766.095498
2890.305658,222.061783,-10436.903782,-1225.752797
2890.305985,740.205942,-10362.883188,306.438199
2890.306313,592.164754,-10140.821405,0.000000
2890.306641,666.185348,-10140.821405,-229.828649
2890.306968,666.185348,-9844.739029,0.000000
2890.307296,666.185348,-9622.677246,0.000000
2890.307624,370.102971,-9474.636058,0.000000
2890.307951,74.020594,-8956.491898,459.657299
2890.308279,74.020594,-9104.533087,76.609550
2890.308607,-370.102971,-9326.594869,0.000000
2890.308934,74.020594,-9400.615463,-306.438199
2890.309262,0.000000,-9474.636058,0.000000
2890.309590,222.061783,-9770.718434,153.219100
2890.309918,444.123565,-9326.594869,306.438199
2890.310245,1036.288319,-9400.615463,612.876398
2890.310573,222.061783,-9252.574275,306.438199
2890.310901,666.185348,-9178.553681,0.000000
2890.311228,148.041188,-9104.533087,306.438199
2890.311556,0.000000,-8882.471304,229.828649
2890.311884,0.000000,-9030.512492,0.000000
2890.312211,74.020594,-9178.553681,0.000000
2890.312539,-296.082377,-9474.636058,-1072.533697
2890.312867,-222.061783,-9622.677246,-306.438199
2890.313194,148.041188,-9844.739029,-306.438199
2890.313522,666.185348,-10140.821405,-459.657299
2890.313850,518.144159,-10362.883188,-383.047749
2890.314178,592.164754,-10140.821405,-306.438199
2890.314505,888.247130,-9770.718434,-153.219100
2890.314833,1036.288319,-9622.677246,-229.828649
2890.315161,1036.288319,-8956.491898,-306.438199
2890.315488,1110.308913,-9622.677246,-383.047749
2890.315816,1628.453072,-9844.739029,-766.095498
2890.316144,2812.782580,-9474.636058,-842.705048
2890.316471,3775.050304,-9474.636058,-1072.533697
2890.316799,5403.503377,-10362.883188,-1302.362347
2890.317127,5773.606348,-10955.047942,-536.266849
2890.317455,6957.935855,-9770.718434,76.609550
2890.317782,7254.018232,-9622.677246,0.000000
2890.318110,7846.182985,-10436.903782,229.828649
2890.318438,8882.471304,-10584.944971,153.219100
2890.318765,8142.265362,-10214.842000,459.657299
2890.319093,7550.100608,-9474.636058,1149.143247
2890.319421,8290.306550,-8882.471304,306.438199
2890.319748,8142.265362,-8660.409521,0.000000
2890.320076,8734.430116,-8660.409521,229.828649
2890.320404,9992.780217,-8216.285956,153.219100
2890.320731,11251.130318,-8956.491898,459.657299
2890.321059,11325.150913,-9400.615463,766.095498
2890.321387,11547.212695,-9104.533087,1378.971896
2890.321715,11177.109724,-8512.368333,1378.971896
2890.322042,11547.212695,-8808.450710,842.705048
2890.322370,11547.212695,-9400.615463,153.219100
2890.322698,13101.645173,-9992.780217,229.828649
2890.323025,13693.809927,-9844.739029,1072.533697
2890.323353,14878.139434,-9030.512492,766.095498
2890.323681,14285.974681,-8734.430116,612.876398
2890.324008,13323.706956,-9474.636058,842.705048
2890.324336,13101.645173,-9104.533087,842.705048
2890.324664,13397.727550,-9770.718434,-612.876398
2890.324991,13249.686362,-10732.986159,383.047749
2890.325319,13619.789333,-10066.800811,612.876398
2890.325647,13101.645173,-8808.450710,1149.143247
2890.325975,11991.336260,-9326.594869,1838.629195
2890.326302,11843.295072,-9844.739029,459.657299
2890.326630,10732.986159,-9622.677246,-1072.533697
2890.326958,9178.553681,-10732.986159,-1072.533697
2890.327285,8068.244768,-10955.047942,-1072.533697
2890.327613,6513.812290,-10288.862594,-919.314598
2890.327941,5847.626942,-9474.636058,-689.485948
2890.328268,5921.647536,-9474.636058,-383.047749
2890.328596,7031.956449,-10584.944971,-153.219100
2890.328924,6513.812290,-11695.253884,842.705048
2890.329252,5773.606348,-12139.377449,995.924147
2890.329579,3997.112087,-10288.862594,612.876398
2890.329907,1628.453072,-7920.203579,153.219100
2890.330235,518.144159,-7402.059420,0.000000
2890.330562,1184.329507,-7179.997637,306.438199
2890.330890,2294.638420,-8660.409521,153.219100
2890.331218,2368.659014,-10214.842000,612.876398
2890.331545,2812.782580,-10140.821405,-153.219100
2890.331873,2072.576638,-8660.409521,-612.876398
2890.332201,888.247130,-9030.512492,-689.485948
2890.332528,592.164754,-10288.862594,-766.095498
2890.332856,1554.432478,-10881.027347,-1608.800546
2890.333184,3849.070898,-10362.883188,-612.876398
2890.333512,4885.359217,-8364.327145,383.047749
2890.333839,3701.029710,-7550.100608,1685.410096
2890.334167,-296.082377,-9548.656652,3447.429741
2890.334495,-3256.906145,-10362.883188,2374.896044
2890.334822,-3478.967927,-9178.553681,-1838.629195
2890.335150,-2368.659014,-8068.244768,-3907.087040
2890.335478,-1036.288319,-8364.327145,-2451.505594
2890.335805,-814.226536,-8586.388927,919.314598
2890.336133,-1332.370696,-8956.491898,1915.238745
2890.336461,-962.267725,-9474.636058,536.266849
2890.336788,666.185348,-8882.471304,-2374.896044
2890.337116,888.247130,-9622.677246,-2604.724693
2890.337444,740.205942,-10362.883188,-995.924147
2890.337772,1184.329507,-10584.944971,-995.924147
2890.338099,2590.720797,-11621.233289,-1378.971896
2890.338427,3330.926739,-11103.089130,-1455.581446
2890.338755,2590.720797,-11621.233289,-919.314598
2890.339082,1924.535449,-11473.192101,0.000000
2890.339410,1184.329507,-10584.944971,-383.047749
2890.339738,2294.638420,-9770.718434,-1149.143247
2890.340065,2072.576638,-9104.533087,-995.924147
2890.340393,-814.226536,-8216.285956,1225.752797
2890.340721,-814.226536,-7698.141797,1991.848295
2890.341049,1110.308913,-8364.327145,306.438199
2890.341376,3404.947333,-10584.944971,-919.314598
2890.341704,3256.906145,-10807.006753,-612.876398
2890.342032,1554.432478,-9548.656652,536.266849
2890.342359,814.226536,-9622.677246,1149.143247
2890.342687,1702.473667,-11103.089130,0.000000
2890.343015,1702.473667,-11473.192101,-919.314598
2890.343342,0.000000,-9770.718434,-766.095498
2890.343670,-888.247130,-8734.430116,0.000000
2890.343998,0.000000,-8734.430116,0.000000
2890.344325,1776.494261,-9030.512492,612.876398
2890.344653,2590.720797,-9548.656652,2374.896044
2890.344981,1554.432478,-8882.471304,2221.676944
2890.345309,1258.350101,-8216.285956,1455.581446
2890.345636,2738.761985,-9030.512492,0.000000
2890.345964,2664.741391,-9844.739029,-306.438199
2890.346292,1480.411884,-10510.924376,459.657299
2890.346619,74.020594,-10214.842000,1532.190996
2890.346947,444.123565,-10732.986159,459.657299
2890.347275,1776.494261,-11547.212695,-689.485948
2890.347602,888.247130,-11399.171507,-536.266849
2890.347930,-1258.350101,-9696.697840,-536.266849
2890.348258,-1998.556043,-9400.615463,-459.657299
2890.348586,-1036.288319,-9696.697840,-995.924147
2890.348913,-1036.288319,-9400.615463,-306.438199
2890.349241,-2072.576638,-7328.038826,-153.219100
2890.349569,-2442.679609,-7105.977043,536.266849
2890.349896,-1554.432478,-8290.306550,0.000000
2890.350224,296.082377,-10955.047942,-459.657299
2890.350552,296.082377,-11177.109724,-536.266849
2890.350879,-370.102971,-10214.842000,-229.828649
2890.351207,-222.061783,-10584.944971,153.219100
2890.351535,444.123565,-12139.377449,-842.705048
2890.351862,0.000000,-11769.274478,-383.047749
2890.352190,-1258.350101,-10362.883188,-919.314598
2890.352518,-2146.597232,-9030.512492,-919.314598
2890.352846,-962.267725,-9918.759623,-383.047749
2890.353173,370.102971,-9992.780217,306.438199
2890.353501,-1036.288319,-8586.388927,919.314598
2890.353829,-2294.638420,-7031.956449,0.000000
2890.354156,-2516.700203,-5995.668130,-689.485948
2890.354484,-1480.411884,-8364.327145,-459.657299
2890.354812,-740.205942,-9548.656652,153.219100
2890.355139,0.000000,-8142.265362,-306.438199
2890.355467,74.020594,-8586.388927,-612.876398
2890.355795,962.267725,-11843.295072,-1072.533697
2890.356122,1554.432478,-11917.315666,306.438199
2890.356450,518.144159,-10510.924376,-842.705048
2890.356778,0.000000,-9844.739029,-1225.752797
2890.357106,1480.411884,-10362.883188,-2221.676944
2890.357433,2442.679609,-11029.068536,-1302.362347
2890.357761,2294.638420,-10732.986159,1072.533697
2890.358089,1184.329507,-9326.594869,2298.286494
2890.358416,1184.329507,-9474.636058,689.485948
2890.358744,1406.391290,-9696.697840,-766.095498
2890.359072,2220.617826,-9474.636058,-766.095498
2890.359399,370.102971,-7846.182985,0.000000
2890.359727,-444.123565,-8586.388927,306.438199
2890.360055,74.020594,-10362.883188,-306.438199
2890.360383,1332.370696,-11473.192101,-306.438199
2890.360710,592.164754,-10807.006753,-229.828649
2890.361038,-592.164754,-9548.656652,-689.485948
2890.361366,296.082377,-9400.615463,-1762.019645
2890.361693,1480.411884,-10658.965565,-1762.019645
2890.362021,1924.535449,-10658.965565,0.000000
2890.362349,1480.411884,-9104.533087,1225.752797
2890.362676,1480.411884,-8956.491898,2221.676944
2890.363004,2220.617826,-9030.512492,689.485948
2890.363332,2812.782580,-9548.656652,383.047749
2890.363659,2442.679609,-8586.388927,0.000000
2890.363987,518.144159,-8290.306550,229.828649
2890.364315,-370.102971,-9474.636058,459.657299
2890.364643,518.144159,-10807.006753,0.000000
2890.364970,0.000000,-10362.883188,-536.266849
2890.365298,-814.226536,-8882.471304,-1455.581446
2890.365625,-1406.391290,-8882.471304,-2451.505594
2890.365953,-444.123565,-11473.192101,-689.485948
2890.366281,0.000000,-11325.150913,383.047749
2890.366608,-888.247130,-8290.306550,612.876398
2890.366936,-1406.391290,-7105.977043,76.609550
2890.367263,-962.267725,-8142.265362,-536.266849
2890.367591,296.082377,-9474.636058,-612.876398
2890.367918,0.000000,-9474.636058,0.000000
2890.368246,-888.247130,-8956.491898,-229.828649
2890.368573,-444.123565,-9178.553681,-919.314598
2890.368901,1332.370696,-11325.150913,-766.095498
2890.369229,2368.659014,-11843.295072,153.219100
2890.369556,1702.473667,-10362.883188,842.705048
2890.369884,-148.041188,-10362.883188,-306.438199
2890.370211,-370.102971,-10807.006753,-229.828649
2890.370539,74.020594,-10362.883188,-919.314598
2890.370866,-1184.329507,-8734.430116,306.438199
2890.371194,-2368.659014,-7402.059420,1072.533697
2890.371522,-1850.514855,-8586.388927,-383.047749
2890.371849,-296.082377,-10658.965565,-689.485948
2890.372177,-666.185348,-10955.047942,-1072.533697
2890.372504,-1554.432478,-8734.430116,0.000000
2890.372832,-1850.514855,-7920.203579,-306.438199
2890.373159,-888.247130,-9474.636058,-766.095498
2890.373487,1184.329507,-12139.377449,0.000000
2890.373815,1258.350101,-11399.171507,612.876398
2890.374142,814.226536,-9252.574275,536.266849
2890.374470,1850.514855,-9252.574275,-766.095498
2890.374797,2442.679609,-10362.883188,-153.219100
2890.375125,1110.308913,-10362.883188,766.095498
2890.375452,-444.123565,-8660.409521,689.485948
2890.375780,0.000000,-8216.285956,-612.876398
2890.376107,1110.308913,-9622.677246,-995.924147
2890.376435,1776.494261,-9992.780217,0.000000
2890.376763,2368.659014,-9178.553681,1532.190996
2890.377090,1702.473667,-8882.471304,1991.848295
2890.377418,2072.576638,-9696.697840,842.705048
2890.377745,2072.576638,-11621.233289,612.876398
2890.378073,592.164754,-10807.006753,0.000000
2890.378400,-2220.617826,-7920.203579,-919.314598
2890.378728,-2664.741391,-7550.100608,-2145.067394
2890.379056,-370.102971,-10362.883188,-2987.772442
2890.379383,370.102971,-12139.377449,-1532.190996
2890.379711,0.000000,-10214.842000,-153.219100
2890.380038,1776.494261,-9252.574275,0.000000
2890.380366,4145.153275,-10288.862594,-229.828649
2890.380693,4737.318029,-11399.171507,306.438199
2890.381021,1924.535449,-9918.759623,1149.143247
2890.381349,0.000000,-8808.450710,1455.581446
2890.381676,222.061783,-9400.615463,0.000000
2890.382004,1332.370696,-10881.027347,-536.266849
2890.382331,740.205942,-9844.739029,842.705048
2890.382659,-222.061783,-8882.471304,229.828649
2890.382986,-1702.473667,-9844.739029,-689.485948
2890.383314,-1480.411884,-11473.192101,-1378.971896
2890.383642,-2072.576638,-10658.965565,-1072.533697
2890.383969,-2368.659014,-7402.059420,-536.266849
2890.384297,-2368.659014,-5625.565159,0.000000
2890.384624,-1480.411884,-8512.368333,-229.828649
2890.384952,888.247130,-11177.109724,612.876398
2890.385279,1998.556043,-10658.965565,1455.581446
2890.385607,1628.453072,-9252.574275,1149.143247
2890.385934,1036.288319,-8660.409521,459.657299
2890.386262,1184.329507,-9696.697840,-689.485948
2890.386590,296.082377,-9696.697840,-919.314598
2890.386917,-1924.535449,-9104.533087,-229.828649
2890.387245,-2294.638420,-8586.388927,-689.485948
2890.387572,-888.247130,-9326.594869,-612.876398
2890.387900,518.144159,-10214.842000,842.705048
2890.388227,370.102971,-8808.450710,2221.676944
2890.388555,-740.205942,-8438.347739,689.485948
2890.388883,-592.164754,-9696.697840,-383.047749
2890.389210,1110.308913,-11473.192101,-1608.800546
2890.389538,1110.308913,-10955.047942,-995.924147
2890.389865,-1036.288319,-9030.512492,-383.047749
2890.390193,-1480.411884,-8808.450710,-995.924147
2890.390520,-518.144159,-11029.068536,-1302.362347
2890.390848,740.205942,-12805.562797,-1762.019645
2890.391176,-370.102971,-10510.924376,-306.438199
2890.391503,-444.123565,-9326.594869,-1302.362347
2890.391831,518.144159,-9030.512492,-2451.505594
2890.392158,1628.453072,-10436.903782,-1302.362347
2890.392486,2294.638420,-10881.027347,536.266849
2890.392813,1628.453072,-8290.306550,2145.067394
2890.393141,1628.453072,-8512.368333,1991.848295
2890.393469,2368.659014,-9252.574275,1608.800546
2890.393796,2516.700203,-9918.759623,689.485948
2890.394124,1332.370696,-8882.471304,536.266849
2890.394451,0.000000,-8956.491898,-536.266849
2890.394779,-444.123565,-10955.047942,-1225.752797
2890.395106,370.102971,-11843.295072,-919.314598
2890.395434,296.082377,-10288.862594,-842.705048
2890.395761,-592.164754,-7846.182985,-306.438199
2890.396089,-740.205942,-8734.430116,-459.657299
2890.396417,740.205942,-9548.656652,0.000000
2890.396744,1998.556043,-9918.759623,612.876398
2890.397072,518.144159,-8660.409521,1455.581446
2890.397399,0.000000,-7105.977043,995.924147
2890.397727,1110.308913,-7698.141797,383.047749
2890.398054,2220.617826,-9474.636058,-153.219100
2890.398382,1332.370696,-10288.862594,-229.828649
2890.398710,444.123565,-10288.862594,0.000000
2890.399037,666.185348,-11251.130318,-383.047749
2890.399365,2294.638420,-11325.150913,-1225.752797
2890.399692,1998.556043,-10066.800811,-1225.752797
2890.400020,-148.041188,-9474.636058,229.828649
2890.400347,-814.226536,-9030.512492,-383.047749
2890.400675,0.000000,-10510.924376,-689.485948
2890.401003,0.000000,-10066.800811,-536.266849
2890.401330,-1480.411884,-8956.491898,0.000000
2890.401658,-2368.659014,-7846.182985,-612.876398
2890.401985,-1776.494261,-9030.512492,-1302.362347
2890.402313,74.020594,-11917.315666,-1378.971896
2890.402640,1036.288319,-12879.583391,-229.828649
2890.402968,444.123565,-10436.903782,-842.705048
2890.403296,814.226536,-9326.594869,-919.314598
2890.403623,888.247130,-10140.821405,-612.876398
2890.403951,1332.370696,-11251.130318,229.828649
2890.404278,370.102971,-10436.903782,842.705048
2890.404606,-222.061783,-9474.636058,153.219100
2890.404933,0.000000,-8586.388927,-229.828649
2890.405261,1110.308913,-8660.409521,383.047749
2890.405588,148.041188,-8586.388927,1225.752797
2890.405916,-1258.350101,-8586.388927,919.314598
2890.406244,-1184.329507,-8660.409521,-306.438199
2890.406571,148.041188,-9770.718434,-689.485948
2890.406899,740.205942,-10214.842000,153.219100
2890.407226,-740.205942,-8512.368333,1378.971896
2890.407554,-1554.432478,-7402.059420,1225.752797
2890.407881,0.000000,-9474.636058,0.000000
2890.408209,444.123565,-12065.356855,0.000000
2890.408537,518.144159,-10881.027347,0.000000
2890.408864,370.102971,-8290.306550,0.000000
2890.409192,0.000000,-8290.306550,-612.876398
2890.409519,222.061783,-10140.821405,-306.438199
2890.409847,666.185348,-10658.965565,153.219100
2890.410174,370.102971,-8956.491898,306.438199
2890.410502,666.185348,-8068.244768,0.000000
2890.410830,2146.597232,-9474.636058,0.000000
2890.411157,3034.844362,-10584.944971,842.705048
2890.411485,1036.288319,-9030.512492,842.705048
2890.411812,-814.226536,-8216.285956,0.000000
2890.412140,-888.247130,-9696.697840,-1838.629195
2890.412467,888.247130,-12065.356855,-1608.800546
2890.412795,1406.391290,-11251.130318,-689.485948
2890.413123,222.061783,-9104.533087,-153.219100
2890.413450,-740.205942,-9474.636058,-306.438199
2890.413778,518.144159,-11473.192101,-1225.752797
2890.414105,592.164754,-12657.521608,-153.219100
2890.414433,-888.247130,-10140.821405,0.000000
2890.414760,-1776.494261,-7920.203579,-1378.971896
2890.415088,-1184.329507,-8512.368333,-2757.943793
2890.415415,1184.329507,-10362.883188,-1532.190996
2890.415743,1258.350101,-10362.883188,612.876398
2890.416071,1332.370696,-9030.512492,2145.067394
2890.416398,1776.494261,-8438.347739,1302.362347
2890.416726,2368.659014,-9030.512492,-766.095498
2890.417053,1776.494261,-10140.821405,-766.095498
2890.417381,0.000000,-9400.615463,76.609550
2890.417708,-888.247130,-9104.533087,842.705048
2890.418036,296.082377,-10066.800811,536.266849
2890.418364,1110.308913,-10881.027347,229.828649
2890.418691,444.123565,-8734.430116,766.095498
2890.419019,-1554.432478,-7105.977043,153.219100
2890.419346,-1628.453072,-9178.553681,-766.095498
2890.419674,-296.082377,-10955.047942,-1149.143247
2890.420001,0.000000,-9992.780217,-536.266849
2890.420329,-888.247130,-7624.121203,0.000000
2890.420657,148.041188,-8808.450710,0.000000
2890.420984,1776.494261,-10807.006753,-1608.800546
2890.421312,2960.823768,-13027.624579,-229.828649
2890.421639,1776.494261,-11621.233289,459.657299
2890.421967,1480.411884,-9696.697840,0.000000
2890.422294,1184.329507,-9548.656652,-766.095498
2890.422622,1332.370696,-9548.656652,-229.828649
2890.422950,222.061783,-8660.409521,919.314598
2890.423277,-1406.391290,-8142.265362,1149.143247
2890.423605,-1776.494261,-8364.327145,0.000000
2890.423932,-444.123565,-9326.594869,-536.266849
2890.424260,0.000000,-9548.656652,0.000000
2890.424587,-1110.308913,-8882.471304,76.609550
2890.424915,-592.164754,-8808.450710,-536.266849
2890.425242,1184.329507,-11325.150913,-2834.553343
2890.425570,2072.576638,-13397.727550,-995.924147
2890.425898,1480.411884,-12139.377449,229.828649
2890.426225,888.247130,-9622.677246,0.000000
2890.426553,0.000000,-9030.512492,-842.705048
2890.426880,-222.061783,-11029.068536,-919.314598
2890.427208,-888.247130,-11325.150913,-229.828649
2890.427535,-1406.391290,-8216.285956,-229.828649
2890.427863,-2146.597232,-6735.874072,0.000000
2890.428191,-1184.329507,-7550.100608,-919.314598
2890.428518,222.061783,-8438.347739,0.000000
2890.428846,296.082377,-8512.368333,1149.143247
2890.429173,222.061783,-8882.471304,1455.581446
2890.429501,1480.411884,-9400.615463,1225.752797
2890.429828,2294.638420,-8956.491898,306.438199
2890.430156,1998.556043,-10140.821405,689.485948
2890.430484,-296.082377,-9992.780217,766.095498
2890.430811,-740.205942,-10436.903782,-995.924147
2890.431139,-296.082377,-11621.233289,-2145.067394
2890.431466,222.061783,-12435.459826,-1762.019645
2890.431794,0.000000,-10881.027347,-1149.143247
2890.432121,-370.102971,-8660.409521,-995.924147
2890.432449,222.061783,-8734.430116,-995.924147
2890.432777,1554.432478,-10584.944971,-842.705048
2890.433104,1110.308913,-10584.944971,612.876398
2890.433432,148.041188,-8364.327145,1685.410096
2890.433759,518.144159,-7476.080014,536.266849
2890.434087,1554.432478,-8956.491898,-229.828649
2890.434414,1554.432478,-10066.800811,459.657299
2890.434742,370.102971,-9400.615463,1302.362347
2890.435069,222.061783,-9992.780217,0.000000
2890.435397,1036.288319,-11473.192101,-1378.971896
2890.435725,814.226536,-11399.171507,-1762.019645
2890.436052,-444.123565,-10214.842000,-1378.971896
2890.436380,-1036.288319,-8290.306550,-1378.971896
2890.436707,0.000000,-9030.512492,-1225.752797
2890.437035,1110.308913,-10955.047942,-612.876398
2890.437362,1110.308913,-10362.883188,1302.362347
2890.437690,0.000000,-7846.182985,1072.533697
2890.438018,296.082377,-7402.059420,-766.095498
2890.438345,222.061783,-9844.739029,-1149.143247
2890.438673,666.185348,-11769.274478,-612.876398
2890.439000,370.102971,-10066.800811,459.657299
2890.439328,0.000000,-8290.306550,-689.485948
2890.439655,296.082377,-9696.697840,-1608.800546
2890.439983,814.226536,-10658.965565,-766.095498
2890.440311,296.082377,-9696.697840,383.047749
2890.440638,-814.226536,-8956.491898,919.314598
2890.440966,-666.185348,-9104.533087,229.828649
2890.441293,1406.391290,-8882.471304,0.000000
2890.441621,1554.432478,-8290.306550,1072.533697
2890.441948,-444.123565,-7698.141797,1455.581446
2890.442276,-962.267725,-8512.368333,612.876398
2890.442603,-814.226536,-10214.842000,-459.657299
2890.442931,0.000000,-11177.109724,-1762.019645
2890.443259,-222.061783,-10658.965565,-689.485948
2890.443586,-296.082377,-9918.759623,-306.438199
2890.443914,74.020594,-10288.862594,-306.438199
2890.444241,1702.473667,-12065.356855,-1149.143247
2890.444569,1184.329507,-12583.501014,0.000000
2890.444896,296.082377,-10510.924376,612.876398
2890.445224,0.000000,-9252.574275,0.000000
2890.445552,222.061783,-8438.347739,-306.438199
2890.445879,296.082377,-8512.368333,-153.219100
2890.446207,-888.247130,-8068.244768,383.047749
2890.446534,-1628.453072,-8290.306550,1072.533697
2890.446862,-444.123565,-8808.450710,-306.438199
2890.447189,1036.288319,-9326.594869,-1378.971896
2890.447517,666.185348,-9622.677246,-306.438199
2890.447845,-370.102971,-9474.636058,383.047749
2890.448172,-222.061783,-9474.636058,306.438199
2890.448500,814.226536,-11177.109724,-536.266849
2890.448827,1924.535449,-11399.171507,-766.095498
2890.449155,1998.556043,-10140.821405,536.266849
2890.449482,1332.370696,-8512.368333,1072.533697
2890.449810,1036.288319,-8734.430116,536.266849
2890.450138,740.205942,-11251.130318,383.047749
2890.450465,-1110.308913,-10288.862594,0.000000
2890.450793,-2220.617826,-8216.285956,-1225.752797
2890.451120,-1406.391290,-7476.080014,-2451.505594
2890.451448,-444.123565,-8660.409521,-2145.067394
2890.451775,222.061783,-9918.759623,536.266849
2890.452103,1110.308913,-10214.842000,1685.410096
2890.452430,814.226536,-8882.471304,1149.143247
2890.452758,2516.700203,-9178.553681,-1225.752797
2890.453086,2368.659014,-9992.780217,-2374.896044
2890.453413,0.000000,-10066.800811,-229.828649
2890.453741,-1628.453072,-9696.697840,153.219100
2890.454068,-740.205942,-9918.759623,-689.485948
2890.454396,1110.308913,-11991.336260,-1532.190996
2890.454723,2294.638420,-12435.459826,-842.705048
2890.455051,814.226536,-10214.842000,-229.828649
2890.455379,-518.144159,-9474.636058,-689.485948
2890.455706,-666.185348,-9992.780217,-1302.362347
2890.456034,-148.041188,-10288.862594,-1532.190996
2890.456361,-370.102971,-9400.615463,0.000000
2890.456689,-370.102971,-8364.327145,995.924147
2890.457016,0.000000,-8512.368333,306.438199
2890.457344,1110.308913,-9918.759623,0.000000
2890.457672,888.247130,-10881.027347,-306.438199
2890.457999,-518.144159,-9770.718434,229.828649
2890.458327,-592.164754,-9622.677246,-536.266849
2890.458654,296.082377,-9844.739029,-689.485948
2890.458982,1036.288319,-9844.739029,-383.047749
2890.459309,0.000000,-8438.347739,919.314598
2890.459637,-1332.370696,-7328.038826,1302.362347
2890.459965,-592.164754,-8290.306550,1608.800546
2890.460292,666.185348,-9252.574275,0.000000
2890.460620,444.123565,-9252.574275,766.095498
2890.460947,0.000000,-7920.203579,383.047749
2890.461275,888.247130,-8882.471304,-383.047749
2890.461602,2368.659014,-10955.047942,-612.876398
2890.461930,2886.803174,-12435.459826,-689.485948
2890.462257,1998.556043,-11473.192101,153.219100
2890.462585,1110.308913,-10288.862594,76.609550
2890.462913,888.247130,-10362.883188,-1072.533697
2890.463240,1184.329507,-11325.150913,-995.924147
2890.463568,0.000000,-10140.821405,0.000000
2890.463895,-1628.453072,-8142.265362,459.657299
2890.464223,-888.247130,-7105.977043,-919.314598
2890.464550,-518.144159,-8068.244768,-1149.143247
2890.464878,-444.123565,-8512.368333,-383.047749
2890.465205,-1406.391290,-8216.285956,766.095498
2890.465533,-1258.350101,-8734.430116,229.828649
2890.465860,1110.308913,-10658.965565,-1149.143247
2890.466188,3404.947333,-12731.542202,-1149.143247
2890.466515,2590.720797,-12361.439231,0.000000
2890.466843,962.267725,-11473.192101,536.266849
2890.467170,1258.350101,-11399.171507,-766.095498
2890.467498,1554.432478,-12509.480420,-1915.238745
2890.467825,444.123565,-12065.356855,-995.924147
2890.468152,-1110.308913,-8734.430116,0.000000
2890.468480,-2072.576638,-6513.812290,0.000000
2890.468807,-296.082377,-7550.100608,-842.705048
2890.469135,962.267725,-9104.533087,0.000000
2890.469462,-518.144159,-8438.347739,1762.019645
2890.469790,-1036.288319,-6883.915261,1991.848295
2890.470117,148.041188,-7550.100608,383.047749
2890.470445,888.247130,-9252.574275,-842.705048
2890.470772,518.144159,-10881.027347,-306.438199
2890.471100,-666.185348,-9622.677246,919.314598
2890.471427,-592.164754,-9770.718434,0.000000
2890.471755,1480.411884,-11399.171507,-1302.362347
2890.472082,1702.473667,-12361.439231,-1378.971896
2890.472410,-222.061783,-10214.842000,-612.876398
2890.472737,-1036.288319,-9030.512492,-536.266849
2890.473065,-444.123565,-9770.718434,-1225.752797
2890.473392,518.144159,-11177.109724,-1915.238745
2890.473720,0.000000,-9104.533087,76.609550
2890.474047,-592.164754,-6513.812290,1149.143247
2890.474375,370.102971,-7772.162391,1149.143247
2890.474702,1480.411884,-10955.047942,153.219100
2890.475030,1332.370696,-10955.047942,153.219100
2890.475357,148.041188,-8956.491898,0.000000
2890.475685,-296.082377,-9030.512492,-995.924147
2890.476012,148.041188,-10658.965565,-1608.800546
2890.476340,0.000000,-11399.171507,-1685.410096
2890.476667,-1850.514855,-10066.800811,-766.095498
2890.476995,-1480.411884,-9178.553681,-766.095498
2890.477322,370.102971,-10066.800811,-919.314598
2890.477650,2368.659014,-10510.924376,-1072.533697
2890.477977,1998.556043,-10066.800811,1378.971896
2890.478305,814.226536,-8882.471304,1455.581446
2890.478632,1332.370696,-8364.327145,306.438199
2890.478960,1110.308913,-9326.594869,76.609550
2890.479287,1406.391290,-9548.656652,536.266849
2890.479614,888.247130,-8882.471304,919.314598
2890.479942,0.000000,-9252.574275,995.924147
2890.480269,296.082377,-10066.800811,-766.095498
2890.480597,222.061783,-10658.965565,-1378.971896
2890.480924,-666.185348,-10140.821405,-383.047749
2890.481252,-1036.288319,-9622.677246,-306.438199
2890.481579,-592.164754,-9622.677246,-766.095498
2890.481907,0.000000,-9400.615463,-689.485948
2890.482234,0.000000,-8512.368333,383.047749
2890.482562,-962.267725,-7179.997637,1838.629195
2890.482889,-1406.391290,-7179.997637,1685.410096
2890.483217,-444.123565,-8142.265362,-229.828649
2890.483544,1258.350101,-10140.821405,-1225.752797
2890.483872,518.144159,-10214.842000,-1225.752797
2890.484199,222.061783,-10658.965565,-689.485948
2890.484527,1406.391290,-11103.089130,-995.924147
2890.484854,2442.679609,-11917.315666,-995.924147
2890.485182,2886.803174,-12361.439231,76.609550
2890.485509,2294.638420,-9696.697840,919.314598
2890.485837,2738.761985,-9104.533087,842.705048
2890.486164,3034.844362,-9326.594869,766.095498
2890.486492,1406.391290,-10214.842000,1302.362347
2890.486819,-1110.308913,-8882.471304,995.924147
2890.487147,-1924.535449,-6883.915261,-612.876398
2890.487474,-962.267725,-7772.162391,-2145.067394
2890.487802,74.020594,-10214.842000,-1991.848295
2890.488129,0.000000,-10658.965565,0.000000
2890.488457,222.061783,-9770.718434,153.219100
2890.488784,1628.453072,-10288.862594,-766.095498
2890.489112,2368.659014,-11325.150913,-1378.971896
2890.489439,1554.432478,-10807.006753,-459.657299
2890.489767,222.061783,-9622.677246,459.657299
2890.490094,814.226536,-9696.697840,0.000000
2890.490422,1554.432478,-10732.986159,0.000000
2890.490749,1554.432478,-10584.944971,766.095498
2890.491077,814.226536,-9400.615463,1532.190996
2890.491404,-222.061783,-8142.265362,76.609550
2890.491731,-1480.411884,-8438.347739,-612.876398
2890.492059,-1628.453072,-9252.574275,-1378.971896
2890.492386,-962.267725,-8438.347739,-995.924147
2890.492714,-592.164754,-7846.182985,153.219100
2890.493041,-666.185348,-8808.450710,1532.190996
2890.493369,222.061783,-10584.944971,612.876398
2890.493696,518.144159,-10658.965565,-459.657299
2890.494024,-148.041188,-9696.697840,-919.314598
2890.494351,-962.267725,-9104.533087,-919.314598
2890.494679,0.000000,-9622.677246,-919.314598
2890.495006,592.164754,-10362.883188,-383.047749
2890.495334,592.164754,-10140.821405,0.000000
2890.495661,-148.041188,-9992.780217,689.485948
2890.495989,-444.123565,-9400.615463,0.000000
2890.496316,592.164754,-9252.574275,-766.095498
2890.496644,814.226536,-9844.739029,0.000000
2890.496971,0.000000,-9474.636058,689.485948
2890.497299,-222.061783,-9030.512492,76.609550
2890.497626,0.000000,-9548.656652,-612.876398
2890.497954,1258.350101,-10510.924376,-689.485948
2890.498281,962.267725,-11103.089130,-383.047749
2890.498609,222.061783,-10807.006753,-689.485948
2890.498936,74.020594,-10955.047942,-919.314598
2890.499264,1332.370696,-11621.233289,-2145.067394
2890.499591,222.061783,-11695.253884,-995.924147
2890.499919,-1258.350101,-9696.697840,76.609550
2890.500246,-2294.638420,-7994.224174,0.000000
2890.500574,-1554.432478,-8882.471304,0.000000
2890.500901,-740.205942,-9326.594869,-689.485948
2890.501229,-962.267725,-7624.121203,0.000000
2890.501556,-740.205942,-7179.997637,383.047749
2890.501884,222.061783,-8512.368333,766.095498
2890.502211,1110.308913,-9770.718434,229.828649
2890.502539,1554.432478,-10807.006753,0.000000
2890.502866,1480.411884,-10510.924376,-383.047749
2890.503193,888.247130,-9178.553681,-612.876398
2890.503521,2664.741391,-10510.924376,-1149.143247
2890.503848,2960.823768,-11991.336260,689.485948
2890.504176,1924.535449,-10510.924376,1455.581446
2890.504503,592.164754,-8586.388927,995.924147
2890.504831,-444.123565,-7772.162391,0.000000
2890.505158,0.000000,-7698.141797,-153.219100
2890.505486,0.000000,-8142.265362,-153.219100
2890.505813,-1184.329507,-7402.059420,1302.362347
2890.506141,-518.144159,-7550.100608,919.314598
2890.506468,962.267725,-9326.594869,0.000000
2890.506796,2664.741391,-11769.274478,-766.095498
2890.507123,2072.576638,-12065.356855,-536.266849
2890.507451,1036.288319,-11473.192101,-536.266849
2890.507778,1850.514855,-10658.965565,-919.314598
2890.508106,3330.926739,-11917.315666,-2604.724693
2890.508433,2812.782580,-12139.377449,-766.095498
2890.508761,296.082377,-10066.800811,766.095498
2890.509088,-370.102971,-9326.594869,306.438199
2890.509416,-296.082377,-9918.759623,-1225.752797
2890.509743,370.102971,-9844.739029,-1915.238745
2890.510071,-962.267725,-8068.244768,-919.314598
2890.510398,-2294.638420,-7105.977043,306.438199
2890.510726,-444.123565,-9252.574275,0.000000
2890.511053,1554.432478,-10807.006753,-229.828649
2890.511381,592.164754,-10584.944971,306.438199
2890.511708,-1554.432478,-9104.533087,612.876398
2890.512036,-1258.350101,-9474.636058,-689.485948
2890.512363,-592.164754,-11177.109724,-1762.019645
2890.512691,-740.205942,-11473.192101,-919.314598
2890.513018,-1036.288319,-10288.862594,612.876398
2890.513346,-444.123565,-8808.450710,0.000000
2890.513673,444.123565,-9770.718434,-689.485948
2890.514001,370.102971,-10510.924376,229.828649
2890.514328,-1184.329507,-8142.265362,689.485948
2890.514656,-666.185348,-7254.018232,689.485948
2890.514983,0.000000,-8068.244768,842.705048
2890.515310,518.144159,-9400.615463,1149.143247
2890.515638,814.226536,-8882.471304,1838.629195
2890.515965,0.000000,-7179.997637,1685.410096
2890.516293,-740.205942,-8660.409521,383.047749
2890.516620,0.000000,-11621.233289,-1225.752797
2890.516948,444.123565,-12287.418637,-766.095498
2890.517275,-296.082377,-11029.068536,-919.314598
2890.517603,-1850.514855,-9252.574275,-1302.362347
2890.517930,-1332.370696,-9696.697840,-1838.629195
2890.518258,0.000000,-10881.027347,-1455.581446
2890.518585,222.061783,-10807.006753,0.000000
2890.518913,666.185348,-9696.697840,766.095498
2890.519240,1998.556043,-9400.615463,842.705048
2890.519568,3182.885551,-9696.697840,-459.657299
2890.519895,2368.659014,-10066.800811,383.047749
2890.520223,814.226536,-9178.553681,919.314598
2890.520550,0.000000,-9030.512492,-229.828649
2890.520878,740.205942,-9548.656652,-1455.581446
2890.521205,2516.700203,-10140.821405,-1608.800546
2890.521533,3404.947333,-9844.739029,-459.657299
2890.521860,1998.556043,-9474.636058,1455.581446
2890.522188,2294.638420,-9992.780217,306.438199
2890.522515,1924.535449,-11769.274478,-995.924147
2890.522843,1406.391290,-11473.192101,-842.705048
2890.523170,1110.308913,-8364.327145,-842.705048
2890.523498,1036.288319,-7402.059420,0.000000
2890.523825,1406.391290,-9030.512492,1225.752797
2890.524153,2294.638420,-11917.315666,1915.238745
2890.524480,1332.370696,-9918.759623,1455.581446
2890.524808,-370.102971,-7698.141797,0.000000
2890.525135,-1036.288319,-8882.471304,-2221.676944
2890.525463,-962.267725,-10140.821405,-2451.505594
2890.525790,-962.267725,-9548.656652,-1608.800546
2890.526118,-592.164754,-9326.594869,76.609550
2890.526445,1258.350101,-10510.924376,766.095498
2890.526772,2664.741391,-11325.150913,1378.971896
2890.527100,2368.659014,-10584.944971,1762.019645
2890.527427,0.000000,-9104.533087,919.314598
2890.527755,-2220.617826,-8660.409521,-383.047749
2890.528082,-1924.535449,-9104.533087,-2068.457845
2890.528410,-1480.411884,-9696.697840,-2298.286494
2890.528737,-1776.494261,-8956.491898,842.705048
2890.529065,-1776.494261,-8586.388927,1072.533697
2890.529392,-1332.370696,-9474.636058,76.609550
2890.529720,-370.102971,-11843.295072,-1762.019645
2890.530047,0.000000,-12139.377449,-1838.629195
2890.530375,-962.267725,-10140.821405,0.000000
2890.530702,-814.226536,-8586.388927,-536.266849
2890.531030,-740.205942,-8882.471304,-459.657299
2890.531357,518.144159,-10362.883188,1225.752797
2890.531685,-444.123565,-10362.883188,1915.238745
2890.532012,-962.267725,-8586.388927,459.657299
2890.532340,-1258.350101,-8882.471304,-1072.533697
2890.532667,-518.144159,-9548.656652,-1149.143247
2890.532995,-518.144159,-9030.512492,76.609550
2890.533322,-1258.350101,-8660.409521,459.657299
2890.533650,-1480.411884,-8216.285956,-612.876398
2890.533977,74.020594,-10066.800811,-1149.143247
2890.534305,1480.411884,-11029.068536,0.000000
2890.534632,222.061783,-9326.594869,842.705048
2890.534960,0.000000,-8438.347739,766.095498
2890.535287,518.144159,-9178.553681,0.000000
2890.535615,1998.556043,-11843.295072,-919.314598
2890.535942,1332.370696,-12435.459826,-612.876398
2890.536270,1184.329507,-10584.944971,229.828649
2890.536597,1110.308913,-9474.636058,-1149.143247
2890.536925,1184.329507,-11103.089130,-2145.067394
2890.537252,1036.288319,-10584.944971,-1302.362347
2890.537580,-370.102971,-8808.450710,153.219100
2890.537907,-1332.370696,-7772.162391,536.266849
2890.538235,74.020594,-8142.265362,0.000000
2890.538562,1480.411884,-8364.327145,-306.438199
2890.538889,962.267725,-8438.347739,-153.219100
2890.539217,0.000000,-8438.347739,383.047749
2890.539544,814.226536,-10214.842000,-229.828649
2890.539872,2738.761985,-12139.377449,-1455.581446
2890.540199,3256.906145,-12805.562797,459.657299
2890.540527,962.267725,-10436.903782,1302.362347
2890.540854,0.000000,-9252.574275,76.609550
2890.541182,296.082377,-10510.924376,-612.876398
2890.541509,1628.453072,-10955.047942,-612.876398
2890.541837,1184.329507,-10066.800811,766.095498
2890.542164,296.082377,-8142.265362,1302.362347
2890.542492,0.000000,-7179.997637,459.657299
2890.542819,1332.370696,-8364.327145,-383.047749
2890.543147,222.061783,-9474.636058,842.705048
2890.543474,-1036.288319,-8808.450710,1532.190996
2890.543802,0.000000,-8290.306550,76.609550
2890.544129,1554.432478,-10362.883188,-1302.362347
2890.544457,1628.453072,-11473.192101,-383.047749
2890.544784,592.164754,-9918.759623,459.657299
2890.545112,-666.185348,-9104.533087,153.219100
2890.545439,-444.123565,-11177.109724,-1149.143247
2890.545767,518.144159,-11177.109724,-1838.629195
2890.546094,0.000000,-9622.677246,0.000000
2890.546422,-962.267725,-8142.265362,459.657299
2890.546749,-962.267725,-7328.038826,459.657299
2890.547077,-666.185348,-9622.677246,0.000000
2890.547404,-518.144159,-11029.068536,0.000000
2890.547732,-592.164754,-9770.718434,-459.657299
2890.548059,-1184.329507,-8438.347739,-1378.971896
2890.548387,-296.082377,-9474.636058,-2068.457845
2890.548714,518.144159,-11917.315666,-1608.800546
2890.549042,592.164754,-12065.356855,459.657299
2890.549369,-296.082377,-10584.944971,766.095498
2890.549697,-296.082377,-9104.533087,0.000000
2890.550024,0.000000,-9992.780217,-1532.190996
2890.550351,74.020594,-9548.656652,-766.095498
2890.550679,-740.205942,-7698.141797,-229.828649
2890.551006,-1332.370696,-7772.162391,0.000000
2890.551334,-222.061783,-8734.430116,-153.219100
2890.551661,1332.370696,-9326.594869,76.609550
2890.551989,740.205942,-8734.430116,689.485948
2890.552316,-296.082377,-8364.327145,689.485948
2890.552644,740.205942,-9770.718434,-383.047749
2890.552971,2368.659014,-12287.418637,-1149.143247
2890.553299,1554.432478,-12583.501014,0.000000
2890.553626,370.102971,-10362.883188,919.314598
2890.553954,370.102971,-8364.327145,383.047749
2890.554281,888.247130,-10288.862594,-766.095498
2890.554609,888.247130,-11621.233289,-612.876398
2890.554936,0.000000,-9696.697840,383.047749
2890.555264,0.000000,-7476.080014,0.000000
2890.555591,370.102971,-7772.162391,-459.657299
2890.555919,1258.350101,-8808.450710,306.438199
2890.556246,1628.453072,-8808.450710,1915.238745
2890.556574,666.185348,-7624.121203,1532.190996
2890.556901,1702.473667,-8882.471304,306.438199
2890.557229,2590.720797,-9992.780217,0.000000
2890.557556,2590.720797,-10362.883188,1149.143247
2890.557884,148.041188,-8808.450710,1455.581446
2890.558211,-1258.350101,-9474.636058,76.609550
2890.558539,0.000000,-11621.233289,-1838.629195
2890.558866,1998.556043,-12583.501014,-3140.991542
2890.559194,1702.473667,-11695.253884,-536.266849
2890.559521,1184.329507,-9918.759623,689.485948
2890.559849,1406.391290,-9622.677246,383.047749
2890.560176,1776.494261,-10955.047942,-536.266849
2890.560504,1998.556043,-10658.965565,0.000000
2890.560831,592.164754,-8290.306550,0.000000
2890.561159,-518.144159,-6809.894666,-612.876398
2890.561486,-592.164754,-7920.203579,229.828649
2890.561814,-296.082377,-9400.615463,0.000000
2890.562141,-1110.308913,-10214.842000,76.609550
2890.562468,-2072.576638,-10510.924376,-1149.143247
2890.562796,-1332.370696,-10214.842000,-3217.601092
2890.563123,0.000000,-11251.130318,-2451.505594
2890.563451,-888.247130,-10807.006753,-229.828649
2890.563778,-1554.432478,-8660.409521,536.266849
2890.564106,-1258.350101,-8216.285956,459.657299
2890.564433,148.041188,-10140.821405,0.000000
2890.564761,814.226536,-11695.253884,229.828649
2890.565088,148.041188,-9696.697840,536.266849
2890.565416,-592.164754,-7624.121203,-919.314598
2890.565743,0.000000,-9252.574275,-1608.800546
2890.566071,518.144159,-10732.986159,-1225.752797
2890.566398,148.041188,-10584.944971,459.657299
2890.566725,74.020594,-8808.450710,689.485948
2890.567053,296.082377,-8438.347739,-383.047749
2890.567380,1036.288319,-9622.677246,-1225.752797
2890.567708,0.000000,-10584.944971,1225.752797
2890.568035,-1258.350101,-8512.368333,1762.019645
2890.568362,-1480.411884,-7920.203579,842.705048
2890.568690,-222.061783,-8956.491898,-919.314598
2890.569017,444.123565,-9770.718434,-536.266849
2890.569345,-296.082377,-9474.636058,689.485948
2890.569672,-592.164754,-8142.265362,229.828649
2890.569999,0.000000,-9474.636058,-995.924147
2890.570327,592.164754,-11769.274478,-1378.971896
2890.570654,1184.329507,-12139.377449,76.609550
2890.570982,962.267725,-9770.718434,383.047749
2890.571309,1702.473667,-9326.594869,-612.876398
2890.571636,2294.638420,-11325.150913,-842.705048
2890.571964,2368.659014,-12065.356855,76.609550
2890.572291,1554.432478,-10436.903782,1532.190996
2890.572619,296.082377,-8068.244768,689.485948
2890.572946,222.061783,-7254.018232,-689.485948
2890.573273,666.185348,-9400.615463,-689.485948
2890.573601,962.267725,-9992.780217,229.828649
2890.573928,518.144159,-8734.430116,689.485948
2890.574256,222.061783,-8882.471304,0.000000
2890.574583,1036.288319,-9844.739029,-1608.800546
2890.574910,1332.370696,-10066.800811,-689.485948
2890.575238,-370.102971,-9030.512492,612.876398
2890.575565,-814.226536,-9178.553681,0.000000
2890.575893,444.123565,-10436.903782,-1302.362347
2890.576220,1628.453072,-11621.233289,-1915.238745
2890.576548,1036.288319,-11473.192101,-536.266849
2890.576875,0.000000,-9474.636058,842.705048
2890.577202,0.000000,-9252.574275,0.000000
2890.577530,1554.432478,-10955.047942,-1378.971896
2890.577857,1628.453072,-11843.295072,-383.047749
2890.578185,666.185348,-9326.594869,536.266849
2890.578512,0.000000,-7105.977043,612.876398
2890.578839,296.082377,-8216.285956,383.047749
2890.579167,296.082377,-9474.636058,383.047749
2890.579494,-518.144159,-8956.491898,383.047749
2890.579822,-1850.514855,-7772.162391,153.219100
2890.580149,-1036.288319,-8808.450710,-766.095498
2890.580476,0.000000,-10214.842000,-1455.581446
2890.580804,-592.164754,-10658.965565,-689.485948
2890.581131,-1776.494261,-9400.615463,76.609550
2890.581459,-1480.411884,-9622.677246,-1225.752797
2890.581786,592.164754,-11547.212695,-1762.019645
2890.582113,2294.638420,-12731.542202,-766.095498
2890.582441,1776.494261,-10584.944971,1302.362347
2890.582768,1036.288319,-8882.471304,1378.971896
2890.583096,148.041188,-8882.471304,306.438199
2890.583423,148.041188,-10584.944971,-689.485948
2890.583750,0.000000,-9992.780217,0.000000
2890.584078,-1628.453072,-7105.977043,383.047749
2890.584405,-1628.453072,-7254.018232,-229.828649
2890.584733,-370.102971,-8882.471304,-229.828649
2890.585060,592.164754,-10510.924376,0.000000
2890.585388,0.000000,-10066.800811,842.705048
2890.585715,-740.205942,-8660.409521,383.047749
2890.586042,814.226536,-9474.636058,-1915.238745
2890.586370,1480.411884,-10510.924376,-1455.581446
2890.586697,444.123565,-9992.780217,459.657299
2890.587025,-1184.329507,-8364.327145,1608.800546
2890.587352,0.000000,-9104.533087,76.609550
2890.587679,1258.350101,-10881.027347,-1225.752797
2890.588007,1258.350101,-11103.089130,-766.095498
2890.588334,-222.061783,-9252.574275,-229.828649
2890.588662,-814.226536,-7846.182985,-1455.581446
2890.588989,1628.453072,-10066.800811,-2604.724693
2890.589316,2664.741391,-12731.542202,-995.924147
2890.589644,1628.453072,-10955.047942,842.705048
2890.589971,518.144159,-8586.388927,766.095498
2890.590299,740.205942,-8734.430116,-1762.019645
2890.590626,962.267725,-9992.780217,-1455.581446
2890.590953,0.000000,-10510.924376,-229.828649
2890.591281,-666.185348,-9104.533087,0.000000
2890.591608,0.000000,-9178.553681,-1608.800546
2890.591936,1110.308913,-10214.842000,-2298.286494
2890.592263,814.226536,-10066.800811,-689.485948
2890.592590,0.000000,-8290.306550,842.705048
2890.592918,-370.102971,-8290.306550,689.485948
2890.593245,1406.391290,-9030.512492,76.609550
2890.593573,2812.782580,-11325.150913,-612.876398
2890.593900,2590.720797,-10362.883188,919.314598
2890.594227,814.226536,-8660.409521,1608.800546
2890.594555,0.000000,-9104.533087,229.828649
2890.594882,444.123565,-11621.233289,-536.266849
2890.595210,1110.308913,-12213.398043,-153.219100
2890.595537,444.123565,-10584.944971,-306.438199
2890.595865,-370.102971,-7772.162391,-306.438199
2890.596192,-148.041188,-8364.327145,-459.657299
2890.596519,0.000000,-10140.821405,229.828649
2890.596847,-1110.308913,-8956.491898,1072.533697
2890.597174,-1776.494261,-7031.956449,153.219100
2890.597502,-666.185348,-6809.894666,-612.876398
2890.597829,1406.391290,-9918.759623,-459.657299
2890.598156,1184.329507,-10214.842000,1685.410096
2890.598484,0.000000,-8956.491898,3140.991542
2890.598811,-666.185348,-8586.388927,1072.533697
2890.599139,-962.267725,-10658.965565,-1455.581446
2890.599466,-962.267725,-12435.459826,-1149.143247
2890.599793,-1924.535449,-9622.677246,-1225.752797
2890.600121,-2146.597232,-8660.409521,-1915.238745
2890.600448,-1036.288319,-10362.883188,-1608.800546
2890.600776,0.000000,-11547.212695,-995.924147
2890.601103,740.205942,-11399.171507,153.219100
2890.601430,592.164754,-9622.677246,306.438199
2890.601758,370.102971,-8512.368333,-995.924147
2890.602085,222.061783,-8216.285956,-1762.019645
2890.602413,592.164754,-10066.800811,-229.828649
2890.602740,666.185348,-9548.656652,995.924147
2890.603067,444.123565,-9030.512492,76.609550
2890.603395,814.226536,-9770.718434,-842.705048
2890.603722,814.226536,-11103.089130,-919.314598
2890.604050,148.041188,-10510.924376,-766.095498
2890.604377,-1184.329507,-8956.491898,-1455.581446
2890.604704,-1184.329507,-9770.718434,-995.924147
2890.605032,370.102971,-10436.903782,-1378.971896
2890.605359,1702.473667,-11177.109724,-536.266849
2890.605687,370.102971,-9326.594869,612.876398
2890.606014,444.123565,-8290.306550,383.047749
2890.606342,1258.350101,-9918.759623,-612.876398
2890.606669,1776.494261,-11843.295072,-1378.971896
2890.606996,1110.308913,-10807.006753,0.000000
2890.607324,370.102971,-8068.244768,-689.485948
2890.607651,296.082377,-7476.080014,-995.924147
2890.607979,1554.432478,-10066.800811,-612.876398
2890.608306,1628.453072,-11029.068536,1302.362347
2890.608633,1184.329507,-9252.574275,2068.457845
2890.608961,1332.370696,-7920.203579,459.657299
2890.609288,1406.391290,-8808.450710,-459.657299
2890.609616,888.247130,-9548.656652,612.876398
2890.609943,-222.061783,-8438.347739,2145.067394
2890.610270,-296.082377,-7698.141797,1072.533697
2890.610598,296.082377,-9400.615463,-919.314598
2890.610925,1406.391290,-10955.047942,-1378.971896
2890.611253,1406.391290,-10881.027347,229.828649
2890.611580,518.144159,-9844.739029,229.828649
2890.611907,444.123565,-10066.800811,-842.705048
2890.612235,518.144159,-11029.068536,-1838.629195
2890.612562,740.205942,-12361.439231,-1378.971896
2890.612890,296.082377,-10955.047942,306.438199
2890.613217,-296.082377,-7846.182985,76.609550
2890.613544,0.000000,-7994.224174,0.000000
2890.613872,814.226536,-10362.883188,0.000000
2890.614199,222.061783,-10362.883188,919.314598
2890.614527,-444.123565,-7994.224174,842.705048
2890.614854,-1036.288319,-7846.182985,-536.266849
2890.615182,-592.164754,-9622.677246,-995.924147
2890.615509,518.144159,-10436.903782,0.000000
2890.615836,-1998.556043,-9104.533087,612.876398
2890.616164,-2368.659014,-9178.553681,689.485948
2890.616491,-1036.288319,-10807.006753,-1072.533697
2890.616819,518.144159,-12139.377449,-2451.505594
2890.617146,222.061783,-11325.150913,-995.924147
2890.617473,0.000000,-9548.656652,-995.924147
2890.617801,296.082377,-10214.842000,-842.705048
2890.618128,444.123565,-11621.233289,-842.705048
2890.618456,1332.370696,-10436.903782,153.219100
2890.618783,-296.082377,-7772.162391,689.485948
2890.619110,-370.102971,-7179.997637,76.609550
2890.619438,0.000000,-8660.409521,-536.266849
2890.619765,-296.082377,-9548.656652,306.438199
2890.620093,-592.164754,-8586.388927,995.924147
2890.620420,-1332.370696,-7254.018232,306.438199
2890.620747,0.000000,-9326.594869,-766.095498
2890.621075,962.267725,-10066.800811,-1072.533697
2890.621402,1036.288319,-9844.739029,0.000000
2890.621730,-592.164754,-9104.533087,612.876398
2890.622057,-518.144159,-9252.574275,-306.438199
2890.622384,740.205942,-10288.862594,-1685.410096
2890.622712,1702.473667,-11399.171507,-766.095498
2890.623039,1258.350101,-10510.924376,536.266849
2890.623367,1628.453072,-9030.512492,612.876398
2890.623694,2294.638420,-9696.697840,-383.047749
2890.624021,2886.803174,-11991.336260,0.000000
2890.624349,2294.638420,-11399.171507,1072.533697
2890.624676,814.226536,-7698.141797,1302.362347
2890.625004,0.000000,-6661.853478,-612.876398
2890.625331,444.123565,-9474.636058,-919.314598
2890.625659,1036.288319,-10658.965565,0.000000
2890.625986,370.102971,-9548.656652,1072.533697
2890.626313,814.226536,-9252.574275,612.876398
2890.626641,1258.350101,-10140.821405,-995.924147
2890.626968,1406.391290,-11177.109724,-536.266849
2890.627296,-296.082377,-10436.903782,1225.752797
2890.627623,-222.061783,-9252.574275,0.000000
2890.627950,0.000000,-8660.409521,-1838.629195
2890.628278,740.205942,-10140.821405,-1072.533697
2890.628605,1332.370696,-10066.800811,229.828649
2890.628933,1036.288319,-9104.533087,1455.581446
2890.629260,518.144159,-8734.430116,919.314598
2890.629587,370.102971,-9622.677246,-766.095498
2890.629915,888.247130,-10955.047942,-995.924147
2890.630242,370.102971,-9622.677246,-612.876398
2890.630570,-1184.329507,-8438.347739,0.000000
2890.630897,-296.082377,-9622.677246,-306.438199
2890.631224,962.267725,-12139.377449,-153.219100
2890.631552,1258.350101,-12731.542202,536.266849
2890.631879,-222.061783,-8660.409521,689.485948
2890.632207,-1554.432478,-7846.182985,-306.438199
2890.632534,-1184.329507,-9326.594869,-1608.800546
2890.632861,-1480.411884,-9474.636058,-1378.971896
2890.633189,-2812.782580,-7772.162391,0.000000
2890.633516,-2368.659014,-7105.977043,-536.266849
2890.633844,444.123565,-10066.800811,-1302.362347
2890.634171,2590.720797,-12361.439231,-459.657299
2890.634498,2368.659014,-11695.253884,995.924147
2890.634826,592.164754,-10066.800811,919.314598
2890.635153,222.061783,-9548.656652,-1455.581446
2890.635481,74.020594,-11029.068536,-1915.238745
2890.635808,-592.164754,-11621.233289,-229.828649
2890.636136,-1850.514855,-8586.388927,612.876398
2890.636463,-1998.556043,-7179.997637,229.828649
2890.636790,-814.226536,-9326.594869,-1455.581446
2890.637118,0.000000,-10658.965565,-459.657299
2890.637445,-222.061783,-9474.636058,766.095498
2890.637773,0.000000,-8068.244768,766.095498
2890.638100,296.082377,-8808.450710,-766.095498
2890.638427,1850.514855,-10362.883188,-1378.971896
2890.638755,2072.576638,-9992.780217,536.266849
2890.639082,1924.535449,-8660.409521,1838.629195
2890.639410,2146.597232,-8882.471304,919.314598
2890.639737,2368.659014,-10584.944971,0.000000
2890.640064,1628.453072,-10955.047942,0.000000
2890.640392,222.061783,-9400.615463,0.000000
2890.640719,-888.247130,-8438.347739,-766.095498
2890.641047,-518.144159,-9400.615463,-1532.190996
2890.641374,1036.288319,-11177.109724,-1225.752797
2890.641701,1628.453072,-10510.924376,153.219100
2890.642029,1184.329507,-9104.533087,689.485948
2890.642356,1406.391290,-8586.388927,153.219100
2890.642684,1628.453072,-10140.821405,0.000000
2890.643011,1184.329507,-10955.047942,459.657299
2890.643338,148.041188,-9326.594869,995.924147
2890.643666,-370.102971,-8586.388927,-536.266849
2890.643993,-296.082377,-9696.697840,-1608.800546
2890.644321,962.267725,-10584.944971,-1225.752797
2890.644648,740.205942,-10362.883188,0.000000
2890.644976,-444.123565,-9474.636058,459.657299
2890.645303,-148.041188,-9474.636058,-229.828649
2890.645630,814.226536,-9844.739029,-1225.752797
2890.645958,1406.391290,-10436.903782,0.000000
2890.646285,444.123565,-8956.491898,689.485948
2890.646613,962.267725,-8142.265362,536.266849
2890.646940,1702.473667,-9474.636058,-229.828649
2890.647267,1998.556043,-11621.233289,0.000000
2890.647595,518.144159,-11177.109724,383.047749
2890.647922,-740.205942,-8882.471304,-766.095498
2890.648250,-1480.411884,-9474.636058,-995.924147
2890.648577,-666.185348,-11251.130318,-1991.848295
2890.648904,-370.102971,-11103.089130,-919.314598
2890.649232,-1036.288319,-8882.471304,536.266849
2890.649559,-1406.391290,-7994.224174,229.828649
2890.649887,0.000000,-9400.615463,-229.828649
2890.650214,148.041188,-9622.677246,919.314598
2890.650541,-888.247130,-8734.430116,1608.800546
2890.650869,-2220.617826,-6883.915261,1149.143247
2890.651196,-1258.350101,-7550.100608,-459.657299
2890.651524,74.020594,-9992.780217,-919.314598
2890.651851,0.000000,-10732.986159,0.000000
2890.652178,-666.185348,-9474.636058,-229.828649
2890.652506,-370.102971,-9696.697840,-1225.752797
2890.652833,518.144159,-11325.150913,-1991.848295
2890.653161,148.041188,-11843.295072,-689.485948
2890.653488,-592.164754,-9918.759623,306.438199
2890.653815,-222.061783,-8586.388927,-459.657299
2890.654143,1184.329507,-10214.842000,-1149.143247
2890.654470,1258.350101,-10658.965565,306.438199
2890.654798,148.041188,-9474.636058,2528.115143
2890.655125,0.000000,-8142.265362,1302.362347
2890.655453,0.000000,-8586.388927,-459.657299
2890.655780,-148.041188,-10288.862594,-1149.143247
2890.656107,0.000000,-10955.047942,-306.438199
2890.656435,-1184.329507,-9474.636058,-306.438199
2890.656762,-666.185348,-8660.409521,-1455.581446
2890.657090,148.041188,-10288.862594,-1455.581446
2890.657417,1776.494261,-12213.398043,-536.266849
2890.657744,2220.617826,-11177.109724,536.266849
2890.658072,1776.494261,-8808.450710,306.438199
2890.658399,1702.473667,-8586.388927,-459.657299
2890.658727,2220.617826,-10732.986159,-689.485948
2890.659054,1776.494261,-11029.068536,153.219100
2890.659381,1036.288319,-8364.327145,1149.143247
2890.659709,0.000000,-7550.100608,229.828649
2890.660036,740.205942,-9622.677246,-383.047749
2890.660364,1850.514855,-10214.842000,459.657299
2890.660691,1258.350101,-9548.656652,1532.190996
2890.661018,444.123565,-9178.553681,995.924147
2890.661346,814.226536,-9918.759623,-842.705048
2890.661673,1406.391290,-10288.862594,-1072.533697
2890.662001,148.041188,-9252.574275,459.657299
2890.662328,-1110.308913,-7846.182985,1378.971896
2890.662655,-444.123565,-8660.409521,0.000000
2890.662983,296.082377,-10288.862594,-1608.800546
2890.663310,518.144159,-11251.130318,-766.095498
2890.663638,-222.061783,-9696.697840,76.609550
2890.663965,0.000000,-8512.368333,-1225.752797
2890.664293,1184.329507,-9474.636058,-1149.143247
2890.664620,1628.453072,-11843.295072,-1378.971896
2890.664947,888.247130,-10955.047942,459.657299
2890.665275,1110.308913,-9030.512492,995.924147
2890.665602,1184.329507,-8364.327145,306.438199
2890.665930,1184.329507,-9622.677246,0.000000
2890.666257,296.082377,-10436.903782,689.485948
2890.666585,-1332.370696,-7698.141797,919.314598
2890.666912,-1480.411884,-7994.224174,-995.924147
2890.667240,-1258.350101,-11029.068536,-1991.848295
2890.667567,-518.144159,-12139.377449,-1072.533697
2890.667895,-740.205942,-10436.903782,459.657299
2890.668222,-1110.308913,-9178.553681,383.047749
2890.668550,-1110.308913,-9918.759623,0.000000
2890.668877,-148.041188,-9622.677246,-766.095498
2890.669205,-222.061783,-9400.615463,-306.438199
2890.669533,-592.164754,-7920.203579,0.000000
2890.669860,-296.082377,-7476.080014,-689.485948
2890.670188,962.267725,-9474.636058,-612.876398
2890.670515,1332.370696,-11251.130318,536.266849
2890.670843,1036.288319,-10732.986159,1455.581446
2890.671170,666.185348,-9474.636058,459.657299
2890.671498,814.226536,-9030.512492,-1149.143247
2890.671826,592.164754,-10436.903782,-383.047749
2890.672153,-592.164754,-10214.842000,1532.190996
2890.672481,-1998.556043,-8216.285956,1915.238745
2890.672808,-1554.432478,-7772.162391,-536.266849
2890.673136,-1332.370696,-9400.615463,-1915.238745
2890.673463,-1480.411884,-9844.739029,229.828649
2890.673791,-1702.473667,-7920.203579,1225.752797
2890.674119,-1036.288319,-8290.306550,0.000000
2890.674446,0.000000,-9992.780217,-2145.067394
2890.674774,2368.659014,-11843.295072,-1685.410096
2890.675101,2590.720797,-11621.233289,0.000000
2890.675429,3034.844362,-10066.800811,1685.410096
2890.675756,3182.885551,-9326.594869,612.876398
2890.676084,3034.844362,-10658.965565,-306.438199
2890.676412,2368.659014,-12065.356855,536.266849
2890.676739,370.102971,-9622.677246,612.876398
2890.677067,-666.185348,-7031.956449,-153.219100
2890.677394,-962.267725,-7402.059420,-1225.752797
2890.677722,0.000000,-9844.739029,-995.924147
2890.678049,-666.185348,-9622.677246,229.828649
2890.678377,-444.123565,-9178.553681,306.438199
2890.678705,888.247130,-9844.739029,-1225.752797
2890.679032,1850.514855,-10955.047942,-1532.190996
2890.679360,1036.288319,-11399.171507,-306.438199
2890.679687,-592.164754,-9474.636058,689.485948
2890.680015,-370.102971,-9030.512492,76.609550
2890.680342,2072.576638,-10362.883188,-1762.019645
2890.680670,2442.679609,-12065.356855,-766.095498
2890.680998,1776.494261,-10214.842000,995.924147
2890.681325,222.061783,-7328.038826,1302.362347
2890.681653,0.000000,-8290.306550,-306.438199
2890.681980,666.185348,-10732.986159,-1149.143247
2890.682308,222.061783,-9770.718434,306.438199
2890.682635,-888.247130,-6883.915261,1225.752797
2890.682963,1036.288319,-7550.100608,0.000000
2890.683291,2072.576638,-10288.862594,0.000000
2890.683618,1850.514855,-11251.130318,306.438199
2890.683946,370.102971,-9844.739029,1378.971896
2890.684273,-518.144159,-9104.533087,153.219100
2890.684601,0.000000,-10140.821405,-2298.286494
2890.684928,-518.144159,-11769.274478,-1915.238745
2890.685256,-2294.638420,-10066.800811,-766.095498
2890.685584,-2886.803174,-8438.347739,76.609550
2890.685911,-1480.411884,-9400.615463,-919.314598
2890.686239,-296.082377,-10140.821405,-1532.190996
2890.686566,-148.041188,-10881.027347,-306.438199
2890.686894,148.041188,-9178.553681,1302.362347
2890.687221,444.123565,-7698.141797,995.924147
2890.687549,740.205942,-9326.594869,0.000000
2890.687877,1258.350101,-11029.068536,536.266849
2890.688204,-74.020594,-9844.739029,1302.362347
2890.688532,-370.102971,-9326.594869,689.485948
2890.688859,-814.226536,-9326.594869,-995.924147
2890.689187,-814.226536,-10955.047942,-2604.724693
2890.689514,-1998.556043,-10288.862594,-229.828649
2890.689842,-1332.370696,-9622.677246,-1072.533697
2890.690170,0.000000,-9548.656652,-1378.971896
2890.690497,666.185348,-10288.862594,-1149.143247
2890.690825,814.226536,-10066.800811,612.876398
2890.691152,370.102971,-8808.450710,2068.457845
2890.691480,74.020594,-7698.141797,1455.581446
2890.691807,296.082377,-9104.533087,-306.438199
2890.692135,666.185348,-10288.862594,-995.924147
2890.692463,814.226536,-10584.944971,-306.438199
2890.692790,222.061783,-9030.512492,0.000000
2890.693118,962.267725,-9178.553681,-842.705048
2890.693445,1702.473667,-11325.150913,-1302.362347
2890.693773,2516.700203,-13101.645173,-383.047749
2890.694100,1480.411884,-10362.883188,-229.828649
2890.694428,1702.473667,-7624.121203,-383.047749
2890.694756,1702.473667,-7402.059420,-842.705048
2890.695083,1702.473667,-8808.450710,76.609550
2890.695411,296.082377,-9474.636058,1608.800546
2890.695738,0.000000,-7550.100608,1455.581446
2890.696066,888.247130,-7846.182985,-995.924147
2890.696393,1628.453072,-10584.944971,-1762.019645
2890.696721,1110.308913,-10510.924376,0.000000
2890.697049,-962.267725,-8956.491898,459.657299
2890.697376,-296.082377,-9622.677246,-689.485948
2890.697704,1110.308913,-11843.295072,-1915.238745
2890.698031,2072.576638,-12953.603985,-1532.190996
2890.698359,962.267725,-11325.150913,383.047749
2890.698686,296.082377,-8956.491898,1685.410096
2890.699014,962.267725,-9252.574275,842.705048
2890.699342,1258.350101,-10658.965565,76.609550
2890.699669,222.061783,-10732.986159,919.314598
2890.699997,-296.082377,-8068.244768,459.657299
2890.700324,-222.061783,-6883.915261,-842.705048
2890.700652,148.041188,-9178.553681,-1302.362347
2890.700979,444.123565,-10288.862594,229.828649
2890.701307,-148.041188,-9252.574275,2145.067394
2890.701634,-518.144159,-8512.368333,1149.143247
2890.701962,962.267725,-9844.739029,-842.705048
2890.702290,1258.350101,-10732.986159,-919.314598
2890.702617,0.000000,-8956.491898,995.924147
2890.702945,-2368.659014,-6587.832884,1838.629195
2890.703272,-2442.679609,-8512.368333,612.876398
2890.703600,-666.185348,-11325.150913,-1608.800546
2890.703927,148.041188,-11769.274478,-995.924147
2890.704255,-666.185348,-9400.615463,76.609550
2890.704583,-592.164754,-8734.430116,153.219100
2890.704910,0.000000,-10362.883188,-689.485948
2890.705238,444.123565,-11843.295072,-383.047749
2890.705565,-222.061783,-9696.697840,0.000000
2890.705893,0.000000,-7179.997637,-153.219100
2890.706220,222.061783,-7105.977043,-995.924147
2890.706548,814.226536,-10140.821405,-459.657299
2890.706876,0.000000,-11029.068536,536.266849
2890.707203,-1036.288319,-9696.697840,689.485948
2890.707531,-666.185348,-9770.718434,-919.314598
2890.707858,666.185348,-10584.944971,-2451.505594
2890.708186,666.185348,-10584.944971,-1532.190996
2890.708513,-1480.411884,-9400.615463,0.000000
2890.708841,-1406.391290,-9030.512492,306.438199
2890.709169,-296.082377,-9622.677246,-612.876398
2890.709496,740.205942,-11177.109724,-689.485948
2890.709824,-296.082377,-10288.862594,0.000000
2890.710151,-592.164754,-8068.244768,459.657299
2890.710479,74.020594,-8290.306550,-1072.533697
2890.710806,888.247130,-11103.089130,-2221.676944
2890.711134,2368.659014,-12139.377449,-995.924147
2890.711462,2294.638420,-9622.677246,229.828649
2890.711789,2442.679609,-7994.224174,842.705048
2890.712117,3256.906145,-9104.533087,153.219100
2890.712444,2886.803174,-10732.986159,536.266849
2890.712772,1406.391290,-9992.780217,1149.143247
2890.713099,518.144159,-8290.306550,1225.752797
2890.713427,370.102971,-7920.203579,-459.657299
2890.713755,962.267725,-8660.409521,-689.485948
2890.714082,592.164754,-9178.553681,612.876398
2890.714410,-1184.329507,-8068.244768,1225.752797
2890.714737,-962.267725,-9104.533087,-229.828649
2890.715065,666.185348,-10436.903782,-1915.238745
2890.715392,1628.453072,-11621.233289,-2145.067394
2890.715720,222.061783,-10658.965565,-229.828649
2890.716048,-370.102971,-9326.594869,459.657299
2890.716375,962.267725,-10288.862594,-612.876398
2890.716703,3552.988522,-12435.459826,-919.314598
2890.717030,1924.535449,-11843.295072,-229.828649
2890.717358,222.061783,-8882.471304,1378.971896
2890.717685,296.082377,-7105.977043,306.438199
2890.718013,518.144159,-8808.450710,-689.485948
2890.718341,0.000000,-9844.739029,-383.047749
2890.718668,-1480.411884,-8808.450710,459.657299
2890.718996,-2072.576638,-8142.265362,153.219100
2890.719323,-666.185348,-7994.224174,-1225.752797
2890.719651,1110.308913,-9918.759623,-1915.238745
2890.719978,0.000000,-10732.986159,0.000000
2890.720306,-1110.308913,-11029.068536,689.485948
2890.720634,74.020594,-11399.171507,-383.047749
2890.720961,1776.494261,-11917.315666,-2298.286494
2890.721289,1258.350101,-11991.336260,-1225.752797
2890.721616,-740.205942,-9844.739029,1072.533697
2890.721944,-2590.720797,-7476.080014,536.266849
2890.722271,-592.164754,-9992.780217,-1225.752797
2890.722599,444.123565,-11621.233289,-1608.800546
2890.722927,-1110.308913,-9474.636058,0.000000
2890.723254,-1924.535449,-6513.812290,766.095498
2890.723582,-222.061783,-7031.956449,766.095498
2890.723909,444.123565,-9400.615463,536.266849
2890.724237,666.185348,-9844.739029,919.314598
2890.724564,0.000000,-8290.306550,919.314598
2890.724892,-666.185348,-7994.224174,842.705048
2890.725220,74.020594,-9474.636058,-689.485948
2890.725547,-148.041188,-10436.903782,-1302.362347
2890.725875,-2146.597232,-9696.697840,-689.485948
2890.726202,-2072.576638,-8586.388927,-842.705048
2890.726530,-222.061783,-10436.903782,-1991.848295
2890.726857,1554.432478,-11029.068536,-1072.533697
2890.727185,1628.453072,-10955.047942,153.219100
2890.727513,370.102971,-9474.636058,1455.581446
2890.727840,518.144159,-8364.327145,459.657299
2890.728168,2220.617826,-9844.739029,-842.705048
2890.728495,2146.597232,-10807.006753,76.609550
2890.728823,1406.391290,-10066.800811,1225.752797
2890.729150,888.247130,-8068.244768,1455.581446
2890.729478,1258.350101,-8216.285956,0.000000
2890.729806,1110.308913,-11177.109724,-995.924147
2890.730133,814.226536,-12065.356855,-459.657299
2890.730461,666.185348,-9474.636058,-842.705048
2890.730788,814.226536,-8808.450710,-1532.190996
2890.731116,1998.556043,-9400.615463,-2451.505594
2890.731443,1036.288319,-9622.677246,0.000000
2890.731771,-740.205942,-8882.471304,2451.505594
2890.732098,-296.082377,-8660.409521,1532.190996
2890.732426,1406.391290,-9770.718434,-1072.533697
2890.732754,2590.720797,-11325.150913,-1455.581446
2890.733081,888.247130,-10066.800811,0.000000
2890.733409,0.000000,-8734.430116,229.828649
2890.733736,1480.411884,-9770.718434,-306.438199
2890.734064,1998.556043,-11399.171507,-919.314598
2890.734391,1554.432478,-12509.480420,-459.657299
2890.734719,518.144159,-10214.842000,153.219100
2890.735047,0.000000,-8216.285956,229.828649
2890.735374,296.082377,-9474.636058,306.438199
2890.735702,370.102971,-10140.821405,383.047749
2890.736029,-1332.370696,-8512.368333,995.924147
2890.736357,-1110.308913,-6661.853478,536.266849
2890.736684,0.000000,-7254.018232,-1149.143247
2890.737012,592.164754,-9548.656652,-1225.752797
2890.737340,-666.185348,-9474.636058,995.924147
2890.737667,-1776.494261,-7476.080014,1532.190996
2890.737995,-740.205942,-8956.491898,-229.828649
2890.738322,1110.308913,-11621.233289,-1915.238745
2890.738650,1258.350101,-11917.315666,-1149.143247
2890.738977,-518.144159,-9548.656652,0.000000
2890.739305,-740.205942,-9104.533087,0.000000
2890.739633,222.061783,-11769.274478,-459.657299
2890.739960,888.247130,-12657.521608,-842.705048
2890.740288,1258.350101,-11177.109724,383.047749
2890.740615,0.000000,-8438.347739,536.266849
2890.740943,-592.164754,-8142.265362,-459.657299
2890.741270,-518.144159,-9696.697840,-1149.143247
2890.741598,-1110.308913,-9400.615463,-459.657299
2890.741926,-2442.679609,-7698.141797,-842.705048
2890.742253,-2146.597232,-7846.182985,-995.924147
2890.742581,666.185348,-9104.533087,-1608.800546
2890.742908,1628.453072,-11029.068536,-689.485948
2890.743236,-592.164754,-10955.047942,1302.362347
2890.743563,-1184.329507,-10214.842000,1532.190996
2890.743891,74.020594,-9770.718434,-1225.752797
2890.744219,1776.494261,-10658.965565,-2221.676944
2890.744546,370.102971,-10955.047942,0.000000
2890.744874,-1110.308913,-9622.677246,1991.848295
2890.745201,518.144159,-8512.368333,536.266849
2890.745529,1184.329507,-10214.842000,-1225.752797
2890.745856,592.164754,-11547.212695,-229.828649
2890.746184,0.000000,-9844.739029,919.314598
2890.746512,-518.144159,-8142.265362,229.828649
2890.746839,296.082377,-8364.327145,-1532.190996
2890.747167,1036.288319,-10066.800811,-1455.581446
2890.747494,666.185348,-9548.656652,612.876398
2890.747822,1110.308913,-7772.162391,459.657299
2890.748149,1628.453072,-8216.285956,-306.438199
2890.748477,2368.659014,-10214.842000,-459.657299
2890.748805,1776.494261,-10362.883188,229.828649
2890.749132,-518.144159,-9622.677246,1225.752797
2890.749460,148.041188,-9474.636058,-229.828649
2890.749787,888.247130,-10066.800811,-1762.019645
2890.750115,2220.617826,-11103.089130,-1532.190996
2890.750442,1776.494261,-10584.944971,0.000000
2890.750770,740.205942,-9474.636058,1225.752797
2890.751098,1406.391290,-9844.739029,76.609550
2890.751425,2368.659014,-11399.171507,-1149.143247
2890.751753,1406.391290,-10955.047942,-842.705048
2890.752080,222.061783,-9326.594869,-229.828649
2890.752408,-962.267725,-8290.306550,0.000000
2890.752735,74.020594,-9770.718434,-995.924147
2890.753063,1702.473667,-11177.109724,-1838.629195
2890.753391,1110.308913,-10955.047942,-229.828649
2890.753718,74.020594,-9178.553681,842.705048
2890.754046,74.020594,-9178.553681,-229.828649
2890.754373,370.102971,-8068.244768,-995.924147
2890.754701,-592.164754,-8882.471304,383.047749
2890.755028,-2368.659014,-7846.182985,1685.410096
2890.755356,-1628.453072,-7476.080014,766.095498
2890.755684,148.041188,-9178.553681,-689.485948
2890.756011,592.164754,-11473.192101,-612.876398
2890.756339,-888.247130,-10658.965565,459.657299
2890.756666,-1332.370696,-9178.553681,-536.266849
2890.756994,888.247130,-11399.171507,-1608.800546
2890.757321,1628.453072,-13101.645173,-1532.190996
2890.757649,888.247130,-11843.295072,0.000000
2890.757977,-666.185348,-8734.430116,1378.971896
2890.758304,-1406.391290,-7476.080014,766.095498
2890.758632,-592.164754,-9104.533087,-612.876398
2890.758959,-1628.453072,-9918.759623,306.438199
2890.759287,-1924.535449,-7624.121203,612.876398
2890.759614,-1628.453072,-6439.791695,-153.219100
2890.759942,-592.164754,-7550.100608,-1149.143247
2890.760270,0.000000,-9844.739029,-459.657299
2890.760597,-962.267725,-10066.800811,766.095498
2890.760925,-592.164754,-9548.656652,689.485948
2890.761252,370.102971,-10214.842000,-1455.581446
2890.761580,1924.535449,-11843.295072,-1915.238745
2890.761907,1258.350101,-12213.398043,-1225.752797
2890.762235,296.082377,-11177.109724,76.609550
2890.762563,888.247130,-10066.800811,-612.876398
2890.762890,1628.453072,-11029.068536,-1149.143247
2890.763218,2146.597232,-11843.295072,-766.095498
2890.763545,1258.350101,-9696.697840,612.876398
2890.763873,0.000000,-7328.038826,306.438199
2890.764200,0.000000,-7846.182985,0.000000
2890.764528,518.144159,-9844.739029,-383.047749
2890.764856,444.123565,-9178.553681,-153.219100
2890.765183,-888.247130,-7179.997637,383.047749
2890.765511,74.020594,-7920.203579,-459.657299
2890.765838,2072.576638,-9474.636058,-1378.971896
2890.766166,2960.823768,-10732.986159,-306.438199
2890.766494,666.185348,-10362.883188,1532.190996
2890.766821,-592.164754,-9030.512492,1072.533697
2890.767149,962.267725,-8882.471304,-1302.362347
2890.767476,2368.659014,-9622.677246,-2604.724693
2890.767804,1332.370696,-10732.986159,-612.876398
2890.768132,1036.288319,-10436.903782,1378.971896
2890.768459,1628.453072,-9178.553681,459.657299
2890.768787,2590.720797,-10584.944971,-229.828649
2890.769115,2516.700203,-11473.192101,-306.438199
2890.769442,444.123565,-9178.553681,536.266849
2890.769770,-592.164754,-6957.935855,459.657299
2890.770097,518.144159,-8882.471304,-459.657299
2890.770425,1036.288319,-11621.233289,-1608.800546
2890.770753,0.000000,-10807.006753,229.828649
2890.771080,-1036.288319,-9252.574275,766.095498
2890.771408,-740.205942,-8882.471304,-766.095498
2890.771736,296.082377,-10955.047942,-2068.457845
2890.772063,-518.144159,-11399.171507,-459.657299
2890.772391,-2368.659014,-9844.739029,1149.143247
2890.772718,-1480.411884,-8142.265362,-995.924147
2890.773046,740.205942,-8734.430116,-2145.067394
2890.773374,1110.308913,-10436.903782,-689.485948
2890.773701,-444.123565,-10362.883188,2298.286494
2890.774029,-740.205942,-8438.347739,2145.067394
2890.774357,518.144159,-8734.430116,-383.047749
2890.774684,1184.329507,-11029.068536,-1378.971896
2890.775012,-296.082377,-10436.903782,0.000000
2890.775339,-2368.659014,-7846.182985,1149.143247
2890.775667,-2368.659014,-8586.388927,-229.828649
2890.775995,-1110.308913,-11325.150913,-1608.800546
2890.776322,0.000000,-12361.439231,-995.924147
2890.776650,0.000000,-9252.574275,766.095498
2890.776977,0.000000,-7254.018232,766.095498
2890.777305,444.123565,-8068.244768,0.000000
2890.777633,0.000000,-9474.636058,-229.828649
2890.777960,-1258.350101,-8808.450710,153.219100
2890.778288,-1998.556043,-7254.018232,0.000000
2890.778616,-962.267725,-8290.306550,-1608.800546
2890.778943,1332.370696,-10510.924376,-1608.800546
2890.779271,1924.535449,-12509.480420,-383.047749
2890.779598,444.123565,-11621.233289,919.314598
2890.779926,962.267725,-10214.842000,0.000000
2890.780254,2220.617826,-11399.171507,-2145.067394
2890.780581,2146.597232,-11769.274478,-1991.848295
2890.780909,148.041188,-9918.759623,76.609550
2890.781237,0.000000,-7920.203579,842.705048
2890.781564,592.164754,-9030.512492,536.266849
2890.781892,1036.288319,-9770.718434,-153.219100
2890.782219,148.041188,-9918.759623,0.000000
2890.782547,-1036.288319,-9474.636058,0.000000
2890.782875,-740.205942,-9178.553681,-2145.067394
2890.783202,370.102971,-10288.862594,-3524.039291
2890.783530,888.247130,-10658.965565,-2374.896044
2890.783857,1184.329507,-9474.636058,536.266849
2890.784185,1702.473667,-8512.368333,1532.190996
2890.784513,3108.864956,-9844.739029,842.705048
2890.784840,4071.132681,-11399.171507,306.438199
2890.785168,2590.720797,-11251.130318,1072.533697
2890.785496,666.185348,-9326.594869,1378.971896
2890.785823,222.061783,-8586.388927,536.266849
2890.786151,1702.473667,-9770.718434,-1915.238745
2890.786478,1480.411884,-10510.924376,-459.657299
2890.786806,74.020594,-9548.656652,995.924147
2890.787134,74.020594,-8068.244768,766.095498
2890.787461,1554.432478,-8882.471304,-612.876398
2890.787789,1776.494261,-11029.068536,-536.266849
2890.788117,222.061783,-10140.821405,1072.533697
2890.788444,-1110.308913,-7254.018232,1838.629195
2890.788772,-444.123565,-8068.244768,-689.485948
2890.789099,-148.041188,-9474.636058,-1608.800546
2890.789427,518.144159,-10807.006753,-306.438199
2890.789755,-1110.308913,-9622.677246,1455.581446
2890.790082,-1332.370696,-8734.430116,689.485948
2890.790410,0.000000,-9252.574275,-1072.533697
2890.790737,0.000000,-10658.965565,-1455.581446
2890.791065,-1258.350101,-10436.903782,-459.657299
2890.791393,-1258.350101,-8882.471304,536.266849
2890.791720,0.000000,-8660.409521,-612.876398
2890.792048,1554.432478,-11103.089130,-995.924147
2890.792376,1406.391290,-11917.315666,76.609550
2890.792703,666.185348,-10436.903782,842.705048
2890.793031,0.000000,-9030.512492,-383.047749
2890.793358,962.267725,-10881.027347,-1762.019645
2890.793686,296.082377,-12731.542202,-2068.457845
2890.794014,-1258.350101,-10362.883188,-919.314598
2890.794341,-2294.638420,-7698.141797,-689.485948
2890.794669,-1554.432478,-8956.491898,-995.924147
2890.794997,0.000000,-10584.944971,-766.095498
2890.795324,-370.102971,-10510.924376,229.828649
2890.795652,-2146.597232,-7846.182985,459.657299
2890.795979,-1998.556043,-7550.100608,-306.438199
2890.796307,0.000000,-9474.636058,-1532.190996
2890.796635,740.205942,-10214.842000,-689.485948
2890.796962,0.000000,-9770.718434,842.705048
2890.797290,296.082377,-9474.636058,536.266849
2890.797617,1998.556043,-9992.780217,229.828649
2890.797945,3034.844362,-11917.315666,-1149.143247
2890.798273,1924.535449,-11621.233289,-459.657299
2890.798600,-370.102971,-8586.388927,995.924147
2890.798928,-148.041188,-8068.244768,536.266849
2890.799256,222.061783,-9622.677246,-383.047749
2890.799583,0.000000,-9400.615463,-766.095498
2890.799911,-1332.370696,-6883.915261,766.095498
2890.800238,-1110.308913,-6809.894666,612.876398
2890.800566,888.247130,-8586.388927,229.828649
2890.800894,2072.576638,-10140.821405,-306.438199
2890.801221,814.226536,-10584.944971,612.876398
2890.801549,-370.102971,-9696.697840,766.095498
2890.801877,1554.432478,-10066.800811,-919.314598
2890.802204,2590.720797,-10955.047942,-1762.019645
2890.802532,2368.659014,-11843.295072,-1532.190996
2890.802859,-222.061783,-10584.944971,1072.533697
2890.803187,592.164754,-9474.636058,306.438199
2890.803515,2590.720797,-10362.883188,-1225.752797
2890.803842,2516.700203,-11769.274478,-689.485948
2890.804170,222.061783,-10436.903782,1149.143247
2890.804497,-1480.411884,-8068.244768,153.219100
2890.804825,0.000000,-7698.141797,-2145.067394
2890.805153,1110.308913,-9770.718434,-1455.581446
2890.805480,148.041188,-9548.656652,383.047749
2890.805808,-592.164754,-8586.388927,1762.019645
2890.806136,888.247130,-9844.739029,383.047749
2890.806463,2220.617826,-11621.233289,-1762.019645
2890.806791,1406.391290,-12213.398043,-1225.752797
2890.807118,-1036.288319,-10140.821405,919.314598
2890.807446,-2368.659014,-8290.306550,0.000000
2890.807774,-1258.350101,-8586.388927,-1302.362347
2890.808101,-296.082377,-10214.842000,-1302.362347
2890.808429,-740.205942,-11029.068536,612.876398
2890.808757,-1184.329507,-9030.512492,1378.971896
2890.809084,222.061783,-7698.141797,-153.219100
2890.809412,1258.350101,-9252.574275,-1378.971896
2890.809739,1184.329507,-10807.006753,0.000000
2890.810067,-740.205942,-8734.430116,1225.752797
2890.810395,-222.061783,-7698.141797,689.485948
2890.810722,1110.308913,-9252.574275,-842.705048
2890.811050,2220.617826,-11843.295072,-766.095498
2890.811377,370.102971,-10436.903782,1072.533697
2890.811705,-592.164754,-8068.244768,1302.362347
2890.812033,74.020594,-8882.471304,-229.828649
2890.812360,1406.391290,-10436.903782,-1685.410096
2890.812688,-444.123565,-9696.697840,-536.266849
2890.813016,-2886.803174,-7550.100608,459.657299
2890.813343,-2664.741391,-8364.327145,0.000000
2890.813671,666.185348,-10881.027347,-1762.019645
2890.813998,2294.638420,-11769.274478,-1072.533697
2890.814326,2146.597232,-10955.047942,1378.971896
2890.814654,1850.514855,-9770.718434,1762.019645
2890.814981,2812.782580,-10955.047942,-612.876398
2890.815309,2590.720797,-12435.459826,-2451.505594
2890.815637,222.061783,-11251.130318,-1378.971896
2890.815964,-2442.679609,-7994.224174,306.438199
2890.816292,-1998.556043,-7328.038826,-153.219100
2890.816619,370.102971,-9770.718434,-1072.533697
2890.816947,1258.350101,-12139.377449,383.047749
2890.817275,74.020594,-9992.780217,2145.067394
2890.817602,74.020594,-8290.306550,1302.362347
2890.817930,1554.432478,-8216.285956,-1532.190996
2890.818257,370.102971,-9326.594869,-2374.896044
2890.818585,-1036.288319,-9030.512492,229.828649
2890.818913,-2442.679609,-7846.182985,1685.410096
2890.819240,0.000000,-8734.430116,0.000000
2890.819568,1998.556043,-11399.171507,-1149.143247
2890.819896,1776.494261,-13027.624579,0.000000
2890.820223,1258.350101,-11547.212695,536.266849
2890.820551,1702.473667,-9918.759623,-1378.971896
2890.820878,2368.659014,-9770.718434,-2221.676944
2890.821206,2664.741391,-10732.986159,-612.876398
2890.821534,444.123565,-9474.636058,1991.848295
2890.821861,0.000000,-7031.956449,2987.772442
2890.822189,740.205942,-5921.647536,766.095498
2890.822517,1998.556043,-8512.368333,-612.876398
2890.822844,148.041188,-9622.677246,0.000000
2890.823172,-518.144159,-9104.533087,229.828649
2890.823499,-962.267725,-7920.203579,-1991.848295
2890.823827,592.164754,-10066.800811,-3753.867940
2890.824155,814.226536,-12805.562797,-2145.067394
2890.824482,-666.185348,-10807.006753,229.828649
2890.824810,-666.185348,-8882.471304,1072.533697
2890.825137,1480.411884,-10510.924376,-689.485948
2890.825465,3256.906145,-13323.706956,-1608.800546
2890.825793,962.267725,-11769.274478,306.438199
2890.826120,-1036.288319,-7994.224174,1072.533697
2890.826448,-1184.329507,-7105.977043,-306.438199
2890.826776,0.000000,-9992.780217,-1225.752797
2890.827103,0.000000,-10584.944971,-229.828649
2890.827431,-1036.288319,-8438.347739,612.876398
2890.827758,-518.144159,-7179.997637,1302.362347
2890.828086,814.226536,-9400.615463,-842.705048
2890.828414,1036.288319,-11917.315666,-995.924147
2890.828741,-444.123565,-10510.924376,-229.828649
2890.829069,-740.205942,-8734.430116,229.828649
2890.829397,666.185348,-9548.656652,-919.314598
2890.829724,2072.576638,-10955.047942,-1915.238745
2890.830052,1258.350101,-10807.006753,766.095498
2890.830379,-1850.514855,-8660.409521,2145.067394
2890.830707,-2368.659014,-8142.265362,536.266849
2890.831035,-962.267725,-9548.656652,-1915.238745
2890.831362,-444.123565,-9844.739029,-2221.676944
2890.831690,-1406.391290,-9326.594869,459.657299
2890.832017,-1110.308913,-7920.203579,1302.362347
2890.832345,1776.494261,-8808.450710,-229.828649
2890.832673,2812.782580,-10732.986159,229.828649
2890.833000,1998.556043,-11325.150913,1302.362347
2890.833328,814.226536,-10140.821405,1532.190996
2890.833656,370.102971,-8290.306550,0.000000
2890.833983,666.185348,-8734.430116,-1608.800546
2890.834311,814.226536,-10140.821405,-1225.752797
2890.834638,-1702.473667,-8808.450710,919.314598
2890.834966,-592.164754,-8068.244768,0.000000
2890.835294,740.205942,-9992.780217,-2298.286494
2890.835621,1406.391290,-11991.336260,-1915.238745
2890.835949,-666.185348,-10732.986159,229.828649
2890.836277,-2294.638420,-8068.244768,919.314598
2890.836604,-666.185348,-7846.182985,0.000000
2890.836932,1554.432478,-9992.780217,-1302.362347
2890.837259,1776.494261,-12065.356855,-229.828649
2890.837587,1332.370696,-11177.109724,1072.533697
2890.837915,888.247130,-9252.574275,766.095498
2890.838242,1702.473667,-10584.944971,-1072.533697
2890.838570,1332.370696,-12509.480420,-1685.410096
2890.838897,-888.247130,-11843.295072,0.000000
2890.839225,-1776.494261,-7994.224174,76.609550
2890.839553,-1406.391290,-7550.100608,-995.924147
2890.839880,148.041188,-10140.821405,-2145.067394
2890.840208,518.144159,-10732.986159,-536.266849
2890.840536,-518.144159,-8068.244768,1762.019645
2890.840863,74.020594,-6735.874072,1685.410096
2890.841191,1924.535449,-8290.306550,0.000000
2890.841518,2220.617826,-9030.512492,-459.657299
2890.841846,444.123565,-9252.574275,612.876398
2890.842174,-888.247130,-9030.512492,1532.190996
2890.842501,592.164754,-9992.780217,-689.485948
2890.842829,2220.617826,-11843.295072,-2221.676944
2890.843157,592.164754,-11621.233289,-995.924147
2890.843484,-666.185348,-8734.430116,1455.581446
2890.843812,1184.329507,-9400.615463,76.609550
2890.844139,2516.700203,-11103.089130,-536.266849
2890.844467,1184.329507,-11473.192101,76.609550
2890.844795,-962.267725,-8142.265362,1685.410096
2890.845122,-1332.370696,-5847.626942,842.705048
2890.845450,148.041188,-6957.935855,-1225.752797
2890.845777,814.226536,-9400.615463,153.219100
2890.846105,-296.082377,-9474.636058,612.876398
2890.846433,-222.061783,-9400.615463,1072.533697
2890.846760,888.247130,-10214.842000,-1838.629195
2890.847088,1406.391290,-11325.150913,-2987.772442
2890.847416,370.102971,-11917.315666,-842.705048
2890.847743,-1110.308913,-10362.883188,1378.971896
2890.848071,-814.226536,-9030.512492,536.266849
2890.848398,1332.370696,-9622.677246,-919.314598
2890.848726,1628.453072,-11547.212695,-842.705048
2890.849054,0.000000,-10732.986159,842.705048
2890.849381,-1036.288319,-8956.491898,1455.581446
2890.849709,-444.123565,-9030.512492,-612.876398
2890.850037,148.041188,-10658.965565,-2298.286494
2890.850364,-148.041188,-11473.192101,-1762.019645
2890.850692,-814.226536,-8734.430116,0.000000
2890.851019,370.102971,-7402.059420,0.000000
2890.851347,1628.453072,-10066.800811,-536.266849
2890.851675,1480.411884,-11325.150913,229.828649
2890.852002,222.061783,-9326.594869,1378.971896
2890.852330,518.144159,-7328.038826,1685.410096
2890.852657,1628.453072,-7550.100608,-612.876398
2890.852985,2146.597232,-9030.512492,-766.095498
2890.853313,-518.144159,-10140.821405,612.876398
2890.853640,-2812.782580,-8956.491898,1762.019645
2890.853968,-592.164754,-9326.594869,-306.438199
2890.854296,2220.617826,-11251.130318,-2221.676944
2890.854623,2368.659014,-12435.459826,-1149.143247
2890.854951,740.205942,-10732.986159,459.657299
2890.855278,814.226536,-8438.347739,153.219100
2890.855606,1406.391290,-9326.594869,-1685.410096
2890.855934,1480.411884,-12213.398043,-2145.067394
2890.856261,0.000000,-10214.842000,76.609550
2890.856589,-148.041188,-7624.121203,1302.362347
2890.856917,888.247130,-7994.224174,536.266849
2890.857244,1406.391290,-11325.150913,-1302.362347
2890.857572,0.000000,-11695.253884,0.000000
2890.857899,-1036.288319,-9252.574275,919.314598
2890.858227,0.000000,-7994.224174,-1225.752797
2890.858555,962.267725,-9104.533087,-2068.457845
2890.858882,296.082377,-9622.677246,-383.047749
2890.859210,-1628.453072,-8068.244768,2757.943793
2890.859537,-1850.514855,-8438.347739,2451.505594
2890.859865,-370.102971,-10140.821405,-612.876398
2890.860193,888.247130,-11843.295072,-2604.724693
2890.860520,518.144159,-11695.253884,-1915.238745
2890.860848,0.000000,-11177.109724,0.000000
2890.861176,592.164754,-10510.924376,0.000000
2890.861503,1702.473667,-10288.862594,-1225.752797
2890.861831,1554.432478,-10732.986159,-766.095498
2890.862158,0.000000,-9474.636058,1149.143247
2890.862486,-962.267725,-7328.038826,1838.629195
2890.862814,-296.082377,-7105.977043,536.266849
2890.863141,-370.102971,-7994.224174,-229.828649
2890.863469,-1184.329507,-8364.327145,612.876398
2890.863797,-1776.494261,-7254.018232,1608.800546
2890.864124,0.000000,-7328.038826,-306.438199
2890.864452,2072.576638,-9770.718434,-2145.067394
2890.864779,1776.494261,-11177.109724,-1149.143247
2890.865107,370.102971,-11103.089130,766.095498
2890.865435,0.000000,-10584.944971,229.828649
2890.865762,1332.370696,-11695.253884,-1378.971896
2890.866090,1850.514855,-12583.501014,-1991.848295
2890.866417,370.102971,-11769.274478,-536.266849
2890.866745,-888.247130,-9252.574275,0.000000
2890.867073,-222.061783,-9030.512492,-995.924147
2890.867400,592.164754,-10510.924376,-1302.362347
2890.867728,0.000000,-11251.130318,-153.219100
2890.868055,-1480.411884,-8586.388927,612.876398
2890.868383,-1702.473667,-6513.812290,76.609550
2890.868710,-444.123565,-7550.100608,-1532.190996
2890.869038,0.000000,-11029.068536,-766.095498
2890.869365,-814.226536,-10362.883188,1455.581446
2890.869693,74.020594,-8512.368333,612.876398
2890.870020,2146.597232,-8808.450710,-1225.752797
2890.870348,3404.947333,-11325.150913,-1149.143247
2890.870675,1776.494261,-10955.047942,689.485948
2890.871003,0.000000,-9326.594869,1455.581446
2890.871331,-814.226536,-8068.244768,306.438199
2890.871658,888.247130,-9548.656652,-1685.410096
2890.871986,1110.308913,-10510.924376,-1302.362347
2890.872313,-370.102971,-8882.471304,1149.143247
2890.872641,0.000000,-8438.347739,1608.800546
2890.872968,1702.473667,-9622.677246,0.000000
2890.873296,2442.679609,-11177.109724,-612.876398
2890.873623,740.205942,-10584.944971,689.485948
2890.873951,0.000000,-8438.347739,1072.533697
2890.874278,148.041188,-6661.853478,0.000000
2890.874606,814.226536,-9918.759623,-1072.533697
2890.874934,0.000000,-11695.253884,0.000000
2890.875261,-1628.453072,-9622.677246,919.314598
2890.875589,-1258.350101,-8364.327145,-842.705048
2890.875916,74.020594,-9474.636058,-2604.724693
2890.876244,666.185348,-10362.883188,-2834.553343
2890.876571,-296.082377,-10436.903782,0.000000
2890.876899,-1110.308913,-9104.533087,1685.410096
2890.877226,1332.370696,-9104.533087,229.828649
2890.877554,3552.988522,-9844.739029,-766.095498
2890.877881,2590.720797,-11177.109724,1072.533697
2890.878209,222.061783,-9622.677246,1762.019645
2890.878537,370.102971,-9548.656652,-383.047749
2890.878864,888.247130,-10066.800811,-2757.943793
2890.879192,1332.370696,-12657.521608,-1991.848295
2890.879519,296.082377,-11695.253884,229.828649
2890.879847,-666.185348,-8586.388927,1225.752797
2890.880174,0.000000,-8956.491898,-383.047749
2890.880502,814.226536,-11177.109724,-1762.019645
2890.880829,-888.247130,-10436.903782,-689.485948
2890.881157,-1998.556043,-7105.977043,766.095498
2890.881484,-814.226536,-5699.585753,229.828649
2890.881812,962.267725,-7624.121203,0.000000
2890.882140,1258.350101,-9326.594869,919.314598
2890.882467,-666.185348,-8956.491898,2528.115143
2890.882795,-1406.391290,-8142.265362,1685.410096
2890.883122,222.061783,-9770.718434,-1838.629195
2890.883450,888.247130,-12065.356855,-2604.724693
2890.883777,-148.041188,-11843.295072,-919.314598
2890.884105,-518.144159,-9696.697840,229.828649
2890.884432,1036.288319,-9770.718434,0.000000
2890.884760,2368.659014,-11917.315666,-919.314598
2890.885087,1406.391290,-11991.336260,153.219100
2890.885415,-592.164754,-8512.368333,1685.410096
2890.885743,-1184.329507,-6661.853478,766.095498
2890.886070,-518.144159,-8438.347739,-766.095498
2890.886398,-370.102971,-9696.697840,-1302.362347
2890.886725,-1184.329507,-9178.553681,229.828649
2890.887053,-518.144159,-8438.347739,536.266849
2890.887380,814.226536,-9252.574275,-383.047749
2890.887708,1776.494261,-10807.006753,-1225.752797
2890.888035,666.185348,-11251.130318,229.828649
2890.888363,-296.082377,-9400.615463,1455.581446
2890.888690,0.000000,-8142.265362,76.609550
2890.889018,1184.329507,-10510.924376,-1302.362347
2890.889346,1406.391290,-12213.398043,-689.485948
2890.889673,666.185348,-10658.965565,1072.533697
2890.890001,0.000000,-8882.471304,1532.190996
2890.890328,666.185348,-10362.883188,-383.047749
2890.890656,1184.329507,-11399.171507,-1838.629195
2890.890983,-518.144159,-11177.109724,-842.705048
2890.891311,-2072.576638,-8512.368333,0.000000
2890.891638,-1924.535449,-6957.935855,-919.314598
2890.891966,-296.082377,-9178.553681,-1608.800546
2890.892293,296.082377,-10658.965565,-459.657299
2890.892621,222.061783,-9992.780217,1838.629195
2890.892948,1036.288319,-8290.306550,1072.533697
2890.893276,2294.638420,-9104.533087,-766.095498
2890.893604,2220.617826,-11473.192101,-1072.533697
2890.893931,74.020594,-10362.883188,76.609550
2890.894259,-1776.494261,-8438.347739,1455.581446
2890.894586,-1036.288319,-7772.162391,-536.266849
2890.894914,814.226536,-9548.656652,-2451.505594
2890.895241,740.205942,-11399.171507,-689.485948
2890.895569,-370.102971,-9844.739029,1149.143247
2890.895896,222.061783,-9252.574275,229.828649
2890.896224,2220.617826,-10658.965565,-1838.629195
2890.896551,2220.617826,-11917.315666,-2068.457845
2890.896879,740.205942,-10658.965565,383.047749
2890.897207,0.000000,-7772.162391,1225.752797
2890.897534,370.102971,-8068.244768,0.000000
2890.897862,1480.411884,-11251.130318,-1149.143247
2890.898189,1036.288319,-11621.233289,-612.876398
2890.898517,-1332.370696,-8956.491898,766.095498
2890.898844,-444.123565,-7254.018232,0.000000
2890.899172,148.041188,-8216.285956,-1608.800546
2890.899499,74.020594,-10140.821405,-689.485948
2890.899827,-1036.288319,-9178.553681,1532.190996
2890.900154,-888.247130,-7179.997637,1455.581446
2890.900482,1036.288319,-8660.409521,0.000000
2890.900810,2442.679609,-11177.109724,-306.438199
2890.901137,2368.659014,-11621.233289,153.219100
2890.901465,740.205942,-9918.759623,1149.143247
2890.901792,1258.350101,-9696.697840,-459.657299
2890.902120,2516.700203,-11473.192101,-2451.505594
2890.902447,1628.453072,-13249.686362,-1532.190996
2890.902775,-1110.308913,-11251.130318,612.876398
2890.903102,-2220.617826,-7105.977043,459.657299
2890.903430,-740.205942,-7698.141797,-766.095498
2890.903757,0.000000,-9770.718434,-919.314598
2890.904085,-1702.473667,-9474.636058,995.924147
2890.904413,-1480.411884,-6809.894666,1532.190996
2890.904740,-370.102971,-6587.832884,306.438199
2890.905068,962.267725,-8882.471304,-995.924147
2890.905395,444.123565,-10362.883188,0.000000
2890.905723,-1406.391290,-9252.574275,1225.752797
2890.906050,-518.144159,-9548.656652,-383.047749
2890.906378,1702.473667,-10955.047942,-2451.505594
2890.906705,2294.638420,-13471.748144,-1991.848295
2890.907033,962.267725,-11917.315666,306.438199
2890.907360,74.020594,-9548.656652,536.266849
2890.907688,1184.329507,-9844.739029,-995.924147
2890.908016,1850.514855,-11399.171507,-2145.067394
2890.908343,-296.082377,-10658.965565,306.438199
2890.908671,-1258.350101,-8216.285956,1838.629195
2890.908998,-1332.370696,-6883.915261,995.924147
2890.909326,0.000000,-8808.450710,-1072.533697
2890.909653,0.000000,-10881.027347,-1378.971896
2890.909981,-1332.370696,-9918.759623,229.828649
2890.910308,-962.267725,-7772.162391,76.609550
2890.910636,222.061783,-8734.430116,-1378.971896
2890.910963,814.226536,-12065.356855,-1072.533697
2890.911291,-888.247130,-10658.965565,306.438199
2890.911619,-1628.453072,-8660.409521,536.266849
2890.911946,-222.061783,-9474.636058,-766.095498
2890.912274,1554.432478,-9992.780217,-2374.896044
2890.912601,1998.556043,-10658.965565,612.876398
2890.912929,518.144159,-9326.594869,1991.848295
2890.913256,1406.391290,-8808.450710,1072.533697
2890.913584,2886.803174,-9474.636058,-1072.533697
2890.913911,2072.576638,-10807.006753,-459.657299
2890.914239,0.000000,-10732.986159,995.924147
2890.914566,-222.061783,-8882.471304,536.266849
2890.914894,148.041188,-7772.162391,-995.924147
2890.915221,814.226536,-9770.718434,-1225.752797
2890.915549,1258.350101,-11621.233289,0.000000
2890.915877,0.000000,-9844.739029,1991.848295
2890.916204,0.000000,-8142.265362,689.485948
2890.916532,444.123565,-8808.450710,-1532.190996
2890.916859,518.144159,-10362.883188,-1378.971896
2890.917187,-1480.411884,-9326.594869,842.705048
2890.917514,-1554.432478,-7254.018232,766.095498
2890.917842,444.123565,-7846.182985,-919.314598
2890.918169,2886.803174,-10362.883188,-919.314598
2890.918497,1998.556043,-11917.315666,766.095498
2890.918824,518.144159,-10214.842000,1685.410096
2890.919152,1406.391290,-8882.471304,0.000000
2890.919480,2294.638420,-10658.965565,-2757.943793
2890.919807,1702.473667,-12435.459826,-1608.800546
2890.920135,0.000000,-10732.986159,306.438199
2890.920462,-592.164754,-8586.388927,919.314598
2890.920790,222.061783,-9474.636058,-995.924147
2890.921117,888.247130,-11991.336260,-1608.800546
2890.921445,0.000000,-11029.068536,-153.219100
2890.921772,-1258.350101,-8290.306550,383.047749
2890.922100,-740.205942,-7328.038826,-383.047749
2890.922427,962.267725,-8512.368333,-1455.581446
2890.922755,814.226536,-9992.780217,0.000000
2890.923083,-814.226536,-8586.388927,1762.019645
2890.923410,-222.061783,-7402.059420,1302.362347
2890.923738,1850.514855,-9326.594869,-1149.143247
2890.924065,2072.576638,-11473.192101,-1532.190996
2890.924393,0.000000,-11251.130318,-229.828649
2890.924720,-1332.370696,-9326.594869,229.828649
2890.925048,444.123565,-9696.697840,-1455.581446
2890.925375,2368.659014,-12139.377449,-1762.019645
2890.925703,1702.473667,-12065.356855,459.657299
2890.926030,-592.164754,-9548.656652,2911.162892
2890.926358,-1258.350101,-7846.182985,1608.800546
2890.926686,0.000000,-8290.306550,-995.924147
2890.927013,-740.205942,-9400.615463,-1608.800546
2890.927341,-2738.761985,-8364.327145,0.000000
2890.927668,-3404.947333,-6587.832884,383.047749
2890.927996,-814.226536,-8142.265362,-1532.190996
2890.928323,962.267725,-10584.944971,-2374.896044
2890.928651,888.247130,-11991.336260,-383.047749
2890.928978,0.000000,-10288.862594,919.314598
2890.929306,1702.473667,-9548.656652,-229.828649
2890.929633,2738.761985,-10732.986159,-1991.848295
2890.929961,1998.556043,-12287.418637,-689.485948
2890.930289,592.164754,-10140.821405,1455.581446
2890.930616,370.102971,-8068.244768,1762.019645
2890.930944,1110.308913,-8882.471304,306.438199
2890.931271,1554.432478,-11473.192101,-1378.971896
2890.931599,370.102971,-11843.295072,0.000000
2890.931926,-1406.391290,-9030.512492,-229.828649
2890.932254,-296.082377,-7920.203579,-1685.410096
2890.932581,1406.391290,-10436.903782,-2068.457845
2890.932909,1184.329507,-11103.089130,153.219100
2890.933236,-592.164754,-8734.430116,1915.238745
2890.933564,222.061783,-8142.265362,1608.800546
2890.933892,1702.473667,-9474.636058,-995.924147
2890.934219,1776.494261,-11029.068536,-1149.143247
2890.934547,0.000000,-9696.697840,766.095498
2890.934874,-1776.494261,-7254.018232,1302.362347
2890.935202,-666.185348,-7920.203579,-536.266849
2890.935529,888.247130,-9844.739029,-919.314598
2890.935857,592.164754,-10214.842000,-459.657299
2890.936184,-444.123565,-8438.347739,995.924147
2890.936512,592.164754,-8956.491898,459.657299
2890.936839,2368.659014,-10584.944971,-919.314598
2890.937167,2812.782580,-11695.253884,-459.657299
2890.937495,1332.370696,-10955.047942,995.924147
2890.937822,888.247130,-8364.327145,842.705048
2890.938150,1184.329507,-9178.553681,-1762.019645
2890.938477,888.247130,-10732.986159,-1608.800546
2890.938805,-666.185348,-11547.212695,-459.657299
2890.939132,-2516.700203,-8956.491898,153.219100
2890.939460,-1702.473667,-7920.203579,-1302.362347
2890.939787,74.020594,-9030.512492,-3370.820191
2890.940115,222.061783,-10955.047942,-1455.581446
2890.940442,-1702.473667,-9104.533087,1149.143247
2890.940770,-1702.473667,-7846.182985,1455.581446
2890.941097,666.185348,-8734.430116,-612.876398
2890.941425,1702.473667,-10807.006753,-1302.362347
2890.941753,740.205942,-11177.109724,689.485948
2890.942080,222.061783,-9696.697840,1608.800546
2890.942408,2072.576638,-9548.656652,-536.266849
2890.942735,2516.700203,-11547.212695,-2068.457845
2890.943063,1628.453072,-12139.377449,-1225.752797
2890.943390,-592.164754,-10658.965565,153.219100
2890.943718,-740.205942,-8216.285956,0.000000
2890.944045,296.082377,-8808.450710,-1532.190996
2890.944373,444.123565,-10510.924376,-1072.533697
2890.944700,-666.185348,-9770.718434,2298.286494
2890.945028,-1702.473667,-7105.977043,2911.162892
2890.945356,-740.205942,-6587.832884,612.876398
2890.945683,444.123565,-9252.574275,-995.924147
2890.946011,-222.061783,-10658.965565,0.000000
2890.946338,-2442.679609,-8068.244768,1838.629195
2890.946666,-2590.720797,-6439.791695,383.047749
2890.946993,-962.267725,-9770.718434,-1302.362347
2890.947321,-148.041188,-13027.624579,-1991.848295
2890.947648,-592.164754,-11695.253884,-689.485948
2890.947976,666.185348,-8660.409521,-306.438199
2890.948303,2812.782580,-9622.677246,-919.314598
2890.948631,3923.091493,-11843.295072,-459.657299
2890.948959,2294.638420,-11399.171507,1915.238745
2890.949286,148.041188,-7994.224174,2528.115143
2890.949614,444.123565,-6883.915261,919.314598
2890.949941,962.267725,-9104.533087,-1915.238745
2890.950269,444.123565,-10807.006753,-1225.752797
2890.950596,-1110.308913,-9400.615463,306.438199
2890.950924,-1332.370696,-8142.265362,229.828649
2890.951251,1110.308913,-10362.883188,-1532.190996
2890.951579,1702.473667,-11917.315666,-2528.115143
2890.951906,370.102971,-11843.295072,-229.828649
2890.952234,-518.144159,-9770.718434,1072.533697
2890.952562,296.082377,-9252.574275,-306.438199
2890.952889,1776.494261,-11029.068536,-1302.362347
2890.953217,1110.308913,-10807.006753,0.000000
2890.953544,-222.061783,-8586.388927,1991.848295
2890.953872,814.226536,-7994.224174,1378.971896
2890.954199,1998.556043,-9252.574275,-1225.752797
2890.954527,2146.597232,-11843.295072,-1149.143247
2890.954854,518.144159,-11325.150913,229.828649
2890.955182,0.000000,-8438.347739,459.657299
2890.955509,518.144159,-7698.141797,-689.485948
2890.955837,1628.453072,-9918.759623,-1225.752797
2890.956165,666.185348,-11103.089130,612.876398
2890.956492,-740.205942,-8734.430116,2528.115143
2890.956820,666.185348,-7624.121203,842.705048
2890.957147,1554.432478,-8956.491898,-689.485948
2890.957475,592.164754,-10658.965565,-306.438199
2890.957802,-1554.432478,-9474.636058,1072.533697
2890.958130,-2442.679609,-7179.997637,612.876398
2890.958457,0.000000,-7772.162391,-1608.800546
2890.958785,1554.432478,-10807.006753,-1762.019645
2890.959112,962.267725,-10658.965565,229.828649
2890.959440,740.205942,-8512.368333,1991.848295
2890.959768,1924.535449,-8068.244768,536.266849
2890.960095,2220.617826,-10288.862594,-1072.533697
2890.960423,518.144159,-12213.398043,-689.485948
2890.960750,-1406.391290,-9992.780217,76.609550
2890.961078,-592.164754,-7698.141797,-766.095498
2890.961405,962.267725,-9252.574275,-842.705048
2890.961733,1406.391290,-12287.418637,-229.828649
2890.962060,-592.164754,-11695.253884,612.876398
2890.962388,-1776.494261,-9104.533087,919.314598
2890.962715,-1702.473667,-8068.244768,-1608.800546
2890.963043,-1628.453072,-9696.697840,-2681.334243
2890.963370,-2442.679609,-9844.739029,-1225.752797
2890.963698,-2220.617826,-9178.553681,842.705048
2890.964026,-1332.370696,-8734.430116,842.705048
2890.964353,1036.288319,-10807.006753,-383.047749
2890.964681,2146.597232,-12657.521608,-1225.752797
2890.965008,1702.473667,-11917.315666,-153.219100
2890.965336,-370.102971,-8438.347739,-383.047749
2890.965663,1110.308913,-8364.327145,-1838.629195
2890.965991,1110.308913,-10584.944971,-2374.896044
2890.966318,1406.391290,-13027.624579,383.047749
2890.966646,0.000000,-9918.759623,2528.115143
2890.966973,0.000000,-7254.018232,1685.410096
2890.967301,740.205942,-8882.471304,-612.876398
2890.967629,740.205942,-10140.821405,-1149.143247
2890.967958,-1554.432478,-8290.306550,1302.362347
2890.968286,-1702.473667,-6069.688724,536.266849
2890.968613,-148.041188,-6661.853478,-766.095498
2890.968941,1776.494261,-10732.986159,-1225.752797
2890.969268,222.061783,-11769.274478,766.095498
2890.969596,-1480.411884,-9252.574275,1838.629195
2890.969923,-222.061783,-9474.636058,-536.266849
2890.970251,2886.803174,-11547.212695,-2987.772442
2890.970579,2368.659014,-11843.295072,-1532.190996
2890.970906,592.164754,-9030.512492,1149.143247
2890.971234,592.164754,-7179.997637,1838.629195
2890.971561,2294.638420,-9030.512492,153.219100
2890.971889,2886.803174,-11251.130318,-153.219100
2890.972216,1110.308913,-9696.697840,1225.752797
2890.972544,0.000000,-7846.182985,1532.190996
2890.972872,666.185348,-7772.162391,-766.095498
2890.973199,1628.453072,-10732.986159,-1991.848295
2890.973527,814.226536,-12213.398043,-1532.190996
2890.973854,-370.102971,-10362.883188,0.000000
2890.974182,222.061783,-9178.553681,-306.438199
2890.974509,2368.659014,-10584.944971,-2068.457845
2890.974837,1554.432478,-12065.356855,-1378.971896
2890.975165,-1036.288319,-10584.944971,1455.581446
2890.975492,-2368.659014,-8216.285956,2145.067394
2890.975820,-1110.308913,-8216.285956,-995.924147
2890.976147,148.041188,-9918.759623,-2834.553343
2890.976475,0.000000,-10732.986159,-1149.143247
2890.976802,-740.205942,-8808.450710,1149.143247
2890.977130,296.082377,-8216.285956,1532.190996
2890.977458,2220.617826,-9992.780217,-612.876398
2890.977785,1924.535449,-12065.356855,76.609550
2890.978113,-148.041188,-10214.842000,1608.800546
2890.978440,-444.123565,-7994.224174,842.705048
2890.978768,740.205942,-7846.182985,-919.314598
2890.979095,592.164754,-10214.842000,-842.705048
2890.979423,-518.144159,-10584.944971,689.485948
2890.979751,-1628.453072,-7698.141797,842.705048
2890.980078,-814.226536,-7328.038826,-383.047749
2890.980406,222.061783,-9474.636058,-1762.019645
2890.980733,-962.267725,-10510.924376,-536.266849
2890.981061,-2960.823768,-9178.553681,1072.533697
2890.981388,-1924.535449,-7994.224174,0.000000
2890.981716,0.000000,-8808.450710,-306.438199
2890.982044,2146.597232,-11547.212695,-919.314598
2890.982371,962.267725,-10807.006753,919.314598
2890.982699,0.000000,-8956.491898,1302.362347
2890.983026,666.185348,-9326.594869,-383.047749
2890.983354,1628.453072,-11843.295072,-1762.019645
2890.983681,0.000000,-12287.418637,-1149.143247
2890.984009,-2368.659014,-9252.574275,229.828649
2890.984337,-2146.597232,-7402.059420,-612.876398
2890.984664,888.247130,-9622.677246,-2374.896044
2890.984992,2294.638420,-11843.295072,-1608.800546
2890.985319,444.123565,-10584.944971,919.314598
2890.985647,0.000000,-8290.306550,1455.581446
2890.985974,1332.370696,-8142.265362,-383.047749
2890.986302,1628.453072,-9844.739029,0.000000
2890.986630,222.061783,-9918.759623,-536.266849
2890.986957,-2220.617826,-8068.244768,1149.143247
2890.987285,-962.267725,-8290.306550,383.047749
2890.987612,1998.556043,-10881.027347,-1608.800546
2890.987940,3034.844362,-13249.686362,-1225.752797
2890.988267,888.247130,-11399.171507,306.438199
2890.988595,0.000000,-9400.615463,1225.752797
2890.988923,1554.432478,-9622.677246,-536.266849
2890.989250,2590.720797,-10658.965565,-1608.800546
2890.989578,666.185348,-9622.677246,919.314598
2890.989905,-296.082377,-7179.997637,2681.334243
2890.990233,1036.288319,-6291.750507,1838.629195
2890.990560,2442.679609,-9326.594869,0.000000
2890.990888,1036.288319,-10732.986159,76.609550
2890.991216,-1184.329507,-8660.409521,383.047749
2890.991543,-1184.329507,-6809.894666,-612.876398
2890.991871,1110.308913,-8734.430116,-2221.676944
2890.992198,1406.391290,-11547.212695,-1608.800546
2890.992526,-888.247130,-10658.965565,842.705048
2890.992853,-1258.350101,-9030.512492,1838.629195
2890.993181,962.267725,-10214.842000,-1378.971896
2890.993509,3182.885551,-11843.295072,-1532.190996
2890.993836,1554.432478,-11769.274478,0.000000
2890.994164,-444.123565,-9474.636058,1685.410096
2890.994491,0.000000,-8142.265362,153.219100
2890.994819,1406.391290,-10288.862594,-1915.238745
2890.995146,1480.411884,-11695.253884,-995.924147
2890.995474,-740.205942,-9918.759623,612.876398
2890.995802,-1702.473667,-7698.141797,766.095498
2890.996129,666.185348,-9104.533087,-1072.533697
2890.996457,1924.535449,-10807.006753,-2068.457845
2890.996784,-296.082377,-10436.903782,0.000000
2890.997112,-2294.638420,-8882.471304,995.924147
2890.997439,-1110.308913,-8216.285956,0.000000
2890.997767,1406.391290,-10140.821405,-2068.457845
2890.998095,962.267725,-11103.089130,0.000000
2890.998422,-2220.617826,-9622.677246,2681.334243
2890.998750,-2590.720797,-8290.306550,1838.629195
2890.999077,-592.164754,-8956.491898,-1225.752797
2890.999405,0.000000,-10658.965565,-2374.896044
2890.999732,-1850.514855,-10807.006753,-1302.362347
2891.000060,-2442.679609,-8734.430116,536.266849
2891.000388,-370.102971,-8808.450710,-1072.533697
2891.000715,2516.700203,-11325.150913,-1915.238745
2891.001043,2590.720797,-12361.439231,-153.219100
2891.001370,444.123565,-9474.636058,2451.505594
2891.001698,592.164754,-7105.977043,1762.019645
2891.002025,2368.659014,-8808.450710,-995.924147
2891.002353,1480.411884,-10807.006753,-919.314598
2891.002681,-1184.329507,-9770.718434,919.314598
2891.003008,-2146.597232,-6513.812290,995.924147
2891.003336,-518.144159,-7105.977043,-1225.752797
2891.003663,666.185348,-10288.862594,-2221.676944
2891.003991,-592.164754,-11473.192101,-383.047749
2891.004318,-1924.535449,-10214.842000,1072.533697
2891.004646,-222.061783,-8660.409521,-383.047749
2891.004974,2516.700203,-10288.862594,-2374.896044
2891.005301,2590.720797,-12435.459826,-1302.362347
2891.005629,814.226536,-10807.006753,1149.143247
2891.005956,518.144159,-8956.491898,1608.800546
2891.006284,2368.659014,-10066.800811,-459.657299
2891.006611,2960.823768,-12583.501014,-1532.190996
2891.006939,1554.432478,-11843.295072,-689.485948
2891.007267,-370.102971,-8290.306550,1302.362347
2891.007594,-518.144159,-6957.935855,612.876398
2891.007922,1480.411884,-9326.594869,-1149.143247
2891.008249,1480.411884,-11103.089130,-536.266849
2891.008577,-814.226536,-8956.491898,1991.848295
2891.008904,-444.123565,-5847.626942,1378.971896
2891.009232,1702.473667,-7254.018232,-689.485948
2891.009560,2442.679609,-10214.842000,-995.924147
2891.009887,148.041188,-10510.924376,612.876398
2891.010215,-1406.391290,-9252.574275,1455.581446
2891.010542,592.164754,-9474.636058,-842.705048
2891.010870,2886.803174,-11843.295072,-2604.724693
2891.011197,1628.453072,-12731.542202,-766.095498
2891.011525,-1332.370696,-10214.842000,1532.190996
2891.011853,-962.267725,-8364.327145,919.314598
2891.012180,1628.453072,-9474.636058,-1455.581446
2891.012508,2294.638420,-11399.171507,-1378.971896
2891.012835,-148.041188,-9400.615463,995.924147
2891.013163,-1998.556043,-6217.729913,2298.286494
2891.013490,-666.185348,-6735.874072,689.485948
2891.013818,592.164754,-9326.594869,-1149.143247
2891.014146,148.041188,-11325.150913,-1225.752797
2891.014473,-1998.556043,-9252.574275,689.485948
2891.014801,-222.061783,-8142.265362,-536.266849
2891.015128,2220.617826,-10732.986159,-2451.505594
2891.015456,1924.535449,-12657.521608,-1455.581446
2891.015783,-1998.556043,-10807.006753,1302.362347
2891.016111,-2146.597232,-8808.450710,919.314598
2891.016439,296.082377,-9178.553681,-1532.190996
2891.016766,1184.329507,-11547.212695,-2221.676944
2891.017094,-814.226536,-10362.883188,306.438199
2891.017421,-2146.597232,-8290.306550,2604.724693
2891.017749,-592.164754,-8290.306550,766.095498
2891.018076,2072.576638,-10658.965565,-1532.190996
2891.018404,1110.308913,-12065.356855,-1302.362347
2891.018732,-1332.370696,-8956.491898,1225.752797
2891.019059,-1850.514855,-7698.141797,1685.410096
2891.019387,-296.082377,-9474.636058,-306.438199
2891.019714,666.185348,-12139.377449,-1455.581446
2891.020042,-740.205942,-10732.986159,-459.657299
2891.020369,-1184.329507,-7846.182985,612.876398
2891.020697,666.185348,-7624.121203,-612.876398
2891.021025,2664.741391,-10732.986159,-1608.800546
2891.021352,74.020594,-11103.089130,0.000000
2891.021680,-2738.761985,-8586.388927,1608.800546
2891.022007,-1480.411884,-7328.038826,0.000000
2891.022335,1332.370696,-8438.347739,-2374.896044
2891.022662,2516.700203,-11177.109724,-919.314598
2891.022990,444.123565,-10881.027347,2068.457845
2891.023318,740.205942,-9326.594869,2528.115143
2891.023645,2442.679609,-9770.718434,-306.438199
2891.023973,4367.215058,-12361.439231,-1915.238745
2891.024300,1850.514855,-11917.315666,-229.828649
2891.024628,-888.247130,-8660.409521,1685.410096
2891.024955,-148.041188,-7624.121203,0.000000
2891.025283,1702.473667,-10066.800811,-1915.238745
2891.025611,1036.288319,-11177.109724,-1302.362347
2891.025938,-1258.350101,-8734.430116,1762.019645
2891.026266,-1110.308913,-7328.038826,995.924147
2891.026593,1258.350101,-8216.285956,-1608.800546
2891.026921,1998.556043,-10436.903782,-2681.334243
2891.027248,-222.061783,-9548.656652,0.000000
2891.027576,-814.226536,-7846.182985,995.924147
2891.027904,740.205942,-8290.306550,-689.485948
2891.028231,2738.761985,-11251.130318,-1532.190996
2891.028559,1480.411884,-12435.459826,-459.657299
2891.028886,-370.102971,-10955.047942,1225.752797
2891.029214,370.102971,-9326.594869,0.000000
2891.029541,2442.679609,-10658.965565,-1991.848295
2891.029869,2812.782580,-12657.521608,-2221.676944
2891.030197,518.144159,-10658.965565,842.705048
2891.030524,-1036.288319,-7476.080014,2451.505594
2891.030852,0.000000,-7994.224174,612.876398
2891.031179,1628.453072,-10214.842000,-766.095498
2891.031507,222.061783,-10066.800811,0.000000
2891.031834,-888.247130,-7328.038826,1455.581446
2891.032162,0.000000,-5995.668130,919.314598
2891.032490,1110.308913,-8068.244768,-2374.896044
2891.032817,-296.082377,-11325.150913,-1608.800546
2891.033145,-2886.803174,-10362.883188,153.219100
2891.033472,-1924.535449,-8660.409521,-536.266849
2891.033800,1036.288319,-10214.842000,-1532.190996
2891.034127,2368.659014,-12435.459826,-612.876398
2891.034455,518.144159,-12287.418637,1915.238745
2891.034783,-1628.453072,-8734.430116,2298.286494
2891.035110,-814.226536,-7994.224174,0.000000
2891.035438,592.164754,-10584.944971,-2451.505594
2891.035765,222.061783,-10362.883188,-1762.019645
2891.036093,-2072.576638,-8364.327145,536.266849
2891.036420,-2072.576638,-8438.347739,1685.410096
2891.036748,814.226536,-10066.800811,-842.705048
2891.037076,1554.432478,-11769.274478,-1225.752797
2891.037403,0.000000,-11029.068536,0.000000
2891.037731,-1628.453072,-8438.347739,0.000000
2891.038058,-370.102971,-7920.203579,-1378.971896
2891.038386,1258.350101,-9252.574275,-2221.676944
2891.038713,370.102971,-9844.739029,-306.438199
2891.039041,-1702.473667,-9400.615463,2834.553343
2891.039369,-1184.329507,-8364.327145,1608.800546
2891.039696,888.247130,-9400.615463,-842.705048
2891.040024,1406.391290,-11695.253884,-2298.286494
2891.040351,-370.102971,-11473.192101,-689.485948
2891.040679,-888.247130,-9178.553681,536.266849
2891.041006,1702.473667,-8660.409521,-612.876398
2891.041334,4441.235652,-11251.130318,-2068.457845
2891.041662,2220.617826,-11769.274478,-612.876398
2891.041989,296.082377,-9474.636058,2221.676944
2891.042317,296.082377,-8216.285956,1302.362347
2891.042644,2146.597232,-9696.697840,-1149.143247
2891.042972,1776.494261,-11177.109724,-1225.752797
2891.043299,-740.205942,-9474.636058,842.705048
2891.043627,-1332.370696,-6143.709319,919.314598
2891.043955,962.267725,-7254.018232,-919.314598
2891.044282,1258.350101,-9474.636058,-1532.190996
2891.044610,-148.041188,-10288.862594,0.000000
2891.044937,-1924.535449,-8438.347739,995.924147
2891.045265,-222.061783,-8142.265362,0.000000
2891.045592,2072.576638,-9770.718434,-1225.752797
2891.045920,2146.597232,-10881.027347,-383.047749
2891.046248,1184.329507,-10288.862594,1378.971896
2891.046575,1406.391290,-10066.800811,459.657299
2891.046903,2960.823768,-10658.965565,-1608.800546
2891.047230,3256.906145,-12361.439231,-2451.505594
2891.047558,592.164754,-11991.336260,-689.485948
2891.047885,-1554.432478,-9030.512492,766.095498
2891.048213,-296.082377,-8438.347739,0.000000
2891.048541,1332.370696,-10510.924376,-1302.362347
2891.048868,1036.288319,-11103.089130,0.000000
2891.049196,-1406.391290,-8808.450710,1608.800546
2891.049523,-2220.617826,-6587.832884,1302.362347
2891.049851,-370.102971,-7698.141797,-1072.533697
2891.050178,148.041188,-9548.656652,-1838.629195
2891.050506,-1776.494261,-9474.636058,689.485948
2891.050834,-2590.720797,-7846.182985,1149.143247
2891.051161,0.000000,-8734.430116,-306.438199
2891.051489,2294.638420,-11917.315666,-1838.629195
2891.051816,962.267725,-13101.645173,-995.924147
2891.052144,-666.185348,-10881.027347,536.266849
2891.052471,0.000000,-9178.553681,-306.438199
2891.052799,2812.782580,-10436.903782,-2451.505594
2891.053127,2368.659014,-11843.295072,-612.876398
2891.053454,0.000000,-9474.636058,1991.848295
2891.053782,-2072.576638,-6809.894666,2604.724693
2891.054109,-888.247130,-6957.935855,612.876398
2891.054437,0.000000,-9696.697840,-1072.533697
2891.054764,-2294.638420,-10066.800811,0.000000
2891.055092,-4959.379811,-7328.038826,689.485948
2891.055419,-3108.864956,-6735.874072,-2221.676944
2891.055747,592.164754,-10584.944971,-3983.696590
2891.056075,888.247130,-13619.789333,-1915.238745
2891.056402,-740.205942,-10955.047942,1762.019645
2891.056730,-222.061783,-8660.409521,1762.019645
2891.057057,2294.638420,-9696.697840,-689.485948
2891.057385,3256.906145,-11325.150913,-1608.800546
2891.057712,296.082377,-11251.130318,689.485948
2891.058040,-962.267725,-8364.327145,1072.533697
2891.058368,592.164754,-7994.224174,-995.924147
2891.058695,2442.679609,-10362.883188,-2145.067394
2891.059023,2072.576638,-11843.295072,-383.047749
2891.059350,-296.082377,-9770.718434,2145.067394
2891.059678,370.102971,-7772.162391,1991.848295
2891.060005,2886.803174,-10066.800811,-995.924147
2891.060333,2812.782580,-12583.501014,-2068.457845
2891.060661,888.247130,-10362.883188,153.219100
2891.060988,-666.185348,-7254.018232,1685.410096
2891.061316,666.185348,-7402.059420,306.438199
2891.061643,2072.576638,-10510.924376,-612.876398
2891.061971,370.102971,-10066.800811,612.876398
2891.062298,-2072.576638,-8290.306550,1762.019645
2891.062626,-888.247130,-7920.203579,-383.047749
2891.062954,1776.494261,-10066.800811,-2604.724693
2891.063281,814.226536,-10955.047942,-1685.410096
2891.063609,-370.102971,-9770.718434,689.485948
2891.063936,0.000000,-8216.285956,1532.190996
2891.064264,2886.803174,-8808.450710,766.095498
2891.064591,4367.215058,-10955.047942,-383.047749
2891.064919,2738.761985,-11843.295072,306.438199
2891.065247,0.000000,-9178.553681,2145.067394
2891.065574,-222.061783,-7846.182985,306.438199
2891.065902,1406.391290,-10510.924376,-1991.848295
2891.066229,962.267725,-11991.336260,-1685.410096
2891.066557,-1332.370696,-9918.759623,76.609550
2891.066885,-1924.535449,-7402.059420,-383.047749
2891.067212,518.144159,-7920.203579,-1608.800546
2891.067540,1702.473667,-10584.944971,-1608.800546
2891.067867,-1036.288319,-10658.965565,1302.362347
2891.068195,-2664.741391,-7254.018232,1915.238745
2891.068523,-1110.308913,-6957.935855,-689.485948
2891.068850,1776.494261,-11103.089130,-2987.772442
2891.069178,1036.288319,-13397.727550,-1149.143247
2891.069506,-814.226536,-10436.903782,2451.505594
2891.069833,888.247130,-9252.574275,1378.971896
2891.070161,2442.679609,-11843.295072,-1455.581446
2891.070488,1406.391290,-13249.686362,-1608.800546
2891.070816,-2072.576638,-10362.883188,0.000000
2891.071144,-3997.112087,-6587.832884,306.438199
2891.071471,-2442.679609,-7179.997637,-536.266849
2891.071799,0.000000,-9844.739029,-1762.019645
2891.072126,-740.205942,-10288.862594,306.438199
2891.072454,-2146.597232,-8364.327145,2374.896044
2891.072782,-592.164754,-8142.265362,1072.533697
2891.073109,2664.741391,-9844.739029,-1762.019645
2891.073437,1998.556043,-10658.965565,-1838.629195
2891.073764,-2072.576638,-9770.718434,459.657299
2891.074092,-2072.576638,-7105.977043,0.000000
2891.074420,74.020594,-8808.450710,-536.266849
2891.074747,1702.473667,-12509.480420,-995.924147
2891.075075,-222.061783,-11843.295072,229.828649
2891.075403,-1776.494261,-8956.491898,919.314598
2891.075730,-444.123565,-8068.244768,-842.705048
2891.076058,2368.659014,-10140.821405,-2681.334243
2891.076385,2072.576638,-10584.944971,-1378.971896
2891.076713,-296.082377,-8142.265362,2145.067394
2891.077041,-666.185348,-7254.018232,2068.457845
2891.077368,1776.494261,-9474.636058,-766.095498
2891.077696,3034.844362,-12435.459826,-2068.457845
2891.078023,888.247130,-11547.212695,0.000000
2891.078351,-814.226536,-8956.491898,383.047749
2891.078679,1036.288319,-8586.388927,-2145.067394
2891.079006,2738.761985,-11177.109724,-2528.115143
2891.079334,1554.432478,-11917.315666,-766.095498
2891.079661,-1480.411884,-9104.533087,1455.581446
2891.079989,-962.267725,-7179.997637,766.095498
2891.080317,1628.453072,-8808.450710,-995.924147
2891.080644,1924.535449,-11177.109724,-612.876398
2891.080972,-148.041188,-10066.800811,1149.143247
2891.081300,-1184.329507,-7550.100608,1838.629195
2891.081627,1776.494261,-8364.327145,-766.095498
2891.081955,4071.132681,-11325.150913,-2374.896044
2891.082282,2294.638420,-11843.295072,-306.438199
2891.082610,0.000000,-9474.636058,1838.629195
2891.082938,814.226536,-8882.471304,995.924147
2891.083265,2664.741391,-10584.944971,-1225.752797
2891.083593,2294.638420,-11325.150913,-995.924147
2891.083920,-1332.370696,-9548.656652,1072.533697
2891.084248,-2516.700203,-7179.997637,842.705048
2891.084576,0.000000,-7920.203579,-1455.581446
2891.084903,1480.411884,-9844.739029,-1991.848295
2891.085231,-1258.350101,-9622.677246,612.876398
2891.085559,-3034.844362,-7254.018232,2374.896044
2891.085886,-814.226536,-8068.244768,995.924147
2891.086214,1110.308913,-10214.842000,-1608.800546
2891.086541,814.226536,-11769.274478,-1608.800546
2891.086869,-1480.411884,-10807.006753,229.828649
2891.087197,-814.226536,-9400.615463,76.609550
2891.087524,2368.659014,-10436.903782,-1991.848295
2891.087852,2886.803174,-12583.501014,-1915.238745
2891.088179,0.000000,-11325.150913,76.609550
2891.088507,-2220.617826,-8586.388927,1149.143247
2891.088835,-518.144159,-7994.224174,-689.485948
2891.089162,1258.350101,-10955.047942,-2451.505594
2891.089490,962.267725,-11991.336260,-1149.143247
2891.089817,-2664.741391,-7402.059420,2604.724693
2891.090145,-2664.741391,-6439.791695,2221.676944
2891.090473,74.020594,-9030.512492,-1225.752797
2891.090800,0.000000,-11843.295072,-1685.410096
2891.091128,-2368.659014,-10066.800811,0.000000
2891.091456,-3034.844362,-7698.141797,-229.828649
2891.091783,222.061783,-9474.636058,-919.314598
2891.092111,2590.720797,-12657.521608,-1762.019645
2891.092438,1480.411884,-11991.336260,383.047749
2891.092766,-518.144159,-10066.800811,1838.629195
2891.093094,518.144159,-8882.471304,229.828649
2891.093421,2442.679609,-10066.800811,-1762.019645
2891.093749,1332.370696,-10510.924376,-689.485948
2891.094076,-1184.329507,-8216.285956,995.924147
2891.094404,-1184.329507,-6217.729913,2298.286494
2891.094732,1258.350101,-6883.915261,995.924147
2891.095059,3256.906145,-10510.924376,-383.047749
2891.095387,1628.453072,-11547.212695,1762.019645
2891.095715,-962.267725,-8216.285956,2374.896044
2891.096042,-222.061783,-7031.956449,-536.266849
2891.096370,2294.638420,-9696.697840,-3524.039291
2891.096697,1184.329507,-11473.192101,-1838.629195
2891.097025,-1628.453072,-10066.800811,1532.190996
2891.097353,-1332.370696,-8586.388927,1991.848295
2891.097680,1702.473667,-10436.903782,-536.266849
2891.098008,2590.720797,-12805.562797,-1608.800546
2891.098335,-296.082377,-10658.965565,229.828649
2891.098663,-1332.370696,-7846.182985,689.485948
2891.098991,1406.391290,-7846.182985,-1072.533697
2891.099318,3182.885551,-10807.006753,-1532.190996
2891.099646,740.205942,-11325.150913,0.000000
2891.099973,-1110.308913,-8882.471304,1915.238745
2891.100301,148.041188,-7031.956449,76.609550
2891.100629,2590.720797,-9918.759623,-2145.067394
2891.100956,2220.617826,-12879.583391,-2068.457845
2891.101284,0.000000,-11843.295072,689.485948
2891.101612,-222.061783,-9104.533087,842.705048
2891.101939,1628.453072,-8438.347739,-1302.362347
2891.102267,2220.617826,-10732.986159,-1608.800546
2891.102594,-222.061783,-10658.965565,919.314598
2891.102922,-2368.659014,-7698.141797,2604.724693
2891.103250,-888.247130,-7402.059420,536.266849
2891.103577,1110.308913,-9992.780217,-1685.410096
2891.103905,1110.308913,-10584.944971,-1149.143247
2891.104232,-2072.576638,-8734.430116,919.314598
2891.104560,-1776.494261,-7920.203579,383.047749
2891.104888,1702.473667,-10214.842000,-1685.410096
2891.105215,3701.029710,-12879.583391,-1532.190996
2891.105543,1776.494261,-12213.398043,1838.629195
2891.105870,74.020594,-8512.368333,3217.601092
2891.106198,222.061783,-7328.038826,536.266849
