#time,accel_x,accel_y,accel_z
3339.679133,0.000000,-9326.594869,0.000000
3339.679461,74.020594,-9326.594869,-383.047749
3339.679788,296.082377,-9474.636058,-306.438199
3339.680116,296.082377,-9622.677246,0.000000
3339.680443,518.144159,-9548.656652,0.000000
3339.680771,814.226536,-9326.594869,0.000000
3339.681098,666.185348,-9696.697840,459.657299
3339.681426,814.226536,-9474.636058,76.609550
3339.681753,518.144159,-9326.594869,383.047749
3339.682081,518.144159,-9770.718434,76.609550
3339.682408,444.123565,-9104.533087,-612.876398
3339.682736,222.061783,-9400.615463,-153.219100
3339.683064,148.041188,-9918.759623,-459.657299
3339.683391,222.061783,-9992.780217,-536.266849
3339.683719,444.123565,-10140.821405,-689.485948
3339.684046,592.164754,-10362.883188,-612.876398
3339.684374,814.226536,-10214.842000,-306.438199
3339.684701,518.144159,-10066.800811,-306.438199
3339.685029,444.123565,-10436.903782,0.000000
3339.685356,296.082377,-9474.636058,0.000000
3339.685684,296.082377,-9844.739029,-383.047749
3339.686011,0.000000,-9622.677246,-459.657299
3339.686339,0.000000,-9770.718434,-536.266849
3339.686666,-814.226536,-9992.780217,-612.876398
3339.686994,-74.020594,-9918.759623,-612.876398
3339.687321,74.020594,-9918.759623,-459.657299
3339.687649,444.123565,-9992.780217,-306.438199
3339.687976,370.102971,-10288.862594,0.000000
3339.688304,370.102971,-9992.780217,229.828649
3339.688631,518.144159,-9770.718434,536.266849
3339.688959,296.082377,-9622.677246,0.000000
3339.689286,296.082377,-9474.636058,536.266849
3339.689614,296.082377,-8956.491898,0.000000
3339.689942,296.082377,-8956.491898,0.000000
3339.690269,0.000000,-9326.594869,-153.219100
3339.690597,0.000000,-9252.574275,-536.266849
3339.690924,148.041188,-9474.636058,-229.828649
3339.691252,518.144159,-9696.697840,0.000000
3339.691579,888.247130,-9326.594869,-153.219100
3339.691907,888.247130,-9178.553681,76.609550
3339.692234,1332.370696,-9770.718434,-383.047749
3339.692562,888.247130,-9474.636058,0.000000
3339.692889,518.144159,-9548.656652,76.609550
3339.693217,296.082377,-9400.615463,0.000000
3339.693544,148.041188,-9030.512492,0.000000
3339.693872,0.000000,-9696.697840,-383.047749
3339.694199,222.061783,-10288.862594,-306.438199
3339.694527,222.061783,-9770.718434,-459.657299
3339.694854,370.102971,-10214.842000,-612.876398
3339.695182,518.144159,-10362.883188,-306.438199
3339.695509,814.226536,-10288.862594,-536.266849
3339.695837,740.205942,-10066.800811,0.000000
3339.696165,666.185348,-9770.718434,306.438199
3339.696492,370.102971,-9252.574275,-612.876398
3339.696820,222.061783,-9178.553681,-383.047749
3339.697147,0.000000,-9548.656652,0.000000
3339.697475,370.102971,-9252.574275,-689.485948
3339.697802,592.164754,-9400.615463,-689.485948
3339.698130,1258.350101,-9474.636058,-689.485948
3339.698457,2368.659014,-9104.533087,-229.828649
3339.698785,3997.112087,-9030.512492,76.609550
3339.699112,4737.318029,-9030.512492,229.828649
3339.699440,5699.585753,-9844.739029,842.705048
3339.699767,6735.874072,-9770.718434,766.095498
3339.700095,7105.977043,-9474.636058,306.438199
3339.700422,7105.977043,-9474.636058,536.266849
3339.700750,7994.224174,-9178.553681,-306.438199
3339.701077,6883.915261,-9474.636058,383.047749
3339.701405,7328.038826,-10140.821405,459.657299
3339.701732,8216.285956,-9474.636058,0.000000
3339.702060,8956.491898,-8808.450710,-459.657299
3339.702388,9326.594869,-9178.553681,0.000000
3339.702715,10510.924376,-9104.533087,0.000000
3339.703043,10881.027347,-8512.368333,842.705048
3339.703370,11843.295072,-9400.615463,919.314598
3339.703698,11621.233289,-9770.718434,995.924147
3339.704025,10955.047942,-9474.636058,383.047749
3339.704353,11177.109724,-8734.430116,0.000000
3339.704680,11473.192101,-9252.574275,-383.047749
3339.705008,12435.459826,-11621.233289,-766.095498
3339.705335,13175.665768,-10955.047942,-689.485948
3339.705663,14211.954086,-9400.615463,-459.657299
3339.705990,14211.954086,-9030.512492,76.609550
3339.706318,13249.686362,-9474.636058,689.485948
3339.706645,13471.748144,-9770.718434,383.047749
3339.706973,13471.748144,-10066.800811,229.828649
3339.707300,13249.686362,-10510.924376,76.609550
3339.707628,13767.830521,-10066.800811,612.876398
3339.707955,13249.686362,-9252.574275,766.095498
3339.708283,12287.418637,-9252.574275,919.314598
3339.708610,11547.212695,-9474.636058,612.876398
3339.708938,10807.006753,-9696.697840,-536.266849
3339.709266,10066.800811,-10584.944971,-842.705048
3339.709593,10214.842000,-10214.842000,-459.657299
3339.709921,9178.553681,-9474.636058,383.047749
3339.710248,7994.224174,-8586.388927,1225.752797
3339.710576,8290.306550,-8438.347739,153.219100
3339.710903,10140.821405,-9030.512492,-153.219100
3339.711231,10881.027347,-9844.739029,306.438199
3339.711558,9992.780217,-11325.150913,1608.800546
3339.711886,9252.574275,-9918.759623,1149.143247
3339.712213,8512.368333,-7772.162391,536.266849
3339.712541,7402.059420,-7846.182985,0.000000
3339.712868,7994.224174,-8364.327145,612.876398
3339.713196,9326.594869,-10584.944971,536.266849
3339.713523,9252.574275,-11769.274478,229.828649
3339.713851,8660.409521,-9696.697840,0.000000
3339.714178,7624.121203,-8290.306550,-383.047749
3339.714506,6069.688724,-9326.594869,689.485948
3339.714833,6587.832884,-9992.780217,-229.828649
3339.715161,7994.224174,-9252.574275,-1378.971896
3339.715489,9474.636058,-9474.636058,-1378.971896
3339.715816,10881.027347,-9548.656652,-153.219100
3339.716144,9252.574275,-8660.409521,1072.533697
3339.716471,6735.874072,-7476.080014,2298.286494
3339.716799,7328.038826,-8882.471304,536.266849
3339.717126,10436.903782,-10362.883188,-2528.115143
3339.717454,11695.253884,-11473.192101,-2298.286494
3339.717781,10584.944971,-10288.862594,-459.657299
3339.718109,10140.821405,-9844.739029,842.705048
3339.718436,9992.780217,-11325.150913,1149.143247
3339.718764,8512.368333,-10066.800811,459.657299
3339.719091,7624.121203,-8290.306550,-919.314598
3339.719419,8290.306550,-7772.162391,-1685.410096
3339.719746,10584.944971,-8808.450710,-1149.143247
3339.720074,11251.130318,-9252.574275,383.047749
3339.720401,10807.006753,-10066.800811,2145.067394
3339.720729,11325.150913,-9178.553681,1838.629195
3339.721056,11769.274478,-7994.224174,0.000000
3339.721384,11991.336260,-9178.553681,-689.485948
3339.721712,13693.809927,-9622.677246,-383.047749
3339.722039,13619.789333,-9400.615463,689.485948
3339.722367,9992.780217,-10955.047942,2068.457845
3339.722694,7179.997637,-11325.150913,1072.533697
3339.723022,8438.347739,-9474.636058,-1838.629195
3339.723349,9178.553681,-9326.594869,-3217.601092
3339.723677,8438.347739,-10732.986159,-1915.238745
3339.724004,8512.368333,-10436.903782,383.047749
3339.724332,7772.162391,-10066.800811,2145.067394
3339.724659,7476.080014,-9400.615463,2604.724693
3339.724987,6143.709319,-7402.059420,1302.362347
3339.725314,2368.659014,-7105.977043,536.266849
3339.725642,1776.494261,-8216.285956,536.266849
3339.725969,3701.029710,-8068.244768,-2451.505594
3339.726297,3775.050304,-8808.450710,-2145.067394
3339.726624,5403.503377,-9992.780217,229.828649
3339.726952,7105.977043,-10881.027347,1072.533697
3339.727279,7105.977043,-11547.212695,995.924147
3339.727607,7105.977043,-13397.727550,0.000000
3339.727934,5477.523971,-12509.480420,-1762.019645
3339.728262,3923.091493,-10807.006753,-2451.505594
3339.728590,3330.926739,-10140.821405,-919.314598
3339.728917,2072.576638,-10584.944971,1455.581446
3339.729245,444.123565,-8290.306550,3217.601092
3339.729572,-1332.370696,-9030.512492,2834.553343
3339.729900,-2738.761985,-8290.306550,229.828649
3339.730227,-3330.926739,-8142.265362,-1225.752797
3339.730555,-3923.091493,-8068.244768,-1072.533697
3339.730882,-4145.153275,-8586.388927,-1532.190996
3339.731210,-5403.503377,-8438.347739,-536.266849
3339.731537,-3701.029710,-8068.244768,-153.219100
3339.731865,-3552.988522,-8364.327145,-536.266849
3339.732192,-2960.823768,-11103.089130,-689.485948
3339.732520,-3256.906145,-11621.233289,-536.266849
3339.732847,-1480.411884,-11769.274478,-612.876398
3339.733175,148.041188,-8364.327145,-1378.971896
3339.733502,-1480.411884,-10214.842000,0.000000
3339.733830,-3182.885551,-10288.862594,1072.533697
3339.734157,-2886.803174,-7624.121203,76.609550
3339.734485,-2738.761985,-7698.141797,-1685.410096
3339.734813,-2886.803174,-9030.512492,-1378.971896
3339.735140,-1924.535449,-9474.636058,-383.047749
3339.735468,-962.267725,-8364.327145,689.485948
3339.735795,222.061783,-9030.512492,229.828649
3339.736123,2738.761985,-9770.718434,0.000000
3339.736450,3701.029710,-9992.780217,-689.485948
3339.736778,2664.741391,-10214.842000,-766.095498
3339.737105,2960.823768,-9770.718434,-1225.752797
3339.737433,3478.967927,-11399.171507,-536.266849
3339.737760,2368.659014,-12287.418637,-229.828649
3339.738088,1702.473667,-11695.253884,306.438199
3339.738415,1480.411884,-9696.697840,-612.876398
3339.738743,888.247130,-9844.739029,-1225.752797
3339.739070,518.144159,-10955.047942,-1608.800546
3339.739398,1776.494261,-9104.533087,-1838.629195
3339.739725,1110.308913,-9252.574275,-153.219100
3339.740053,2072.576638,-9104.533087,1072.533697
3339.740380,2072.576638,-8586.388927,1762.019645
3339.740708,1554.432478,-7846.182985,1302.362347
3339.741035,2590.720797,-10066.800811,0.000000
3339.741363,3034.844362,-11399.171507,-1149.143247
3339.741691,1998.556043,-10658.965565,-1225.752797
3339.742018,1702.473667,-11103.089130,-306.438199
3339.742346,3034.844362,-10288.862594,-995.924147
3339.742673,2146.597232,-10881.027347,306.438199
3339.743001,1998.556043,-11325.150913,689.485948
3339.743328,2590.720797,-10288.862594,536.266849
3339.743656,1850.514855,-9178.553681,459.657299
3339.743983,2220.617826,-8438.347739,1378.971896
3339.744311,148.041188,-7402.059420,2374.896044
3339.744638,-1258.350101,-6883.915261,3140.991542
3339.744966,-2072.576638,-8142.265362,995.924147
3339.745293,-1036.288319,-7994.224174,-2145.067394
3339.745621,296.082377,-7920.203579,-3907.087040
3339.745949,1110.308913,-10066.800811,-1762.019645
3339.746276,1184.329507,-11473.192101,1378.971896
3339.746604,2220.617826,-13101.645173,2145.067394
3339.746931,2812.782580,-11769.274478,459.657299
3339.747259,518.144159,-10955.047942,-1149.143247
3339.747586,-2368.659014,-10584.944971,-2374.896044
3339.747914,-3478.967927,-10584.944971,-919.314598
3339.748241,-3478.967927,-7105.977043,-383.047749
3339.748569,-2368.659014,-6883.915261,-995.924147
3339.748897,-2516.700203,-10140.821405,689.485948
3339.749224,-2664.741391,-8216.285956,1455.581446
3339.749552,-1258.350101,-6217.729913,0.000000
3339.749879,-518.144159,-7698.141797,-1302.362347
3339.750207,-1184.329507,-10510.924376,-1455.581446
3339.750534,-740.205942,-9474.636058,-1225.752797
3339.750862,-592.164754,-8808.450710,-1225.752797
3339.751189,296.082377,-12805.562797,1608.800546
3339.751517,1184.329507,-12435.459826,1838.629195
3339.751845,518.144159,-12583.501014,0.000000
3339.752172,-1184.329507,-10584.944971,-1608.800546
3339.752500,-1628.453072,-10362.883188,-2451.505594
3339.752827,-2960.823768,-10807.006753,-2145.067394
3339.753155,-2664.741391,-9400.615463,-536.266849
3339.753482,-1998.556043,-7402.059420,0.000000
3339.753810,-1480.411884,-5403.503377,0.000000
3339.754137,-296.082377,-8142.265362,-229.828649
3339.754465,1776.494261,-8734.430116,0.000000
3339.754793,3330.926739,-9030.512492,383.047749
3339.755120,3108.864956,-10658.965565,1762.019645
3339.755448,3034.844362,-9770.718434,1378.971896
3339.755775,2590.720797,-10955.047942,-1302.362347
3339.756103,888.247130,-11103.089130,-1915.238745
3339.756430,962.267725,-12435.459826,-1991.848295
3339.756758,222.061783,-10955.047942,-2221.676944
3339.757085,148.041188,-10658.965565,-919.314598
3339.757413,888.247130,-10288.862594,0.000000
3339.757741,2664.741391,-8660.409521,-306.438199
3339.758068,518.144159,-8142.265362,842.705048
3339.758396,1406.391290,-7179.997637,612.876398
3339.758723,2738.761985,-7846.182985,0.000000
3339.759051,2960.823768,-8586.388927,919.314598
3339.759378,3404.947333,-8956.491898,2451.505594
3339.759706,2442.679609,-9548.656652,2681.334243
3339.760033,1776.494261,-10066.800811,612.876398
3339.760361,1776.494261,-13249.686362,-459.657299
3339.760689,1036.288319,-11695.253884,-2068.457845
3339.761016,-1258.350101,-11103.089130,-2681.334243
3339.761344,-2738.761985,-11399.171507,-1608.800546
3339.761671,-1258.350101,-9622.677246,-1915.238745
3339.761999,0.000000,-9474.636058,-1072.533697
3339.762326,1184.329507,-9770.718434,306.438199
3339.762654,444.123565,-8660.409521,2298.286494
3339.762982,1332.370696,-7476.080014,1302.362347
3339.763309,1554.432478,-9178.553681,1608.800546
3339.763637,592.164754,-8290.306550,1302.362347
3339.763964,-222.061783,-8660.409521,919.314598
3339.764292,-1554.432478,-9844.739029,-383.047749
3339.764619,-1184.329507,-8808.450710,-2298.286494
3339.764947,-296.082377,-10584.944971,-2681.334243
3339.765274,222.061783,-13397.727550,-1608.800546
3339.765602,148.041188,-13841.851115,2298.286494
3339.765930,1480.411884,-11325.150913,0.000000
3339.766257,-370.102971,-9918.759623,-1378.971896
3339.766585,-2442.679609,-9178.553681,-1532.190996
3339.766912,-3478.967927,-6217.729913,-1302.362347
3339.767240,-4589.276840,-6513.812290,919.314598
3339.767567,-2960.823768,-5329.482782,612.876398
3339.767895,-2220.617826,-7179.997637,0.000000
3339.768222,-1184.329507,-9252.574275,1455.581446
3339.768550,74.020594,-9548.656652,995.924147
3339.768878,1998.556043,-11103.089130,-1072.533697
3339.769205,1702.473667,-12213.398043,-995.924147
3339.769533,1258.350101,-11843.295072,-383.047749
3339.769860,2294.638420,-8068.244768,-995.924147
3339.770188,0.000000,-10066.800811,766.095498
3339.770515,-1184.329507,-10807.006753,2757.943793
3339.770843,74.020594,-9252.574275,766.095498
3339.771170,-296.082377,-9844.739029,-766.095498
3339.771498,-1332.370696,-9548.656652,-1838.629195
3339.771826,-1998.556043,-9696.697840,-2068.457845
3339.772153,-1184.329507,-9030.512492,-766.095498
3339.772481,814.226536,-9178.553681,-842.705048
3339.772808,2442.679609,-7476.080014,-1915.238745
3339.773136,1406.391290,-9104.533087,0.000000
3339.773463,962.267725,-11843.295072,2451.505594
3339.773791,2812.782580,-9770.718434,1149.143247
3339.774118,3034.844362,-11177.109724,459.657299
3339.774446,2220.617826,-12509.480420,1302.362347
3339.774774,2072.576638,-11769.274478,-383.047749
3339.775101,370.102971,-9178.553681,-1762.019645
3339.775429,-592.164754,-10732.986159,-1838.629195
3339.775756,0.000000,-10066.800811,-2068.457845
3339.776084,1110.308913,-7476.080014,-1685.410096
3339.776411,74.020594,-8956.491898,1762.019645
3339.776739,592.164754,-8512.368333,2451.505594
3339.777066,1480.411884,-8956.491898,1455.581446
3339.777394,1776.494261,-8808.450710,612.876398
3339.777722,2516.700203,-9622.677246,-229.828649
3339.778049,2220.617826,-10881.027347,0.000000
3339.778377,1850.514855,-11473.192101,1455.581446
3339.778704,1776.494261,-9474.636058,1225.752797
3339.779032,1258.350101,-7994.224174,-536.266849
3339.779359,-222.061783,-11325.150913,-612.876398
3339.779687,-1480.411884,-9992.780217,919.314598
3339.780014,-1998.556043,-7254.018232,-919.314598
3339.780342,-2516.700203,-8142.265362,-2298.286494
3339.780670,-1924.535449,-9474.636058,-1455.581446
3339.780997,-962.267725,-8956.491898,0.000000
3339.781325,1110.308913,-8512.368333,-306.438199
3339.781652,148.041188,-9400.615463,1762.019645
3339.781980,3256.906145,-9992.780217,536.266849
3339.782307,3182.885551,-11251.130318,0.000000
3339.782635,74.020594,-11177.109724,1838.629195
3339.782962,-2442.679609,-10066.800811,0.000000
3339.783290,-3108.864956,-11473.192101,-2451.505594
3339.783618,-3108.864956,-10362.883188,-3753.867940
3339.783945,-1850.514855,-9474.636058,-4136.915689
3339.784273,-1776.494261,-10658.965565,-1532.190996
3339.784600,-1110.308913,-11621.233289,2374.896044
3339.784928,3182.885551,-9770.718434,536.266849
3339.785255,3404.947333,-9622.677246,-306.438199
3339.785583,0.000000,-10436.903782,1302.362347
3339.785910,-1036.288319,-6735.874072,1149.143247
3339.786238,-1850.514855,-5995.668130,-1915.238745
3339.786566,-2368.659014,-7624.121203,-842.705048
3339.786893,-2442.679609,-9844.739029,-459.657299
3339.787221,-1406.391290,-10362.883188,689.485948
3339.787548,-444.123565,-11251.130318,1072.533697
3339.787876,1258.350101,-11991.336260,-689.485948
3339.788203,1480.411884,-9178.553681,-2145.067394
3339.788531,1110.308913,-9844.739029,0.000000
3339.788858,1332.370696,-7179.997637,536.266849
3339.789186,962.267725,-6809.894666,1302.362347
3339.789514,-962.267725,-7920.203579,3140.991542
3339.789841,1036.288319,-8364.327145,2834.553343
3339.790169,2220.617826,-9030.512492,306.438199
3339.790496,1036.288319,-11177.109724,229.828649
3339.790824,518.144159,-11843.295072,-766.095498
3339.791151,2220.617826,-10214.842000,-3677.258390
3339.791479,1850.514855,-11251.130318,-2374.896044
3339.791806,1776.494261,-10066.800811,-919.314598
3339.792134,962.267725,-9178.553681,229.828649
3339.792462,74.020594,-10066.800811,1915.238745
3339.792789,1924.535449,-9622.677246,459.657299
3339.793117,2220.617826,-10658.965565,-1532.190996
3339.793444,296.082377,-11843.295072,842.705048
3339.793772,1480.411884,-9918.759623,229.828649
3339.794099,3034.844362,-8586.388927,-2451.505594
3339.794427,1554.432478,-9992.780217,-2221.676944
3339.794754,296.082377,-10584.944971,-153.219100
3339.795082,666.185348,-7254.018232,-689.485948
3339.795410,1110.308913,-9474.636058,-689.485948
3339.795737,1110.308913,-11251.130318,459.657299
3339.796065,1036.288319,-10807.006753,229.828649
3339.796392,-1184.329507,-9622.677246,76.609550
3339.796720,-666.185348,-9992.780217,-689.485948
3339.797047,1036.288319,-10288.862594,-1455.581446
3339.797375,1628.453072,-9400.615463,-689.485948
3339.797703,518.144159,-8956.491898,1608.800546
3339.798030,0.000000,-7254.018232,1149.143247
3339.798358,-370.102971,-7698.141797,383.047749
3339.798685,-1110.308913,-8734.430116,1378.971896
3339.799013,-666.185348,-9030.512492,459.657299
3339.799340,-1332.370696,-9474.636058,-1225.752797
3339.799668,-1702.473667,-9104.533087,-919.314598
3339.799995,222.061783,-10214.842000,-1225.752797
3339.800323,1184.329507,-9474.636058,-1302.362347
3339.800651,518.144159,-10436.903782,919.314598
3339.800978,1776.494261,-10066.800811,1455.581446
3339.801306,1036.288319,-8956.491898,842.705048
3339.801633,-814.226536,-10584.944971,995.924147
3339.801961,-1776.494261,-10066.800811,-536.266849
3339.802288,-2368.659014,-9844.739029,-2298.286494
3339.802616,-1924.535449,-9474.636058,-2987.772442
3339.802943,-296.082377,-9770.718434,-2604.724693
3339.803271,814.226536,-9844.739029,-153.219100
3339.803599,1628.453072,-10955.047942,1532.190996
3339.803926,3182.885551,-10288.862594,536.266849
3339.804254,3256.906145,-9400.615463,0.000000
3339.804581,1924.535449,-12287.418637,459.657299
3339.804909,-592.164754,-10510.924376,0.000000
3339.805236,-1628.453072,-7476.080014,-1149.143247
3339.805564,-3034.844362,-8808.450710,-1532.190996
3339.805891,-2886.803174,-10881.027347,-919.314598
3339.806219,-1258.350101,-9844.739029,-612.876398
3339.806547,0.000000,-8068.244768,0.000000
3339.806874,814.226536,-8956.491898,76.609550
3339.807202,1406.391290,-9474.636058,229.828649
3339.807529,1998.556043,-7031.956449,229.828649
3339.807857,3997.112087,-5773.606348,383.047749
3339.808184,2812.782580,-8068.244768,1455.581446
3339.808512,296.082377,-11695.253884,2604.724693
3339.808839,1628.453072,-9844.739029,995.924147
3339.809167,4071.132681,-9622.677246,-1532.190996
3339.809495,4367.215058,-11325.150913,-1302.362347
3339.809822,2146.597232,-13841.851115,842.705048
3339.810150,1258.350101,-11695.253884,536.266849
3339.810477,1036.288319,-7031.956449,-1838.629195
3339.810805,814.226536,-7920.203579,-2681.334243
3339.811132,-1702.473667,-8660.409521,-153.219100
3339.811460,-3034.844362,-8068.244768,1838.629195
3339.811787,-888.247130,-7105.977043,383.047749
3339.812115,518.144159,-11029.068536,-1378.971896
3339.812443,740.205942,-12065.356855,-689.485948
3339.812770,592.164754,-10658.965565,0.000000
3339.813098,1184.329507,-9844.739029,76.609550
3339.813425,592.164754,-10362.883188,-2221.676944
3339.813753,-444.123565,-12287.418637,-1225.752797
3339.814080,-740.205942,-10881.027347,-1225.752797
3339.814408,148.041188,-9992.780217,-1225.752797
3339.814735,222.061783,-10362.883188,-229.828649
3339.815063,-962.267725,-11103.089130,1149.143247
3339.815391,-1406.391290,-9844.739029,536.266849
3339.815718,-1184.329507,-8808.450710,-536.266849
3339.816046,-888.247130,-8364.327145,-766.095498
3339.816373,-740.205942,-6957.935855,0.000000
3339.816701,0.000000,-8068.244768,689.485948
3339.817028,888.247130,-9252.574275,1072.533697
3339.817356,1850.514855,-9622.677246,766.095498
3339.817683,296.082377,-9104.533087,1532.190996
3339.818011,-518.144159,-10214.842000,919.314598
3339.818339,-222.061783,-9474.636058,306.438199
3339.818666,-444.123565,-9400.615463,-1149.143247
3339.818994,-2368.659014,-11621.233289,-689.485948
3339.819321,-3034.844362,-9474.636058,-842.705048
3339.819649,-2738.761985,-7772.162391,-1072.533697
3339.819976,-1406.391290,-7105.977043,-536.266849
3339.820304,-1184.329507,-7550.100608,612.876398
3339.820631,-1628.453072,-9474.636058,459.657299
3339.820959,-1110.308913,-10214.842000,-383.047749
3339.821287,518.144159,-11473.192101,-2374.896044
3339.821614,1776.494261,-9992.780217,-2757.943793
3339.821942,1924.535449,-10288.862594,-689.485948
3339.822269,1554.432478,-12065.356855,1762.019645
3339.822597,2442.679609,-9844.739029,1072.533697
3339.822924,2886.803174,-10214.842000,-536.266849
3339.823252,1998.556043,-10436.903782,-689.485948
3339.823579,1702.473667,-11769.274478,-1225.752797
3339.823907,1406.391290,-9474.636058,0.000000
3339.824235,518.144159,-10214.842000,0.000000
3339.824562,444.123565,-10214.842000,-306.438199
3339.824890,1036.288319,-8216.285956,-612.876398
3339.825217,1332.370696,-8734.430116,-766.095498
3339.825545,592.164754,-9622.677246,1072.533697
3339.825872,1110.308913,-9178.553681,1149.143247
3339.826200,2220.617826,-7846.182985,612.876398
3339.826527,1998.556043,-8142.265362,0.000000
3339.826855,1702.473667,-8882.471304,0.000000
3339.827183,296.082377,-9178.553681,-229.828649
3339.827510,1480.411884,-11029.068536,383.047749
3339.827838,4515.256246,-10362.883188,-842.705048
3339.828165,2960.823768,-10510.924376,76.609550
3339.828493,888.247130,-10955.047942,2987.772442
3339.828820,1332.370696,-9474.636058,2145.067394
3339.829148,1998.556043,-8734.430116,0.000000
3339.829475,0.000000,-7994.224174,306.438199
3339.829803,-1184.329507,-9030.512492,612.876398
3339.830131,-2072.576638,-7698.141797,0.000000
3339.830458,-1924.535449,-7846.182985,-766.095498
3339.830786,-370.102971,-9474.636058,-1225.752797
3339.831113,74.020594,-11917.315666,-383.047749
3339.831441,-518.144159,-11621.233289,612.876398
3339.831768,-592.164754,-9844.739029,-612.876398
3339.832096,-1406.391290,-10807.006753,-2451.505594
3339.832424,-1332.370696,-10732.986159,-2528.115143
3339.832751,-444.123565,-11103.089130,-1149.143247
3339.833079,-222.061783,-10066.800811,0.000000
3339.833406,0.000000,-10658.965565,76.609550
3339.833734,-444.123565,-10288.862594,-459.657299
3339.834061,-962.267725,-8586.388927,-383.047749
3339.834389,-1998.556043,-8512.368333,-383.047749
3339.834716,-2368.659014,-8068.244768,-689.485948
3339.835044,-2664.741391,-8142.265362,0.000000
3339.835372,-1406.391290,-8660.409521,-842.705048
3339.835699,-444.123565,-9770.718434,-1302.362347
3339.836027,0.000000,-11325.150913,-306.438199
3339.836354,814.226536,-10732.986159,0.000000
3339.836682,1184.329507,-11769.274478,0.000000
3339.837009,1924.535449,-10436.903782,-919.314598
3339.837337,1036.288319,-9696.697840,-383.047749
3339.837664,-518.144159,-9474.636058,842.705048
3339.837992,-1554.432478,-7550.100608,1225.752797
3339.838320,-1850.514855,-8142.265362,383.047749
3339.838647,-1628.453072,-8734.430116,0.000000
3339.838975,-1702.473667,-8216.285956,-842.705048
3339.839302,-2960.823768,-7772.162391,0.000000
3339.839630,-1554.432478,-10362.883188,-919.314598
3339.839957,962.267725,-10807.006753,-2451.505594
3339.840285,2368.659014,-9474.636058,-1378.971896
3339.840612,3034.844362,-9622.677246,536.266849
3339.840940,2960.823768,-10732.986159,2298.286494
3339.841268,2664.741391,-11843.295072,3064.381992
3339.841595,2294.638420,-9918.759623,459.657299
3339.841923,1406.391290,-10510.924376,-1302.362347
3339.842250,148.041188,-11029.068536,-1532.190996
3339.842578,-296.082377,-10362.883188,-1762.019645
3339.842905,666.185348,-8956.491898,-1685.410096
3339.843233,2072.576638,-8068.244768,-1915.238745
3339.843560,2294.638420,-10436.903782,1225.752797
3339.843888,2368.659014,-10066.800811,2145.067394
3339.844216,2442.679609,-9252.574275,1225.752797
3339.844543,2590.720797,-9252.574275,229.828649
3339.844871,2368.659014,-10288.862594,-306.438199
3339.845198,1406.391290,-10732.986159,306.438199
3339.845526,2072.576638,-8808.450710,-153.219100
3339.845853,1998.556043,-8364.327145,-1302.362347
3339.846181,222.061783,-10658.965565,-383.047749
3339.846508,-666.185348,-11621.233289,0.000000
3339.846836,888.247130,-10214.842000,-1455.581446
3339.847163,1776.494261,-10066.800811,-536.266849
3339.847491,1702.473667,-9770.718434,919.314598
3339.847818,1332.370696,-9548.656652,1378.971896
3339.848146,962.267725,-9548.656652,1608.800546
3339.848473,2072.576638,-7402.059420,0.000000
3339.848801,222.061783,-9178.553681,76.609550
3339.849128,-1480.411884,-9400.615463,1149.143247
3339.849456,-888.247130,-7846.182985,0.000000
3339.849783,-962.267725,-8956.491898,-536.266849
3339.850110,-2516.700203,-11103.089130,229.828649
3339.850438,-2220.617826,-11177.109724,-919.314598
3339.850765,-148.041188,-10436.903782,-2604.724693
3339.851093,-1554.432478,-11769.274478,-2221.676944
3339.851420,-1628.453072,-11399.171507,-1455.581446
3339.851748,-1702.473667,-9474.636058,0.000000
3339.852075,-296.082377,-8438.347739,536.266849
3339.852403,666.185348,-8956.491898,612.876398
3339.852730,-592.164754,-9326.594869,1378.971896
3339.853058,-1702.473667,-8290.306550,1608.800546
3339.853385,-1554.432478,-8438.347739,0.000000
3339.853713,-1480.411884,-9030.512492,-1608.800546
3339.854040,-2072.576638,-9844.739029,-612.876398
3339.854368,-1258.350101,-10955.047942,-306.438199
3339.854695,-296.082377,-10658.965565,-2145.067394
3339.855023,518.144159,-11695.253884,-1302.362347
3339.855350,1776.494261,-10362.883188,-612.876398
3339.855678,666.185348,-10658.965565,383.047749
3339.856005,370.102971,-9696.697840,1149.143247
3339.856333,962.267725,-8660.409521,0.000000
3339.856660,888.247130,-8808.450710,-383.047749
3339.856988,-444.123565,-9104.533087,459.657299
3339.857315,-740.205942,-9474.636058,0.000000
3339.857642,0.000000,-9474.636058,76.609550
3339.857970,444.123565,-9548.656652,-1225.752797
3339.858297,-222.061783,-9474.636058,-689.485948
3339.858625,-1110.308913,-10510.924376,-536.266849
3339.858952,0.000000,-10955.047942,-995.924147
3339.859280,1628.453072,-9104.533087,-1455.581446
3339.859607,2664.741391,-9030.512492,76.609550
3339.859935,2220.617826,-9844.739029,1608.800546
3339.860262,2442.679609,-11843.295072,3600.648841
3339.860590,2442.679609,-10362.883188,1685.410096
3339.860917,1850.514855,-9844.739029,-1685.410096
3339.861245,814.226536,-9030.512492,-1991.848295
3339.861572,1628.453072,-8216.285956,-2145.067394
3339.861900,1628.453072,-8882.471304,0.000000
3339.862227,1258.350101,-8734.430116,842.705048
3339.862555,1850.514855,-8734.430116,459.657299
3339.862882,3182.885551,-10288.862594,689.485948
3339.863210,3034.844362,-12509.480420,1225.752797
3339.863537,2220.617826,-10436.903782,842.705048
3339.863865,1406.391290,-8438.347739,-153.219100
3339.864192,888.247130,-10214.842000,-306.438199
3339.864520,1776.494261,-9252.574275,0.000000
3339.864847,1776.494261,-7254.018232,-153.219100
3339.865174,-962.267725,-8956.491898,1685.410096
3339.865502,-1924.535449,-10288.862594,459.657299
3339.865829,222.061783,-9548.656652,-2374.896044
3339.866157,1406.391290,-10066.800811,-2528.115143
3339.866484,1332.370696,-11843.295072,-383.047749
3339.866812,1036.288319,-10584.944971,1532.190996
3339.867139,1332.370696,-9400.615463,459.657299
3339.867467,1184.329507,-8882.471304,0.000000
3339.867794,-296.082377,-10214.842000,229.828649
3339.868122,-2368.659014,-8438.347739,1072.533697
3339.868449,-2294.638420,-7846.182985,153.219100
3339.868777,-1110.308913,-8956.491898,-2604.724693
3339.869104,-1628.453072,-10584.944971,-1838.629195
3339.869432,-2516.700203,-12139.377449,306.438199
3339.869759,-1554.432478,-9474.636058,-383.047749
3339.870087,-1554.432478,-9770.718434,-2298.286494
3339.870414,-444.123565,-11473.192101,-1991.848295
3339.870742,-370.102971,-10066.800811,0.000000
3339.871069,-444.123565,-8364.327145,1149.143247
3339.871397,-444.123565,-8068.244768,1532.190996
3339.871724,-370.102971,-9844.739029,689.485948
3339.872052,-1480.411884,-9326.594869,0.000000
3339.872379,-2886.803174,-9474.636058,0.000000
3339.872706,-2516.700203,-9030.512492,-1072.533697
3339.873034,-1480.411884,-8438.347739,-1915.238745
3339.873361,-518.144159,-9770.718434,-766.095498
3339.873689,1110.308913,-10436.903782,0.000000
3339.874016,1406.391290,-9918.759623,1072.533697
3339.874344,518.144159,-9326.594869,1225.752797
3339.874671,296.082377,-8956.491898,229.828649
3339.874999,666.185348,-8956.491898,-766.095498
3339.875326,1258.350101,-9844.739029,383.047749
3339.875654,814.226536,-10362.883188,1149.143247
3339.875981,296.082377,-8956.491898,229.828649
3339.876309,1110.308913,-9992.780217,-536.266849
3339.876636,888.247130,-10362.883188,-919.314598
3339.876964,0.000000,-10214.842000,-306.438199
3339.877291,-740.205942,-9474.636058,-383.047749
3339.877619,-518.144159,-9548.656652,-1378.971896
3339.877946,666.185348,-9622.677246,-1991.848295
3339.878274,2960.823768,-8438.347739,-919.314598
3339.878601,3701.029710,-10140.821405,1149.143247
3339.878929,3034.844362,-10584.944971,2911.162892
3339.879256,3330.926739,-10658.965565,1685.410096
3339.879584,3478.967927,-10362.883188,-612.876398
3339.879911,3108.864956,-10066.800811,-1685.410096
3339.880238,1406.391290,-9178.553681,-689.485948
3339.880566,1110.308913,-9252.574275,-459.657299
3339.880893,1332.370696,-9326.594869,-459.657299
3339.881221,1702.473667,-9474.636058,-536.266849
3339.881548,814.226536,-10066.800811,459.657299
3339.881876,1850.514855,-10658.965565,995.924147
3339.882203,1702.473667,-10214.842000,153.219100
3339.882531,1036.288319,-9326.594869,-536.266849
3339.882858,-296.082377,-8142.265362,-383.047749
3339.883186,-222.061783,-9030.512492,919.314598
3339.883513,518.144159,-7105.977043,536.266849
3339.883841,444.123565,-7254.018232,76.609550
3339.884168,-1110.308913,-8660.409521,459.657299
3339.884496,-1480.411884,-10732.986159,153.219100
3339.884823,-1332.370696,-11473.192101,-919.314598
3339.885151,296.082377,-10362.883188,-1455.581446
3339.885478,222.061783,-10362.883188,-1149.143247
3339.885806,518.144159,-11621.233289,459.657299
3339.886133,148.041188,-10436.903782,1072.533697
3339.886461,0.000000,-7994.224174,229.828649
3339.886788,-1406.391290,-7920.203579,306.438199
3339.887116,-2590.720797,-8586.388927,536.266849
3339.887443,-2368.659014,-8808.450710,0.000000
3339.887770,-2738.761985,-9326.594869,0.000000
3339.888098,-2664.741391,-9696.697840,-1608.800546
3339.888425,-1702.473667,-10807.006753,-1915.238745
3339.888753,-296.082377,-10807.006753,-1762.019645
3339.889080,222.061783,-11547.212695,-995.924147
3339.889408,296.082377,-11547.212695,-229.828649
3339.889735,-740.205942,-9474.636058,459.657299
3339.890063,-888.247130,-8438.347739,-919.314598
3339.890390,-1480.411884,-8364.327145,-612.876398
3339.890718,-1258.350101,-9918.759623,459.657299
3339.891045,-1110.308913,-9178.553681,766.095498
3339.891373,0.000000,-9992.780217,153.219100
3339.891700,74.020594,-10066.800811,-1072.533697
3339.892028,370.102971,-8512.368333,-459.657299
3339.892355,592.164754,-9548.656652,0.000000
3339.892683,518.144159,-9474.636058,153.219100
3339.893010,0.000000,-9252.574275,-536.266849
3339.893338,1480.411884,-9030.512492,-1378.971896
3339.893665,1184.329507,-9474.636058,-612.876398
3339.893993,1776.494261,-10658.965565,842.705048
3339.894320,1702.473667,-9696.697840,229.828649
3339.894648,1554.432478,-10807.006753,-383.047749
3339.894975,1850.514855,-9622.677246,-1455.581446
3339.895302,2516.700203,-9474.636058,-1225.752797
3339.895630,2516.700203,-10140.821405,612.876398
3339.895957,1258.350101,-7994.224174,1455.581446
3339.896285,222.061783,-8512.368333,1838.629195
3339.896612,0.000000,-10140.821405,-766.095498
3339.896940,-518.144159,-11399.171507,-1915.238745
3339.897267,74.020594,-9104.533087,-2221.676944
3339.897595,1480.411884,-8438.347739,-1532.190996
3339.897922,2960.823768,-10140.821405,0.000000
3339.898250,3108.864956,-11103.089130,2374.896044
3339.898577,2886.803174,-10510.924376,1838.629195
3339.898905,2294.638420,-10955.047942,919.314598
3339.899232,1776.494261,-10066.800811,-1685.410096
3339.899560,1332.370696,-9178.553681,-2374.896044
3339.899887,666.185348,-10658.965565,-383.047749
3339.900215,222.061783,-9178.553681,1072.533697
3339.900542,-444.123565,-8956.491898,1991.848295
3339.900870,74.020594,-8586.388927,76.609550
3339.901197,2294.638420,-9400.615463,-1302.362347
3339.901525,592.164754,-11325.150913,0.000000
3339.901852,-444.123565,-9770.718434,842.705048
3339.902180,-222.061783,-7846.182985,0.000000
3339.902507,1036.288319,-7846.182985,-1072.533697
3339.902834,1036.288319,-9252.574275,383.047749
3339.903162,-1258.350101,-9844.739029,1762.019645
3339.903489,-2886.803174,-8808.450710,612.876398
3339.903817,-1924.535449,-10955.047942,-1915.238745
3339.904144,0.000000,-11325.150913,-3753.867940
3339.904472,0.000000,-11029.068536,-1225.752797
3339.904799,-888.247130,-9400.615463,2145.067394
3339.905127,370.102971,-9326.594869,2145.067394
3339.905454,-296.082377,-8808.450710,306.438199
3339.905782,-814.226536,-9104.533087,-995.924147
3339.906109,-3627.009116,-8660.409521,-153.219100
3339.906437,-3182.885551,-7920.203579,-689.485948
3339.906764,-1332.370696,-9252.574275,-1378.971896
3339.907092,0.000000,-11695.253884,-612.876398
3339.907419,0.000000,-11029.068536,766.095498
3339.907747,1406.391290,-10436.903782,612.876398
3339.908074,444.123565,-10214.842000,-995.924147
3339.908402,-888.247130,-10881.027347,-1762.019645
3339.908729,-1776.494261,-9770.718434,-995.924147
3339.909057,-1406.391290,-9474.636058,-612.876398
3339.909384,0.000000,-8734.430116,-689.485948
3339.909712,148.041188,-9326.594869,306.438199
3339.910039,296.082377,-10436.903782,689.485948
3339.910366,1110.308913,-9770.718434,0.000000
3339.910694,1110.308913,-9622.677246,-612.876398
3339.911021,814.226536,-9622.677246,-306.438199
3339.911349,296.082377,-9178.553681,0.000000
3339.911676,1850.514855,-7994.224174,0.000000
3339.912004,1258.350101,-9104.533087,766.095498
3339.912331,1554.432478,-10288.862594,995.924147
3339.912659,962.267725,-9548.656652,0.000000
3339.912986,1702.473667,-10066.800811,-1685.410096
3339.913314,1554.432478,-9548.656652,-1915.238745
3339.913641,1850.514855,-10288.862594,-229.828649
3339.913969,2442.679609,-10658.965565,1302.362347
3339.914296,3923.091493,-9252.574275,1302.362347
3339.914624,2886.803174,-7328.038826,995.924147
3339.914951,518.144159,-8290.306550,1455.581446
3339.915279,-1850.514855,-10288.862594,1915.238745
3339.915606,-1702.473667,-10510.924376,-1608.800546
3339.915934,-1702.473667,-9178.553681,-4366.744339
3339.916261,444.123565,-7994.224174,-4366.744339
3339.916589,1258.350101,-9918.759623,-229.828649
3339.916916,2368.659014,-12509.480420,2987.772442
3339.917244,2072.576638,-9770.718434,2681.334243
3339.917571,3108.864956,-9104.533087,-612.876398
3339.917898,1184.329507,-10658.965565,-1532.190996
3339.918226,444.123565,-11991.336260,-995.924147
3339.918553,592.164754,-9030.512492,-459.657299
3339.918881,222.061783,-8660.409521,0.000000
3339.919208,296.082377,-9770.718434,153.219100
3339.919536,1554.432478,-10510.924376,842.705048
3339.919863,814.226536,-9252.574275,459.657299
3339.920191,222.061783,-9844.739029,306.438199
3339.920518,-740.205942,-10881.027347,-689.485948
3339.920846,-740.205942,-9548.656652,-1915.238745
3339.921173,-962.267725,-8586.388927,-995.924147
3339.921501,0.000000,-7624.121203,766.095498
3339.921828,74.020594,-8438.347739,1455.581446
3339.922156,-1110.308913,-10584.944971,536.266849
3339.922483,-1036.288319,-11251.130318,-919.314598
3339.922811,-888.247130,-10436.903782,-1991.848295
3339.923138,-222.061783,-9326.594869,-1302.362347
3339.923466,-888.247130,-9844.739029,1532.190996
3339.923793,-740.205942,-8512.368333,1072.533697
3339.924121,0.000000,-7846.182985,689.485948
3339.924448,0.000000,-8956.491898,0.000000
3339.924776,-1110.308913,-9178.553681,459.657299
3339.925103,-1480.411884,-9548.656652,-919.314598
3339.925430,-962.267725,-8882.471304,-1225.752797
3339.925758,-370.102971,-8438.347739,-689.485948
3339.926085,0.000000,-10658.965565,229.828649
3339.926413,0.000000,-11251.130318,1838.629195
3339.926740,592.164754,-8734.430116,536.266849
3339.927068,1036.288319,-8808.450710,-1225.752797
3339.927395,-592.164754,-11843.295072,-919.314598
3339.927723,-888.247130,-11103.089130,-1225.752797
3339.928050,-1036.288319,-8734.430116,-1455.581446
3339.928378,148.041188,-9400.615463,-1532.190996
3339.928705,370.102971,-10066.800811,-919.314598
3339.929033,1850.514855,-10807.006753,0.000000
3339.929360,1554.432478,-10510.924376,1225.752797
3339.929688,1628.453072,-9992.780217,842.705048
3339.930015,1776.494261,-9622.677246,0.000000
3339.930343,1406.391290,-9548.656652,-919.314598
3339.930670,1110.308913,-10066.800811,0.000000
3339.930998,666.185348,-9474.636058,-383.047749
3339.931325,1036.288319,-9104.533087,-995.924147
3339.931653,1258.350101,-9474.636058,-1225.752797
3339.931980,888.247130,-10658.965565,-995.924147
3339.932308,1850.514855,-10732.986159,0.000000
3339.932635,1332.370696,-9400.615463,1378.971896
3339.932962,2220.617826,-9030.512492,536.266849
3339.933290,2072.576638,-9252.574275,306.438199
3339.933617,1554.432478,-9918.759623,1149.143247
3339.933945,1184.329507,-7772.162391,612.876398
3339.934272,-592.164754,-8438.347739,1455.581446
3339.934600,-2146.597232,-8734.430116,919.314598
3339.934927,-2368.659014,-10066.800811,-1455.581446
3339.935255,-2146.597232,-9770.718434,-3447.429741
3339.935582,-1258.350101,-8660.409521,-2298.286494
3339.935910,222.061783,-8068.244768,-1532.190996
3339.936237,1998.556043,-10732.986159,459.657299
3339.936565,1554.432478,-12731.542202,2451.505594
3339.936892,2072.576638,-11103.089130,1532.190996
3339.937220,2220.617826,-9474.636058,-842.705048
3339.937547,1406.391290,-10214.842000,-2068.457845
3339.937875,0.000000,-10362.883188,-1302.362347
3339.938202,148.041188,-8808.450710,0.000000
3339.938530,-592.164754,-7105.977043,1302.362347
3339.938857,-592.164754,-8438.347739,1302.362347
3339.939185,74.020594,-9622.677246,536.266849
3339.939512,444.123565,-12213.398043,-689.485948
3339.939840,-888.247130,-11103.089130,-612.876398
3339.940167,444.123565,-9992.780217,-1915.238745
3339.940494,0.000000,-9918.759623,-1608.800546
3339.940822,1332.370696,-8290.306550,-306.438199
3339.941149,814.226536,-8216.285956,536.266849
3339.941477,-2368.659014,-9992.780217,2068.457845
3339.941804,-3404.947333,-10732.986159,1532.190996
3339.942132,148.041188,-9548.656652,-2834.553343
3339.942459,0.000000,-10732.986159,-2604.724693
3339.942787,-1406.391290,-9844.739029,459.657299
3339.943114,-518.144159,-8734.430116,459.657299
3339.943442,888.247130,-9400.615463,-153.219100
3339.943769,2072.576638,-10288.862594,-306.438199
3339.944097,814.226536,-9252.574275,229.828649
3339.944425,-740.205942,-8364.327145,612.876398
3339.944752,-1332.370696,-7772.162391,1149.143247
3339.945080,888.247130,-8068.244768,0.000000
3339.945407,1480.411884,-9992.780217,229.828649
3339.945735,0.000000,-11177.109724,1685.410096
3339.946063,518.144159,-9548.656652,153.219100
3339.946390,888.247130,-10214.842000,-2528.115143
3339.946718,-222.061783,-10955.047942,-3064.381992
3339.947046,74.020594,-9696.697840,-1915.238745
3339.947373,0.000000,-8586.388927,229.828649
3339.947701,1998.556043,-9400.615463,1072.533697
3339.948028,2368.659014,-10288.862594,459.657299
3339.948356,1702.473667,-11325.150913,612.876398
3339.948684,1110.308913,-10881.027347,1225.752797
3339.949011,444.123565,-9992.780217,0.000000
3339.949339,148.041188,-8882.471304,-1378.971896
3339.949667,-444.123565,-8142.265362,-1225.752797
3339.949994,962.267725,-9326.594869,-383.047749
3339.950322,1480.411884,-10214.842000,0.000000
3339.950650,1480.411884,-10214.842000,229.828649
3339.950977,518.144159,-10807.006753,536.266849
3339.951305,814.226536,-9622.677246,-1455.581446
3339.951632,666.185348,-9844.739029,-919.314598
3339.951960,666.185348,-11399.171507,306.438199
3339.952288,1702.473667,-9992.780217,536.266849
3339.952615,2294.638420,-9252.574275,0.000000
3339.952943,2368.659014,-8808.450710,0.000000
3339.953271,74.020594,-10066.800811,1072.533697
3339.953598,-2442.679609,-8808.450710,2451.505594
3339.953926,-2812.782580,-7624.121203,0.000000
3339.954254,-4071.132681,-8586.388927,-2681.334243
3339.954581,-3108.864956,-8660.409521,-3983.696590
3339.954909,-888.247130,-8734.430116,-2451.505594
3339.955236,888.247130,-10214.842000,459.657299
3339.955564,1480.411884,-12065.356855,2604.724693
3339.955892,2220.617826,-10436.903782,2374.896044
3339.956219,2516.700203,-9474.636058,-766.095498
3339.956547,1036.288319,-10066.800811,-1225.752797
3339.956875,0.000000,-9770.718434,-306.438199
3339.957202,-370.102971,-7920.203579,0.000000
3339.957530,0.000000,-7402.059420,0.000000
3339.957858,-1036.288319,-9104.533087,306.438199
3339.958185,-518.144159,-10807.006753,1225.752797
3339.958513,148.041188,-10955.047942,-306.438199
3339.958840,592.164754,-11251.130318,-2374.896044
3339.959168,1628.453072,-11177.109724,-2757.943793
3339.959496,1110.308913,-10807.006753,-1149.143247
3339.959823,1184.329507,-8660.409521,766.095498
3339.960151,1702.473667,-8512.368333,1072.533697
3339.960479,1258.350101,-7179.997637,1608.800546
3339.960806,-1184.329507,-9548.656652,536.266849
3339.961134,-2516.700203,-11843.295072,76.609550
3339.961462,-888.247130,-11325.150913,-3064.381992
3339.961789,-296.082377,-10214.842000,-3524.039291
3339.962117,1036.288319,-9178.553681,-2221.676944
3339.962444,1110.308913,-9622.677246,306.438199
3339.962772,2294.638420,-10510.924376,2528.115143
3339.963100,2368.659014,-8808.450710,1455.581446
3339.963427,148.041188,-8586.388927,1378.971896
3339.963755,-1184.329507,-8512.368333,766.095498
3339.964083,-1332.370696,-7624.121203,76.609550
3339.964410,-888.247130,-7846.182985,459.657299
3339.964738,-1184.329507,-9326.594869,919.314598
3339.965066,518.144159,-10436.903782,919.314598
3339.965393,2664.741391,-11325.150913,-1378.971896
3339.965721,1036.288319,-11621.233289,-689.485948
3339.966048,0.000000,-10584.944971,-612.876398
3339.966376,-740.205942,-8882.471304,-842.705048
3339.966704,518.144159,-8586.388927,-766.095498
3339.967031,814.226536,-9844.739029,0.000000
3339.967359,962.267725,-9844.739029,1149.143247
3339.967687,1406.391290,-10140.821405,1225.752797
3339.968014,1332.370696,-9770.718434,0.000000
3339.968342,962.267725,-8956.491898,-1532.190996
3339.968670,-296.082377,-9918.759623,-689.485948
3339.968997,-740.205942,-8512.368333,0.000000
3339.969325,-666.185348,-7920.203579,-383.047749
3339.969652,666.185348,-9696.697840,-306.438199
3339.969980,1110.308913,-11399.171507,-919.314598
3339.970308,888.247130,-11621.233289,76.609550
3339.970635,666.185348,-11029.068536,0.000000
3339.970963,518.144159,-11029.068536,-306.438199
3339.971291,1924.535449,-10362.883188,-1685.410096
3339.971618,1258.350101,-9474.636058,-1685.410096
3339.971946,0.000000,-8586.388927,1072.533697
3339.972274,-370.102971,-8438.347739,1532.190996
3339.972601,-1924.535449,-7550.100608,1915.238745
3339.972929,-1998.556043,-9918.759623,612.876398
3339.973256,-3330.926739,-10658.965565,-1685.410096
3339.973584,-3775.050304,-9104.533087,-3600.648841
3339.973912,-2146.597232,-8216.285956,-4136.915689
3339.974239,1332.370696,-9104.533087,-2145.067394
3339.974567,2368.659014,-11251.130318,1302.362347
3339.974895,2072.576638,-10881.027347,4903.011187
3339.975222,2442.679609,-8956.491898,3140.991542
3339.975550,1554.432478,-9548.656652,0.000000
3339.975877,148.041188,-10066.800811,-1762.019645
3339.976205,-1258.350101,-9474.636058,-1149.143247
3339.976533,-1776.494261,-7105.977043,-689.485948
3339.976860,-370.102971,-7402.059420,-1378.971896
3339.977188,444.123565,-9696.697840,0.000000
3339.977516,2072.576638,-10955.047942,612.876398
3339.977843,2220.617826,-10066.800811,689.485948
3339.978171,2072.576638,-10658.965565,0.000000
3339.978499,888.247130,-9474.636058,0.000000
3339.978826,1628.453072,-7920.203579,-1149.143247
3339.979154,1406.391290,-8142.265362,459.657299
3339.979481,2072.576638,-8586.388927,919.314598
3339.979809,888.247130,-8734.430116,1378.971896
3339.980137,-1184.329507,-10955.047942,229.828649
3339.980464,-740.205942,-11843.295072,-2528.115143
3339.980792,296.082377,-12213.398043,-4136.915689
3339.981120,666.185348,-9992.780217,-1762.019645
3339.981447,1036.288319,-9252.574275,-153.219100
3339.981775,1776.494261,-9770.718434,1455.581446
3339.982103,2442.679609,-10066.800811,1072.533697
3339.982430,0.000000,-9992.780217,459.657299
3339.982758,-1850.514855,-9548.656652,536.266849
3339.983085,-1702.473667,-7624.121203,-1762.019645
3339.983413,-740.205942,-8290.306550,-1608.800546
3339.983741,-666.185348,-9474.636058,-459.657299
3339.984068,-222.061783,-10436.903782,1225.752797
3339.984396,148.041188,-10362.883188,1072.533697
3339.984724,1332.370696,-10436.903782,-919.314598
3339.985051,444.123565,-11029.068536,-995.924147
3339.985379,-740.205942,-10658.965565,0.000000
3339.985707,-1406.391290,-9548.656652,306.438199
3339.986034,-592.164754,-7994.224174,-153.219100
3339.986362,518.144159,-8586.388927,-459.657299
3339.986689,444.123565,-9622.677246,1608.800546
3339.987017,0.000000,-9622.677246,2681.334243
3339.987345,-1332.370696,-8364.327145,1302.362347
3339.987672,-2146.597232,-9030.512492,-842.705048
3339.988000,-1332.370696,-7698.141797,-2145.067394
3339.988328,-370.102971,-9030.512492,-1225.752797
3339.988655,-1110.308913,-10140.821405,1225.752797
3339.988983,0.000000,-9844.739029,536.266849
3339.989311,1924.535449,-10362.883188,-842.705048
3339.989638,1924.535449,-10807.006753,-766.095498
3339.989966,888.247130,-11029.068536,459.657299
3339.990293,1258.350101,-9622.677246,1072.533697
3339.990621,296.082377,-8734.430116,-459.657299
3339.990949,-740.205942,-8660.409521,-1149.143247
3339.991276,-296.082377,-10066.800811,-1762.019645
3339.991604,-1554.432478,-10066.800811,0.000000
3339.991932,-222.061783,-11029.068536,0.000000
3339.992259,518.144159,-11843.295072,-2145.067394
3339.992587,888.247130,-10140.821405,-2374.896044
3339.992915,74.020594,-9178.553681,-919.314598
3339.993242,0.000000,-9474.636058,306.438199
3339.993570,814.226536,-8956.491898,229.828649
3339.993897,1628.453072,-9178.553681,459.657299
3339.994225,1406.391290,-9622.677246,306.438199
3339.994553,370.102971,-10955.047942,1608.800546
3339.994880,-518.144159,-10732.986159,1225.752797
3339.995208,-962.267725,-10436.903782,-1838.629195
3339.995536,-518.144159,-9104.533087,-3524.039291
3339.995863,888.247130,-8660.409521,-2834.553343
3339.996191,1332.370696,-9622.677246,766.095498
3339.996519,1850.514855,-10510.924376,3753.867940
3339.996846,2072.576638,-9326.594869,2451.505594
3339.997174,2886.803174,-9770.718434,919.314598
3339.997501,962.267725,-10584.944971,0.000000
3339.997829,74.020594,-8808.450710,76.609550
3339.998157,0.000000,-7550.100608,-919.314598
3339.998484,74.020594,-8290.306550,-1762.019645
3339.998812,962.267725,-8956.491898,-612.876398
3339.999140,592.164754,-10510.924376,1378.971896
3339.999467,2220.617826,-9474.636058,1915.238745
3339.999795,1702.473667,-9696.697840,0.000000
3340.000122,1036.288319,-10584.944971,-229.828649
3340.000450,1110.308913,-9770.718434,-1149.143247
3340.000778,740.205942,-9474.636058,0.000000
3340.001105,2368.659014,-8290.306550,306.438199
3340.001433,1628.453072,-7105.977043,612.876398
3340.001761,0.000000,-9474.636058,1762.019645
3340.002088,-1480.411884,-11621.233289,0.000000
3340.002416,0.000000,-11251.130318,-2451.505594
3340.002744,0.000000,-9252.574275,-2145.067394
3340.003071,0.000000,-9326.594869,-1915.238745
3340.003399,0.000000,-11103.089130,0.000000
3340.003726,74.020594,-11473.192101,842.705048
3340.004054,222.061783,-10214.842000,459.657299
3340.004382,1184.329507,-11399.171507,-536.266849
3340.004709,444.123565,-9992.780217,-1915.238745
3340.005037,-666.185348,-8512.368333,-766.095498
3340.005365,-518.144159,-9252.574275,536.266849
3340.005692,-444.123565,-9770.718434,1072.533697
3340.006020,-740.205942,-10955.047942,306.438199
3340.006348,-1184.329507,-9178.553681,0.000000
3340.006675,-1554.432478,-8882.471304,-536.266849
3340.007003,-2072.576638,-10362.883188,-1072.533697
3340.007330,-1554.432478,-9770.718434,-689.485948
3340.007658,-1480.411884,-7550.100608,-1455.581446
3340.007986,74.020594,-8956.491898,-1302.362347
3340.008313,592.164754,-10436.903782,229.828649
3340.008641,370.102971,-9548.656652,1838.629195
3340.008969,0.000000,-9178.553681,1608.800546
3340.009296,518.144159,-8882.471304,0.000000
3340.009624,0.000000,-9992.780217,-842.705048
3340.009952,-444.123565,-9844.739029,-229.828649
3340.010279,-666.185348,-9696.697840,459.657299
3340.010607,222.061783,-9918.759623,-153.219100
3340.010934,888.247130,-8438.347739,-1225.752797
3340.011262,0.000000,-10214.842000,-536.266849
3340.011590,-518.144159,-9770.718434,0.000000
3340.011917,0.000000,-8586.388927,-229.828649
3340.012245,222.061783,-8882.471304,76.609550
3340.012573,74.020594,-9252.574275,0.000000
3340.012900,296.082377,-10732.986159,0.000000
3340.013228,592.164754,-10066.800811,536.266849
3340.013556,0.000000,-10807.006753,0.000000
3340.013883,148.041188,-11399.171507,-1991.848295
3340.014211,1258.350101,-11547.212695,-3447.429741
3340.014538,1110.308913,-10732.986159,-1838.629195
3340.014866,2590.720797,-9474.636058,-766.095498
3340.015194,2146.597232,-10288.862594,1302.362347
3340.015521,1924.535449,-10140.821405,2451.505594
3340.015849,1998.556043,-8586.388927,919.314598
3340.016177,1110.308913,-11103.089130,229.828649
3340.016504,-592.164754,-10140.821405,0.000000
3340.016832,296.082377,-7550.100608,-1991.848295
3340.017160,1110.308913,-7254.018232,-2221.676944
3340.017487,296.082377,-9548.656652,-306.438199
3340.017815,222.061783,-9400.615463,1915.238745
3340.018142,1554.432478,-9104.533087,1762.019645
3340.018470,2220.617826,-9400.615463,306.438199
3340.018798,1554.432478,-11103.089130,-612.876398
3340.019125,222.061783,-10881.027347,229.828649
3340.019453,814.226536,-8882.471304,383.047749
3340.019781,1924.535449,-7550.100608,766.095498
3340.020108,2220.617826,-7254.018232,153.219100
3340.020436,0.000000,-10066.800811,1991.848295
3340.020764,-592.164754,-10362.883188,1915.238745
3340.021091,370.102971,-8808.450710,-1608.800546
3340.021419,518.144159,-9844.739029,-2298.286494
3340.021746,0.000000,-9474.636058,-995.924147
3340.022074,-1480.411884,-10288.862594,612.876398
3340.022402,-444.123565,-9770.718434,842.705048
3340.022729,518.144159,-9770.718434,-306.438199
3340.023057,0.000000,-9474.636058,-689.485948
3340.023385,-592.164754,-10140.821405,-766.095498
3340.023712,-592.164754,-10658.965565,-306.438199
3340.024040,0.000000,-9178.553681,-536.266849
3340.024368,-370.102971,-9992.780217,-612.876398
3340.024695,-444.123565,-11621.233289,-383.047749
3340.025023,-444.123565,-10658.965565,459.657299
3340.025350,-888.247130,-10140.821405,229.828649
3340.025678,-1258.350101,-10584.944971,-919.314598
3340.026006,-1480.411884,-9474.636058,-1991.848295
3340.026333,370.102971,-8734.430116,-2298.286494
3340.026661,-296.082377,-10288.862594,76.609550
3340.026989,-740.205942,-9400.615463,1302.362347
3340.027316,0.000000,-8290.306550,383.047749
3340.027644,0.000000,-9030.512492,-383.047749
3340.027971,-666.185348,-10955.047942,-306.438199
3340.028299,-1184.329507,-10140.821405,383.047749
3340.028627,148.041188,-9178.553681,-306.438199
3340.028954,814.226536,-10288.862594,-153.219100
3340.029282,1332.370696,-9770.718434,-536.266849
3340.029610,370.102971,-9252.574275,0.000000
3340.029937,666.185348,-8956.491898,76.609550
3340.030265,-222.061783,-9252.574275,383.047749
3340.030593,-444.123565,-8142.265362,-459.657299
3340.030920,-370.102971,-8290.306550,0.000000
3340.031248,-740.205942,-9474.636058,995.924147
3340.031575,-148.041188,-8586.388927,995.924147
3340.031903,1184.329507,-9252.574275,-612.876398
3340.032231,1776.494261,-9696.697840,-1225.752797
3340.032558,518.144159,-10955.047942,-1302.362347
3340.032886,0.000000,-11399.171507,-383.047749
3340.033214,1332.370696,-10288.862594,-1072.533697
3340.033541,2368.659014,-9030.512492,-1455.581446
3340.033869,3330.926739,-9548.656652,-1072.533697
3340.034197,1628.453072,-12065.356855,1225.752797
3340.034524,1850.514855,-11621.233289,2911.162892
3340.034852,1998.556043,-8956.491898,-536.266849
3340.035179,740.205942,-10510.924376,-2528.115143
3340.035507,296.082377,-10362.883188,-2145.067394
3340.035835,148.041188,-8068.244768,-1915.238745
3340.036162,814.226536,-8734.430116,-1149.143247
3340.036490,148.041188,-9474.636058,459.657299
3340.036818,666.185348,-9548.656652,306.438199
3340.037145,1184.329507,-9992.780217,689.485948
3340.037473,1924.535449,-10955.047942,383.047749
3340.037801,2072.576638,-11917.315666,-536.266849
3340.038128,1332.370696,-10584.944971,-995.924147
3340.038456,2294.638420,-8438.347739,-1225.752797
3340.038783,2738.761985,-8216.285956,153.219100
3340.039111,1924.535449,-8660.409521,1532.190996
3340.039439,-1702.473667,-9696.697840,2068.457845
3340.039766,-1554.432478,-9548.656652,229.828649
3340.040094,-296.082377,-9400.615463,-2528.115143
3340.040422,-592.164754,-10436.903782,-1608.800546
3340.040749,-888.247130,-9474.636058,229.828649
3340.041077,-740.205942,-8586.388927,459.657299
3340.041405,148.041188,-8364.327145,153.219100
3340.041732,74.020594,-9770.718434,-306.438199
3340.042060,-1258.350101,-9178.553681,766.095498
3340.042387,-1480.411884,-8586.388927,1072.533697
3340.042715,-962.267725,-9252.574275,-306.438199
3340.043043,-222.061783,-10140.821405,-766.095498
3340.043370,-1406.391290,-11621.233289,-306.438199
3340.043698,0.000000,-12509.480420,153.219100
3340.044026,518.144159,-9770.718434,-1225.752797
3340.044353,0.000000,-9622.677246,-1915.238745
3340.044681,-518.144159,-10362.883188,-383.047749
3340.045009,-666.185348,-8882.471304,229.828649
3340.045336,296.082377,-7994.224174,919.314598
3340.045664,-1184.329507,-9178.553681,459.657299
3340.045991,-518.144159,-9474.636058,842.705048
3340.046319,-518.144159,-9548.656652,-1149.143247
3340.046647,-962.267725,-11103.089130,-1378.971896
3340.046974,-814.226536,-11325.150913,-995.924147
3340.047302,296.082377,-9696.697840,-2374.896044
3340.047630,1406.391290,-9992.780217,-2068.457845
3340.047957,1480.411884,-10510.924376,689.485948
3340.048285,1702.473667,-10066.800811,1838.629195
3340.048613,296.082377,-9326.594869,1608.800546
3340.048940,296.082377,-8882.471304,766.095498
3340.049268,74.020594,-9104.533087,-995.924147
3340.049595,-592.164754,-9548.656652,-689.485948
3340.049923,-444.123565,-9326.594869,383.047749
3340.050251,0.000000,-8364.327145,-383.047749
3340.050578,1332.370696,-8882.471304,-229.828649
3340.050906,2516.700203,-9474.636058,-689.485948
3340.051234,1036.288319,-9400.615463,1149.143247
3340.051561,-592.164754,-10955.047942,1455.581446
3340.051889,0.000000,-10658.965565,-842.705048
3340.052216,1332.370696,-8512.368333,-2298.286494
3340.052544,2072.576638,-9400.615463,-1608.800546
3340.052872,2220.617826,-10807.006753,1225.752797
3340.053199,1776.494261,-10955.047942,3064.381992
3340.053527,3478.967927,-9474.636058,919.314598
3340.053855,3256.906145,-9326.594869,-1532.190996
3340.054182,518.144159,-10584.944971,0.000000
3340.054510,-370.102971,-8660.409521,0.000000
3340.054837,-592.164754,-7550.100608,-383.047749
3340.055165,0.000000,-7105.977043,-1378.971896
3340.055493,0.000000,-10140.821405,-842.705048
3340.055820,-222.061783,-11843.295072,2221.676944
3340.056148,1332.370696,-10881.027347,842.705048
3340.056475,1998.556043,-11029.068536,-1685.410096
3340.056803,2368.659014,-11103.089130,-1991.848295
3340.057131,962.267725,-10288.862594,-842.705048
3340.057458,1184.329507,-7994.224174,306.438199
3340.057786,592.164754,-7624.121203,1838.629195
3340.058114,0.000000,-7994.224174,1762.019645
3340.058441,-1110.308913,-10288.862594,919.314598
3340.058769,-2146.597232,-11769.274478,-229.828649
3340.059096,0.000000,-10658.965565,-2145.067394
3340.059424,-296.082377,-9548.656652,-2145.067394
3340.059752,0.000000,-8882.471304,-1685.410096
3340.060079,0.000000,-9030.512492,0.000000
3340.060407,814.226536,-8068.244768,766.095498
3340.060734,370.102971,-9252.574275,1838.629195
3340.061062,-1036.288319,-9326.594869,1762.019645
3340.061390,-370.102971,-8586.388927,0.000000
3340.061717,-1554.432478,-9992.780217,76.609550
3340.062045,-1776.494261,-9844.739029,-153.219100
3340.062373,-2220.617826,-10362.883188,-1149.143247
3340.062700,-592.164754,-9992.780217,-2221.676944
3340.063028,2072.576638,-9844.739029,-2604.724693
3340.063355,814.226536,-11547.212695,229.828649
3340.063683,0.000000,-10510.924376,2911.162892
3340.064011,0.000000,-8586.388927,1608.800546
3340.064338,370.102971,-7476.080014,689.485948
3340.064666,-962.267725,-9326.594869,383.047749
3340.064993,-2072.576638,-9770.718434,612.876398
3340.065321,-592.164754,-9252.574275,-1072.533697
3340.065649,370.102971,-11029.068536,-2604.724693
3340.065976,1110.308913,-11695.253884,-2298.286494
3340.066304,1184.329507,-10214.842000,-306.438199
3340.066632,1850.514855,-9400.615463,842.705048
3340.066959,1554.432478,-10214.842000,1302.362347
3340.067287,1480.411884,-9696.697840,1225.752797
3340.067614,962.267725,-9770.718434,1225.752797
3340.067942,-518.144159,-9030.512492,919.314598
3340.068270,0.000000,-9400.615463,306.438199
3340.068597,-1554.432478,-10362.883188,-995.924147
3340.068925,0.000000,-9326.594869,-2221.676944
3340.069252,148.041188,-8216.285956,-1991.848295
3340.069580,222.061783,-8660.409521,-459.657299
3340.069908,888.247130,-9474.636058,995.924147
3340.070235,0.000000,-9474.636058,2374.896044
3340.070563,666.185348,-10214.842000,1302.362347
3340.070891,-592.164754,-11991.336260,306.438199
3340.071218,-296.082377,-10140.821405,-1685.410096
3340.071546,1110.308913,-8882.471304,-3677.258390
3340.071873,2590.720797,-9918.759623,-2911.162892
3340.072201,2664.741391,-11029.068536,459.657299
3340.072529,2146.597232,-9992.780217,2681.334243
3340.072856,2664.741391,-8438.347739,1838.629195
3340.073184,1332.370696,-9474.636058,459.657299
3340.073511,-148.041188,-8512.368333,-383.047749
3340.073839,-1036.288319,-8660.409521,-766.095498
3340.074167,-1110.308913,-8734.430116,-1149.143247
3340.074494,370.102971,-9326.594869,-1532.190996
3340.074822,148.041188,-9992.780217,-919.314598
3340.075150,1924.535449,-11029.068536,153.219100
3340.075477,2664.741391,-10955.047942,-919.314598
3340.075805,1480.411884,-9918.759623,229.828649
3340.076132,296.082377,-9770.718434,1532.190996
3340.076460,0.000000,-8216.285956,766.095498
3340.076788,1184.329507,-6365.771101,-153.219100
3340.077115,-296.082377,-7624.121203,1072.533697
3340.077443,-1480.411884,-12139.377449,1685.410096
3340.077770,-2220.617826,-11547.212695,-1838.629195
3340.078098,-296.082377,-9918.759623,-3600.648841
3340.078426,444.123565,-11177.109724,-3294.210641
3340.078753,1406.391290,-11843.295072,76.609550
3340.079081,1110.308913,-9770.718434,2911.162892
3340.079408,444.123565,-7476.080014,2681.334243
3340.079736,0.000000,-8364.327145,1302.362347
3340.080064,-1480.411884,-9252.574275,842.705048
3340.080391,-2590.720797,-8364.327145,-766.095498
3340.080719,-2664.741391,-9104.533087,-1762.019645
3340.081047,-666.185348,-10288.862594,-2681.334243
3340.081374,74.020594,-11991.336260,-2221.676944
3340.081702,0.000000,-11843.295072,0.000000
3340.082029,740.205942,-9548.656652,766.095498
3340.082357,1110.308913,-9400.615463,766.095498
3340.082685,1258.350101,-9104.533087,919.314598
3340.083012,-444.123565,-8290.306550,1149.143247
3340.083340,-888.247130,-7402.059420,612.876398
3340.083667,-1480.411884,-7698.141797,0.000000
3340.083995,-1480.411884,-9548.656652,-383.047749
3340.084323,-370.102971,-9770.718434,-1915.238745
3340.084650,148.041188,-10807.006753,-2068.457845
3340.084978,1258.350101,-11251.130318,-1762.019645
3340.085306,1406.391290,-11103.089130,-383.047749
3340.085633,2294.638420,-9992.780217,766.095498
3340.085961,2664.741391,-9770.718434,995.924147
3340.086288,1258.350101,-10510.924376,2068.457845
3340.086616,666.185348,-10066.800811,1532.190996
3340.086944,-592.164754,-10214.842000,-1149.143247
3340.087271,1480.411884,-8438.347739,-2757.943793
3340.087599,740.205942,-9326.594869,-1838.629195
3340.087926,-222.061783,-10955.047942,766.095498
3340.088254,-296.082377,-9622.677246,1532.190996
3340.088582,740.205942,-8734.430116,-689.485948
3340.088909,592.164754,-8438.347739,-1915.238745
3340.089237,-1628.453072,-9252.574275,76.609550
3340.089565,-2516.700203,-9844.739029,842.705048
3340.089892,-1110.308913,-11473.192101,-842.705048
3340.090220,1184.329507,-9474.636058,-2757.943793
3340.090547,3404.947333,-9770.718434,-2681.334243
3340.090875,2812.782580,-11325.150913,689.485948
3340.091203,2368.659014,-10658.965565,3140.991542
3340.091530,1776.494261,-7994.224174,1225.752797
3340.091858,1332.370696,-8956.491898,-229.828649
3340.092185,-1554.432478,-9474.636058,76.609550
3340.092513,-814.226536,-8660.409521,0.000000
3340.092841,-1406.391290,-7772.162391,0.000000
3340.093168,-518.144159,-8290.306550,-766.095498
3340.093496,518.144159,-10214.842000,-1608.800546
3340.093824,1702.473667,-12583.501014,-842.705048
3340.094151,1406.391290,-9326.594869,1072.533697
3340.094479,1036.288319,-9030.512492,306.438199
3340.094806,1184.329507,-9400.615463,459.657299
3340.095134,1332.370696,-9844.739029,306.438199
3340.095462,888.247130,-9030.512492,689.485948
3340.095789,222.061783,-7402.059420,229.828649
3340.096117,-370.102971,-9696.697840,-766.095498
3340.096444,0.000000,-11473.192101,-1915.238745
3340.096772,-888.247130,-11325.150913,-3140.991542
3340.097100,296.082377,-11029.068536,-1378.971896
3340.097427,1110.308913,-9622.677246,0.000000
3340.097755,1480.411884,-9178.553681,842.705048
3340.098083,962.267725,-9030.512492,995.924147
3340.098410,74.020594,-9400.615463,1608.800546
3340.098738,-1184.329507,-8956.491898,459.657299
3340.099065,-1850.514855,-9918.759623,-1072.533697
3340.099393,-1924.535449,-9770.718434,-2834.553343
3340.099721,-148.041188,-10658.965565,-2681.334243
3340.100048,74.020594,-12065.356855,-689.485948
3340.100376,666.185348,-11843.295072,536.266849
3340.100703,814.226536,-9030.512492,0.000000
3340.101031,1776.494261,-9770.718434,0.000000
3340.101359,-222.061783,-11029.068536,536.266849
3340.101686,-962.267725,-8808.450710,1302.362347
3340.102014,-814.226536,-6365.771101,153.219100
3340.102342,-370.102971,-7994.224174,-229.828649
3340.102669,148.041188,-9622.677246,-229.828649
3340.102997,-444.123565,-9622.677246,306.438199
3340.103324,-888.247130,-9400.615463,459.657299
3340.103652,0.000000,-9474.636058,-995.924147
3340.103980,1184.329507,-10066.800811,-1149.143247
3340.104307,814.226536,-9474.636058,0.000000
3340.104635,1036.288319,-9992.780217,1072.533697
3340.104962,1776.494261,-10510.924376,1532.190996
3340.105290,1702.473667,-10288.862594,536.266849
3340.105618,1480.411884,-8808.450710,-1072.533697
3340.105945,0.000000,-9252.574275,-459.657299
3340.106273,0.000000,-9252.574275,76.609550
3340.106601,222.061783,-8882.471304,-459.657299
3340.106928,222.061783,-8068.244768,0.000000
3340.107256,1332.370696,-8956.491898,0.000000
3340.107583,-222.061783,-8956.491898,1532.190996
3340.107911,-814.226536,-9770.718434,2374.896044
3340.108239,-2368.659014,-11103.089130,-1072.533697
3340.108566,-1998.556043,-12361.439231,-4519.963438
3340.108894,-1480.411884,-10807.006753,-5132.839837
3340.109221,1110.308913,-9770.718434,-3370.820191
3340.109549,2590.720797,-10658.965565,383.047749
3340.109877,3552.988522,-11473.192101,3294.210641
3340.110204,4515.256246,-10807.006753,2451.505594
3340.110532,2220.617826,-10510.924376,383.047749
3340.110860,296.082377,-9400.615463,-612.876398
3340.111187,-1258.350101,-7550.100608,-1302.362347
3340.111515,-1332.370696,-7179.997637,-1302.362347
3340.111842,-1406.391290,-7846.182985,-1455.581446
3340.112170,-962.267725,-9400.615463,153.219100
3340.112498,1702.473667,-10140.821405,2221.676944
3340.112825,3478.967927,-10140.821405,1149.143247
3340.113153,3108.864956,-10732.986159,459.657299
3340.113480,0.000000,-9696.697840,383.047749
3340.113808,-962.267725,-8068.244768,-383.047749
3340.114136,0.000000,-7254.018232,-1302.362347
3340.114463,740.205942,-7105.977043,-689.485948
3340.114791,222.061783,-8438.347739,1455.581446
3340.115118,-740.205942,-11991.336260,2068.457845
3340.115446,148.041188,-12435.459826,-766.095498
3340.115774,518.144159,-10584.944971,-3064.381992
3340.116101,444.123565,-9104.533087,-1915.238745
3340.116429,222.061783,-9030.512492,229.828649
3340.116757,1332.370696,-8734.430116,1915.238745
3340.117084,518.144159,-8660.409521,1225.752797
3340.117412,-814.226536,-9622.677246,459.657299
3340.117739,-222.061783,-10807.006753,-1302.362347
3340.118067,-1184.329507,-9696.697840,-2451.505594
3340.118395,-592.164754,-9844.739029,-1378.971896
3340.118722,-592.164754,-10140.821405,0.000000
3340.119050,-518.144159,-9548.656652,459.657299
3340.119377,1258.350101,-10066.800811,76.609550
3340.119705,1184.329507,-9844.739029,-306.438199
3340.120033,370.102971,-11473.192101,153.219100
3340.120360,-592.164754,-11547.212695,0.000000
3340.120688,-888.247130,-9030.512492,-1838.629195
3340.121016,-740.205942,-7698.141797,-2528.115143
3340.121343,-666.185348,-10066.800811,0.000000
3340.121671,-370.102971,-9474.636058,995.924147
3340.121998,0.000000,-8216.285956,1685.410096
3340.122326,444.123565,-9252.574275,0.000000
3340.122654,74.020594,-10807.006753,-766.095498
3340.122981,666.185348,-10214.842000,-306.438199
3340.123309,592.164754,-9326.594869,-383.047749
3340.123636,518.144159,-9104.533087,0.000000
3340.123964,2220.617826,-9548.656652,-689.485948
3340.124292,1702.473667,-11473.192101,-383.047749
3340.124619,0.000000,-10436.903782,1302.362347
3340.124947,148.041188,-8882.471304,536.266849
3340.125275,296.082377,-8438.347739,153.219100
3340.125602,814.226536,-9252.574275,229.828649
3340.125930,-814.226536,-9252.574275,229.828649
3340.126257,740.205942,-8512.368333,-766.095498
3340.126585,74.020594,-8216.285956,536.266849
3340.126913,-296.082377,-10362.883188,306.438199
3340.127240,-1628.453072,-11769.274478,-919.314598
3340.127568,-1628.453072,-10510.924376,-1915.238745
3340.127895,-740.205942,-8290.306550,-2757.943793
3340.128223,888.247130,-8882.471304,-1762.019645
3340.128551,2738.761985,-10140.821405,1149.143247
3340.128878,3256.906145,-12065.356855,2451.505594
3340.129206,2886.803174,-11473.192101,1302.362347
3340.129534,1036.288319,-11621.233289,-766.095498
3340.129861,444.123565,-9474.636058,-2681.334243
3340.130189,296.082377,-8734.430116,-2068.457845
3340.130516,-296.082377,-8882.471304,0.000000
3340.130844,-666.185348,-7994.224174,1991.848295
3340.131172,-962.267725,-8586.388927,1915.238745
3340.131499,2294.638420,-9918.759623,919.314598
3340.131827,2664.741391,-10510.924376,306.438199
3340.132154,1332.370696,-11177.109724,689.485948
3340.132482,-666.185348,-9474.636058,-459.657299
3340.132810,148.041188,-7846.182985,-1991.848295
3340.133137,1776.494261,-8290.306550,-2451.505594
3340.133465,592.164754,-9326.594869,0.000000
3340.133793,-592.164754,-10658.965565,3370.820191
3340.134120,-2368.659014,-10658.965565,2681.334243
3340.134448,-444.123565,-9770.718434,-1685.410096
3340.134775,148.041188,-10066.800811,-2834.553343
3340.135103,-666.185348,-9844.739029,-919.314598
3340.135431,-962.267725,-8290.306550,2145.067394
3340.135758,-592.164754,-7476.080014,1149.143247
3340.136086,2368.659014,-8808.450710,-1762.019645
3340.136413,-666.185348,-10436.903782,-689.485948
3340.136741,-2516.700203,-10288.862594,1532.190996
3340.137069,-1850.514855,-8142.265362,536.266849
3340.137396,148.041188,-8882.471304,-842.705048
3340.137724,1702.473667,-10584.944971,-1455.581446
3340.138052,0.000000,-12065.356855,689.485948
3340.138379,592.164754,-10288.862594,1762.019645
3340.138707,2146.597232,-9844.739029,-1072.533697
3340.139034,1036.288319,-11029.068536,-2834.553343
3340.139362,-740.205942,-10732.986159,-2068.457845
3340.139690,-1776.494261,-9844.739029,0.000000
3340.140017,-888.247130,-8364.327145,459.657299
3340.140345,-592.164754,-9474.636058,1149.143247
3340.140672,74.020594,-9178.553681,306.438199
3340.141000,0.000000,-9474.636058,536.266849
3340.141328,370.102971,-11177.109724,536.266849
3340.141655,1110.308913,-10881.027347,-1455.581446
3340.141983,888.247130,-8364.327145,-1762.019645
3340.142311,1480.411884,-9252.574275,-1378.971896
3340.142638,962.267725,-11251.130318,306.438199
3340.142966,1406.391290,-10658.965565,1762.019645
3340.143293,666.185348,-8882.471304,919.314598
3340.143621,0.000000,-9770.718434,153.219100
3340.143949,0.000000,-10584.944971,-459.657299
3340.144276,-962.267725,-9252.574275,0.000000
3340.144604,0.000000,-9252.574275,-536.266849
3340.144931,0.000000,-8586.388927,-1225.752797
3340.145259,2442.679609,-8290.306550,-1685.410096
3340.145587,1554.432478,-9622.677246,842.705048
3340.145914,-296.082377,-9474.636058,2757.943793
3340.146242,-1258.350101,-10288.862594,1915.238745
3340.146570,-1184.329507,-9252.574275,-1225.752797
3340.146897,-222.061783,-7994.224174,-3294.210641
3340.147225,-740.205942,-9326.594869,-1762.019645
3340.147552,148.041188,-10881.027347,1455.581446
3340.147880,1554.432478,-11251.130318,1072.533697
3340.148208,3182.885551,-11621.233289,-2145.067394
3340.148535,1776.494261,-10881.027347,-2834.553343
3340.148863,814.226536,-10288.862594,-536.266849
3340.149190,296.082377,-8364.327145,1455.581446
3340.149518,-888.247130,-7105.977043,1225.752797
3340.149846,-370.102971,-6809.894666,-229.828649
3340.150173,-592.164754,-9326.594869,766.095498
3340.150501,1184.329507,-11325.150913,1455.581446
3340.150828,2368.659014,-11547.212695,76.609550
3340.151156,2072.576638,-9622.677246,-1532.190996
3340.151484,1998.556043,-8882.471304,-2374.896044
3340.151811,888.247130,-9548.656652,-1532.190996
3340.152139,2368.659014,-10066.800811,1225.752797
3340.152467,888.247130,-7698.141797,2451.505594
3340.152794,-740.205942,-9770.718434,2451.505594
3340.153122,-1850.514855,-11917.315666,459.657299
3340.153449,-666.185348,-12435.459826,-2451.505594
3340.153777,222.061783,-10584.944971,-2298.286494
3340.154105,-592.164754,-8882.471304,-1915.238745
3340.154432,-222.061783,-8364.327145,-995.924147
3340.154760,222.061783,-8068.244768,-306.438199
3340.155087,1036.288319,-8290.306550,689.485948
3340.155415,-740.205942,-9326.594869,2451.505594
3340.155743,0.000000,-10140.821405,1532.190996
3340.156070,0.000000,-8438.347739,0.000000
3340.156398,222.061783,-9326.594869,-1302.362347
3340.156725,370.102971,-10732.986159,-229.828649
3340.157053,370.102971,-11029.068536,153.219100
3340.157381,1332.370696,-9474.636058,-689.485948
3340.157708,1036.288319,-9474.636058,-1762.019645
3340.158036,0.000000,-10140.821405,-1685.410096
3340.158364,-1628.453072,-9104.533087,0.000000
3340.158691,-2442.679609,-8142.265362,0.000000
3340.159019,-2146.597232,-8734.430116,536.266849
3340.159346,-1554.432478,-10362.883188,0.000000
3340.159674,-666.185348,-10362.883188,0.000000
3340.160002,-1184.329507,-9918.759623,-306.438199
3340.160329,1110.308913,-10140.821405,-1838.629195
3340.160657,3404.947333,-9844.739029,-2145.067394
3340.160984,1332.370696,-8956.491898,0.000000
3340.161312,1110.308913,-8364.327145,1838.629195
3340.161640,444.123565,-10214.842000,1685.410096
3340.161967,1554.432478,-9622.677246,536.266849
3340.162295,222.061783,-9844.739029,-612.876398
3340.162622,-1702.473667,-11177.109724,-459.657299
3340.162950,-1110.308913,-10362.883188,-1225.752797
3340.163278,370.102971,-10288.862594,-2604.724693
3340.163605,1332.370696,-9918.759623,-2221.676944
3340.163933,1924.535449,-9918.759623,-1378.971896
3340.164260,2368.659014,-8956.491898,842.705048
3340.164588,1184.329507,-8956.491898,2834.553343
3340.164916,370.102971,-9030.512492,2681.334243
3340.165243,-296.082377,-9474.636058,536.266849
3340.165571,-1036.288319,-9474.636058,-1532.190996
3340.165899,-1036.288319,-9770.718434,-1685.410096
3340.166226,0.000000,-10658.965565,-1608.800546
3340.166554,2442.679609,-10362.883188,-1762.019645
3340.166881,2960.823768,-10584.944971,-1225.752797
3340.167209,1924.535449,-10881.027347,306.438199
3340.167537,592.164754,-9326.594869,919.314598
3340.167864,666.185348,-8512.368333,1225.752797
3340.168192,962.267725,-8364.327145,1225.752797
3340.168519,74.020594,-9030.512492,153.219100
3340.168847,-1184.329507,-9474.636058,536.266849
3340.169175,0.000000,-9252.574275,536.266849
3340.169502,1998.556043,-9474.636058,-995.924147
3340.169830,2738.761985,-10732.986159,-919.314598
3340.170157,2072.576638,-11029.068536,0.000000
3340.170485,814.226536,-9474.636058,995.924147
3340.170813,444.123565,-7846.182985,612.876398
3340.171140,2294.638420,-8438.347739,459.657299
3340.171468,1332.370696,-9474.636058,995.924147
3340.171795,-1702.473667,-11251.130318,2374.896044
3340.172123,-2812.782580,-11769.274478,689.485948
3340.172451,-1036.288319,-10584.944971,-3217.601092
3340.172778,1480.411884,-10362.883188,-3907.087040
3340.173106,-222.061783,-10510.924376,-1149.143247
3340.173434,-962.267725,-9400.615463,1838.629195
3340.173761,-740.205942,-7328.038826,1378.971896
3340.174089,296.082377,-7402.059420,-536.266849
3340.174416,-1036.288319,-10955.047942,0.000000
3340.174744,-1998.556043,-10807.006753,766.095498
3340.175072,-1258.350101,-8068.244768,0.000000
3340.175399,222.061783,-9992.780217,-1225.752797
3340.175727,888.247130,-10881.027347,-1685.410096
3340.176054,1702.473667,-10955.047942,-536.266849
3340.176382,1406.391290,-9104.533087,995.924147
3340.176710,444.123565,-9178.553681,1608.800546
3340.177037,-962.267725,-9400.615463,-306.438199
3340.177365,-1332.370696,-8882.471304,-1608.800546
3340.177692,-2664.741391,-8586.388927,-1225.752797
3340.178020,-1554.432478,-10066.800811,-383.047749
3340.178348,-888.247130,-10807.006753,0.000000
3340.178675,666.185348,-10955.047942,-459.657299
3340.179003,1406.391290,-10732.986159,-995.924147
3340.179330,1924.535449,-9696.697840,-1225.752797
3340.179658,1628.453072,-8068.244768,0.000000
3340.179986,888.247130,-7328.038826,842.705048
3340.180313,888.247130,-8438.347739,1608.800546
3340.180641,592.164754,-9992.780217,459.657299
3340.180968,0.000000,-10881.027347,0.000000
3340.181296,0.000000,-10881.027347,-306.438199
3340.181624,518.144159,-10362.883188,-3140.991542
3340.181951,1480.411884,-10584.944971,-1915.238745
3340.182279,296.082377,-11177.109724,-1149.143247
3340.182607,-296.082377,-9030.512492,-153.219100
3340.182934,296.082377,-7920.203579,0.000000
3340.183262,2368.659014,-8512.368333,229.828649
3340.183589,2886.803174,-8956.491898,995.924147
3340.183917,518.144159,-10807.006753,1608.800546
3340.184245,-1036.288319,-10658.965565,2145.067394
3340.184572,-1850.514855,-11399.171507,-1608.800546
3340.184900,296.082377,-8808.450710,-4673.182538
3340.185227,518.144159,-8512.368333,-3983.696590
3340.185555,-592.164754,-10658.965565,383.047749
3340.185883,888.247130,-9844.739029,1762.019645
3340.186210,1554.432478,-9918.759623,612.876398
3340.186538,1776.494261,-10732.986159,153.219100
3340.186865,-740.205942,-9844.739029,459.657299
3340.187193,-518.144159,-8808.450710,766.095498
3340.187521,-370.102971,-8512.368333,-536.266849
3340.187848,0.000000,-9622.677246,-1762.019645
3340.188176,518.144159,-10510.924376,-1608.800546
3340.188503,1036.288319,-9474.636058,306.438199
3340.188831,2664.741391,-9104.533087,1608.800546
3340.189159,2442.679609,-9696.697840,1532.190996
3340.189486,1628.453072,-9918.759623,919.314598
3340.189814,-444.123565,-9474.636058,76.609550
3340.190142,222.061783,-8512.368333,-995.924147
3340.190469,2072.576638,-8660.409521,-306.438199
3340.190797,1554.432478,-10140.821405,842.705048
3340.191124,1406.391290,-11695.253884,1149.143247
3340.191452,-1036.288319,-10881.027347,-536.266849
3340.191780,-592.164754,-9992.780217,-2145.067394
3340.192107,74.020594,-9474.636058,-2451.505594
3340.192435,-888.247130,-8290.306550,0.000000
3340.192762,-1036.288319,-8438.347739,995.924147
3340.193090,-888.247130,-9326.594869,0.000000
3340.193418,222.061783,-11177.109724,-306.438199
3340.193745,-666.185348,-11399.171507,-383.047749
3340.194073,444.123565,-9992.780217,-1149.143247
3340.194400,1628.453072,-8808.450710,-1225.752797
3340.194728,888.247130,-8142.265362,-229.828649
3340.195056,-740.205942,-9326.594869,1762.019645
3340.195383,-296.082377,-9696.697840,2374.896044
3340.195711,1628.453072,-9474.636058,842.705048
3340.196038,-222.061783,-10214.842000,-919.314598
3340.196366,-1850.514855,-10362.883188,-842.705048
3340.196694,-1702.473667,-9992.780217,-2145.067394
3340.197021,-1406.391290,-9548.656652,-2604.724693
3340.197349,666.185348,-9252.574275,-2451.505594
3340.197677,-296.082377,-10214.842000,1072.533697
3340.198004,444.123565,-9770.718434,3217.601092
3340.198332,-592.164754,-7698.141797,1915.238745
3340.198659,296.082377,-8586.388927,0.000000
3340.198987,518.144159,-8512.368333,-1685.410096
3340.199315,0.000000,-9474.636058,-1149.143247
3340.199642,0.000000,-10214.842000,459.657299
3340.199970,370.102971,-11843.295072,-689.485948
3340.200297,1406.391290,-10436.903782,-1762.019645
3340.200625,1406.391290,-11177.109724,-612.876398
3340.200953,592.164754,-9252.574275,0.000000
3340.201280,74.020594,-10066.800811,766.095498
3340.201608,888.247130,-9252.574275,612.876398
3340.201935,1776.494261,-9400.615463,-1302.362347
3340.202263,518.144159,-10288.862594,-153.219100
3340.202591,814.226536,-11251.130318,919.314598
3340.202918,1110.308913,-9622.677246,-536.266849
3340.203246,1628.453072,-8734.430116,-842.705048
3340.203573,-1258.350101,-10584.944971,0.000000
3340.203901,-2590.720797,-9918.759623,-766.095498
3340.204229,-2146.597232,-8808.450710,-1455.581446
3340.204556,-1184.329507,-7698.141797,-919.314598
3340.204884,518.144159,-8734.430116,-1762.019645
3340.205212,1480.411884,-11917.315666,0.000000
3340.205539,1480.411884,-11325.150913,1532.190996
3340.205867,888.247130,-11029.068536,1378.971896
3340.206194,1998.556043,-9770.718434,-842.705048
3340.206522,2146.597232,-9400.615463,-1302.362347
3340.206850,444.123565,-9326.594869,-459.657299
3340.207177,-296.082377,-7105.977043,1838.629195
3340.207505,-370.102971,-6957.935855,1685.410096
3340.207832,1406.391290,-8956.491898,1225.752797
3340.208160,2368.659014,-10510.924376,383.047749
3340.208488,888.247130,-11177.109724,1149.143247
3340.208815,0.000000,-9622.677246,306.438199
3340.209143,814.226536,-9252.574275,-2221.676944
3340.209470,2368.659014,-9770.718434,-2298.286494
3340.209798,2442.679609,-9770.718434,-536.266849
3340.210126,888.247130,-9030.512492,2528.115143
3340.210453,-962.267725,-9474.636058,2681.334243
3340.210781,-370.102971,-10066.800811,-306.438199
3340.211108,0.000000,-11251.130318,-2911.162892
3340.211436,-1110.308913,-10510.924376,-306.438199
3340.211764,-1702.473667,-9770.718434,383.047749
3340.212091,-888.247130,-9548.656652,-459.657299
3340.212419,2220.617826,-9770.718434,-2221.676944
3340.212746,1110.308913,-11103.089130,-1149.143247
3340.213074,-370.102971,-9622.677246,1762.019645
3340.213402,-148.041188,-7624.121203,1762.019645
3340.213729,0.000000,-6957.935855,306.438199
3340.214057,-222.061783,-9030.512492,-459.657299
3340.214385,-740.205942,-12213.398043,229.828649
3340.214712,148.041188,-12139.377449,689.485948
3340.215040,592.164754,-10955.047942,-766.095498
3340.215367,518.144159,-11251.130318,-2221.676944
3340.215695,0.000000,-11177.109724,-2451.505594
3340.216023,-2294.638420,-8660.409521,-995.924147
3340.216350,-1850.514855,-6661.853478,229.828649
3340.216678,-1406.391290,-7624.121203,1225.752797
3340.217005,962.267725,-10066.800811,1608.800546
3340.217333,592.164754,-10214.842000,1378.971896
3340.217661,-888.247130,-9474.636058,2145.067394
3340.217988,-1036.288319,-8660.409521,0.000000
3340.218316,0.000000,-8364.327145,-2068.457845
3340.218643,666.185348,-9030.512492,-3294.210641
3340.218971,0.000000,-9622.677246,-1915.238745
3340.219299,222.061783,-10288.862594,383.047749
3340.219626,1628.453072,-10658.965565,1225.752797
3340.219954,1554.432478,-10140.821405,1608.800546
3340.220281,444.123565,-9770.718434,1838.629195
3340.220609,-592.164754,-8808.450710,995.924147
3340.220937,-1332.370696,-9104.533087,-229.828649
3340.221264,370.102971,-9178.553681,-2528.115143
3340.221592,1554.432478,-9770.718434,-3677.258390
3340.221920,1776.494261,-10955.047942,-1225.752797
3340.222247,2664.741391,-8882.471304,536.266849
3340.222575,370.102971,-7920.203579,2145.067394
3340.222902,74.020594,-9474.636058,1225.752797
3340.223230,-740.205942,-10436.903782,-229.828649
3340.223558,-1036.288319,-10288.862594,-995.924147
3340.223885,-370.102971,-9326.594869,-1149.143247
3340.224213,518.144159,-10288.862594,-1915.238745
3340.224540,1850.514855,-10807.006753,-1149.143247
3340.224868,2072.576638,-10732.986159,-1685.410096
3340.225196,2072.576638,-10807.006753,-612.876398
3340.225523,2812.782580,-10436.903782,76.609550
3340.225851,1850.514855,-9548.656652,229.828649
3340.226178,962.267725,-9474.636058,1762.019645
3340.226506,740.205942,-8586.388927,1532.190996
3340.226834,1406.391290,-9474.636058,1915.238745
3340.227161,888.247130,-9622.677246,1838.629195
3340.227489,2368.659014,-9622.677246,-919.314598
3340.227816,2220.617826,-10584.944971,-2221.676944
3340.228144,1332.370696,-9548.656652,-1455.581446
3340.228472,1480.411884,-9326.594869,0.000000
3340.228799,1406.391290,-9178.553681,1072.533697
3340.229127,1184.329507,-8586.388927,1685.410096
3340.229455,-1258.350101,-9918.759623,2298.286494
3340.229782,-2294.638420,-9844.739029,1455.581446
3340.230110,-592.164754,-10955.047942,-1225.752797
3340.230437,-444.123565,-9770.718434,-2757.943793
3340.230765,-518.144159,-8586.388927,-2451.505594
3340.231093,-1480.411884,-9474.636058,-1072.533697
3340.231420,74.020594,-9474.636058,-459.657299
3340.231748,0.000000,-8586.388927,-536.266849
3340.232075,-740.205942,-9400.615463,2681.334243
3340.232403,296.082377,-10288.862594,1991.848295
3340.232731,0.000000,-9474.636058,766.095498
3340.233058,0.000000,-9918.759623,689.485948
3340.233386,-1184.329507,-9844.739029,-766.095498
3340.233713,-444.123565,-9548.656652,-2298.286494
3340.234041,370.102971,-10214.842000,-2528.115143
3340.234369,-370.102971,-10436.903782,-1608.800546
3340.234696,-888.247130,-10140.821405,-536.266849
3340.235024,-1776.494261,-10510.924376,229.828649
3340.235351,-444.123565,-10214.842000,0.000000
3340.235679,-518.144159,-9326.594869,383.047749
3340.236007,0.000000,-9252.574275,1072.533697
3340.236334,-888.247130,-10658.965565,1149.143247
3340.236662,-666.185348,-9548.656652,-1608.800546
3340.236989,370.102971,-9104.533087,-3524.039291
3340.237317,296.082377,-10362.883188,-2451.505594
3340.237645,1332.370696,-9844.739029,459.657299
3340.237972,222.061783,-9622.677246,1762.019645
3340.238300,370.102971,-9918.759623,1455.581446
3340.238628,1628.453072,-10584.944971,689.485948
3340.238955,1776.494261,-10140.821405,612.876398
3340.239283,0.000000,-8956.491898,1532.190996
3340.239610,-888.247130,-8808.450710,153.219100
3340.239938,-592.164754,-8882.471304,-2221.676944
3340.240266,-148.041188,-8290.306550,-3294.210641
3340.240593,1036.288319,-9474.636058,-1915.238745
3340.240921,1776.494261,-11621.233289,1149.143247
3340.241248,2368.659014,-11029.068536,2298.286494
3340.241576,1258.350101,-8956.491898,2451.505594
3340.241904,74.020594,-8068.244768,459.657299
3340.242231,-222.061783,-9696.697840,459.657299
3340.242559,-962.267725,-8808.450710,0.000000
3340.242886,-740.205942,-6957.935855,-1455.581446
3340.243214,518.144159,-8734.430116,-2221.676944
3340.243542,3849.070898,-10881.027347,-2451.505594
3340.243869,2072.576638,-10807.006753,1532.190996
3340.244197,444.123565,-10807.006753,2298.286494
3340.244524,592.164754,-10658.965565,76.609550
3340.244852,1554.432478,-11547.212695,-2451.505594
3340.245180,1924.535449,-11029.068536,-2221.676944
3340.245507,740.205942,-10732.986159,1072.533697
3340.245835,1554.432478,-8438.347739,1455.581446
3340.246163,3034.844362,-9252.574275,0.000000
3340.246490,1184.329507,-10436.903782,-1378.971896
3340.246818,-962.267725,-9252.574275,-995.924147
3340.247145,-1406.391290,-8512.368333,-689.485948
3340.247473,148.041188,-8808.450710,-459.657299
3340.247801,1406.391290,-11843.295072,306.438199
3340.248128,666.185348,-12361.439231,689.485948
3340.248456,222.061783,-9474.636058,1455.581446
3340.248783,518.144159,-8586.388927,-995.924147
3340.249111,1480.411884,-9252.574275,-2681.334243
3340.249439,-666.185348,-10436.903782,-1532.190996
3340.249766,-1850.514855,-8364.327145,766.095498
3340.250094,-2294.638420,-7105.977043,2221.676944
3340.250421,-518.144159,-8290.306550,1149.143247
3340.250749,1258.350101,-9178.553681,689.485948
3340.251077,740.205942,-10584.944971,2298.286494
3340.251404,814.226536,-9252.574275,2145.067394
3340.251732,0.000000,-8956.491898,-612.876398
3340.252059,-666.185348,-7698.141797,-2374.896044
3340.252387,-814.226536,-8438.347739,-1762.019645
3340.252715,-1406.391290,-8660.409521,995.924147
3340.253042,370.102971,-10436.903782,1838.629195
3340.253370,-296.082377,-9992.780217,1455.581446
3340.253698,1036.288319,-10214.842000,-536.266849
3340.254025,74.020594,-11029.068536,-536.266849
3340.254353,-296.082377,-9326.594869,153.219100
3340.254680,-1554.432478,-8586.388927,0.000000
3340.255008,-2072.576638,-7920.203579,-995.924147
3340.255335,-1184.329507,-9770.718434,-2451.505594
3340.255663,-814.226536,-11547.212695,-2451.505594
3340.255991,0.000000,-11029.068536,76.609550
3340.256318,1406.391290,-11621.233289,919.314598
3340.256646,2590.720797,-11251.130318,-306.438199
3340.256973,888.247130,-10732.986159,-1149.143247
3340.257301,296.082377,-10066.800811,-1455.581446
3340.257628,518.144159,-8290.306550,-612.876398
3340.257956,0.000000,-8956.491898,536.266849
3340.258283,740.205942,-10436.903782,459.657299
3340.258611,-962.267725,-11251.130318,229.828649
3340.258938,-740.205942,-10066.800811,-612.876398
3340.259266,-666.185348,-8586.388927,-2298.286494
3340.259594,518.144159,-10436.903782,-995.924147
3340.259921,1998.556043,-10066.800811,-459.657299
3340.260249,2294.638420,-10066.800811,689.485948
3340.260576,370.102971,-7476.080014,2451.505594
3340.260904,666.185348,-8364.327145,1532.190996
3340.261231,-222.061783,-8438.347739,919.314598
3340.261559,-814.226536,-8734.430116,229.828649
3340.261886,-1702.473667,-8438.347739,-459.657299
3340.262214,-592.164754,-9104.533087,-1685.410096
3340.262541,-296.082377,-10140.821405,-2068.457845
3340.262869,1480.411884,-10436.903782,-766.095498
3340.263197,1406.391290,-9770.718434,919.314598
3340.263524,2738.761985,-9252.574275,536.266849
3340.263852,1406.391290,-10658.965565,1378.971896
3340.264179,1332.370696,-10732.986159,0.000000
3340.264507,74.020594,-9400.615463,-995.924147
3340.264834,-148.041188,-8956.491898,-229.828649
3340.265162,1258.350101,-9030.512492,306.438199
3340.265489,1110.308913,-10436.903782,306.438199
3340.265817,1184.329507,-10288.862594,0.000000
3340.266144,1554.432478,-10807.006753,-689.485948
3340.266472,1332.370696,-10955.047942,-1225.752797
3340.266800,1702.473667,-11177.109724,-612.876398
3340.267127,-370.102971,-11843.295072,-383.047749
3340.267455,-814.226536,-9622.677246,-995.924147
3340.267782,-2072.576638,-8068.244768,-1455.581446
3340.268110,-962.267725,-10288.862594,-1072.533697
3340.268437,-222.061783,-10214.842000,76.609550
3340.268765,0.000000,-9474.636058,1072.533697
3340.269092,0.000000,-7994.224174,1149.143247
3340.269420,-444.123565,-8734.430116,-306.438199
3340.269747,-1480.411884,-7698.141797,-459.657299
3340.270075,-1184.329507,-7994.224174,-229.828649
3340.270403,74.020594,-8068.244768,0.000000
3340.270730,1850.514855,-10140.821405,-612.876398
3340.271058,1184.329507,-12065.356855,995.924147
3340.271385,1554.432478,-11325.150913,1225.752797
3340.271713,2294.638420,-9252.574275,919.314598
3340.272040,2590.720797,-8734.430116,536.266849
3340.272368,1332.370696,-8586.388927,1072.533697
3340.272695,74.020594,-8660.409521,919.314598
3340.273023,-518.144159,-8586.388927,0.000000
3340.273350,-666.185348,-9030.512492,-1455.581446
3340.273678,-1924.535449,-8956.491898,-766.095498
3340.274006,-1332.370696,-10066.800811,-306.438199
3340.274333,-962.267725,-10362.883188,-306.438199
3340.274661,-1258.350101,-10510.924376,-689.485948
3340.274988,222.061783,-10436.903782,-1072.533697
3340.275316,2220.617826,-9696.697840,-1532.190996
3340.275643,1776.494261,-9992.780217,-153.219100
3340.275971,148.041188,-10955.047942,1532.190996
3340.276298,-1184.329507,-9548.656652,1225.752797
3340.276626,666.185348,-9918.759623,-1915.238745
3340.276953,0.000000,-10510.924376,-1991.848295
3340.277281,-592.164754,-11325.150913,306.438199
3340.277608,-962.267725,-11177.109724,459.657299
3340.277936,0.000000,-9844.739029,153.219100
3340.278264,592.164754,-8808.450710,-2221.676944
3340.278591,296.082377,-9622.677246,-842.705048
3340.278919,0.000000,-9474.636058,842.705048
3340.279246,1776.494261,-9548.656652,153.219100
3340.279574,1998.556043,-9400.615463,153.219100
3340.279901,1184.329507,-10362.883188,536.266849
3340.280229,370.102971,-9400.615463,2298.286494
3340.280556,-814.226536,-8882.471304,1915.238745
3340.280884,-1850.514855,-8438.347739,153.219100
3340.281211,-592.164754,-8068.244768,-2681.334243
3340.281539,-1110.308913,-8512.368333,-2604.724693
3340.281867,-518.144159,-9400.615463,-995.924147
3340.282194,-1702.473667,-10140.821405,842.705048
3340.282522,1850.514855,-10066.800811,766.095498
3340.282849,2664.741391,-10510.924376,0.000000
3340.283177,1406.391290,-11621.233289,919.314598
3340.283504,148.041188,-9474.636058,995.924147
3340.283832,-518.144159,-7920.203579,0.000000
3340.284159,1258.350101,-8142.265362,-689.485948
3340.284487,1258.350101,-9030.512492,-612.876398
3340.284814,-370.102971,-10510.924376,459.657299
3340.285142,-888.247130,-10436.903782,1608.800546
3340.285470,222.061783,-10955.047942,-1991.848295
3340.285797,2442.679609,-12435.459826,-3600.648841
3340.286125,888.247130,-13249.686362,-1991.848295
3340.286452,-370.102971,-10584.944971,306.438199
3340.286780,-1110.308913,-8216.285956,229.828649
3340.287107,-1036.288319,-9696.697840,-536.266849
3340.287435,222.061783,-8660.409521,-306.438199
3340.287762,-740.205942,-8364.327145,919.314598
3340.288090,-962.267725,-9104.533087,1455.581446
3340.288417,296.082377,-8808.450710,-459.657299
3340.288745,888.247130,-8660.409521,-1915.238745
3340.289073,444.123565,-9030.512492,-1225.752797
3340.289400,296.082377,-10510.924376,459.657299
3340.289728,666.185348,-10510.924376,1378.971896
3340.290055,888.247130,-9696.697840,0.000000
3340.290383,2664.741391,-10436.903782,153.219100
3340.290710,3701.029710,-9770.718434,536.266849
3340.291038,2220.617826,-9474.636058,2757.943793
3340.291365,888.247130,-9030.512492,2374.896044
3340.291693,888.247130,-7105.977043,-459.657299
3340.292020,518.144159,-9252.574275,-1608.800546
3340.292348,-1258.350101,-9696.697840,-766.095498
3340.292676,-2220.617826,-9326.594869,153.219100
3340.293003,-1406.391290,-9326.594869,76.609550
3340.293331,1406.391290,-10732.986159,-842.705048
3340.293658,1332.370696,-10732.986159,-689.485948
3340.293986,1036.288319,-9474.636058,306.438199
3340.294313,888.247130,-9474.636058,0.000000
3340.294641,1850.514855,-9474.636058,-1532.190996
3340.294968,1258.350101,-8364.327145,-2068.457845
3340.295296,-666.185348,-9918.759623,-383.047749
3340.295623,-888.247130,-10584.944971,1072.533697
3340.295951,74.020594,-11177.109724,229.828649
3340.296279,666.185348,-11177.109724,0.000000
3340.296606,74.020594,-10658.965565,-1532.190996
3340.296934,-1702.473667,-10288.862594,-1991.848295
3340.297261,-1554.432478,-9400.615463,-766.095498
3340.297589,-518.144159,-9326.594869,-689.485948
3340.297916,888.247130,-9844.739029,-612.876398
3340.298244,1184.329507,-11103.089130,76.609550
3340.298571,888.247130,-9844.739029,1838.629195
3340.298899,0.000000,-8586.388927,2451.505594
3340.299226,148.041188,-9178.553681,2528.115143
3340.299554,-1110.308913,-9696.697840,1532.190996
3340.299881,-2738.761985,-8882.471304,-459.657299
3340.300209,-3034.844362,-8438.347739,-2145.067394
3340.300537,-1850.514855,-8216.285956,-3294.210641
3340.300864,-592.164754,-7698.141797,-2221.676944
3340.301192,-370.102971,-10510.924376,-536.266849
3340.301519,1110.308913,-11547.212695,1685.410096
3340.301847,1998.556043,-10584.944971,1378.971896
3340.302174,296.082377,-10732.986159,1991.848295
3340.302502,0.000000,-9474.636058,1455.581446
3340.302829,-222.061783,-7994.224174,0.000000
3340.303157,-740.205942,-6661.853478,229.828649
3340.303484,0.000000,-8586.388927,-229.828649
3340.303812,370.102971,-10288.862594,-689.485948
3340.304140,1036.288319,-10881.027347,-1838.629195
3340.304467,1480.411884,-11917.315666,-1685.410096
3340.304795,1850.514855,-12361.439231,-1072.533697
3340.305122,148.041188,-12435.459826,76.609550
3340.305450,666.185348,-9474.636058,459.657299
3340.305777,518.144159,-7624.121203,-383.047749
3340.306105,-296.082377,-8438.347739,76.609550
3340.306432,0.000000,-9326.594869,76.609550
3340.306760,370.102971,-8512.368333,0.000000
3340.307087,1332.370696,-8216.285956,-919.314598
3340.307415,1036.288319,-9622.677246,-1838.629195
3340.307743,666.185348,-9548.656652,-842.705048
3340.308070,0.000000,-10881.027347,0.000000
3340.308398,1332.370696,-11029.068536,153.219100
3340.308725,3849.070898,-10362.883188,-1149.143247
3340.309053,2590.720797,-9918.759623,-459.657299
3340.309380,2368.659014,-11029.068536,1838.629195
3340.309708,3034.844362,-10436.903782,1072.533697
3340.310035,3478.967927,-9252.574275,-459.657299
3340.310363,2368.659014,-8586.388927,-612.876398
3340.310690,0.000000,-8068.244768,-153.219100
3340.311018,-370.102971,-7550.100608,153.219100
3340.311346,-444.123565,-9844.739029,689.485948
3340.311673,-222.061783,-10584.944971,919.314598
3340.312001,-444.123565,-10732.986159,0.000000
3340.312328,444.123565,-11325.150913,-306.438199
3340.312656,1036.288319,-10510.924376,-536.266849
3340.312983,1110.308913,-8068.244768,-689.485948
3340.313311,740.205942,-8956.491898,76.609550
3340.313638,888.247130,-9178.553681,0.000000
3340.313966,-370.102971,-7031.956449,0.000000
3340.314293,-2072.576638,-8956.491898,1838.629195
3340.314621,-666.185348,-10140.821405,1532.190996
3340.314949,-296.082377,-9474.636058,766.095498
3340.315276,-1554.432478,-10140.821405,0.000000
3340.315604,-1554.432478,-11325.150913,-689.485948
3340.315931,-1480.411884,-9622.677246,-1915.238745
3340.316259,0.000000,-8586.388927,-2757.943793
3340.316586,-666.185348,-9474.636058,-2068.457845
3340.316914,-888.247130,-9696.697840,0.000000
3340.317241,-814.226536,-10066.800811,536.266849
3340.317569,74.020594,-9622.677246,995.924147
3340.317896,888.247130,-9474.636058,1685.410096
3340.318224,-518.144159,-10066.800811,1762.019645
3340.318552,-1850.514855,-11177.109724,1455.581446
3340.318879,-2960.823768,-9992.780217,-995.924147
3340.319207,-740.205942,-7846.182985,-4903.011187
3340.319534,-148.041188,-9844.739029,-6128.763984
3340.319862,-814.226536,-10510.924376,-3294.210641
3340.320189,-1110.308913,-10214.842000,0.000000
3340.320517,1406.391290,-11843.295072,1378.971896
3340.320844,2294.638420,-10955.047942,2374.896044
3340.321172,444.123565,-10807.006753,2145.067394
3340.321499,-1998.556043,-9844.739029,1072.533697
3340.321827,-592.164754,-7402.059420,-689.485948
3340.322154,888.247130,-7328.038826,-2911.162892
3340.322482,1850.514855,-10066.800811,-2374.896044
3340.322810,592.164754,-10881.027347,-229.828649
3340.323137,592.164754,-9696.697840,612.876398
3340.323465,1776.494261,-11325.150913,0.000000
3340.323792,3034.844362,-11621.233289,0.000000
3340.324120,2886.803174,-10436.903782,153.219100
3340.324447,1036.288319,-8142.265362,1762.019645
3340.324775,-518.144159,-7624.121203,1072.533697
3340.325102,-740.205942,-8734.430116,-229.828649
3340.325430,1628.453072,-8660.409521,-1762.019645
3340.325757,1480.411884,-7772.162391,-1455.581446
3340.326085,592.164754,-8290.306550,0.000000
3340.326413,518.144159,-10288.862594,1302.362347
3340.326740,2368.659014,-9252.574275,1149.143247
3340.327068,2960.823768,-9030.512492,0.000000
3340.327395,1258.350101,-10510.924376,1072.533697
3340.327723,888.247130,-11325.150913,2145.067394
3340.328050,1776.494261,-10214.842000,383.047749
3340.328378,3108.864956,-9030.512492,-2451.505594
3340.328705,3034.844362,-9992.780217,-2145.067394
3340.329033,1776.494261,-9844.739029,536.266849
3340.329360,222.061783,-9474.636058,2374.896044
3340.329688,-814.226536,-8216.285956,919.314598
3340.330016,-444.123565,-8364.327145,-1532.190996
3340.330343,-2368.659014,-10955.047942,-919.314598
3340.330671,-2072.576638,-12287.418637,153.219100
3340.330998,-1110.308913,-10436.903782,-612.876398
3340.331326,1480.411884,-10362.883188,-1302.362347
3340.331653,1406.391290,-10658.965565,-1915.238745
3340.331981,-518.144159,-10140.821405,-536.266849
3340.332308,-740.205942,-8216.285956,306.438199
3340.332636,-888.247130,-8216.285956,0.000000
3340.332963,-888.247130,-8142.265362,995.924147
3340.333291,-518.144159,-9474.636058,0.000000
3340.333619,-1480.411884,-10807.006753,459.657299
3340.333946,-1184.329507,-11399.171507,612.876398
3340.334274,-592.164754,-10807.006753,-1685.410096
3340.334601,74.020594,-9696.697840,-3140.991542
3340.334929,-814.226536,-8882.471304,-2374.896044
3340.335256,-666.185348,-8660.409521,-1072.533697
3340.335584,-1036.288319,-9104.533087,1608.800546
3340.335911,518.144159,-9400.615463,2221.676944
3340.336239,1258.350101,-9104.533087,1762.019645
3340.336566,148.041188,-9696.697840,1685.410096
3340.336894,-296.082377,-9400.615463,1302.362347
3340.337222,-1110.308913,-9178.553681,229.828649
3340.337549,-1110.308913,-9474.636058,-2221.676944
3340.337877,-2072.576638,-9474.636058,-2451.505594
3340.338204,-1998.556043,-10214.842000,-1378.971896
3340.338532,-1258.350101,-9696.697840,-1838.629195
3340.338859,-1258.350101,-9178.553681,-383.047749
3340.339187,-148.041188,-8586.388927,153.219100
3340.339514,222.061783,-8882.471304,459.657299
3340.339842,1702.473667,-10732.986159,1608.800546
3340.340169,1184.329507,-11325.150913,2298.286494
3340.340497,1406.391290,-10140.821405,306.438199
3340.340825,2368.659014,-8808.450710,-1532.190996
3340.341152,1998.556043,-7994.224174,-2451.505594
3340.341480,888.247130,-9918.759623,-536.266849
3340.341807,148.041188,-11029.068536,1225.752797
3340.342135,2294.638420,-10214.842000,306.438199
3340.342462,2294.638420,-10288.862594,-2221.676944
3340.342790,1036.288319,-11103.089130,0.000000
3340.343117,370.102971,-10362.883188,612.876398
3340.343445,2368.659014,-10584.944971,0.000000
3340.343772,3330.926739,-10066.800811,-1608.800546
3340.344100,2294.638420,-9696.697840,-995.924147
3340.344427,1332.370696,-8216.285956,-306.438199
3340.344755,888.247130,-9104.533087,153.219100
3340.345083,370.102971,-9844.739029,995.924147
3340.345410,222.061783,-9770.718434,-229.828649
3340.345738,-814.226536,-8956.491898,0.000000
3340.346065,0.000000,-9474.636058,-459.657299
3340.346393,518.144159,-9030.512492,-995.924147
3340.346720,2072.576638,-10881.027347,0.000000
3340.347048,3108.864956,-10214.842000,-229.828649
3340.347375,2960.823768,-8808.450710,0.000000
3340.347703,1480.411884,-9252.574275,306.438199
3340.348030,-370.102971,-9104.533087,1838.629195
3340.348358,222.061783,-7772.162391,1378.971896
3340.348686,-296.082377,-8512.368333,229.828649
3340.349013,-1406.391290,-11251.130318,229.828649
3340.349341,-2220.617826,-10510.924376,-229.828649
3340.349668,-814.226536,-8142.265362,-1915.238745
3340.349996,740.205942,-9992.780217,-2987.772442
3340.350323,518.144159,-10658.965565,-919.314598
3340.350651,-592.164754,-9400.615463,383.047749
3340.350978,-2886.803174,-8438.347739,2068.457845
3340.351306,-1110.308913,-8290.306550,0.000000
3340.351633,0.000000,-8956.491898,-1685.410096
3340.351961,-370.102971,-9992.780217,-306.438199
3340.352289,-2146.597232,-10732.986159,306.438199
3340.352616,-962.267725,-10955.047942,-766.095498
3340.352944,1110.308913,-10584.944971,-3140.991542
3340.353271,222.061783,-10584.944971,-2911.162892
3340.353599,-444.123565,-10066.800811,-306.438199
3340.353926,-1776.494261,-9030.512492,689.485948
3340.354254,-518.144159,-9326.594869,766.095498
3340.354581,296.082377,-10362.883188,229.828649
3340.354909,-296.082377,-10732.986159,-383.047749
3340.355236,-740.205942,-9622.677246,536.266849
3340.355564,-444.123565,-9252.574275,76.609550
3340.355892,1406.391290,-9548.656652,-1149.143247
3340.356219,148.041188,-8956.491898,-1072.533697
3340.356547,962.267725,-8808.450710,-1532.190996
3340.356876,592.164754,-10584.944971,76.609550
3340.357204,1258.350101,-11473.192101,1762.019645
3340.357532,2368.659014,-9622.677246,1455.581446
3340.357859,666.185348,-9252.574275,1225.752797
3340.358187,74.020594,-9844.739029,1378.971896
3340.358514,-296.082377,-9474.636058,0.000000
3340.358842,-444.123565,-6809.894666,-2451.505594
3340.359169,-370.102971,-8142.265362,-1685.410096
3340.359497,-2146.597232,-9178.553681,-1608.800546
3340.359824,-888.247130,-8586.388927,-1532.190996
3340.360152,-222.061783,-9696.697840,229.828649
3340.360479,3256.906145,-10955.047942,995.924147
3340.360807,3775.050304,-11843.295072,1302.362347
3340.361134,3256.906145,-11843.295072,1072.533697
3340.361462,2960.823768,-10658.965565,306.438199
3340.361790,2590.720797,-10066.800811,-1378.971896
3340.362117,3108.864956,-9548.656652,-1455.581446
3340.362445,1480.411884,-9104.533087,-306.438199
3340.362772,888.247130,-7920.203579,919.314598
3340.363100,-666.185348,-9104.533087,2451.505594
3340.363427,1480.411884,-10807.006753,842.705048
3340.363755,3182.885551,-12065.356855,-1072.533697
3340.364082,2146.597232,-12435.459826,-153.219100
3340.364410,1332.370696,-10510.924376,842.705048
3340.364737,-222.061783,-8660.409521,-536.266849
3340.365065,222.061783,-8882.471304,-2451.505594
3340.365392,222.061783,-9178.553681,-2145.067394
3340.365720,0.000000,-7550.100608,-689.485948
3340.366047,0.000000,-9400.615463,1915.238745
3340.366375,-592.164754,-9770.718434,2451.505594
3340.366703,1258.350101,-8882.471304,383.047749
3340.367030,-518.144159,-9770.718434,306.438199
3340.367358,0.000000,-10436.903782,306.438199
3340.367685,-518.144159,-8216.285956,-919.314598
3340.368013,-296.082377,-8734.430116,-2068.457845
3340.368340,-222.061783,-10807.006753,-1072.533697
3340.368668,-444.123565,-9548.656652,-612.876398
3340.368995,-740.205942,-7550.100608,689.485948
3340.369323,-2220.617826,-9400.615463,3140.991542
3340.369650,-148.041188,-8956.491898,1608.800546
3340.369978,-1110.308913,-8438.347739,1302.362347
3340.370305,-1998.556043,-9548.656652,-229.828649
3340.370633,-2368.659014,-9326.594869,-1225.752797
3340.370961,-1332.370696,-10288.862594,-2451.505594
3340.371288,-592.164754,-11103.089130,-1685.410096
3340.371616,-1036.288319,-10732.986159,-1378.971896
3340.371943,-814.226536,-8882.471304,-1302.362347
3340.372271,0.000000,-9992.780217,459.657299
3340.372598,444.123565,-10214.842000,1762.019645
3340.372926,1110.308913,-9252.574275,1378.971896
3340.373253,-740.205942,-9104.533087,2221.676944
3340.373581,-1332.370696,-9696.697840,383.047749
3340.373908,-518.144159,-10955.047942,-2911.162892
3340.374236,1110.308913,-11103.089130,-3830.477490
3340.374563,1036.288319,-10955.047942,-2911.162892
3340.374891,592.164754,-9622.677246,-1915.238745
3340.375218,-444.123565,-10658.965565,459.657299
3340.375546,518.144159,-10510.924376,1072.533697
3340.375874,2072.576638,-8660.409521,383.047749
3340.376201,1480.411884,-10214.842000,1302.362347
3340.376529,1850.514855,-9844.739029,766.095498
3340.376856,1184.329507,-7994.224174,-76.609550
3340.377184,2072.576638,-9622.677246,-1608.800546
3340.377511,666.185348,-9474.636058,-689.485948
3340.377839,-1850.514855,-9770.718434,229.828649
3340.378166,-1998.556043,-9104.533087,-919.314598
3340.378494,-1628.453072,-8956.491898,-1915.238745
3340.378821,962.267725,-7476.080014,-2528.115143
3340.379149,592.164754,-9252.574275,1225.752797
3340.379476,2368.659014,-12583.501014,3140.991542
3340.379804,4737.318029,-10214.842000,1762.019645
3340.380132,4737.318029,-10362.883188,-612.876398
3340.380459,3627.009116,-9622.677246,-919.314598
3340.380787,2664.741391,-8956.491898,-919.314598
3340.381114,1776.494261,-7846.182985,536.266849
3340.381442,1110.308913,-8586.388927,1915.238745
3340.381769,296.082377,-8956.491898,1302.362347
3340.382097,1110.308913,-10140.821405,766.095498
3340.382424,740.205942,-11029.068536,0.000000
3340.382752,740.205942,-9918.759623,-1378.971896
3340.383079,-592.164754,-11251.130318,-689.485948
3340.383407,1184.329507,-11843.295072,-1072.533697
3340.383734,1184.329507,-8290.306550,-2221.676944
3340.384062,-370.102971,-8364.327145,-1532.190996
3340.384389,-1776.494261,-10140.821405,1685.410096
3340.384717,-296.082377,-9918.759623,1762.019645
3340.385045,592.164754,-8438.347739,0.000000
3340.385372,-518.144159,-9770.718434,536.266849
3340.385700,-1258.350101,-10214.842000,153.219100
3340.386027,-1184.329507,-10214.842000,-536.266849
3340.386355,-148.041188,-10066.800811,-1225.752797
3340.386682,1480.411884,-10510.924376,-1302.362347
3340.387010,-222.061783,-9474.636058,-1532.190996
3340.387337,-1332.370696,-10658.965565,842.705048
3340.387665,-2220.617826,-10362.883188,1302.362347
3340.387992,444.123565,-7476.080014,-229.828649
3340.388320,296.082377,-8438.347739,2068.457845
3340.388647,-740.205942,-9622.677246,2987.772442
3340.388975,-1776.494261,-9696.697840,1532.190996
3340.389302,-2664.741391,-8956.491898,-919.314598
3340.389630,-1924.535449,-8808.450710,-4136.915689
3340.389958,-444.123565,-11325.150913,-4366.744339
3340.390285,-740.205942,-10955.047942,-1762.019645
3340.390613,-1480.411884,-9474.636058,1762.019645
3340.390940,444.123565,-9474.636058,995.924147
3340.391268,1406.391290,-9474.636058,919.314598
3340.391595,296.082377,-9474.636058,2374.896044
3340.391923,-740.205942,-7698.141797,2145.067394
3340.392250,-1480.411884,-8660.409521,689.485948
3340.392578,518.144159,-10214.842000,-1608.800546
3340.392905,1036.288319,-9474.636058,-3830.477490
3340.393233,-370.102971,-11325.150913,-2068.457845
3340.393560,-592.164754,-10362.883188,0.000000
3340.393888,592.164754,-9474.636058,0.000000
3340.394216,592.164754,-9918.759623,-1072.533697
3340.394543,370.102971,-10955.047942,0.000000
3340.394871,1184.329507,-9474.636058,0.000000
3340.395198,1406.391290,-7624.121203,-306.438199
3340.395526,2368.659014,-10362.883188,229.828649
3340.395853,2812.782580,-11251.130318,-842.705048
3340.396181,4737.318029,-10584.944971,-1532.190996
3340.396508,2368.659014,-8438.347739,1149.143247
3340.396836,518.144159,-9918.759623,2528.115143
3340.397163,-1480.411884,-10584.944971,1915.238745
3340.397491,-2442.679609,-9252.574275,-536.266849
3340.397818,-2072.576638,-8068.244768,-2987.772442
3340.398146,-1702.473667,-8660.409521,-3217.601092
3340.398473,-518.144159,-9992.780217,-306.438199
3340.398801,1924.535449,-9104.533087,-306.438199
3340.399129,4071.132681,-11251.130318,-995.924147
3340.399456,3627.009116,-12065.356855,383.047749
3340.399784,2442.679609,-8734.430116,1915.238745
3340.400111,3182.885551,-7846.182985,1915.238745
3340.400439,1924.535449,-7476.080014,2221.676944
3340.400766,1406.391290,-9696.697840,1225.752797
3340.401094,0.000000,-10288.862594,612.876398
3340.401421,1110.308913,-11103.089130,-536.266849
3340.401749,2220.617826,-10066.800811,-2528.115143
3340.402076,1184.329507,-10584.944971,-1608.800546
3340.402404,-222.061783,-9622.677246,153.219100
3340.402731,-1258.350101,-7920.203579,0.000000
3340.403059,74.020594,-10214.842000,76.609550
3340.403387,518.144159,-10436.903782,306.438199
3340.403714,74.020594,-9918.759623,1762.019645
3340.404042,296.082377,-9696.697840,842.705048
3340.404369,-1258.350101,-10140.821405,-766.095498
3340.404697,-888.247130,-10140.821405,-1608.800546
3340.405024,-592.164754,-8882.471304,-2911.162892
3340.405352,-1036.288319,-8956.491898,-1838.629195
3340.405679,-1702.473667,-8364.327145,0.000000
3340.406007,-814.226536,-9326.594869,995.924147
3340.406334,592.164754,-10584.944971,1685.410096
3340.406662,1702.473667,-10955.047942,1915.238745
3340.406989,148.041188,-8956.491898,1685.410096
3340.407317,-1406.391290,-8956.491898,1149.143247
3340.407644,0.000000,-9696.697840,-1072.533697
3340.407972,444.123565,-9918.759623,-1838.629195
3340.408300,-888.247130,-9770.718434,-1455.581446
3340.408627,-2220.617826,-8882.471304,-1225.752797
3340.408955,-2590.720797,-9104.533087,-842.705048
3340.409282,74.020594,-11029.068536,-1149.143247
3340.409610,0.000000,-10510.924376,-383.047749
3340.409937,-740.205942,-9548.656652,919.314598
3340.410265,-518.144159,-9474.636058,842.705048
3340.410592,296.082377,-9548.656652,0.000000
3340.410920,1036.288319,-8882.471304,-689.485948
3340.411247,592.164754,-8956.491898,0.000000
3340.411575,0.000000,-9474.636058,-306.438199
3340.411902,-666.185348,-8956.491898,-306.438199
3340.412230,222.061783,-9252.574275,-612.876398
3340.412557,1184.329507,-9548.656652,-995.924147
3340.412885,888.247130,-10881.027347,0.000000
3340.413213,444.123565,-11251.130318,306.438199
3340.413540,74.020594,-10881.027347,-689.485948
3340.413868,1480.411884,-9918.759623,-1608.800546
3340.414195,1480.411884,-9622.677246,-2374.896044
3340.414523,888.247130,-10436.903782,-919.314598
3340.414850,1554.432478,-11029.068536,995.924147
3340.415178,3701.029710,-9548.656652,919.314598
3340.415505,3775.050304,-8068.244768,536.266849
3340.415833,74.020594,-9696.697840,2145.067394
3340.416160,-2664.741391,-10362.883188,2528.115143
3340.416488,-3849.070898,-9326.594869,0.000000
3340.416815,-2072.576638,-8660.409521,-4290.134789
3340.417143,0.000000,-9548.656652,-5132.839837
3340.417471,-666.185348,-10955.047942,-1608.800546
3340.417798,740.205942,-11251.130318,1762.019645
3340.418126,2738.761985,-9696.697840,1608.800546
3340.418453,3997.112087,-10436.903782,1072.533697
3340.418781,1924.535449,-9252.574275,919.314598
3340.419108,962.267725,-8512.368333,1225.752797
3340.419436,370.102971,-7179.997637,1072.533697
3340.419763,1924.535449,-8586.388927,842.705048
3340.420091,1332.370696,-10214.842000,306.438199
3340.420418,666.185348,-11399.171507,689.485948
3340.420746,1332.370696,-9992.780217,-842.705048
3340.421073,1702.473667,-8734.430116,-1762.019645
3340.421401,370.102971,-9400.615463,-229.828649
3340.421728,1258.350101,-9622.677246,919.314598
3340.422056,1480.411884,-9252.574275,1685.410096
3340.422384,1036.288319,-10436.903782,1302.362347
3340.422711,-2072.576638,-10732.986159,995.924147
3340.423039,-1480.411884,-9400.615463,-1838.629195
3340.423366,-814.226536,-9326.594869,-4366.744339
3340.423694,-1110.308913,-10066.800811,-2681.334243
3340.424021,-2368.659014,-10066.800811,0.000000
3340.424349,-1924.535449,-9844.739029,1149.143247
3340.424676,740.205942,-8808.450710,383.047749
3340.425004,1850.514855,-10658.965565,536.266849
3340.425331,-148.041188,-9696.697840,766.095498
3340.425659,-962.267725,-10066.800811,1608.800546
3340.425986,148.041188,-8512.368333,-995.924147
3340.426314,1110.308913,-9252.574275,-2298.286494
3340.426642,0.000000,-10807.006753,-383.047749
3340.426969,-370.102971,-10436.903782,1608.800546
3340.427297,-1258.350101,-8364.327145,1225.752797
3340.427624,-1110.308913,-9030.512492,-1149.143247
3340.427952,-1554.432478,-9696.697840,-1991.848295
3340.428279,-1110.308913,-10362.883188,-2528.115143
3340.428607,-1554.432478,-10066.800811,-536.266849
3340.428934,-518.144159,-10362.883188,459.657299
3340.429262,1776.494261,-10214.842000,-689.485948
3340.429589,1258.350101,-10066.800811,-689.485948
3340.429917,74.020594,-9474.636058,536.266849
3340.430244,-814.226536,-8512.368333,1378.971896
3340.430572,814.226536,-9178.553681,766.095498
3340.430899,1110.308913,-7994.224174,459.657299
3340.431227,0.000000,-8586.388927,383.047749
3340.431555,-592.164754,-10436.903782,76.609550
3340.431882,-370.102971,-11769.274478,0.000000
3340.432210,2368.659014,-9770.718434,-2451.505594
3340.432537,1702.473667,-9696.697840,-2757.943793
3340.432865,296.082377,-10066.800811,-766.095498
3340.433192,296.082377,-9104.533087,842.705048
3340.433520,814.226536,-9622.677246,919.314598
3340.433847,2368.659014,-9844.739029,383.047749
3340.434175,3256.906145,-9992.780217,0.000000
3340.434502,1776.494261,-9178.553681,76.609550
3340.434830,444.123565,-10436.903782,995.924147
3340.435157,-370.102971,-10140.821405,153.219100
3340.435485,-666.185348,-10510.924376,-1455.581446
3340.435813,-2442.679609,-9918.759623,-2451.505594
3340.436140,-1702.473667,-8660.409521,-2834.553343
3340.436468,-814.226536,-9400.615463,-766.095498
3340.436795,1628.453072,-12361.439231,842.705048
3340.437123,3478.967927,-10807.006753,1225.752797
3340.437450,2220.617826,-8660.409521,1685.410096
3340.437778,592.164754,-9474.636058,1225.752797
3340.438105,1702.473667,-10658.965565,229.828649
3340.438433,2146.597232,-8068.244768,-2451.505594
3340.438760,222.061783,-8734.430116,-1532.190996
3340.439088,-666.185348,-9400.615463,459.657299
3340.439415,-1184.329507,-9252.574275,2528.115143
3340.439743,814.226536,-10140.821405,1838.629195
3340.440070,962.267725,-9178.553681,76.609550
3340.440398,-370.102971,-9326.594869,-306.438199
3340.440726,-666.185348,-9992.780217,229.828649
3340.441053,148.041188,-10288.862594,-306.438199
3340.441381,2516.700203,-9622.677246,-1225.752797
3340.441708,1110.308913,-8438.347739,-383.047749
3340.442036,-1702.473667,-8438.347739,995.924147
3340.442363,-2072.576638,-10214.842000,0.000000
3340.442691,-1776.494261,-9992.780217,-1762.019645
3340.443018,-888.247130,-9400.615463,-1072.533697
3340.443346,-444.123565,-9252.574275,-766.095498
3340.443673,296.082377,-9178.553681,1072.533697
3340.444001,1850.514855,-9992.780217,1532.190996
3340.444328,2886.803174,-10807.006753,0.000000
3340.444656,2590.720797,-10955.047942,-1072.533697
3340.444983,74.020594,-9622.677246,-919.314598
3340.445311,-370.102971,-8290.306550,-919.314598
3340.445639,-1184.329507,-9474.636058,689.485948
3340.445966,1406.391290,-9474.636058,459.657299
3340.446294,0.000000,-10807.006753,153.219100
3340.446621,0.000000,-11251.130318,0.000000
3340.446949,-814.226536,-9474.636058,-2221.676944
3340.447276,-666.185348,-9844.739029,-2451.505594
3340.447604,370.102971,-9992.780217,-2757.943793
3340.447931,74.020594,-9992.780217,-1455.581446
3340.448259,-888.247130,-9030.512492,306.438199
3340.448586,-1184.329507,-10066.800811,2298.286494
3340.448914,666.185348,-9548.656652,1915.238745
3340.449241,1628.453072,-9030.512492,536.266849
3340.449569,0.000000,-9622.677246,76.609550
3340.449897,-814.226536,-10436.903782,0.000000
3340.450224,74.020594,-9474.636058,-766.095498
3340.450552,814.226536,-7920.203579,-1302.362347
3340.450879,1554.432478,-9770.718434,-1072.533697
3340.451207,666.185348,-10436.903782,383.047749
3340.451534,222.061783,-9622.677246,766.095498
3340.451862,296.082377,-9104.533087,306.438199
3340.452189,962.267725,-8364.327145,-383.047749
3340.452517,222.061783,-9696.697840,919.314598
3340.452844,370.102971,-9918.759623,1532.190996
3340.453172,962.267725,-10955.047942,0.000000
3340.453499,2590.720797,-10807.006753,-2145.067394
3340.453827,3108.864956,-9918.759623,-2604.724693
3340.454154,592.164754,-9474.636058,0.000000
3340.454482,-2146.597232,-9030.512492,1838.629195
3340.454810,-2960.823768,-10066.800811,2987.772442
3340.455137,-1776.494261,-8882.471304,536.266849
3340.455465,-444.123565,-7772.162391,-2451.505594
3340.455793,-1554.432478,-8956.491898,-1302.362347
3340.456120,-370.102971,-10066.800811,0.000000
3340.456448,814.226536,-10066.800811,0.000000
3340.456776,3034.844362,-11251.130318,-1915.238745
3340.457103,2442.679609,-11769.274478,-1685.410096
3340.457431,888.247130,-10140.821405,-995.924147
3340.457759,1110.308913,-10658.965565,1302.362347
3340.458086,1480.411884,-9770.718434,1915.238745
3340.458414,1554.432478,-9252.574275,995.924147
3340.458742,444.123565,-10066.800811,1149.143247
3340.459069,222.061783,-10510.924376,536.266849
3340.459397,518.144159,-9696.697840,-1532.190996
3340.459725,1850.514855,-8586.388927,-2757.943793
3340.460052,666.185348,-9474.636058,-919.314598
3340.460380,740.205942,-11325.150913,-459.657299
3340.460708,444.123565,-10510.924376,995.924147
3340.461035,814.226536,-8808.450710,1302.362347
3340.461363,0.000000,-8882.471304,306.438199
3340.461691,-1924.535449,-10732.986159,0.000000
3340.462018,-2368.659014,-9474.636058,-536.266849
3340.462346,-2516.700203,-8956.491898,-2298.286494
3340.462674,-1110.308913,-8956.491898,-2374.896044
3340.463001,1036.288319,-9104.533087,-1991.848295
3340.463329,-222.061783,-9474.636058,-383.047749
3340.463657,-222.061783,-10807.006753,1302.362347
3340.463984,1110.308913,-10955.047942,1532.190996
3340.464312,1628.453072,-8586.388927,153.219100
3340.464640,-296.082377,-7105.977043,766.095498
3340.464967,-148.041188,-9474.636058,1225.752797
3340.465295,-370.102971,-11177.109724,1225.752797
3340.465623,1258.350101,-11029.068536,153.219100
3340.465951,1406.391290,-9104.533087,-2451.505594
3340.466278,0.000000,-9400.615463,-2757.943793
3340.466606,-1554.432478,-11251.130318,-766.095498
3340.466934,-1036.288319,-9548.656652,76.609550
3340.467261,0.000000,-8660.409521,76.609550
3340.467589,296.082377,-9474.636058,919.314598
3340.467917,-148.041188,-10584.944971,1225.752797
3340.468244,-888.247130,-10214.842000,1149.143247
3340.468572,0.000000,-9474.636058,-766.095498
3340.468900,2146.597232,-10214.842000,-2374.896044
3340.469227,666.185348,-9030.512492,-2681.334243
3340.469555,0.000000,-9030.512492,-1072.533697
3340.469883,-444.123565,-10066.800811,1302.362347
3340.470210,1924.535449,-10066.800811,1532.190996
3340.470538,1776.494261,-9844.739029,612.876398
3340.470866,1110.308913,-10436.903782,766.095498
3340.471193,74.020594,-9548.656652,229.828649
3340.471521,0.000000,-9622.677246,0.000000
3340.471849,1554.432478,-10288.862594,-1762.019645
3340.472176,1184.329507,-10955.047942,-2604.724693
3340.472504,1998.556043,-10288.862594,-2145.067394
3340.472832,518.144159,-9252.574275,536.266849
3340.473159,1332.370696,-10214.842000,2757.943793
3340.473487,1998.556043,-8734.430116,1915.238745
3340.473815,-1110.308913,-8956.491898,2298.286494
3340.474142,-3627.009116,-9474.636058,1455.581446
3340.474470,-2516.700203,-8216.285956,-2068.457845
3340.474798,-444.123565,-7105.977043,-4060.306139
3340.475125,666.185348,-8586.388927,-4136.915689
3340.475453,888.247130,-11177.109724,-1991.848295
3340.475781,1332.370696,-11547.212695,1072.533697
3340.476108,2220.617826,-10732.986159,1762.019645
3340.476436,4071.132681,-10362.883188,1072.533697
3340.476764,2590.720797,-9770.718434,1302.362347
3340.477091,1184.329507,-8438.347739,1838.629195
3340.477419,592.164754,-8216.285956,1149.143247
3340.477747,0.000000,-9622.677246,0.000000
3340.478075,370.102971,-9252.574275,-1608.800546
3340.478402,222.061783,-9770.718434,-1838.629195
3340.478730,740.205942,-9992.780217,-1225.752797
3340.479058,518.144159,-11547.212695,-229.828649
3340.479385,1184.329507,-13397.727550,842.705048
3340.479713,2220.617826,-11325.150913,76.609550
3340.480041,592.164754,-9104.533087,689.485948
3340.480368,296.082377,-7105.977043,1225.752797
3340.480696,-1702.473667,-7994.224174,1378.971896
3340.481024,-1702.473667,-8956.491898,-1149.143247
3340.481351,-1776.494261,-8956.491898,-3217.601092
3340.481679,-1554.432478,-9474.636058,-2757.943793
3340.482007,-1554.432478,-9326.594869,-766.095498
3340.482334,148.041188,-11769.274478,1608.800546
3340.482662,1998.556043,-12657.521608,2145.067394
3340.482990,1628.453072,-11473.192101,153.219100
3340.483317,0.000000,-9252.574275,459.657299
3340.483645,-1702.473667,-7476.080014,0.000000
3340.483973,-1184.329507,-6957.935855,-766.095498
