#time,accel_x,accel_y,accel_z
3383.622184,370.102971,-9992.780217,-612.876398
3383.622511,518.144159,-10066.800811,-536.266849
3383.622839,814.226536,-10214.842000,-459.657299
3383.623166,814.226536,-10584.944971,0.000000
3383.623493,814.226536,-9474.636058,-229.828649
3383.623821,444.123565,-9622.677246,-306.438199
3383.624148,148.041188,-9622.677246,-306.438199
3383.624476,74.020594,-9622.677246,-459.657299
3383.624803,0.000000,-9474.636058,-612.876398
3383.625131,-296.082377,-9844.739029,-842.705048
3383.625458,0.000000,-10214.842000,-766.095498
3383.625786,148.041188,-10362.883188,-383.047749
3383.626113,592.164754,-10362.883188,-536.266849
3383.626441,148.041188,-9770.718434,-383.047749
3383.626768,518.144159,-10214.842000,0.000000
3383.627096,666.185348,-9696.697840,0.000000
3383.627423,518.144159,-9474.636058,153.219100
3383.627751,296.082377,-9326.594869,0.000000
3383.628078,74.020594,-8882.471304,-383.047749
3383.628405,0.000000,-8512.368333,153.219100
3383.628733,-444.123565,-8734.430116,0.000000
3383.629060,0.000000,-9400.615463,-306.438199
3383.629388,296.082377,-9474.636058,-459.657299
3383.629715,222.061783,-9770.718434,-306.438199
3383.630043,296.082377,-9474.636058,0.000000
3383.630370,1036.288319,-9844.739029,919.314598
3383.630698,1332.370696,-9770.718434,689.485948
3383.631025,444.123565,-9104.533087,536.266849
3383.631353,222.061783,-9252.574275,459.657299
3383.631680,0.000000,-9104.533087,229.828649
3383.632008,74.020594,-9030.512492,0.000000
3383.632335,-296.082377,-9326.594869,-229.828649
3383.632663,-444.123565,-9252.574275,-612.876398
3383.632990,0.000000,-9474.636058,-383.047749
3383.633317,592.164754,-9770.718434,-536.266849
3383.633645,518.144159,-9918.759623,-919.314598
3383.633972,740.205942,-10362.883188,-229.828649
3383.634300,592.164754,-10214.842000,-306.438199
3383.634627,740.205942,-10066.800811,0.000000
3383.634955,666.185348,-9992.780217,0.000000
3383.635282,444.123565,-9326.594869,-612.876398
3383.635610,370.102971,-9474.636058,-612.876398
3383.635937,1036.288319,-9474.636058,-536.266849
3383.636265,1998.556043,-9326.594869,-766.095498
3383.636592,2812.782580,-9252.574275,-995.924147
3383.636920,4145.153275,-9992.780217,-229.828649
3383.637247,5255.462188,-10881.027347,76.609550
3383.637575,6587.832884,-10955.047942,689.485948
3383.637902,7254.018232,-9844.739029,76.609550
3383.638230,7550.100608,-9918.759623,153.219100
3383.638557,8068.244768,-10066.800811,306.438199
3383.638884,7994.224174,-10436.903782,612.876398
3383.639212,7328.038826,-9992.780217,1072.533697
3383.639539,8364.327145,-8660.409521,153.219100
3383.639867,8734.430116,-7846.182985,536.266849
3383.640194,8882.471304,-7920.203579,0.000000
3383.640522,9622.677246,-8290.306550,229.828649
3383.640849,10881.027347,-8956.491898,459.657299
3383.641177,11769.274478,-9696.697840,306.438199
3383.641504,11547.212695,-9992.780217,612.876398
3383.641832,11399.171507,-9104.533087,612.876398
3383.642159,11843.295072,-8068.244768,766.095498
3383.642487,12953.603985,-9474.636058,459.657299
3383.642814,12731.542202,-10436.903782,153.219100
3383.643142,13545.768739,-10066.800811,229.828649
3383.643469,14434.015869,-9474.636058,0.000000
3383.643796,14730.098246,-9918.759623,76.609550
3383.644124,13915.871710,-9252.574275,0.000000
3383.644451,13471.748144,-8808.450710,306.438199
3383.644779,13323.706956,-9252.574275,0.000000
3383.645106,13767.830521,-11103.089130,-306.438199
3383.645434,13619.789333,-10214.842000,383.047749
3383.645761,13471.748144,-9178.553681,1608.800546
3383.646089,13175.665768,-9622.677246,1455.581446
3383.646416,12509.480420,-10066.800811,842.705048
3383.646744,11621.233289,-10214.842000,0.000000
3383.647071,10288.862594,-10584.944971,-459.657299
3383.647399,8734.430116,-10140.821405,-995.924147
3383.647726,7920.203579,-9696.697840,-1532.190996
3383.648054,6661.853478,-9474.636058,-995.924147
3383.648381,7328.038826,-9326.594869,-766.095498
3383.648708,8956.491898,-9326.594869,-842.705048
3383.649036,11473.192101,-10955.047942,229.828649
3383.649363,11029.068536,-11843.295072,2068.457845
3383.649691,9992.780217,-10140.821405,1455.581446
3383.650018,9104.533087,-7994.224174,766.095498
3383.650346,8290.306550,-7105.977043,919.314598
3383.650673,8364.327145,-7994.224174,1072.533697
3383.651001,8660.409521,-9400.615463,1838.629195
3383.651328,8660.409521,-9770.718434,1532.190996
3383.651656,8882.471304,-9622.677246,306.438199
3383.651983,7772.162391,-8734.430116,0.000000
3383.652311,6217.729913,-9474.636058,0.000000
3383.652638,6217.729913,-10140.821405,-306.438199
3383.652966,7328.038826,-9696.697840,-1225.752797
3383.653293,9844.739029,-8956.491898,-1149.143247
3383.653621,11695.253884,-8660.409521,153.219100
3383.653948,9326.594869,-7846.182985,2987.772442
3383.654275,6883.915261,-7550.100608,4136.915689
3383.654603,7105.977043,-8216.285956,1685.410096
3383.654930,9622.677246,-10214.842000,-2145.067394
3383.655258,10658.965565,-10658.965565,-3447.429741
3383.655585,9918.759623,-9770.718434,-2221.676944
3383.655913,9474.636058,-10362.883188,995.924147
3383.656240,9326.594869,-11251.130318,383.047749
3383.656568,9326.594869,-10288.862594,0.000000
3383.656895,8956.491898,-8956.491898,-383.047749
3383.657223,9622.677246,-9548.656652,-1378.971896
3383.657550,10510.924376,-10288.862594,-919.314598
3383.657878,10732.986159,-9474.636058,76.609550
3383.658205,10584.944971,-9326.594869,689.485948
3383.658533,9992.780217,-7550.100608,76.609550
3383.658860,9252.574275,-8512.368333,-383.047749
3383.659187,10362.883188,-9918.759623,-1378.971896
3383.659515,14434.015869,-10881.027347,-2528.115143
3383.659842,16728.654289,-11029.068536,-1838.629195
3383.660170,15248.242405,-12361.439231,1455.581446
3383.660497,12953.603985,-11547.212695,3064.381992
3383.660825,13545.768739,-9326.594869,842.705048
3383.661152,13545.768739,-9992.780217,-919.314598
3383.661480,12065.356855,-10436.903782,-1072.533697
3383.661807,10658.965565,-9030.512492,-306.438199
3383.662135,9400.615463,-9474.636058,1532.190996
3383.662462,8956.491898,-9770.718434,3217.601092
3383.662790,7328.038826,-8364.327145,1532.190996
3383.663117,3330.926739,-6661.853478,1149.143247
3383.663445,2220.617826,-6587.832884,766.095498
3383.663772,4663.297435,-8660.409521,-2221.676944
3383.664099,4589.276840,-10214.842000,-766.095498
3383.664427,5551.544565,-10288.862594,919.314598
3383.664754,7254.018232,-8290.306550,383.047749
3383.665082,6365.771101,-9770.718434,0.000000
3383.665409,4663.297435,-11621.233289,2145.067394
3383.665737,4515.256246,-11103.089130,459.657299
3383.666064,3997.112087,-9400.615463,-1991.848295
3383.666392,3182.885551,-11325.150913,-1838.629195
3383.666719,2812.782580,-11177.109724,-1378.971896
3383.667047,3034.844362,-9252.574275,919.314598
3383.667374,2368.659014,-9474.636058,3600.648841
3383.667702,1702.473667,-8882.471304,1302.362347
3383.668029,1776.494261,-10066.800811,0.000000
3383.668357,740.205942,-8586.388927,-306.438199
3383.668684,-592.164754,-7624.121203,-229.828649
3383.669012,-1628.453072,-9326.594869,0.000000
3383.669339,-2072.576638,-9918.759623,0.000000
3383.669666,-2294.638420,-11473.192101,-766.095498
3383.669994,-2146.597232,-10955.047942,-1991.848295
3383.670321,-2294.638420,-10732.986159,-1225.752797
3383.670649,-1850.514855,-11177.109724,-1072.533697
3383.670976,-370.102971,-9992.780217,-1455.581446
3383.671304,-3775.050304,-8512.368333,0.000000
3383.671631,-6143.709319,-8142.265362,2068.457845
3383.671959,-5625.565159,-8956.491898,-995.924147
3383.672286,-5699.585753,-8142.265362,-2681.334243
3383.672614,-3404.947333,-7179.997637,-2911.162892
3383.672941,-740.205942,-6661.853478,-2221.676944
3383.673269,-1258.350101,-11621.233289,2298.286494
3383.673596,1036.288319,-11769.274478,2145.067394
3383.673924,4737.318029,-10362.883188,-1072.533697
3383.674251,2072.576638,-10066.800811,-1072.533697
3383.674578,888.247130,-9474.636058,0.000000
3383.674906,2072.576638,-9548.656652,-842.705048
3383.675233,2220.617826,-9178.553681,-306.438199
3383.675561,1258.350101,-9992.780217,766.095498
3383.675888,2146.597232,-9844.739029,1685.410096
3383.676216,2664.741391,-9696.697840,1455.581446
3383.676543,2294.638420,-9252.574275,0.000000
3383.676871,2220.617826,-9400.615463,-1455.581446
3383.677198,-148.041188,-8956.491898,-2451.505594
3383.677526,-666.185348,-9474.636058,-383.047749
3383.677853,2146.597232,-8290.306550,-1378.971896
3383.678181,2368.659014,-9918.759623,919.314598
3383.678508,3552.988522,-11325.150913,3830.477490
3383.678836,6291.750507,-9474.636058,689.485948
3383.679163,3849.070898,-9992.780217,-536.266849
3383.679490,1332.370696,-12065.356855,-459.657299
3383.679818,74.020594,-11843.295072,-1685.410096
3383.680145,0.000000,-10066.800811,-1608.800546
3383.680473,1554.432478,-8586.388927,-1532.190996
3383.680800,1628.453072,-9474.636058,-536.266849
3383.681128,1776.494261,-12139.377449,1762.019645
3383.681455,1628.453072,-9770.718434,1991.848295
3383.681783,3256.906145,-8808.450710,153.219100
3383.682110,814.226536,-10140.821405,1532.190996
3383.682438,592.164754,-10066.800811,689.485948
3383.682765,222.061783,-7402.059420,0.000000
3383.683093,-1924.535449,-7254.018232,459.657299
3383.683420,-962.267725,-8290.306550,306.438199
3383.683748,-592.164754,-11103.089130,-842.705048
3383.684075,-1332.370696,-11843.295072,0.000000
3383.684403,-1702.473667,-9770.718434,-2068.457845
3383.684730,-3108.864956,-9474.636058,-2145.067394
3383.685058,-3182.885551,-8586.388927,-1838.629195
3383.685386,-222.061783,-8956.491898,-2068.457845
3383.685713,444.123565,-8586.388927,1762.019645
3383.686041,1332.370696,-8586.388927,3064.381992
3383.686369,1776.494261,-10436.903782,2834.553343
3383.686696,592.164754,-10066.800811,1378.971896
3383.687024,-1110.308913,-9992.780217,229.828649
3383.687352,-1924.535449,-8660.409521,-995.924147
3383.687679,-2368.659014,-9548.656652,-2987.772442
3383.688007,-1554.432478,-9696.697840,-3753.867940
3383.688335,74.020594,-11029.068536,-689.485948
3383.688662,-592.164754,-10658.965565,306.438199
3383.688990,0.000000,-9696.697840,76.609550
3383.689318,-1110.308913,-9326.594869,-1225.752797
3383.689646,-2294.638420,-10658.965565,-1838.629195
3383.689973,-2368.659014,-10658.965565,-766.095498
3383.690301,-1258.350101,-8216.285956,-229.828649
3383.690629,370.102971,-8290.306550,-1685.410096
3383.690956,1554.432478,-9696.697840,-306.438199
3383.691284,-444.123565,-12213.398043,2374.896044
3383.691612,-1998.556043,-10732.986159,229.828649
3383.691939,-518.144159,-9030.512492,-2834.553343
3383.692267,222.061783,-8068.244768,-5056.230287
3383.692595,1110.308913,-11177.109724,-1762.019645
3383.692922,518.144159,-10732.986159,2068.457845
3383.693250,3627.009116,-8808.450710,2145.067394
3383.693578,3775.050304,-9252.574275,1378.971896
3383.693906,3552.988522,-11177.109724,766.095498
3383.694233,1554.432478,-10436.903782,536.266849
3383.694561,370.102971,-6957.935855,0.000000
3383.694889,1036.288319,-7772.162391,-1072.533697
3383.695216,-518.144159,-10510.924376,-842.705048
3383.695544,-444.123565,-10214.842000,1302.362347
3383.695872,1110.308913,-8142.265362,536.266849
3383.696199,1702.473667,-10214.842000,0.000000
3383.696527,1776.494261,-11695.253884,-229.828649
3383.696855,2886.803174,-9474.636058,-919.314598
3383.697182,1924.535449,-8290.306550,76.609550
3383.697510,1554.432478,-7105.977043,612.876398
3383.697838,592.164754,-9622.677246,1532.190996
3383.698166,0.000000,-9400.615463,1455.581446
3383.698493,2294.638420,-10732.986159,-459.657299
3383.698821,1554.432478,-10436.903782,-1762.019645
3383.699149,222.061783,-11547.212695,76.609550
3383.699476,1258.350101,-11917.315666,229.828649
3383.699804,2368.659014,-11251.130318,-459.657299
3383.700132,740.205942,-9918.759623,-459.657299
3383.700459,-74.020594,-9918.759623,229.828649
3383.700787,-666.185348,-9696.697840,76.609550
3383.701115,-740.205942,-8216.285956,-306.438199
3383.701442,-444.123565,-8734.430116,0.000000
3383.701770,-1998.556043,-9030.512492,1072.533697
3383.702098,-1554.432478,-10732.986159,1838.629195
3383.702426,-888.247130,-9104.533087,-1608.800546
3383.702753,-740.205942,-9696.697840,-3217.601092
3383.703081,-3330.926739,-9474.636058,-1302.362347
3383.703409,-2664.741391,-9178.553681,-842.705048
3383.703736,-1332.370696,-8586.388927,-1072.533697
3383.704064,666.185348,-9844.739029,0.000000
3383.704392,888.247130,-10732.986159,2145.067394
3383.704719,962.267725,-10658.965565,1685.410096
3383.705047,814.226536,-10288.862594,459.657299
3383.705375,592.164754,-9030.512492,-1455.581446
3383.705702,-1036.288319,-8882.471304,-1072.533697
3383.706030,-2294.638420,-7179.997637,153.219100
3383.706358,-1924.535449,-7179.997637,229.828649
3383.706686,-962.267725,-7846.182985,-383.047749
3383.707013,1036.288319,-10436.903782,459.657299
3383.707341,1036.288319,-11843.295072,306.438199
3383.707669,666.185348,-10658.965565,-536.266849
3383.707996,-222.061783,-9400.615463,-2145.067394
3383.708324,-1850.514855,-11029.068536,-1915.238745
3383.708652,-1480.411884,-11029.068536,-1149.143247
3383.708979,-444.123565,-8142.265362,-306.438199
3383.709307,-962.267725,-8808.450710,919.314598
3383.709635,-1702.473667,-9770.718434,0.000000
3383.709962,-666.185348,-10436.903782,-1302.362347
3383.710290,74.020594,-9178.553681,-2834.553343
3383.710618,888.247130,-10584.944971,-1838.629195
3383.710946,1776.494261,-9770.718434,306.438199
3383.711273,2960.823768,-9992.780217,689.485948
3383.711601,3108.864956,-10436.903782,1608.800546
3383.711929,3256.906145,-10955.047942,689.485948
3383.712256,1998.556043,-9622.677246,842.705048
3383.712584,1184.329507,-8438.347739,459.657299
3383.712912,296.082377,-9918.759623,459.657299
3383.713239,-888.247130,-9844.739029,76.609550
3383.713567,-296.082377,-9104.533087,-306.438199
3383.713895,518.144159,-9252.574275,-689.485948
3383.714222,1628.453072,-10658.965565,-459.657299
3383.714550,1036.288319,-9474.636058,689.485948
3383.714878,1406.391290,-8290.306550,1532.190996
3383.715205,2442.679609,-7328.038826,459.657299
3383.715533,1702.473667,-8586.388927,536.266849
3383.715861,-1480.411884,-9844.739029,1762.019645
3383.716189,-1184.329507,-9252.574275,995.924147
3383.716516,1036.288319,-9252.574275,-306.438199
3383.716844,2368.659014,-10362.883188,-1378.971896
3383.717172,1406.391290,-13027.624579,0.000000
3383.717499,888.247130,-12065.356855,766.095498
3383.717827,1406.391290,-9326.594869,-536.266849
3383.718155,0.000000,-8438.347739,-1225.752797
3383.718482,-1110.308913,-10066.800811,-306.438199
3383.718810,-2664.741391,-8438.347739,612.876398
3383.719138,-1406.391290,-5847.626942,-153.219100
3383.719465,370.102971,-9104.533087,-612.876398
3383.719793,222.061783,-11843.295072,612.876398
3383.720121,666.185348,-12287.418637,1838.629195
3383.720449,-518.144159,-8290.306550,-766.095498
3383.720776,-1258.350101,-9400.615463,-3524.039291
3383.721104,-2368.659014,-10658.965565,-3140.991542
3383.721432,-1480.411884,-11399.171507,-1608.800546
3383.721759,-666.185348,-9178.553681,0.000000
3383.722087,592.164754,-9030.512492,459.657299
3383.722415,1110.308913,-11029.068536,766.095498
3383.722742,962.267725,-12435.459826,919.314598
3383.723070,148.041188,-10881.027347,-229.828649
3383.723398,-888.247130,-7920.203579,-842.705048
3383.723725,-592.164754,-8290.306550,-1072.533697
3383.724053,296.082377,-8068.244768,-536.266849
3383.724381,0.000000,-8586.388927,1608.800546
3383.724709,1480.411884,-7402.059420,2374.896044
3383.725036,2146.597232,-9474.636058,2604.724693
3383.725364,2294.638420,-12065.356855,0.000000
3383.725692,1184.329507,-12509.480420,-2145.067394
3383.726019,-1998.556043,-9696.697840,-2298.286494
3383.726347,-3701.029710,-8808.450710,-919.314598
3383.726675,-2146.597232,-9252.574275,-1455.581446
3383.727002,-1406.391290,-9844.739029,153.219100
3383.727330,-962.267725,-9770.718434,1991.848295
3383.727658,-740.205942,-8512.368333,76.609550
3383.727985,-370.102971,-8512.368333,-536.266849
3383.728313,1406.391290,-8734.430116,-1608.800546
3383.728641,2442.679609,-10658.965565,-766.095498
3383.728969,1258.350101,-10288.862594,2068.457845
3383.729296,2146.597232,-8660.409521,2145.067394
3383.729624,2886.803174,-8438.347739,0.000000
3383.729952,2072.576638,-10658.965565,383.047749
3383.730279,666.185348,-10658.965565,1072.533697
3383.730607,-296.082377,-8882.471304,689.485948
3383.730935,0.000000,-9696.697840,-1072.533697
3383.731262,962.267725,-10881.027347,-2451.505594
3383.731590,222.061783,-10288.862594,-459.657299
3383.731918,-962.267725,-8660.409521,766.095498
3383.732245,-740.205942,-7994.224174,0.000000
3383.732573,666.185348,-9178.553681,-1762.019645
3383.732901,740.205942,-9696.697840,-612.876398
3383.733229,2146.597232,-7994.224174,306.438199
3383.733556,2072.576638,-9252.574275,1455.581446
3383.733884,1406.391290,-11695.253884,306.438199
3383.734212,1702.473667,-11473.192101,-1685.410096
3383.734539,592.164754,-10362.883188,-1915.238745
3383.734867,0.000000,-10214.842000,-2221.676944
3383.735195,1184.329507,-11473.192101,-842.705048
3383.735522,2294.638420,-11399.171507,-383.047749
3383.735850,3182.885551,-10881.027347,459.657299
3383.736178,2368.659014,-8068.244768,0.000000
3383.736505,-296.082377,-8142.265362,1149.143247
3383.736833,-1998.556043,-8438.347739,1455.581446
3383.737161,222.061783,-7328.038826,-1685.410096
3383.737489,-444.123565,-8586.388927,-1225.752797
3383.737816,-518.144159,-9992.780217,995.924147
3383.738144,296.082377,-10362.883188,1225.752797
3383.738472,222.061783,-10140.821405,0.000000
3383.738799,-1554.432478,-11103.089130,-1225.752797
3383.739127,-2738.761985,-9474.636058,-2451.505594
3383.739455,-2886.803174,-9326.594869,-2374.896044
3383.739782,-1406.391290,-8660.409521,-1762.019645
3383.740110,444.123565,-8216.285956,-536.266849
3383.740438,518.144159,-9844.739029,1762.019645
3383.740765,666.185348,-10214.842000,2451.505594
3383.741093,592.164754,-10436.903782,842.705048
3383.741421,888.247130,-10584.944971,-1302.362347
3383.741748,666.185348,-9844.739029,-1455.581446
3383.742076,1110.308913,-7994.224174,-919.314598
3383.742404,2072.576638,-8512.368333,153.219100
3383.742732,1628.453072,-8660.409521,1378.971896
3383.743059,3330.926739,-10140.821405,1532.190996
3383.743387,2664.741391,-12213.398043,2604.724693
3383.743715,2368.659014,-12953.603985,-229.828649
3383.744042,-962.267725,-10510.924376,-2681.334243
3383.744370,-2220.617826,-9844.739029,-3830.477490
3383.744698,-4145.153275,-10362.883188,-1915.238745
3383.745025,-4441.235652,-9178.553681,0.000000
3383.745353,-2812.782580,-8882.471304,0.000000
3383.745681,-814.226536,-9252.574275,-2298.286494
3383.746008,444.123565,-9474.636058,-1149.143247
3383.746336,962.267725,-8734.430116,0.000000
3383.746664,962.267725,-9474.636058,1838.629195
3383.746992,592.164754,-10140.821405,2604.724693
3383.747319,1554.432478,-8956.491898,-536.266849
3383.747647,1480.411884,-9400.615463,-689.485948
3383.747975,592.164754,-11251.130318,383.047749
3383.748302,1998.556043,-9178.553681,612.876398
3383.748630,1332.370696,-9252.574275,842.705048
3383.748958,888.247130,-11251.130318,1225.752797
3383.749285,-592.164754,-8956.491898,612.876398
3383.749613,74.020594,-7476.080014,153.219100
3383.749941,444.123565,-7624.121203,-306.438199
3383.750268,518.144159,-9992.780217,0.000000
3383.750596,740.205942,-8290.306550,1378.971896
3383.750924,3182.885551,-7031.956449,766.095498
3383.751252,3478.967927,-8068.244768,536.266849
3383.751579,2368.659014,-12435.459826,842.705048
3383.751907,0.000000,-12287.418637,1532.190996
3383.752235,1110.308913,-8660.409521,-1378.971896
3383.752562,1406.391290,-9992.780217,-3064.381992
3383.752890,74.020594,-12583.501014,-1608.800546
3383.753218,592.164754,-12583.501014,919.314598
3383.753545,1998.556043,-10140.821405,612.876398
3383.753873,1850.514855,-9770.718434,-459.657299
3383.754201,74.020594,-9030.512492,-842.705048
3383.754528,-814.226536,-8586.388927,-536.266849
3383.754856,-2960.823768,-8290.306550,-459.657299
3383.755184,-888.247130,-8068.244768,536.266849
3383.755512,-518.144159,-8734.430116,-536.266849
3383.755839,-592.164754,-11843.295072,0.000000
3383.756167,-518.144159,-11769.274478,-383.047749
3383.756495,222.061783,-10955.047942,-2911.162892
3383.756822,-740.205942,-11695.253884,-2757.943793
3383.757150,-1406.391290,-11843.295072,-2068.457845
3383.757478,-222.061783,-10510.924376,-459.657299
3383.757805,-740.205942,-7402.059420,459.657299
3383.758133,-1036.288319,-6439.791695,1149.143247
3383.758461,-888.247130,-8882.471304,1991.848295
3383.758788,-222.061783,-10732.986159,842.705048
3383.759116,-296.082377,-9400.615463,-306.438199
3383.759444,-370.102971,-7031.956449,-1608.800546
3383.759772,-592.164754,-8586.388927,-842.705048
3383.760099,1332.370696,-9104.533087,383.047749
3383.760427,1406.391290,-9474.636058,1685.410096
3383.760755,592.164754,-8364.327145,2451.505594
3383.761082,2072.576638,-9696.697840,842.705048
3383.761410,1998.556043,-12879.583391,0.000000
3383.761738,1776.494261,-12287.418637,-842.705048
3383.762065,-74.020594,-9178.553681,-306.438199
3383.762393,-2368.659014,-8586.388927,-1302.362347
3383.762721,-3849.070898,-9400.615463,-919.314598
3383.763048,-3108.864956,-9548.656652,-1149.143247
3383.763376,-1702.473667,-9770.718434,-1991.848295
3383.763704,-2886.803174,-6957.935855,-1225.752797
3383.764032,296.082377,-7550.100608,689.485948
3383.764359,3256.906145,-11029.068536,-153.219100
3383.764687,2886.803174,-13101.645173,2451.505594
3383.765015,2960.823768,-10584.944971,2374.896044
3383.765342,3404.947333,-9918.759623,-689.485948
3383.765670,1628.453072,-11473.192101,-1762.019645
3383.765998,1702.473667,-10732.986159,-1915.238745
3383.766325,666.185348,-8438.347739,-1378.971896
3383.766653,-1184.329507,-8734.430116,766.095498
3383.766981,-1850.514855,-10732.986159,995.924147
3383.767308,-518.144159,-9104.533087,-995.924147
3383.767636,-444.123565,-8364.327145,-919.314598
3383.767964,-740.205942,-9252.574275,0.000000
3383.768292,962.267725,-9474.636058,-766.095498
3383.768619,2590.720797,-8142.265362,-306.438199
3383.768947,2664.741391,-8364.327145,612.876398
3383.769275,1036.288319,-8364.327145,1378.971896
3383.769602,888.247130,-9178.553681,1915.238745
3383.769930,1258.350101,-10658.965565,459.657299
3383.770258,1628.453072,-11399.171507,-1608.800546
3383.770585,0.000000,-11473.192101,-1991.848295
3383.770913,222.061783,-12287.418637,-1225.752797
3383.771241,2442.679609,-11029.068536,-1532.190996
3383.771568,3034.844362,-9696.697840,-1455.581446
3383.771896,888.247130,-9548.656652,919.314598
3383.772224,-1258.350101,-7105.977043,1838.629195
3383.772551,-1036.288319,-6587.832884,153.219100
3383.772879,-592.164754,-8290.306550,-306.438199
3383.773207,370.102971,-10066.800811,842.705048
3383.773535,666.185348,-10584.944971,612.876398
3383.773862,518.144159,-11621.233289,-766.095498
3383.774190,296.082377,-11991.336260,-3064.381992
3383.774518,-962.267725,-12065.356855,-2911.162892
3383.774845,-1850.514855,-11917.315666,-689.485948
3383.775173,-1258.350101,-9326.594869,-459.657299
3383.775501,-1110.308913,-9326.594869,-306.438199
3383.775828,-1924.535449,-8068.244768,153.219100
3383.776156,-1258.350101,-8956.491898,1378.971896
3383.776484,-370.102971,-9030.512492,1378.971896
3383.776811,0.000000,-8142.265362,153.219100
3383.777139,74.020594,-8290.306550,-306.438199
3383.777467,1406.391290,-9770.718434,306.438199
3383.777795,740.205942,-9844.739029,0.000000
3383.778122,0.000000,-8142.265362,842.705048
3383.778450,-148.041188,-8734.430116,689.485948
3383.778778,518.144159,-10214.842000,306.438199
3383.779105,444.123565,-10732.986159,-153.219100
3383.779433,1184.329507,-9770.718434,-689.485948
3383.779761,2146.597232,-11177.109724,-766.095498
3383.780088,1702.473667,-11917.315666,0.000000
3383.780416,1110.308913,-9474.636058,1149.143247
3383.780744,-1702.473667,-7105.977043,536.266849
3383.781071,-4293.194464,-8068.244768,0.000000
3383.781399,-4071.132681,-8068.244768,-1991.848295
3383.781727,-1332.370696,-7254.018232,-2834.553343
3383.782055,666.185348,-8808.450710,-612.876398
3383.782382,1110.308913,-11325.150913,1762.019645
3383.782710,1998.556043,-11843.295072,2604.724693
3383.783038,4071.132681,-10732.986159,-995.924147
3383.783365,3775.050304,-12435.459826,-1378.971896
3383.783693,1554.432478,-9992.780217,-766.095498
3383.784021,814.226536,-9178.553681,-766.095498
3383.784348,444.123565,-8956.491898,-536.266849
3383.784676,148.041188,-9400.615463,766.095498
3383.785004,74.020594,-10066.800811,1685.410096
3383.785331,0.000000,-8808.450710,689.485948
3383.785659,74.020594,-9918.759623,-1149.143247
3383.785987,740.205942,-10732.986159,-3217.601092
3383.786315,1258.350101,-10584.944971,-1762.019645
3383.786642,740.205942,-7550.100608,689.485948
3383.786970,1850.514855,-6809.894666,1072.533697
3383.787298,1184.329507,-8216.285956,2145.067394
3383.787626,0.000000,-10732.986159,2451.505594
3383.787953,518.144159,-11769.274478,383.047749
3383.788281,1184.329507,-11843.295072,-2145.067394
3383.788609,888.247130,-10955.047942,-2834.553343
3383.788937,888.247130,-10807.006753,-1072.533697
3383.789264,370.102971,-11399.171507,995.924147
3383.789592,962.267725,-8142.265362,1149.143247
3383.789920,0.000000,-6735.874072,536.266849
3383.790248,-1406.391290,-7105.977043,383.047749
3383.790575,-1406.391290,-8290.306550,842.705048
3383.790903,-370.102971,-8068.244768,1072.533697
3383.791231,444.123565,-8734.430116,1302.362347
3383.791559,592.164754,-10288.862594,383.047749
3383.791886,1702.473667,-11029.068536,-459.657299
3383.792214,962.267725,-10510.924376,-1838.629195
3383.792542,-1480.411884,-11399.171507,-1149.143247
3383.792870,-1776.494261,-11029.068536,-1302.362347
3383.793198,-1850.514855,-9992.780217,-2451.505594
3383.793525,-2368.659014,-9474.636058,-919.314598
3383.793853,-2072.576638,-8290.306550,153.219100
3383.794181,-592.164754,-8882.471304,766.095498
3383.794509,1184.329507,-9474.636058,0.000000
3383.794836,1332.370696,-10140.821405,-1378.971896
3383.795164,444.123565,-8808.450710,-383.047749
3383.795492,222.061783,-8290.306550,536.266849
3383.795820,370.102971,-9400.615463,766.095498
3383.796147,370.102971,-9104.533087,76.609550
3383.796475,-148.041188,-9474.636058,-306.438199
3383.796803,888.247130,-10658.965565,-1302.362347
3383.797131,1850.514855,-11917.315666,-1762.019645
3383.797458,1702.473667,-11695.253884,-1378.971896
3383.797786,1628.453072,-13323.706956,-689.485948
3383.798114,1406.391290,-11473.192101,-995.924147
3383.798442,888.247130,-7402.059420,-612.876398
3383.798769,-1258.350101,-7105.977043,-306.438199
3383.799097,-2294.638420,-9474.636058,919.314598
3383.799425,-2960.823768,-9030.512492,0.000000
3383.799753,-1184.329507,-6587.832884,-1915.238745
3383.800080,296.082377,-8364.327145,-2145.067394
3383.800408,1628.453072,-11399.171507,0.000000
3383.800736,2220.617826,-12657.521608,2221.676944
3383.801064,3478.967927,-9474.636058,1072.533697
3383.801391,3256.906145,-9918.759623,0.000000
3383.801719,1850.514855,-9844.739029,-459.657299
3383.802047,1332.370696,-9400.615463,536.266849
3383.802375,0.000000,-8734.430116,1915.238745
3383.802703,0.000000,-8142.265362,1072.533697
3383.803030,814.226536,-9326.594869,459.657299
3383.803358,0.000000,-9548.656652,536.266849
3383.803686,222.061783,-9548.656652,229.828649
3383.804014,-962.267725,-8068.244768,0.000000
3383.804341,-370.102971,-7624.121203,-459.657299
3383.804669,-296.082377,-7254.018232,0.000000
3383.804997,1036.288319,-9326.594869,612.876398
3383.805325,0.000000,-9844.739029,919.314598
3383.805652,148.041188,-9770.718434,1302.362347
3383.805980,2368.659014,-11325.150913,-1991.848295
3383.806308,2664.741391,-14211.954086,-1608.800546
3383.806636,1406.391290,-12435.459826,-842.705048
3383.806963,592.164754,-10288.862594,-229.828649
3383.807291,0.000000,-9992.780217,-1149.143247
3383.807619,0.000000,-8660.409521,-1608.800546
3383.807947,-666.185348,-9474.636058,0.000000
3383.808274,-1332.370696,-7624.121203,842.705048
3383.808602,-740.205942,-7772.162391,459.657299
3383.808930,888.247130,-9326.594869,-612.876398
3383.809258,1110.308913,-12287.418637,229.828649
3383.809585,592.164754,-10881.027347,1149.143247
3383.809913,1036.288319,-8438.347739,-383.047749
3383.810241,740.205942,-10658.965565,-2298.286494
3383.810569,1184.329507,-12065.356855,-1838.629195
3383.810896,0.000000,-10288.862594,-536.266849
3383.811224,-1850.514855,-8956.491898,612.876398
3383.811552,-962.267725,-9844.739029,229.828649
3383.811880,-1480.411884,-10140.821405,-612.876398
3383.812208,-1184.329507,-10881.027347,-766.095498
3383.812535,-1036.288319,-7550.100608,-1302.362347
3383.812863,-296.082377,-7328.038826,-842.705048
3383.813191,-296.082377,-7476.080014,229.828649
3383.813519,1184.329507,-7994.224174,1072.533697
3383.813846,1184.329507,-9104.533087,2298.286494
3383.814174,1628.453072,-8438.347739,2451.505594
3383.814502,2368.659014,-9400.615463,919.314598
3383.814830,1554.432478,-10881.027347,-689.485948
3383.815157,740.205942,-11473.192101,-1302.362347
3383.815485,740.205942,-10732.986159,-1302.362347
3383.815813,-370.102971,-11029.068536,-383.047749
3383.816141,296.082377,-9474.636058,-1608.800546
3383.816468,740.205942,-9400.615463,-229.828649
3383.816796,-1184.329507,-11029.068536,1991.848295
3383.817124,0.000000,-9252.574275,383.047749
3383.817452,-666.185348,-7179.997637,-1838.629195
3383.817779,-1036.288319,-8882.471304,-1302.362347
3383.818107,-296.082377,-10510.924376,-612.876398
3383.818435,222.061783,-10436.903782,459.657299
3383.818763,814.226536,-10066.800811,459.657299
3383.819090,2072.576638,-9030.512492,-1762.019645
3383.819418,1480.411884,-12509.480420,-995.924147
3383.819746,0.000000,-12213.398043,153.219100
3383.820074,1628.453072,-10362.883188,-766.095498
3383.820401,1776.494261,-9844.739029,-1225.752797
3383.820729,1406.391290,-10510.924376,153.219100
3383.821057,962.267725,-9992.780217,1455.581446
3383.821385,1036.288319,-8956.491898,1455.581446
3383.821713,-592.164754,-7846.182985,1838.629195
3383.822040,296.082377,-9326.594869,-153.219100
3383.822368,222.061783,-9474.636058,536.266849
3383.822696,0.000000,-5995.668130,1072.533697
3383.823024,1702.473667,-6217.729913,0.000000
3383.823351,296.082377,-9992.780217,-229.828649
3383.823679,-888.247130,-11917.315666,1302.362347
3383.824007,74.020594,-10140.821405,-842.705048
3383.824335,962.267725,-10510.924376,-1608.800546
3383.824662,0.000000,-10214.842000,-842.705048
3383.824990,1998.556043,-11917.315666,-229.828649
3383.825318,814.226536,-11473.192101,1072.533697
3383.825646,222.061783,-7846.182985,1072.533697
3383.825973,0.000000,-7105.977043,-842.705048
3383.826301,-1258.350101,-7846.182985,-1149.143247
3383.826629,-1554.432478,-9326.594869,383.047749
3383.826957,-592.164754,-8882.471304,0.000000
3383.827284,0.000000,-10140.821405,919.314598
3383.827612,1998.556043,-9844.739029,-842.705048
3383.827940,2738.761985,-12213.398043,-1685.410096
3383.828268,592.164754,-12065.356855,76.609550
3383.828595,222.061783,-9252.574275,-306.438199
3383.828923,1924.535449,-9474.636058,-2681.334243
3383.829251,1036.288319,-11695.253884,-1302.362347
3383.829579,-370.102971,-11473.192101,1149.143247
3383.829906,-1184.329507,-8438.347739,1455.581446
3383.830234,-1332.370696,-9104.533087,76.609550
3383.830562,-444.123565,-10140.821405,-2528.115143
3383.830890,-666.185348,-10881.027347,-1838.629195
3383.831218,-2294.638420,-7846.182985,-1149.143247
3383.831545,0.000000,-6883.915261,0.000000
3383.831873,2664.741391,-8660.409521,-229.828649
3383.832201,2738.761985,-11103.089130,2221.676944
3383.832529,1332.370696,-10658.965565,3600.648841
3383.832856,518.144159,-9400.615463,1225.752797
3383.833184,0.000000,-8216.285956,-842.705048
3383.833512,444.123565,-10362.883188,-2604.724693
3383.833840,0.000000,-11917.315666,-689.485948
3383.834167,0.000000,-8586.388927,536.266849
3383.834495,1110.308913,-8586.388927,1455.581446
3383.834823,-296.082377,-10288.862594,1149.143247
3383.835151,-148.041188,-12213.398043,0.000000
3383.835478,-592.164754,-8808.450710,-2451.505594
3383.835806,-1332.370696,-5329.482782,-1991.848295
3383.836134,-370.102971,-8216.285956,-1685.410096
3383.836462,370.102971,-12731.542202,383.047749
3383.836789,-370.102971,-11621.233289,2298.286494
3383.837117,2516.700203,-7476.080014,-842.705048
3383.837445,1924.535449,-9844.739029,-2221.676944
3383.837773,-518.144159,-11473.192101,-1532.190996
3383.838100,-222.061783,-10510.924376,-306.438199
3383.838428,-296.082377,-7920.203579,-612.876398
3383.838756,-296.082377,-8290.306550,0.000000
3383.839084,814.226536,-10732.986159,995.924147
3383.839411,2368.659014,-12361.439231,1302.362347
3383.839739,1628.453072,-10955.047942,536.266849
3383.840067,962.267725,-8734.430116,-766.095498
3383.840395,0.000000,-9252.574275,-995.924147
3383.840723,148.041188,-7698.141797,0.000000
3383.841050,1110.308913,-6291.750507,76.609550
3383.841378,-592.164754,-8512.368333,842.705048
3383.841706,-1850.514855,-11251.130318,2068.457845
3383.842034,1258.350101,-11029.068536,-1608.800546
3383.842361,1702.473667,-12805.562797,-2681.334243
3383.842689,-444.123565,-11917.315666,459.657299
3383.843017,1258.350101,-9474.636058,-306.438199
3383.843345,1036.288319,-9770.718434,0.000000
3383.843672,1554.432478,-10066.800811,459.657299
3383.844000,370.102971,-7031.956449,0.000000
3383.844328,-2664.741391,-6291.750507,1608.800546
3383.844656,-2516.700203,-8142.265362,1225.752797
3383.844983,444.123565,-8216.285956,-459.657299
3383.845311,444.123565,-11473.192101,-306.438199
3383.845639,-666.185348,-10362.883188,383.047749
3383.845967,2146.597232,-10066.800811,-1838.629195
3383.846294,3256.906145,-10955.047942,-2451.505594
3383.846622,2664.741391,-12213.398043,-1072.533697
3383.846950,666.185348,-11399.171507,1455.581446
3383.847278,666.185348,-7920.203579,842.705048
3383.847605,-518.144159,-8734.430116,995.924147
3383.847933,-666.185348,-10362.883188,383.047749
3383.848261,-1998.556043,-9474.636058,0.000000
3383.848589,-2368.659014,-8364.327145,-842.705048
3383.848916,-1110.308913,-9178.553681,-3370.820191
3383.849244,296.082377,-9548.656652,-2757.943793
3383.849572,-74.020594,-9548.656652,-766.095498
3383.849900,666.185348,-9104.533087,1225.752797
3383.850228,1628.453072,-8956.491898,1455.581446
3383.850555,2368.659014,-9474.636058,1225.752797
3383.850883,1702.473667,-10732.986159,153.219100
3383.851211,74.020594,-11843.295072,306.438199
3383.851539,518.144159,-10066.800811,-842.705048
3383.851866,2294.638420,-10214.842000,-2374.896044
3383.852194,814.226536,-9696.697840,-1072.533697
3383.852522,-1110.308913,-9474.636058,995.924147
3383.852850,-2738.761985,-8290.306550,1838.629195
3383.853177,-2072.576638,-9400.615463,-383.047749
3383.853505,-1110.308913,-8512.368333,-3064.381992
3383.853833,296.082377,-9844.739029,-1608.800546
3383.854161,-444.123565,-8956.491898,1302.362347
3383.854488,74.020594,-10807.006753,1225.752797
3383.854816,518.144159,-11843.295072,0.000000
3383.855144,2220.617826,-10066.800811,-2834.553343
3383.855472,222.061783,-10140.821405,-1991.848295
3383.855799,-1554.432478,-10140.821405,766.095498
3383.856127,-296.082377,-6957.935855,995.924147
3383.856455,1110.308913,-7698.141797,-919.314598
3383.856783,-148.041188,-11547.212695,919.314598
3383.857110,-148.041188,-9622.677246,1378.971896
3383.857438,2072.576638,-8734.430116,-153.219100
3383.857766,1628.453072,-9400.615463,-766.095498
3383.858094,2072.576638,-10584.944971,-306.438199
3383.858421,1332.370696,-9474.636058,1072.533697
3383.858749,296.082377,-5699.585753,1762.019645
3383.859077,0.000000,-6735.874072,1225.752797
3383.859405,-888.247130,-10214.842000,306.438199
3383.859733,-1998.556043,-11769.274478,383.047749
3383.860060,-814.226536,-10140.821405,-1915.238745
3383.860388,1702.473667,-11621.233289,-4290.134789
3383.860716,1332.370696,-12953.603985,-2528.115143
3383.861044,3034.844362,-12435.459826,0.000000
3383.861371,2294.638420,-10584.944971,766.095498
3383.861699,740.205942,-7994.224174,1685.410096
3383.862027,-1036.288319,-7105.977043,919.314598
3383.862355,-2368.659014,-7179.997637,-612.876398
3383.862682,-2442.679609,-8216.285956,0.000000
3383.863010,370.102971,-9104.533087,-689.485948
3383.863338,444.123565,-11029.068536,-1225.752797
3383.863666,1628.453072,-12657.521608,-766.095498
3383.863993,2886.803174,-13249.686362,-2451.505594
3383.864321,740.205942,-10732.986159,-2528.115143
3383.864649,-518.144159,-9992.780217,-536.266849
3383.864977,888.247130,-9400.615463,-383.047749
3383.865304,666.185348,-9400.615463,1225.752797
3383.865632,-148.041188,-9622.677246,3140.991542
3383.865960,-666.185348,-8956.491898,1915.238745
3383.866288,-1406.391290,-8734.430116,0.000000
3383.866615,-1184.329507,-8956.491898,-1685.410096
3383.866943,-1332.370696,-9474.636058,-2528.115143
3383.867271,-3478.967927,-7550.100608,0.000000
3383.867599,-2294.638420,-7105.977043,0.000000
3383.867926,1110.308913,-8734.430116,76.609550
3383.868254,2664.741391,-11177.109724,612.876398
3383.868582,2146.597232,-9918.759623,1915.238745
3383.868910,2294.638420,-10584.944971,1149.143247
3383.869237,2442.679609,-12805.562797,-153.219100
3383.869565,3034.844362,-11843.295072,-2298.286494
3383.869893,592.164754,-10214.842000,-383.047749
3383.870221,148.041188,-7179.997637,919.314598
3383.870549,1480.411884,-6883.915261,459.657299
3383.870876,-518.144159,-9104.533087,1608.800546
3383.871204,-2294.638420,-10732.986159,1838.629195
3383.871532,-1776.494261,-10066.800811,-1378.971896
3383.871860,-592.164754,-8660.409521,-3217.601092
3383.872187,1110.308913,-7994.224174,-3217.601092
3383.872515,2294.638420,-11991.336260,-995.924147
3383.872843,1554.432478,-14285.974681,1991.848295
3383.873171,2590.720797,-9918.759623,842.705048
3383.873498,3404.947333,-9474.636058,-1455.581446
3383.873826,444.123565,-11473.192101,-919.314598
3383.874154,-1258.350101,-9918.759623,1608.800546
3383.874482,-370.102971,-6143.709319,1149.143247
3383.874809,-592.164754,-7698.141797,-383.047749
3383.875137,-444.123565,-10584.944971,-459.657299
3383.875465,888.247130,-9844.739029,0.000000
3383.875793,444.123565,-9622.677246,1225.752797
3383.876120,222.061783,-9474.636058,919.314598
3383.876448,370.102971,-8808.450710,-689.485948
3383.876776,-518.144159,-8734.430116,0.000000
3383.877104,814.226536,-7328.038826,842.705048
3383.877431,518.144159,-6735.874072,-383.047749
3383.877759,-2368.659014,-10214.842000,1378.971896
3383.878087,-1184.329507,-11843.295072,-383.047749
3383.878415,814.226536,-12953.603985,-2834.553343
3383.878742,74.020594,-11843.295072,-2451.505594
3383.879070,592.164754,-10362.883188,-689.485948
3383.879398,1702.473667,-10362.883188,0.000000
3383.879726,1406.391290,-10214.842000,459.657299
3383.880054,296.082377,-7402.059420,842.705048
3383.880381,-1258.350101,-7031.956449,306.438199
3383.880709,-2368.659014,-7846.182985,306.438199
3383.881037,-740.205942,-8290.306550,-995.924147
3383.881365,148.041188,-9770.718434,-1072.533697
3383.881692,518.144159,-11917.315666,612.876398
3383.882020,1998.556043,-11769.274478,76.609550
3383.882348,2368.659014,-11177.109724,-2145.067394
3383.882676,2220.617826,-13027.624579,-2221.676944
3383.883003,814.226536,-11843.295072,-766.095498
3383.883331,1184.329507,-9474.636058,-306.438199
3383.883659,0.000000,-8142.265362,229.828649
3383.883987,148.041188,-9992.780217,1225.752797
3383.884314,-222.061783,-9474.636058,919.314598
3383.884642,-1332.370696,-8882.471304,306.438199
3383.884970,-1554.432478,-8734.430116,-995.924147
3383.885298,-1702.473667,-8216.285956,-1915.238745
3383.885625,-1036.288319,-8364.327145,-1225.752797
3383.885953,0.000000,-7698.141797,-919.314598
3383.886281,1406.391290,-9622.677246,536.266849
3383.886609,2368.659014,-10288.862594,1608.800546
3383.886936,3108.864956,-11103.089130,306.438199
3383.887264,1628.453072,-12731.542202,306.438199
3383.887592,1110.308913,-9992.780217,-766.095498
3383.887920,518.144159,-9030.512492,0.000000
3383.888248,962.267725,-10214.842000,0.000000
3383.888575,666.185348,-7698.141797,766.095498
3383.888903,-1628.453072,-7031.956449,1608.800546
3383.889231,-1702.473667,-8882.471304,1378.971896
3383.889559,0.000000,-10807.006753,-1532.190996
3383.889887,0.000000,-11547.212695,-2145.067394
3383.890214,-592.164754,-8586.388927,-2298.286494
3383.890542,-148.041188,-9770.718434,-919.314598
3383.890870,1184.329507,-11917.315666,76.609550
3383.891198,2072.576638,-11399.171507,536.266849
3383.891526,2294.638420,-10732.986159,0.000000
3383.891853,1036.288319,-10362.883188,0.000000
3383.892181,592.164754,-9400.615463,0.000000
3383.892509,1702.473667,-8438.347739,-459.657299
3383.892837,148.041188,-9326.594869,229.828649
3383.893165,-1184.329507,-8586.388927,1915.238745
3383.893492,-1332.370696,-8364.327145,995.924147
3383.893820,444.123565,-9622.677246,-842.705048
3383.894148,888.247130,-11991.336260,-995.924147
3383.894476,740.205942,-9992.780217,-229.828649
3383.894804,518.144159,-7402.059420,919.314598
3383.895132,1332.370696,-6809.894666,0.000000
3383.895459,1184.329507,-8290.306550,-306.438199
3383.895787,-2294.638420,-10214.842000,1072.533697
3383.896115,-2886.803174,-10362.883188,1302.362347
3383.896443,74.020594,-10066.800811,-1532.190996
3383.896771,1924.535449,-11621.233289,-2911.162892
3383.897098,962.267725,-12657.521608,-919.314598
3383.897426,1036.288319,-10658.965565,842.705048
3383.897754,888.247130,-8660.409521,0.000000
3383.898082,814.226536,-7624.121203,-689.485948
3383.898410,-814.226536,-8142.265362,-459.657299
3383.898737,-1998.556043,-7846.182985,459.657299
3383.899065,-1184.329507,-6587.832884,1378.971896
3383.899393,962.267725,-9252.574275,383.047749
3383.899721,1332.370696,-11695.253884,-153.219100
3383.900049,1184.329507,-13027.624579,-842.705048
3383.900376,2146.597232,-10510.924376,-2374.896044
3383.900704,1776.494261,-11103.089130,-2911.162892
3383.901032,1258.350101,-12287.418637,-1915.238745
3383.901360,1184.329507,-10140.821405,-766.095498
3383.901688,0.000000,-8512.368333,1302.362347
3383.902015,-518.144159,-7550.100608,1838.629195
3383.902343,518.144159,-9918.759623,919.314598
3383.902671,-296.082377,-10807.006753,76.609550
3383.902999,-1332.370696,-9400.615463,-1608.800546
3383.903327,-2368.659014,-7772.162391,-2528.115143
3383.903654,-592.164754,-7920.203579,-2528.115143
3383.903982,1776.494261,-9030.512492,-1072.533697
3383.904310,1776.494261,-10510.924376,2451.505594
3383.904638,1554.432478,-9252.574275,2911.162892
3383.904966,2072.576638,-10288.862594,0.000000
3383.905293,2072.576638,-12657.521608,-1608.800546
3383.905621,1036.288319,-11251.130318,-1302.362347
3383.905949,-148.041188,-9622.677246,306.438199
3383.906277,-592.164754,-9030.512492,383.047749
3383.906605,0.000000,-8734.430116,229.828649
3383.906933,1850.514855,-9992.780217,0.000000
3383.907260,444.123565,-10140.821405,1838.629195
3383.907588,-2590.720797,-7476.080014,2834.553343
3383.907916,-2812.782580,-7550.100608,153.219100
3383.908244,-2960.823768,-9696.697840,-2911.162892
3383.908572,-2442.679609,-10732.986159,-2987.772442
3383.908899,-296.082377,-9104.533087,-1762.019645
3383.909227,1850.514855,-9770.718434,-612.876398
3383.909555,2664.741391,-13101.645173,1991.848295
3383.909883,3034.844362,-11917.315666,689.485948
3383.910211,1258.350101,-10214.842000,229.828649
3383.910538,-1110.308913,-8290.306550,76.609550
3383.910866,-1036.288319,-8438.347739,153.219100
3383.911194,0.000000,-7698.141797,-766.095498
3383.911522,-1332.370696,-8660.409521,229.828649
3383.911850,-1998.556043,-9622.677246,689.485948
3383.912177,0.000000,-9252.574275,0.000000
3383.912505,1776.494261,-9474.636058,-1608.800546
3383.912833,1628.453072,-11177.109724,-995.924147
3383.913161,-222.061783,-10214.842000,995.924147
3383.913489,1110.308913,-7624.121203,459.657299
3383.913816,1628.453072,-7698.141797,-153.219100
3383.914144,148.041188,-9696.697840,76.609550
3383.914472,-2072.576638,-11843.295072,995.924147
3383.914800,-1776.494261,-11399.171507,-229.828649
3383.915128,1110.308913,-10955.047942,-2911.162892
3383.915455,3256.906145,-12065.356855,-4443.353888
3383.915783,1036.288319,-11843.295072,0.000000
3383.916111,-148.041188,-8734.430116,2451.505594
3383.916439,888.247130,-5995.668130,766.095498
3383.916767,-592.164754,-7179.997637,0.000000
3383.917094,-1924.535449,-8364.327145,76.609550
3383.917422,-740.205942,-9252.574275,306.438199
3383.917750,1406.391290,-8586.388927,153.219100
3383.918078,2368.659014,-10732.986159,0.000000
3383.918406,2590.720797,-11917.315666,76.609550
3383.918734,2220.617826,-13027.624579,1302.362347
3383.919061,888.247130,-10066.800811,-383.047749
3383.919389,0.000000,-8808.450710,-1915.238745
3383.919717,-2368.659014,-9104.533087,-842.705048
3383.920045,-444.123565,-9030.512492,-612.876398
3383.920373,-444.123565,-9770.718434,689.485948
3383.920700,-148.041188,-10066.800811,995.924147
3383.921028,-148.041188,-8882.471304,0.000000
3383.921356,518.144159,-9252.574275,-1225.752797
3383.921684,370.102971,-10140.821405,-1378.971896
3383.922012,-592.164754,-8364.327145,-842.705048
3383.922339,148.041188,-7846.182985,995.924147
3383.922667,1258.350101,-8882.471304,1838.629195
3383.922995,2072.576638,-11843.295072,1378.971896
3383.923323,1184.329507,-10362.883188,536.266849
3383.923651,666.185348,-9696.697840,-383.047749
3383.923978,1406.391290,-11325.150913,-1915.238745
3383.924306,1850.514855,-11473.192101,-2987.772442
3383.924634,814.226536,-10288.862594,0.000000
3383.924962,0.000000,-8586.388927,2757.943793
3383.925290,-814.226536,-8734.430116,1991.848295
3383.925617,74.020594,-8660.409521,229.828649
3383.925945,0.000000,-9104.533087,-383.047749
3383.926273,-1480.411884,-9252.574275,-842.705048
3383.926601,-1406.391290,-9474.636058,-1378.971896
3383.926929,-740.205942,-9400.615463,-2068.457845
3383.927256,74.020594,-11103.089130,-1149.143247
3383.927584,-444.123565,-11843.295072,-1378.971896
3383.927912,0.000000,-9622.677246,-689.485948
3383.928240,1628.453072,-8808.450710,-612.876398
3383.928568,2442.679609,-11029.068536,0.000000
3383.928895,1406.391290,-12287.418637,2757.943793
3383.929223,370.102971,-8882.471304,2374.896044
3383.929551,296.082377,-7476.080014,-536.266849
3383.929879,0.000000,-9474.636058,-2374.896044
3383.930207,-1110.308913,-9770.718434,-2145.067394
3383.930535,-1702.473667,-7179.997637,0.000000
3383.930862,-1554.432478,-6735.874072,229.828649
3383.931190,-962.267725,-8734.430116,0.000000
3383.931518,888.247130,-10955.047942,689.485948
3383.931846,296.082377,-11991.336260,536.266849
3383.932174,592.164754,-10807.006753,306.438199
3383.932501,1406.391290,-9992.780217,-1149.143247
3383.932829,2590.720797,-9918.759623,-2145.067394
3383.933157,1924.535449,-10066.800811,-459.657299
3383.933485,74.020594,-8956.491898,1915.238745
3383.933813,-2072.576638,-8068.244768,2604.724693
3383.934140,-1628.453072,-9178.553681,919.314598
3383.934468,0.000000,-9918.759623,-1532.190996
3383.934796,0.000000,-10732.986159,-2145.067394
3383.935124,-1184.329507,-8364.327145,-766.095498
3383.935452,1258.350101,-9696.697840,-1455.581446
3383.935779,2812.782580,-11695.253884,-1455.581446
3383.936107,1924.535449,-11029.068536,689.485948
3383.936435,-370.102971,-7476.080014,1991.848295
3383.936763,-1184.329507,-9030.512492,306.438199
3383.937091,0.000000,-9474.636058,-1072.533697
3383.937418,0.000000,-11399.171507,-766.095498
3383.937746,-1998.556043,-10436.903782,1378.971896
3383.938074,-148.041188,-9252.574275,459.657299
3383.938402,1480.411884,-10140.821405,-1762.019645
3383.938730,296.082377,-11177.109724,-2068.457845
3383.939057,-1258.350101,-8956.491898,-536.266849
3383.939385,-370.102971,-6957.935855,-995.924147
3383.939713,0.000000,-7994.224174,306.438199
3383.940041,1628.453072,-9696.697840,995.924147
3383.940369,1480.411884,-11547.212695,2451.505594
3383.940696,222.061783,-9548.656652,1991.848295
3383.941024,1628.453072,-9400.615463,-536.266849
3383.941352,2590.720797,-10658.965565,-3447.429741
3383.941680,1554.432478,-11103.089130,-1762.019645
3383.942008,666.185348,-9178.553681,766.095498
3383.942336,814.226536,-7772.162391,1149.143247
3383.942663,814.226536,-8956.491898,995.924147
3383.942991,1110.308913,-11621.233289,306.438199
3383.943319,-370.102971,-11547.212695,842.705048
3383.943647,-1110.308913,-7105.977043,536.266849
3383.943975,222.061783,-7846.182985,-1838.629195
3383.944302,592.164754,-10214.842000,-2451.505594
3383.944630,-592.164754,-9918.759623,-306.438199
3383.944958,-1702.473667,-8438.347739,1149.143247
3383.945286,-1036.288319,-10362.883188,0.000000
3383.945614,-74.020594,-10066.800811,-2451.505594
3383.945941,1554.432478,-11695.253884,-2145.067394
3383.946269,888.247130,-11547.212695,0.000000
3383.946597,1184.329507,-10955.047942,2374.896044
3383.946925,1850.514855,-10214.842000,1532.190996
3383.947253,2072.576638,-9918.759623,-766.095498
3383.947580,-518.144159,-9622.677246,-383.047749
3383.947908,-1776.494261,-7254.018232,-766.095498
3383.948236,-1998.556043,-6661.853478,-383.047749
3383.948564,-962.267725,-7698.141797,-459.657299
3383.948892,0.000000,-10288.862594,306.438199
3383.949219,-1554.432478,-9548.656652,2374.896044
3383.949547,-888.247130,-7994.224174,1225.752797
3383.949875,1702.473667,-10732.986159,-2145.067394
3383.950203,1776.494261,-12731.542202,-3217.601092
3383.950531,518.144159,-9474.636058,-919.314598
3383.950858,1480.411884,-7105.977043,229.828649
3383.951186,888.247130,-9844.739029,1608.800546
3383.951514,1110.308913,-10066.800811,1838.629195
3383.951842,74.020594,-9770.718434,1608.800546
3383.952170,-1480.411884,-8512.368333,1302.362347
3383.952497,-592.164754,-8808.450710,-2145.067394
3383.952825,-1480.411884,-9622.677246,-2528.115143
3383.953153,0.000000,-10140.821405,-1302.362347
3383.953481,592.164754,-9474.636058,-536.266849
3383.953809,1406.391290,-9844.739029,229.828649
3383.954137,1406.391290,-9548.656652,766.095498
3383.954464,1184.329507,-10807.006753,306.438199
3383.954792,814.226536,-11547.212695,-229.828649
3383.955120,0.000000,-9918.759623,76.609550
3383.955448,-148.041188,-10584.944971,0.000000
3383.955776,148.041188,-10214.842000,-766.095498
3383.956103,888.247130,-10510.924376,-1302.362347
3383.956431,74.020594,-10066.800811,-612.876398
3383.956759,-444.123565,-9252.574275,-306.438199
3383.957087,-444.123565,-8142.265362,-459.657299
3383.957415,-222.061783,-9326.594869,-766.095498
3383.957742,-222.061783,-8734.430116,459.657299
3383.958070,518.144159,-8660.409521,229.828649
3383.958398,2368.659014,-10881.027347,766.095498
3383.958726,3627.009116,-11843.295072,-153.219100
3383.959054,3034.844362,-11177.109724,0.000000
3383.959381,1258.350101,-8660.409521,0.000000
3383.959709,0.000000,-8142.265362,383.047749
3383.960037,740.205942,-9178.553681,0.000000
3383.960365,222.061783,-9548.656652,-383.047749
3383.960693,-740.205942,-9770.718434,689.485948
3383.961020,518.144159,-9770.718434,-306.438199
3383.961348,1110.308913,-10288.862594,-536.266849
3383.961676,444.123565,-9992.780217,-306.438199
3383.962004,-444.123565,-9696.697840,0.000000
3383.962332,-1110.308913,-7846.182985,0.000000
3383.962659,-2368.659014,-7105.977043,306.438199
3383.962987,-814.226536,-9252.574275,-1149.143247
3383.963315,-370.102971,-11547.212695,-1149.143247
3383.963643,-296.082377,-10658.965565,0.000000
3383.963971,1702.473667,-9548.656652,-1455.581446
3383.964298,2220.617826,-11843.295072,-842.705048
3383.964626,1924.535449,-12657.521608,-306.438199
3383.964954,1406.391290,-9992.780217,229.828649
3383.965282,148.041188,-9104.533087,76.609550
3383.965610,-1480.411884,-9548.656652,0.000000
3383.965937,-1036.288319,-8660.409521,-1455.581446
3383.966265,-1036.288319,-8364.327145,0.000000
3383.966593,-1776.494261,-7328.038826,1455.581446
3383.966921,-222.061783,-8882.471304,689.485948
3383.967249,296.082377,-10140.821405,76.609550
3383.967577,1554.432478,-11843.295072,-919.314598
3383.967904,888.247130,-11769.274478,-612.876398
3383.968232,74.020594,-9400.615463,-153.219100
3383.968560,1110.308913,-7105.977043,-612.876398
3383.968888,2072.576638,-9030.512492,-229.828649
3383.969216,-666.185348,-12361.439231,1302.362347
3383.969543,-1850.514855,-9400.615463,1685.410096
3383.969871,1036.288319,-8068.244768,-383.047749
3383.970199,1110.308913,-9918.759623,-1302.362347
3383.970527,-148.041188,-11251.130318,0.000000
3383.970855,-740.205942,-9400.615463,1455.581446
3383.971182,148.041188,-7698.141797,842.705048
3383.971510,1480.411884,-7402.059420,-1378.971896
3383.971838,1036.288319,-10066.800811,-1072.533697
3383.972166,-1406.391290,-9770.718434,995.924147
3383.972494,-444.123565,-8808.450710,383.047749
3383.972821,2294.638420,-10288.862594,-1455.581446
3383.973149,1850.514855,-12509.480420,-1302.362347
3383.973477,1036.288319,-11917.315666,919.314598
3383.973805,962.267725,-7846.182985,766.095498
3383.974133,1554.432478,-8660.409521,-229.828649
3383.974460,-444.123565,-9918.759623,-612.876398
3383.974788,-1332.370696,-9918.759623,-1455.581446
3383.975116,-2960.823768,-7846.182985,-919.314598
3383.975444,-1480.411884,-7105.977043,-459.657299
3383.975772,962.267725,-10510.924376,-842.705048
3383.976099,1776.494261,-12657.521608,-919.314598
3383.976427,1554.432478,-11843.295072,76.609550
3383.976755,1776.494261,-10436.903782,-766.095498
3383.977083,1776.494261,-9992.780217,-459.657299
3383.977411,2368.659014,-9326.594869,0.000000
3383.977738,1332.370696,-10436.903782,1225.752797
3383.978066,-370.102971,-8438.347739,1915.238745
3383.978394,962.267725,-8512.368333,459.657299
3383.978722,1924.535449,-10881.027347,-1225.752797
3383.979050,1702.473667,-11843.295072,-842.705048
3383.979378,-296.082377,-9992.780217,229.828649
3383.979705,-1554.432478,-8512.368333,76.609550
3383.980033,-1332.370696,-8438.347739,-842.705048
3383.980361,888.247130,-9104.533087,-1149.143247
3383.980689,-888.247130,-9178.553681,1072.533697
3383.981017,-2368.659014,-7254.018232,2757.943793
3383.981344,-888.247130,-8956.491898,0.000000
3383.981672,0.000000,-11547.212695,-3140.991542
3383.982000,666.185348,-10584.944971,-3064.381992
3383.982328,1406.391290,-9548.656652,-229.828649
3383.982656,814.226536,-10066.800811,2911.162892
3383.982983,2146.597232,-9474.636058,3447.429741
3383.983311,1776.494261,-10288.862594,842.705048
3383.983639,-814.226536,-10732.986159,383.047749
3383.983967,-1702.473667,-7994.224174,-766.095498
3383.984295,-1258.350101,-7031.956449,-1915.238745
3383.984622,-962.267725,-7846.182985,-1378.971896
3383.984950,0.000000,-10066.800811,306.438199
3383.985278,-296.082377,-9770.718434,2145.067394
3383.985606,0.000000,-9178.553681,1455.581446
3383.985934,1332.370696,-10510.924376,-459.657299
3383.986261,1332.370696,-13027.624579,-1225.752797
3383.986589,-740.205942,-10732.986159,153.219100
3383.986917,518.144159,-6217.729913,-1378.971896
3383.987245,1036.288319,-8660.409521,-1685.410096
3383.987573,222.061783,-11769.274478,-459.657299
3383.987900,0.000000,-10436.903782,1072.533697
3383.988228,0.000000,-9548.656652,612.876398
3383.988556,518.144159,-9844.739029,0.000000
3383.988884,148.041188,-10584.944971,-612.876398
3383.989212,370.102971,-11473.192101,306.438199
3383.989539,592.164754,-7698.141797,1072.533697
3383.989867,1702.473667,-7920.203579,-1455.581446
3383.990195,814.226536,-9548.656652,-995.924147
3383.990523,0.000000,-10066.800811,-1072.533697
3383.990851,592.164754,-10807.006753,-612.876398
3383.991178,222.061783,-9474.636058,0.000000
3383.991506,222.061783,-11177.109724,1915.238745
3383.991834,1554.432478,-10881.027347,1225.752797
3383.992162,1850.514855,-10732.986159,766.095498
3383.992490,148.041188,-8142.265362,229.828649
3383.992817,0.000000,-8216.285956,-1608.800546
3383.993145,-1110.308913,-7624.121203,-2451.505594
3383.993473,-148.041188,-8882.471304,-1378.971896
3383.993801,-444.123565,-9104.533087,459.657299
3383.994128,222.061783,-9474.636058,1455.581446
3383.994456,2072.576638,-9844.739029,612.876398
3383.994784,2516.700203,-11917.315666,383.047749
3383.995112,1258.350101,-11769.274478,76.609550
3383.995440,962.267725,-8290.306550,0.000000
3383.995767,666.185348,-8586.388927,-1072.533697
3383.996095,1036.288319,-8808.450710,-689.485948
3383.996423,444.123565,-9696.697840,-459.657299
3383.996751,-296.082377,-10066.800811,2145.067394
3383.997079,0.000000,-10436.903782,1532.190996
3383.997406,222.061783,-10510.924376,-612.876398
3383.997734,-740.205942,-10362.883188,-1225.752797
3383.998062,-1258.350101,-9474.636058,-1072.533697
3383.998390,-2072.576638,-7105.977043,-153.219100
3383.998718,-1480.411884,-9474.636058,-612.876398
3383.999045,-148.041188,-11029.068536,-2451.505594
3383.999373,888.247130,-11399.171507,-2451.505594
3383.999701,0.000000,-10658.965565,-536.266849
3384.000029,1554.432478,-10510.924376,229.828649
3384.000357,1554.432478,-11843.295072,1915.238745
3384.000684,740.205942,-11251.130318,2451.505594
3384.001012,518.144159,-7328.038826,459.657299
3384.001340,370.102971,-8808.450710,-612.876398
3384.001668,-1628.453072,-8142.265362,-766.095498
3384.001996,-962.267725,-7994.224174,-1991.848295
3384.002323,-1480.411884,-7846.182985,-1149.143247
3384.002651,-1776.494261,-8660.409521,612.876398
3384.002979,-888.247130,-8586.388927,1149.143247
3384.003307,1702.473667,-10510.924376,1608.800546
3384.003635,1184.329507,-11399.171507,995.924147
3384.003962,1628.453072,-10881.027347,153.219100
3384.004290,518.144159,-9844.739029,-766.095498
3384.004618,1998.556043,-7846.182985,-1455.581446
3384.004946,1554.432478,-7402.059420,-1149.143247
3384.005274,-740.205942,-9622.677246,766.095498
3384.005601,-1702.473667,-10140.821405,2068.457845
3384.005929,814.226536,-10955.047942,229.828649
3384.006257,1628.453072,-10584.944971,-1762.019645
3384.006585,222.061783,-11473.192101,-689.485948
3384.006912,-740.205942,-9622.677246,995.924147
3384.007240,444.123565,-7254.018232,-766.095498
3384.007568,1628.453072,-7402.059420,-1532.190996
3384.007896,1776.494261,-10436.903782,-1685.410096
3384.008224,-296.082377,-9992.780217,-306.438199
3384.008551,74.020594,-8216.285956,459.657299
3384.008879,1554.432478,-10066.800811,-459.657299
3384.009207,888.247130,-13915.871710,229.828649
3384.009535,222.061783,-11917.315666,1149.143247
3384.009863,518.144159,-9252.574275,-612.876398
3384.010190,814.226536,-8882.471304,-2298.286494
3384.010518,1184.329507,-9918.759623,-1608.800546
3384.010846,148.041188,-10436.903782,-153.219100
3384.011174,-1258.350101,-9326.594869,766.095498
3384.011502,-1184.329507,-7624.121203,383.047749
3384.011829,592.164754,-8290.306550,-383.047749
3384.012157,296.082377,-10732.986159,0.000000
3384.012485,222.061783,-10658.965565,995.924147
3384.012813,1184.329507,-9622.677246,306.438199
3384.013141,1776.494261,-10140.821405,-2145.067394
3384.013468,3034.844362,-11399.171507,-2145.067394
3384.013796,1776.494261,-9992.780217,-536.266849
3384.014124,74.020594,-7994.224174,2145.067394
3384.014452,1036.288319,-8364.327145,995.924147
3384.014780,1036.288319,-9992.780217,383.047749
3384.015107,0.000000,-9696.697840,689.485948
3384.015435,-814.226536,-8882.471304,1225.752797
3384.015763,444.123565,-9622.677246,76.609550
3384.016091,814.226536,-7772.162391,-1149.143247
3384.016419,-1406.391290,-9252.574275,-1302.362347
3384.016746,-3330.926739,-11103.089130,-1532.190996
3384.017074,-3108.864956,-10066.800811,-2834.553343
3384.017402,0.000000,-8142.265362,-3447.429741
3384.017730,1258.350101,-10510.924376,-1532.190996
3384.018057,1036.288319,-13989.892304,2987.772442
3384.018385,1702.473667,-12139.377449,4136.915689
3384.018713,2368.659014,-8734.430116,459.657299
3384.019041,2294.638420,-9252.574275,-1762.019645
3384.019369,-148.041188,-9548.656652,-1608.800546
3384.019696,-1998.556043,-8364.327145,76.609550
3384.020024,-2072.576638,-4959.379811,76.609550
3384.020352,-1036.288319,-7624.121203,-612.876398
3384.020680,-74.020594,-11251.130318,1072.533697
3384.021008,740.205942,-11251.130318,2298.286494
3384.021335,1776.494261,-10510.924376,919.314598
3384.021663,814.226536,-11177.109724,-919.314598
3384.021991,1480.411884,-9326.594869,-2221.676944
3384.022319,1258.350101,-7846.182985,-2451.505594
3384.022647,-148.041188,-7105.977043,919.314598
3384.022974,-962.267725,-8364.327145,2987.772442
3384.023302,-148.041188,-10362.883188,2681.334243
3384.023630,888.247130,-11843.295072,0.000000
3384.023958,1110.308913,-12139.377449,-1915.238745
3384.024286,0.000000,-9622.677246,-2221.676944
3384.024613,0.000000,-8586.388927,-842.705048
3384.024941,1406.391290,-8882.471304,-1149.143247
3384.025269,1332.370696,-10066.800811,-306.438199
3384.025597,370.102971,-9178.553681,689.485948
3384.025925,1406.391290,-9400.615463,842.705048
3384.026252,1776.494261,-9696.697840,229.828649
3384.026580,1332.370696,-10658.965565,229.828649
3384.026908,-592.164754,-11621.233289,1225.752797
3384.027236,222.061783,-11103.089130,459.657299
3384.027564,1258.350101,-9918.759623,-1915.238745
3384.027891,814.226536,-9548.656652,-2604.724693
3384.028219,-444.123565,-11103.089130,-689.485948
3384.028547,-740.205942,-8364.327145,0.000000
3384.028875,-444.123565,-8660.409521,-383.047749
3384.029202,-962.267725,-9548.656652,229.828649
3384.029530,-592.164754,-8364.327145,536.266849
3384.029858,-814.226536,-8290.306550,459.657299
3384.030186,666.185348,-9918.759623,-766.095498
3384.030514,1258.350101,-10362.883188,-1149.143247
3384.030841,2146.597232,-10807.006753,-1302.362347
3384.031169,1702.473667,-10584.944971,76.609550
3384.031497,1036.288319,-9252.574275,842.705048
3384.031825,740.205942,-8882.471304,153.219100
3384.032153,148.041188,-9548.656652,383.047749
3384.032480,0.000000,-10807.006753,612.876398
3384.032808,0.000000,-10140.821405,-153.219100
3384.033136,-962.267725,-9548.656652,153.219100
3384.033464,1258.350101,-9326.594869,-383.047749
3384.033792,1036.288319,-8438.347739,-536.266849
3384.034119,-1332.370696,-8956.491898,1302.362347
3384.034447,-3182.885551,-9400.615463,0.000000
3384.034775,-2738.761985,-10510.924376,-2834.553343
3384.035103,-962.267725,-9474.636058,-3983.696590
3384.035431,962.267725,-9770.718434,-3217.601092
3384.035758,444.123565,-11473.192101,1532.190996
3384.036086,1702.473667,-11621.233289,2681.334243
3384.036414,3256.906145,-9918.759623,0.000000
3384.036742,2960.823768,-11103.089130,-1378.971896
3384.037070,74.020594,-9770.718434,0.000000
3384.037397,-1184.329507,-7846.182985,612.876398
3384.037725,-2220.617826,-5847.626942,536.266849
3384.038053,-1480.411884,-6217.729913,-306.438199
3384.038381,-1258.350101,-11029.068536,383.047749
3384.038709,-296.082377,-11177.109724,1149.143247
3384.039036,1110.308913,-8068.244768,-1532.190996
3384.039364,2294.638420,-10955.047942,-2987.772442
3384.039692,1776.494261,-13767.830521,-1302.362347
3384.040020,1110.308913,-8734.430116,-612.876398
3384.040347,296.082377,-5773.606348,689.485948
3384.040675,-1406.391290,-9696.697840,2451.505594
3384.041003,0.000000,-11843.295072,1532.190996
3384.041331,814.226536,-11399.171507,766.095498
3384.041659,1480.411884,-9918.759623,-1608.800546
3384.041986,1554.432478,-10214.842000,-2451.505594
3384.042314,1702.473667,-11103.089130,-842.705048
3384.042642,518.144159,-9474.636058,612.876398
3384.042970,0.000000,-7476.080014,1838.629195
3384.043298,-1036.288319,-7402.059420,1072.533697
3384.043625,-1184.329507,-7550.100608,0.000000
3384.043953,444.123565,-10510.924376,-766.095498
3384.044281,888.247130,-11029.068536,-612.876398
3384.044609,1258.350101,-11029.068536,-689.485948
3384.044937,2368.659014,-10881.027347,383.047749
3384.045264,2738.761985,-11103.089130,-383.047749
3384.045592,666.185348,-8808.450710,-1378.971896
3384.045920,-444.123565,-8438.347739,153.219100
3384.046248,-1110.308913,-9252.574275,1302.362347
3384.046576,592.164754,-9030.512492,-612.876398
3384.046903,0.000000,-9696.697840,306.438199
3384.047231,-888.247130,-10140.821405,1532.190996
3384.047559,-1332.370696,-8142.265362,995.924147
3384.047887,592.164754,-9474.636058,-2221.676944
3384.048215,1258.350101,-10955.047942,-2834.553343
3384.048542,0.000000,-9474.636058,-995.924147
3384.048870,-592.164754,-7846.182985,1378.971896
3384.049198,518.144159,-9030.512492,1072.533697
3384.049526,2516.700203,-10955.047942,0.000000
3384.049854,814.226536,-11621.233289,1762.019645
3384.050181,-814.226536,-10214.842000,995.924147
3384.050509,-296.082377,-9104.533087,-1608.800546
3384.050837,1110.308913,-9400.615463,-3370.820191
3384.051165,1702.473667,-11843.295072,-1378.971896
3384.051493,74.020594,-8660.409521,1915.238745
3384.051820,-1850.514855,-7698.141797,3217.601092
3384.052148,-1554.432478,-9770.718434,1532.190996
3384.052476,-592.164754,-12435.459826,-1991.848295
3384.052804,-740.205942,-11621.233289,-2528.115143
3384.053131,-592.164754,-8290.306550,-2834.553343
3384.053459,-592.164754,-9400.615463,-1685.410096
3384.053787,1702.473667,-12953.603985,-1072.533697
3384.054115,1184.329507,-12509.480420,-306.438199
3384.054443,444.123565,-9474.636058,1532.190996
3384.054770,0.000000,-7402.059420,689.485948
3384.055098,-518.144159,-8364.327145,229.828649
3384.055426,0.000000,-9770.718434,612.876398
3384.055754,-2220.617826,-7031.956449,1455.581446
3384.056082,-1258.350101,-6513.812290,919.314598
3384.056409,888.247130,-9178.553681,0.000000
3384.056737,3182.885551,-11547.212695,-1378.971896
3384.057065,518.144159,-10510.924376,153.219100
3384.057393,1406.391290,-9400.615463,612.876398
3384.057721,296.082377,-7772.162391,612.876398
3384.058048,1184.329507,-6957.935855,0.000000
3384.058376,-1184.329507,-9030.512492,612.876398
3384.058704,-2960.823768,-10584.944971,1838.629195
3384.059032,222.061783,-10140.821405,-689.485948
3384.059360,3256.906145,-11325.150913,-2834.553343
3384.059687,1258.350101,-12435.459826,-2068.457845
3384.060015,1332.370696,-11177.109724,76.609550
3384.060343,888.247130,-8438.347739,1608.800546
3384.060671,222.061783,-7254.018232,459.657299
3384.060999,-1036.288319,-8882.471304,-459.657299
3384.061326,-2516.700203,-8808.450710,306.438199
3384.061654,-2146.597232,-8290.306550,-766.095498
3384.061982,962.267725,-10140.821405,-2528.115143
3384.062310,1850.514855,-12139.377449,-1915.238745
3384.062638,1998.556043,-12731.542202,-612.876398
3384.062965,2220.617826,-11621.233289,306.438199
3384.063293,1776.494261,-10362.883188,459.657299
3384.063621,666.185348,-9770.718434,-689.485948
3384.063949,-296.082377,-9474.636058,-919.314598
3384.064276,-888.247130,-8290.306550,306.438199
3384.064604,222.061783,-9104.533087,536.266849
3384.064932,1628.453072,-10362.883188,0.000000
3384.065260,1480.411884,-10955.047942,-536.266849
3384.065588,222.061783,-9474.636058,-1072.533697
3384.065915,0.000000,-9178.553681,-612.876398
3384.066243,-370.102971,-9326.594869,0.000000
3384.066571,0.000000,-8956.491898,306.438199
3384.066899,0.000000,-9030.512492,612.876398
3384.067227,222.061783,-9178.553681,1225.752797
3384.067554,1036.288319,-8512.368333,0.000000
3384.067882,814.226536,-9548.656652,153.219100
3384.068210,814.226536,-10436.903782,-536.266849
3384.068538,444.123565,-9770.718434,-689.485948
3384.068866,0.000000,-9918.759623,229.828649
3384.069193,222.061783,-9400.615463,153.219100
3384.069521,1110.308913,-7179.997637,-383.047749
3384.069849,962.267725,-9178.553681,1378.971896
3384.070177,-444.123565,-10214.842000,1838.629195
3384.070505,-1702.473667,-9992.780217,0.000000
3384.070832,-370.102971,-9400.615463,-2451.505594
3384.071160,1406.391290,-10140.821405,-4673.182538
3384.071488,1110.308913,-11843.295072,-2145.067394
3384.071816,814.226536,-11103.089130,1149.143247
3384.072144,1184.329507,-9770.718434,1149.143247
3384.072471,888.247130,-10362.883188,-536.266849
3384.072799,-296.082377,-11621.233289,-2451.505594
3384.073127,-1628.453072,-11029.068536,-1225.752797
3384.073455,-1480.411884,-7402.059420,-1225.752797
3384.073783,-740.205942,-6069.688724,-1378.971896
3384.074110,-222.061783,-9474.636058,-689.485948
3384.074438,74.020594,-10732.986159,919.314598
3384.074766,1184.329507,-9622.677246,2068.457845
3384.075094,2442.679609,-9104.533087,1225.752797
3384.075421,2072.576638,-11103.089130,0.000000
3384.075749,0.000000,-11103.089130,229.828649
3384.076077,-962.267725,-7105.977043,229.828649
3384.076405,-962.267725,-5773.606348,-612.876398
3384.076733,-962.267725,-9622.677246,-1225.752797
3384.077060,-1258.350101,-12139.377449,-153.219100
3384.077388,-370.102971,-10955.047942,842.705048
3384.077716,962.267725,-10288.862594,0.000000
3384.078044,2220.617826,-9474.636058,-689.485948
3384.078372,740.205942,-9918.759623,689.485948
3384.078699,-1554.432478,-8734.430116,2298.286494
3384.079027,-592.164754,-5403.503377,842.705048
3384.079355,888.247130,-6291.750507,-842.705048
3384.079683,1850.514855,-10362.883188,-1378.971896
3384.080011,814.226536,-12139.377449,229.828649
3384.080338,666.185348,-10066.800811,459.657299
3384.080666,888.247130,-10066.800811,0.000000
3384.080994,1332.370696,-10066.800811,-919.314598
3384.081322,1406.391290,-11177.109724,-1072.533697
3384.081650,-518.144159,-11399.171507,0.000000
3384.081977,-148.041188,-9622.677246,0.000000
3384.082305,1332.370696,-9030.512492,-1225.752797
3384.082633,2368.659014,-10066.800811,-1991.848295
3384.082961,-740.205942,-10436.903782,995.924147
3384.083289,-1554.432478,-9474.636058,1762.019645
3384.083616,-814.226536,-9030.512492,-612.876398
3384.083944,444.123565,-10288.862594,-2298.286494
3384.084272,370.102971,-11029.068536,-1685.410096
3384.084600,-962.267725,-9548.656652,0.000000
3384.084928,-740.205942,-9622.677246,1225.752797
3384.085255,518.144159,-9770.718434,-919.314598
3384.085583,1776.494261,-9770.718434,-2834.553343
3384.085911,-222.061783,-8734.430116,-612.876398
3384.086239,-592.164754,-8660.409521,459.657299
3384.086566,-296.082377,-8808.450710,1685.410096
3384.086894,1480.411884,-10658.965565,919.314598
3384.087222,518.144159,-11843.295072,689.485948
3384.087550,0.000000,-7550.100608,-306.438199
3384.087878,-296.082377,-5847.626942,76.609550
3384.088205,740.205942,-9696.697840,0.000000
3384.088533,814.226536,-12361.439231,-919.314598
3384.088861,-148.041188,-9770.718434,-383.047749
3384.089189,444.123565,-7105.977043,-766.095498
3384.089516,1332.370696,-9992.780217,0.000000
3384.089844,2146.597232,-13249.686362,1072.533697
3384.090172,296.082377,-11621.233289,1302.362347
3384.090500,-962.267725,-7476.080014,-153.219100
3384.090827,-666.185348,-8142.265362,-2757.943793
3384.091155,-370.102971,-10066.800811,-3294.210641
3384.091483,-962.267725,-9696.697840,-229.828649
3384.091810,-1702.473667,-7402.059420,1762.019645
3384.092138,-370.102971,-7550.100608,766.095498
3384.092466,888.247130,-9474.636058,0.000000
3384.092794,2368.659014,-12583.501014,766.095498
3384.093121,1850.514855,-11547.212695,1532.190996
3384.093449,2368.659014,-8734.430116,-536.266849
3384.093777,1702.473667,-8882.471304,-919.314598
3384.094105,2664.741391,-9992.780217,-1149.143247
3384.094432,74.020594,-9104.533087,-153.219100
3384.094760,-2516.700203,-8142.265362,689.485948
3384.095088,-1850.514855,-9474.636058,-306.438199
3384.095416,370.102971,-11991.336260,-1455.581446
3384.095743,2072.576638,-13397.727550,-1225.752797
3384.096071,0.000000,-10362.883188,459.657299
3384.096399,222.061783,-8660.409521,766.095498
3384.096726,814.226536,-8882.471304,-995.924147
3384.097054,1702.473667,-10214.842000,-1608.800546
3384.097382,-962.267725,-7772.162391,689.485948
3384.097710,-592.164754,-7179.997637,1149.143247
3384.098037,0.000000,-10436.903782,1302.362347
3384.098365,1406.391290,-10881.027347,-306.438199
3384.098693,-814.226536,-10881.027347,229.828649
3384.099021,-666.185348,-10362.883188,306.438199
3384.099348,296.082377,-9400.615463,-1685.410096
3384.099676,148.041188,-11325.150913,-2451.505594
3384.100004,0.000000,-9474.636058,-612.876398
3384.100332,0.000000,-7550.100608,612.876398
3384.100659,518.144159,-7920.203579,2221.676944
3384.100987,666.185348,-9474.636058,2911.162892
3384.101315,888.247130,-10362.883188,1608.800546
3384.101643,-370.102971,-9992.780217,76.609550
3384.101970,-1110.308913,-8586.388927,-2145.067394
3384.102298,-370.102971,-8882.471304,-2681.334243
3384.102626,0.000000,-8956.491898,-1302.362347
3384.102953,592.164754,-10807.006753,-612.876398
3384.103281,-518.144159,-10362.883188,306.438199
3384.103609,0.000000,-9326.594869,0.000000
3384.103937,962.267725,-9030.512492,-306.438199
3384.104264,1036.288319,-10584.944971,0.000000
3384.104592,74.020594,-9844.739029,1302.362347
3384.104920,370.102971,-9400.615463,229.828649
3384.105248,888.247130,-9992.780217,-1225.752797
3384.105575,1776.494261,-9696.697840,-1608.800546
3384.105903,2368.659014,-8660.409521,-842.705048
3384.106231,814.226536,-9178.553681,1838.629195
3384.106559,-592.164754,-10214.842000,2068.457845
3384.106886,-296.082377,-11325.150913,-459.657299
3384.107214,592.164754,-11251.130318,-2834.553343
3384.107542,888.247130,-9992.780217,-2834.553343
3384.107870,1332.370696,-10955.047942,-842.705048
3384.108197,1850.514855,-11325.150913,919.314598
3384.108525,2442.679609,-10362.883188,0.000000
3384.108853,1406.391290,-10658.965565,-229.828649
3384.109180,-1406.391290,-9178.553681,153.219100
3384.109508,-2664.741391,-6661.853478,1302.362347
3384.109836,-1036.288319,-5921.647536,383.047749
3384.110164,-222.061783,-8068.244768,-842.705048
3384.110491,-1258.350101,-9252.574275,229.828649
3384.110819,74.020594,-10732.986159,1072.533697
3384.111147,3923.091493,-12065.356855,1378.971896
3384.111475,5107.421000,-11399.171507,383.047749
3384.111802,1776.494261,-9622.677246,459.657299
3384.112130,0.000000,-8438.347739,1225.752797
3384.112458,-888.247130,-5181.441594,536.266849
3384.112786,-666.185348,-8290.306550,0.000000
3384.113113,-2146.597232,-10658.965565,689.485948
3384.113441,-2516.700203,-10732.986159,842.705048
3384.113769,-592.164754,-9992.780217,-1225.752797
3384.114097,1258.350101,-10140.821405,-2911.162892
3384.114424,740.205942,-11621.233289,-1532.190996
3384.114752,1258.350101,-9992.780217,0.000000
3384.115080,148.041188,-8586.388927,1302.362347
3384.115407,518.144159,-7698.141797,1685.410096
3384.115735,1776.494261,-9400.615463,536.266849
3384.116063,0.000000,-11029.068536,459.657299
3384.116391,-1184.329507,-10214.842000,-383.047749
3384.116718,-1036.288319,-9844.739029,-1455.581446
3384.117046,666.185348,-11103.089130,-2451.505594
3384.117374,1258.350101,-11991.336260,-1991.848295
3384.117702,296.082377,-11991.336260,-536.266849
3384.118029,-444.123565,-9548.656652,459.657299
3384.118357,1036.288319,-7254.018232,-229.828649
3384.118685,1702.473667,-10510.924376,229.828649
3384.119013,148.041188,-11103.089130,1455.581446
3384.119340,-444.123565,-8364.327145,1072.533697
3384.119668,-592.164754,-7550.100608,383.047749
3384.119996,1184.329507,-10510.924376,-1991.848295
3384.120324,222.061783,-10955.047942,-1991.848295
3384.120651,-740.205942,-9400.615463,-306.438199
3384.120979,-1702.473667,-7105.977043,76.609550
3384.121307,-148.041188,-9326.594869,-536.266849
3384.121634,-148.041188,-10288.862594,-842.705048
3384.121962,-222.061783,-9252.574275,306.438199
3384.122290,444.123565,-9252.574275,1378.971896
3384.122618,2146.597232,-9918.759623,689.485948
3384.122945,2072.576638,-11547.212695,0.000000
3384.123273,1110.308913,-9918.759623,689.485948
3384.123601,1702.473667,-6883.915261,229.828649
3384.123929,1184.329507,-5699.585753,-229.828649
3384.124256,518.144159,-8142.265362,1685.410096
3384.124584,-888.247130,-11029.068536,1838.629195
3384.124912,-2368.659014,-10140.821405,306.438199
3384.125240,74.020594,-10436.903782,-3447.429741
3384.125567,1628.453072,-12509.480420,-5056.230287
3384.125895,2220.617826,-13397.727550,-2757.943793
3384.126223,1776.494261,-12657.521608,612.876398
3384.126551,1184.329507,-8586.388927,689.485948
3384.126878,1554.432478,-8438.347739,153.219100
3384.127206,518.144159,-10807.006753,612.876398
3384.127534,-2072.576638,-9622.677246,2145.067394
3384.127861,-2146.597232,-6217.729913,1302.362347
3384.128189,-370.102971,-7031.956449,-1685.410096
3384.128517,0.000000,-9844.739029,-2068.457845
3384.128845,1406.391290,-12509.480420,-306.438199
3384.129172,2738.761985,-12065.356855,689.485948
3384.129500,3182.885551,-10955.047942,0.000000
3384.129828,2146.597232,-10510.924376,-153.219100
3384.130156,1332.370696,-9474.636058,842.705048
3384.130483,-1110.308913,-6957.935855,1838.629195
3384.130811,-1776.494261,-6735.874072,1915.238745
3384.131139,-1776.494261,-9548.656652,229.828649
3384.131467,-370.102971,-11917.315666,-995.924147
3384.131794,444.123565,-10955.047942,-1762.019645
3384.132122,0.000000,-9030.512492,-1532.190996
3384.132450,-592.164754,-9474.636058,-1455.581446
3384.132778,-222.061783,-8512.368333,-766.095498
3384.133105,296.082377,-10436.903782,306.438199
3384.133433,-148.041188,-8290.306550,1455.581446
3384.133761,222.061783,-8216.285956,1225.752797
3384.134088,814.226536,-9474.636058,689.485948
3384.134416,962.267725,-10288.862594,-1149.143247
3384.134744,296.082377,-10955.047942,-2068.457845
3384.135072,-592.164754,-9622.677246,-1302.362347
3384.135399,-370.102971,-9918.759623,-1455.581446
3384.135727,0.000000,-11473.192101,-766.095498
3384.136055,1110.308913,-11177.109724,-536.266849
3384.136383,518.144159,-9104.533087,229.828649
3384.136710,518.144159,-11769.274478,1072.533697
3384.137038,962.267725,-11177.109724,-459.657299
3384.137366,1110.308913,-8068.244768,-1149.143247
3384.137694,814.226536,-7994.224174,-919.314598
3384.138021,-148.041188,-10288.862594,-229.828649
3384.138349,-1332.370696,-10807.006753,689.485948
3384.138677,-1184.329507,-9030.512492,0.000000
3384.139005,-444.123565,-9474.636058,-842.705048
3384.139332,-1110.308913,-8216.285956,-383.047749
3384.139660,-962.267725,-9548.656652,-459.657299
3384.139988,-592.164754,-9992.780217,-306.438199
3384.140315,1110.308913,-11547.212695,-842.705048
3384.140643,1924.535449,-11251.130318,-1302.362347
3384.140971,1406.391290,-10436.903782,306.438199
3384.141299,1036.288319,-8290.306550,1455.581446
3384.141626,1850.514855,-8216.285956,1838.629195
3384.141954,296.082377,-9030.512492,2145.067394
3384.142282,74.020594,-8660.409521,1532.190996
3384.142610,1406.391290,-8364.327145,-306.438199
3384.142937,2072.576638,-7994.224174,-1455.581446
3384.143265,1554.432478,-10658.965565,-383.047749
3384.143593,-740.205942,-13619.789333,0.000000
3384.143921,-1258.350101,-12583.501014,-1685.410096
3384.144248,666.185348,-8512.368333,-3600.648841
3384.144576,1480.411884,-8956.491898,-2834.553343
3384.144904,148.041188,-11547.212695,1225.752797
3384.145231,444.123565,-10807.006753,3907.087040
3384.145559,1110.308913,-8216.285956,2298.286494
3384.145887,1184.329507,-7254.018232,-1149.143247
3384.146215,-592.164754,-8882.471304,-2757.943793
3384.146542,-2368.659014,-8882.471304,-536.266849
3384.146870,-1702.473667,-8438.347739,-766.095498
3384.147198,888.247130,-9474.636058,-1532.190996
3384.147526,1702.473667,-12361.439231,-995.924147
3384.147853,814.226536,-11843.295072,1532.190996
3384.148181,740.205942,-10658.965565,2374.896044
3384.148509,1702.473667,-9030.512492,76.609550
3384.148837,1702.473667,-8956.491898,-1225.752797
3384.149164,-444.123565,-9548.656652,-459.657299
3384.149492,-2146.597232,-7031.956449,229.828649
3384.149820,-2442.679609,-6587.832884,153.219100
3384.150148,-1332.370696,-10362.883188,-153.219100
3384.150475,-518.144159,-13323.706956,0.000000
3384.150803,-666.185348,-10140.821405,229.828649
3384.151131,370.102971,-8586.388927,-536.266849
3384.151458,1406.391290,-9770.718434,-766.095498
3384.151786,2960.823768,-11325.150913,-1072.533697
3384.152114,1924.535449,-9252.574275,-689.485948
3384.152442,-666.185348,-7994.224174,842.705048
3384.152769,-1184.329507,-8808.450710,766.095498
3384.153097,370.102971,-10584.944971,383.047749
3384.153425,222.061783,-11177.109724,689.485948
3384.153753,-296.082377,-10066.800811,306.438199
3384.154080,222.061783,-9770.718434,-229.828649
3384.154408,1702.473667,-8660.409521,-689.485948
3384.154736,1554.432478,-10140.821405,-1762.019645
3384.155064,0.000000,-10436.903782,-1149.143247
3384.155391,-1332.370696,-8512.368333,-612.876398
3384.155719,-740.205942,-7846.182985,536.266849
3384.156047,370.102971,-11251.130318,306.438199
3384.156375,296.082377,-11473.192101,1302.362347
3384.156702,0.000000,-9400.615463,612.876398
3384.157030,-740.205942,-9770.718434,-1455.581446
3384.157358,0.000000,-9178.553681,-3064.381992
3384.157685,296.082377,-8956.491898,-2987.772442
3384.158013,-592.164754,-8882.471304,689.485948
3384.158341,222.061783,-9548.656652,2145.067394
3384.158669,2664.741391,-11547.212695,612.876398
3384.158996,1850.514855,-12731.542202,842.705048
3384.159324,1406.391290,-10288.862594,995.924147
3384.159652,666.185348,-8216.285956,995.924147
3384.159980,814.226536,-7402.059420,0.000000
3384.160307,2220.617826,-8956.491898,-306.438199
3384.160635,1406.391290,-9548.656652,-536.266849
3384.160963,518.144159,-8734.430116,153.219100
3384.161291,1332.370696,-10584.944971,612.876398
3384.161618,1924.535449,-14211.954086,0.000000
3384.161946,518.144159,-12731.542202,-842.705048
3384.162274,-962.267725,-8956.491898,-1302.362347
3384.162602,-1850.514855,-8586.388927,-1455.581446
3384.162929,296.082377,-8068.244768,-2681.334243
3384.163257,962.267725,-8586.388927,0.000000
3384.163585,-1258.350101,-8956.491898,3294.210641
3384.163912,-1924.535449,-8438.347739,2068.457845
3384.164240,-592.164754,-7179.997637,-2068.457845
3384.164568,0.000000,-9696.697840,-2911.162892
3384.164896,0.000000,-11843.295072,-1149.143247
3384.165223,2664.741391,-11251.130318,1762.019645
3384.165551,3108.864956,-10658.965565,0.000000
3384.165879,2442.679609,-11029.068536,-995.924147
3384.166207,888.247130,-11769.274478,-995.924147
3384.166534,0.000000,-9178.553681,-1455.581446
3384.166862,-1628.453072,-7031.956449,-536.266849
3384.167190,-2442.679609,-7402.059420,536.266849
3384.167518,-1702.473667,-10658.965565,306.438199
3384.167845,-1332.370696,-10658.965565,1532.190996
3384.168173,222.061783,-8364.327145,229.828649
3384.168501,-666.185348,-9178.553681,-383.047749
3384.168829,296.082377,-8734.430116,-766.095498
3384.169156,370.102971,-8216.285956,-1072.533697
3384.169484,-1480.411884,-8438.347739,-689.485948
3384.169812,-666.185348,-9326.594869,0.000000
3384.170139,74.020594,-11399.171507,229.828649
3384.170467,1332.370696,-12139.377449,1072.533697
3384.170795,1924.535449,-9770.718434,76.609550
3384.171123,518.144159,-10140.821405,-995.924147
3384.171450,0.000000,-10140.821405,-612.876398
3384.171778,1554.432478,-10436.903782,-1532.190996
3384.172106,962.267725,-8882.471304,-612.876398
3384.172434,592.164754,-8734.430116,919.314598
3384.172761,-962.267725,-9326.594869,1915.238745
3384.173089,-296.082377,-9918.759623,995.924147
3384.173417,0.000000,-9252.574275,-1225.752797
3384.173745,1258.350101,-9770.718434,-1915.238745
3384.174072,962.267725,-9844.739029,-536.266849
3384.174400,666.185348,-10881.027347,-536.266849
3384.174728,370.102971,-10066.800811,-1225.752797
3384.175056,222.061783,-9474.636058,-1838.629195
3384.175383,-740.205942,-8956.491898,-1072.533697
3384.175711,-1036.288319,-9474.636058,0.000000
3384.176039,-814.226536,-9992.780217,536.266849
3384.176366,1110.308913,-9844.739029,-536.266849
3384.176694,1776.494261,-9992.780217,-306.438199
3384.177022,814.226536,-10362.883188,-229.828649
3384.177350,1776.494261,-8438.347739,-612.876398
3384.177677,1554.432478,-7846.182985,-306.438199
3384.178005,814.226536,-9326.594869,459.657299
3384.178333,1554.432478,-9992.780217,919.314598
3384.178661,1406.391290,-8364.327145,536.266849
3384.178988,1628.453072,-9474.636058,1149.143247
3384.179316,3256.906145,-11843.295072,383.047749
3384.179644,2738.761985,-13915.871710,0.000000
3384.179972,1110.308913,-10658.965565,-1302.362347
3384.180299,74.020594,-7920.203579,-2221.676944
3384.180627,-1406.391290,-9918.759623,-2451.505594
3384.180955,-1110.308913,-9918.759623,-1225.752797
3384.181283,-3108.864956,-9326.594869,1532.190996
3384.181610,-3182.885551,-8734.430116,2221.676944
3384.181938,-2220.617826,-9474.636058,-612.876398
3384.182266,-592.164754,-8808.450710,-2374.896044
3384.182593,0.000000,-8808.450710,-1532.190996
3384.182921,370.102971,-9474.636058,153.219100
3384.183249,2738.761985,-9992.780217,842.705048
3384.183577,1924.535449,-11029.068536,229.828649
3384.183904,444.123565,-10732.986159,229.828649
3384.184232,-962.267725,-10584.944971,842.705048
3384.184560,-518.144159,-9252.574275,0.000000
3384.184888,-1776.494261,-7698.141797,612.876398
3384.185215,-1776.494261,-8364.327145,-383.047749
3384.185543,-2294.638420,-8956.491898,-612.876398
3384.185871,-666.185348,-8438.347739,153.219100
3384.186199,148.041188,-8956.491898,383.047749
3384.186526,1480.411884,-11029.068536,612.876398
3384.186854,1628.453072,-9400.615463,1225.752797
3384.187182,1702.473667,-7476.080014,1225.752797
3384.187510,74.020594,-8660.409521,536.266849
3384.187837,1110.308913,-10140.821405,-536.266849
3384.188165,2146.597232,-9770.718434,-1762.019645
3384.188493,1998.556043,-10658.965565,-766.095498
3384.188820,1924.535449,-10140.821405,-842.705048
3384.189148,1776.494261,-12805.562797,-1072.533697
3384.189476,1110.308913,-11917.315666,0.000000
3384.189803,962.267725,-9622.677246,-536.266849
3384.190131,592.164754,-8956.491898,-766.095498
3384.190459,666.185348,-9326.594869,306.438199
3384.190786,518.144159,-10066.800811,229.828649
3384.191114,296.082377,-8586.388927,-383.047749
3384.191442,-222.061783,-8586.388927,-766.095498
3384.191769,2146.597232,-10140.821405,-612.876398
3384.192097,592.164754,-11103.089130,306.438199
3384.192425,-888.247130,-11843.295072,842.705048
3384.192752,-814.226536,-9178.553681,-689.485948
3384.193080,-1036.288319,-8882.471304,-2451.505594
3384.193408,-1332.370696,-9252.574275,-1302.362347
3384.193735,-1036.288319,-10436.903782,0.000000
3384.194063,148.041188,-10066.800811,229.828649
3384.194390,1406.391290,-8438.347739,0.000000
3384.194718,2072.576638,-9548.656652,459.657299
3384.195046,666.185348,-11029.068536,842.705048
3384.195373,592.164754,-8882.471304,1072.533697
3384.195701,-148.041188,-7105.977043,919.314598
3384.196029,0.000000,-7846.182985,689.485948
3384.196356,1406.391290,-9474.636058,-536.266849
3384.196684,814.226536,-9474.636058,689.485948
3384.197012,814.226536,-8956.491898,1149.143247
3384.197339,4071.132681,-11621.233289,-1149.143247
3384.197667,3108.864956,-14137.933492,-1072.533697
3384.197995,518.144159,-11991.336260,-919.314598
3384.198322,-2738.761985,-8586.388927,0.000000
3384.198650,-3404.947333,-8956.491898,-1149.143247
3384.198977,-1776.494261,-7920.203579,-1915.238745
3384.199305,-1036.288319,-9474.636058,-306.438199
3384.199633,-3997.112087,-9474.636058,1378.971896
3384.199960,-2368.659014,-9030.512492,-995.924147
3384.200288,888.247130,-8216.285956,-4290.134789
3384.200616,1036.288319,-10436.903782,-2528.115143
3384.200943,1258.350101,-12879.583391,689.485948
3384.201271,2442.679609,-10066.800811,2068.457845
3384.201599,2146.597232,-9696.697840,1378.971896
3384.201926,2368.659014,-10807.006753,383.047749
3384.202254,962.267725,-10732.986159,-612.876398
3384.202582,-814.226536,-7846.182985,0.000000
3384.202909,-2072.576638,-6291.750507,306.438199
3384.203237,-2368.659014,-8438.347739,-229.828649
3384.203564,-1332.370696,-10362.883188,-1072.533697
3384.203892,-814.226536,-9474.636058,-536.266849
3384.204220,-888.247130,-9770.718434,1072.533697
3384.204547,1036.288319,-9474.636058,1072.533697
3384.204875,1702.473667,-9622.677246,1455.581446
3384.205203,444.123565,-9844.739029,1149.143247
3384.205530,-296.082377,-8734.430116,0.000000
3384.205858,1702.473667,-7254.018232,-995.924147
3384.206186,3478.967927,-9622.677246,-919.314598
3384.206513,2146.597232,-11325.150913,383.047749
3384.206841,0.000000,-10066.800811,612.876398
3384.207168,-1110.308913,-9622.677246,0.000000
3384.207496,222.061783,-9844.739029,-1225.752797
3384.207824,2442.679609,-9770.718434,-766.095498
3384.208151,1850.514855,-8882.471304,-536.266849
3384.208479,518.144159,-8660.409521,1762.019645
3384.208807,1332.370696,-9474.636058,383.047749
3384.209134,2590.720797,-9696.697840,-2145.067394
3384.209462,1628.453072,-9400.615463,-995.924147
3384.209790,0.000000,-8438.347739,229.828649
3384.210117,-814.226536,-10362.883188,1532.190996
3384.210445,-518.144159,-11695.253884,229.828649
3384.210773,74.020594,-11769.274478,-2221.676944
3384.211100,-296.082377,-11399.171507,-2221.676944
3384.211428,-1184.329507,-10214.842000,-2068.457845
3384.211755,-370.102971,-9992.780217,-1991.848295
3384.212083,1554.432478,-10732.986159,-1762.019645
3384.212411,1406.391290,-10140.821405,-766.095498
3384.212738,-518.144159,-9400.615463,1455.581446
3384.213066,-222.061783,-9622.677246,1762.019645
3384.213394,518.144159,-7994.224174,2068.457845
3384.213721,888.247130,-9548.656652,1685.410096
3384.214049,148.041188,-9104.533087,842.705048
3384.214377,-814.226536,-8586.388927,-766.095498
3384.214704,222.061783,-8364.327145,-1915.238745
3384.215032,2220.617826,-11029.068536,-2221.676944
3384.215360,1850.514855,-13767.830521,-766.095498
3384.215687,518.144159,-10658.965565,842.705048
3384.216015,-2516.700203,-8290.306550,536.266849
3384.216342,-2590.720797,-8956.491898,689.485948
3384.216670,-592.164754,-9030.512492,-536.266849
3384.216998,-1924.535449,-6957.935855,766.095498
3384.217325,-3627.009116,-6291.750507,1838.629195
3384.217653,-2516.700203,-8364.327145,-689.485948
3384.217981,-666.185348,-8956.491898,-3370.820191
3384.218308,0.000000,-9400.615463,-3140.991542
3384.218636,-1036.288319,-9844.739029,229.828649
3384.218964,814.226536,-9844.739029,1225.752797
3384.219291,2886.803174,-12213.398043,1302.362347
3384.219619,2886.803174,-13101.645173,536.266849
3384.219947,1406.391290,-10362.883188,995.924147
3384.220274,444.123565,-7624.121203,-1149.143247
3384.220602,370.102971,-8290.306550,-1608.800546
3384.220929,-592.164754,-8956.491898,-2528.115143
3384.221257,-2516.700203,-9252.574275,-995.924147
3384.221585,-2516.700203,-8734.430116,-766.095498
3384.221912,-592.164754,-9326.594869,-766.095498
3384.222240,3108.864956,-12953.603985,0.000000
3384.222568,3478.967927,-11325.150913,1302.362347
3384.222895,1258.350101,-9030.512492,1685.410096
3384.223223,1406.391290,-9178.553681,0.000000
3384.223551,4219.173869,-9696.697840,-3217.601092
3384.223878,3552.988522,-9844.739029,-2145.067394
3384.224206,2812.782580,-9844.739029,766.095498
3384.224534,1184.329507,-9030.512492,1838.629195
3384.224861,2220.617826,-10807.006753,383.047749
3384.225189,1702.473667,-12509.480420,-459.657299
3384.225516,888.247130,-10214.842000,-229.828649
3384.225844,222.061783,-8068.244768,0.000000
3384.226172,666.185348,-8438.347739,-459.657299
3384.226499,1554.432478,-10362.883188,-1072.533697
3384.226827,1184.329507,-9844.739029,-1072.533697
3384.227155,814.226536,-6883.915261,1225.752797
3384.227482,1110.308913,-7179.997637,1532.190996
3384.227810,1184.329507,-9622.677246,2451.505594
3384.228138,296.082377,-11177.109724,1838.629195
3384.228465,-1332.370696,-9548.656652,612.876398
3384.228793,-1110.308913,-8364.327145,-1685.410096
3384.229120,-1258.350101,-9326.594869,-2451.505594
3384.229448,-1332.370696,-11473.192101,-2451.505594
3384.229776,-814.226536,-9696.697840,-1302.362347
3384.230103,74.020594,-9770.718434,0.000000
3384.230431,592.164754,-10066.800811,229.828649
3384.230759,888.247130,-9992.780217,1455.581446
3384.231086,-74.020594,-8512.368333,3140.991542
3384.231414,-518.144159,-8216.285956,3064.381992
3384.231742,-296.082377,-8216.285956,919.314598
3384.232069,740.205942,-8290.306550,-1149.143247
3384.232397,-222.061783,-8882.471304,-2298.286494
3384.232725,0.000000,-11325.150913,-1378.971896
3384.233052,296.082377,-13841.851115,-842.705048
3384.233380,592.164754,-12213.398043,-1149.143247
3384.233707,-518.144159,-10881.027347,-1532.190996
3384.234035,-3552.988522,-10584.944971,-1225.752797
3384.234363,-3478.967927,-10362.883188,-306.438199
3384.234690,-1332.370696,-7772.162391,-842.705048
3384.235018,-666.185348,-7624.121203,-383.047749
3384.235346,-3182.885551,-9178.553681,306.438199
3384.235673,-3330.926739,-9474.636058,0.000000
3384.236001,-1628.453072,-8216.285956,-2145.067394
3384.236329,-296.082377,-8216.285956,-2757.943793
3384.236656,740.205942,-10955.047942,0.000000
3384.236984,370.102971,-11843.295072,1532.190996
3384.237312,1850.514855,-11843.295072,1532.190996
3384.237639,3923.091493,-10658.965565,-919.314598
3384.237967,2294.638420,-10436.903782,-1072.533697
3384.238294,0.000000,-8586.388927,383.047749
3384.238622,-1184.329507,-7105.977043,766.095498
3384.238950,-1480.411884,-7772.162391,153.219100
3384.239277,-444.123565,-9326.594869,229.828649
3384.239605,814.226536,-10584.944971,383.047749
3384.239933,1480.411884,-9178.553681,689.485948
3384.240260,814.226536,-8734.430116,1608.800546
3384.240588,1628.453072,-8068.244768,842.705048
3384.240916,2294.638420,-8068.244768,-2298.286494
3384.241243,1628.453072,-8956.491898,-1685.410096
3384.241571,1554.432478,-8956.491898,-383.047749
3384.241899,3108.864956,-10140.821405,1532.190996
3384.242226,3330.926739,-10510.924376,2145.067394
3384.242554,2590.720797,-10584.944971,229.828649
3384.242881,370.102971,-11029.068536,-689.485948
3384.243209,1406.391290,-10436.903782,-995.924147
3384.243537,2738.761985,-9252.574275,-1915.238745
3384.243864,2146.597232,-10140.821405,-1072.533697
3384.244192,666.185348,-10288.862594,919.314598
3384.244520,444.123565,-8956.491898,1072.533697
3384.244847,1554.432478,-10140.821405,153.219100
3384.245175,2442.679609,-10807.006753,-766.095498
3384.245503,1628.453072,-9474.636058,0.000000
3384.245830,518.144159,-8660.409521,1455.581446
3384.246158,74.020594,-9844.739029,1838.629195
3384.246486,666.185348,-11325.150913,0.000000
3384.246813,-666.185348,-10732.986159,-1532.190996
3384.247141,-1998.556043,-9178.553681,-2374.896044
3384.247468,-2812.782580,-8956.491898,-2221.676944
3384.247796,-3478.967927,-9696.697840,-2145.067394
3384.248124,-1480.411884,-11917.315666,0.000000
3384.248451,0.000000,-10732.986159,459.657299
3384.248779,740.205942,-10436.903782,1608.800546
3384.249107,1258.350101,-9622.677246,1762.019645
3384.249434,2294.638420,-7772.162391,536.266849
3384.249762,814.226536,-6809.894666,1072.533697
3384.250090,-814.226536,-6883.915261,1072.533697
3384.250417,-1776.494261,-7994.224174,383.047749
3384.250745,-1332.370696,-8142.265362,-383.047749
3384.251073,-444.123565,-11399.171507,-612.876398
3384.251400,-666.185348,-13619.789333,-1072.533697
3384.251728,-888.247130,-12731.542202,-766.095498
3384.252055,296.082377,-10955.047942,-1838.629195
3384.252383,0.000000,-8290.306550,-3064.381992
3384.252711,-2072.576638,-7698.141797,-689.485948
3384.253038,-3849.070898,-8882.471304,1685.410096
3384.253366,-3478.967927,-8068.244768,766.095498
3384.253694,-1332.370696,-8364.327145,-1225.752797
3384.254021,-444.123565,-10214.842000,-1378.971896
3384.254349,148.041188,-10214.842000,0.000000
3384.254677,888.247130,-10214.842000,842.705048
3384.255004,2960.823768,-11473.192101,-612.876398
3384.255332,2590.720797,-10362.883188,-1991.848295
3384.255659,1036.288319,-10436.903782,-1685.410096
3384.255987,-666.185348,-10066.800811,-842.705048
3384.256315,-1850.514855,-9104.533087,-383.047749
3384.256642,-370.102971,-8290.306550,-536.266849
3384.256970,-296.082377,-10066.800811,76.609550
3384.257298,1332.370696,-11621.233289,612.876398
3384.257625,1480.411884,-10510.924376,153.219100
3384.257953,2220.617826,-8882.471304,-612.876398
3384.258281,1924.535449,-8290.306550,-1455.581446
3384.258608,1110.308913,-7624.121203,-612.876398
3384.258936,-962.267725,-7254.018232,459.657299
3384.259264,0.000000,-8734.430116,1149.143247
3384.259591,3404.947333,-11103.089130,919.314598
3384.259919,5181.441594,-12509.480420,0.000000
3384.260246,2368.659014,-10066.800811,766.095498
3384.260574,1036.288319,-9918.759623,383.047749
3384.260902,2368.659014,-8882.471304,-1225.752797
3384.261229,1998.556043,-9548.656652,-1685.410096
3384.261557,1628.453072,-9474.636058,153.219100
3384.261885,74.020594,-8068.244768,1149.143247
3384.262212,518.144159,-8142.265362,1685.410096
3384.262540,2072.576638,-11695.253884,842.705048
3384.262868,1406.391290,-11251.130318,-153.219100
3384.263195,0.000000,-8068.244768,-842.705048
3384.263523,518.144159,-8586.388927,-1608.800546
3384.263851,3182.885551,-10436.903782,-1685.410096
3384.264178,3108.864956,-10732.986159,-306.438199
3384.264506,1184.329507,-9844.739029,2604.724693
3384.264833,-962.267725,-9030.512492,2068.457845
3384.265161,-1406.391290,-9918.759623,0.000000
3384.265489,-1776.494261,-11473.192101,-1838.629195
3384.265816,-2516.700203,-8438.347739,-2221.676944
3384.266144,-3997.112087,-8216.285956,-1378.971896
3384.266472,-1998.556043,-9770.718434,-766.095498
3384.266799,888.247130,-10436.903782,-1378.971896
3384.267127,1480.411884,-10658.965565,0.000000
3384.267455,814.226536,-9474.636058,1915.238745
3384.267782,296.082377,-8290.306550,1762.019645
3384.268110,814.226536,-9104.533087,612.876398
3384.268438,962.267725,-8734.430116,612.876398
3384.268765,-444.123565,-8512.368333,1072.533697
3384.269093,-1036.288319,-10066.800811,689.485948
3384.269420,-444.123565,-10362.883188,-1532.190996
3384.269748,-740.205942,-11177.109724,-2681.334243
3384.270076,740.205942,-11843.295072,-2757.943793
3384.270403,0.000000,-10732.986159,-1608.800546
3384.270731,-666.185348,-8808.450710,-153.219100
3384.271059,-1998.556043,-10362.883188,1532.190996
3384.271386,-2664.741391,-9326.594869,766.095498
3384.271714,-2368.659014,-7105.977043,-842.705048
3384.272042,-888.247130,-9178.553681,-1532.190996
3384.272369,74.020594,-10288.862594,-919.314598
3384.272697,666.185348,-10732.986159,153.219100
3384.273025,1406.391290,-9178.553681,153.219100
3384.273352,1406.391290,-9622.677246,-229.828649
3384.273680,888.247130,-10214.842000,0.000000
3384.274007,962.267725,-10807.006753,612.876398
3384.274335,-1110.308913,-8290.306550,459.657299
3384.274663,-740.205942,-9252.574275,0.000000
3384.274990,0.000000,-9696.697840,-842.705048
3384.275318,2220.617826,-10362.883188,-1378.971896
3384.275646,1480.411884,-10955.047942,383.047749
3384.275973,666.185348,-9548.656652,612.876398
3384.276301,148.041188,-7846.182985,229.828649
3384.276629,1184.329507,-7698.141797,-459.657299
3384.276956,222.061783,-9104.533087,-459.657299
3384.277284,-222.061783,-9844.739029,1532.190996
3384.277611,1332.370696,-9696.697840,0.000000
3384.277939,2886.803174,-11547.212695,-1225.752797
3384.278267,2590.720797,-11917.315666,-2528.115143
3384.278594,1554.432478,-9548.656652,-1532.190996
3384.278922,962.267725,-8438.347739,0.000000
3384.279250,1554.432478,-9548.656652,536.266849
3384.279577,1332.370696,-9992.780217,1378.971896
3384.279905,444.123565,-9622.677246,1532.190996
3384.280233,-222.061783,-7846.182985,1685.410096
3384.280560,962.267725,-9918.759623,-383.047749
3384.280888,2072.576638,-10214.842000,-1915.238745
3384.281216,1850.514855,-10510.924376,-1915.238745
3384.281543,740.205942,-9918.759623,-689.485948
3384.281871,814.226536,-9474.636058,-383.047749
3384.282198,1850.514855,-9326.594869,-306.438199
3384.282526,2886.803174,-10881.027347,766.095498
3384.282854,2664.741391,-10807.006753,1455.581446
3384.283181,1480.411884,-8808.450710,1685.410096
3384.283509,0.000000,-9178.553681,1225.752797
3384.283837,-888.247130,-9622.677246,0.000000
3384.284164,-1924.535449,-9844.739029,-995.924147
3384.284492,-3182.885551,-9104.533087,-1532.190996
3384.284820,-4293.194464,-8068.244768,-2451.505594
3384.285147,-2664.741391,-8216.285956,-2145.067394
3384.285475,-148.041188,-9918.759623,-842.705048
3384.285803,1036.288319,-11473.192101,919.314598
3384.286130,666.185348,-10140.821405,2221.676944
3384.286458,1332.370696,-8882.471304,1149.143247
3384.286785,2368.659014,-9918.759623,0.000000
3384.287113,1628.453072,-10362.883188,-383.047749
3384.287441,666.185348,-9548.656652,0.000000
3384.287768,0.000000,-8882.471304,383.047749
3384.288096,222.061783,-9548.656652,1302.362347
3384.288424,-1036.288319,-10732.986159,459.657299
3384.288751,-1850.514855,-10881.027347,0.000000
3384.289079,-3108.864956,-10140.821405,-1455.581446
3384.289407,-444.123565,-10214.842000,-4060.306139
3384.289734,0.000000,-9622.677246,-2911.162892
3384.290062,-740.205942,-10066.800811,612.876398
3384.290390,-222.061783,-9696.697840,842.705048
3384.290717,-148.041188,-9844.739029,-383.047749
3384.291045,1480.411884,-10584.944971,-1838.629195
3384.291372,0.000000,-8882.471304,-1302.362347
3384.291700,-1258.350101,-8512.368333,459.657299
3384.292028,-2368.659014,-7698.141797,1072.533697
3384.292355,-740.205942,-9622.677246,0.000000
3384.292683,1184.329507,-11843.295072,-612.876398
3384.293011,2664.741391,-11399.171507,-1608.800546
3384.293338,2072.576638,-10288.862594,-1225.752797
3384.293666,1036.288319,-8808.450710,229.828649
3384.293994,962.267725,-8216.285956,689.485948
3384.294321,0.000000,-8734.430116,1608.800546
3384.294649,-1776.494261,-7476.080014,1608.800546
3384.294977,-1110.308913,-7994.224174,766.095498
3384.295304,1776.494261,-9844.739029,-1149.143247
3384.295632,2368.659014,-11103.089130,-1608.800546
3384.295959,1554.432478,-11621.233289,-1532.190996
3384.296287,-1110.308913,-9770.718434,-766.095498
3384.296615,888.247130,-8660.409521,-1302.362347
3384.296942,1258.350101,-9844.739029,-459.657299
3384.297270,814.226536,-9992.780217,1302.362347
3384.297598,296.082377,-9696.697840,2298.286494
3384.297925,1850.514855,-10362.883188,1225.752797
3384.298253,2960.823768,-9178.553681,306.438199
3384.298581,1702.473667,-8586.388927,0.000000
3384.298908,296.082377,-9622.677246,0.000000
3384.299236,-814.226536,-8438.347739,0.000000
3384.299564,1110.308913,-9622.677246,-1302.362347
3384.299891,1924.535449,-10658.965565,-1302.362347
3384.300219,1850.514855,-11177.109724,0.000000
3384.300547,1406.391290,-11399.171507,842.705048
3384.300874,2146.597232,-11547.212695,383.047749
3384.301202,3330.926739,-11177.109724,-459.657299
3384.301529,2442.679609,-8438.347739,-1225.752797
3384.301857,-962.267725,-7550.100608,536.266849
3384.302185,-2590.720797,-7772.162391,1149.143247
3384.302512,-1702.473667,-9474.636058,1072.533697
3384.302840,-1628.453072,-10436.903782,459.657299
3384.303168,-2072.576638,-7920.203579,-1378.971896
3384.303495,-2738.761985,-7846.182985,-612.876398
3384.303823,-740.205942,-8956.491898,-1302.362347
3384.304151,1776.494261,-10584.944971,-2374.896044
3384.304478,2146.597232,-11547.212695,-995.924147
3384.304806,1036.288319,-10214.842000,76.609550
3384.305134,1036.288319,-10436.903782,1225.752797
3384.305461,2368.659014,-9844.739029,306.438199
3384.305789,3034.844362,-10510.924376,459.657299
3384.306116,444.123565,-9178.553681,1991.848295
3384.306444,-1702.473667,-10658.965565,3064.381992
3384.306772,-1924.535449,-9770.718434,229.828649
3384.307099,-444.123565,-8956.491898,-3983.696590
3384.307427,-1554.432478,-9104.533087,-4060.306139
3384.307755,-2368.659014,-11473.192101,-1532.190996
3384.308082,-1332.370696,-10510.924376,0.000000
3384.308410,444.123565,-9474.636058,0.000000
3384.308738,296.082377,-10955.047942,0.000000
3384.309065,-1332.370696,-10436.903782,0.000000
3384.309393,-444.123565,-8956.491898,0.000000
3384.309721,296.082377,-8364.327145,-612.876398
3384.310048,-370.102971,-8290.306550,-383.047749
3384.310376,-2368.659014,-8512.368333,0.000000
3384.310704,-1554.432478,-8882.471304,0.000000
3384.311031,1850.514855,-11177.109724,-766.095498
3384.311359,3256.906145,-12435.459826,-306.438199
3384.311686,1406.391290,-10732.986159,842.705048
3384.312014,-592.164754,-8216.285956,2298.286494
3384.312342,296.082377,-5995.668130,76.609550
3384.312669,296.082377,-6809.894666,-383.047749
3384.312997,-1110.308913,-9326.594869,1072.533697
3384.313325,-1554.432478,-9474.636058,383.047749
3384.313652,0.000000,-9918.759623,-612.876398
3384.313980,2368.659014,-10510.924376,-2145.067394
3384.314308,1628.453072,-11843.295072,-1072.533697
3384.314635,222.061783,-10066.800811,0.000000
3384.314963,666.185348,-9696.697840,689.485948
3384.315291,740.205942,-10066.800811,-536.266849
3384.315618,1998.556043,-10510.924376,-919.314598
3384.315946,1480.411884,-9326.594869,-689.485948
3384.316273,666.185348,-7698.141797,1072.533697
3384.316601,148.041188,-8734.430116,1378.971896
3384.316929,1258.350101,-10436.903782,383.047749
3384.317256,2812.782580,-10066.800811,-1302.362347
3384.317584,1850.514855,-9548.656652,-1532.190996
3384.317912,444.123565,-11399.171507,0.000000
3384.318239,1850.514855,-10436.903782,-689.485948
3384.318567,4367.215058,-11695.253884,-1915.238745
3384.318895,1924.535449,-11325.150913,-612.876398
3384.319222,592.164754,-9844.739029,689.485948
3384.319550,148.041188,-9400.615463,1532.190996
3384.319878,814.226536,-9474.636058,229.828649
3384.320205,-1036.288319,-10066.800811,536.266849
3384.320533,-2664.741391,-7920.203579,995.924147
3384.320861,-2368.659014,-7476.080014,-383.047749
3384.321188,-1924.535449,-7994.224174,-536.266849
3384.321516,-666.185348,-9400.615463,-1608.800546
3384.321843,-740.205942,-9030.512492,-612.876398
3384.322171,444.123565,-9992.780217,0.000000
3384.322499,1110.308913,-10214.842000,459.657299
3384.322826,740.205942,-9844.739029,1762.019645
3384.323154,1036.288319,-8586.388927,689.485948
3384.323482,1332.370696,-9400.615463,-1225.752797
3384.323809,592.164754,-10140.821405,0.000000
3384.324137,2886.803174,-9918.759623,-306.438199
3384.324465,1628.453072,-9918.759623,689.485948
3384.324792,-888.247130,-9178.553681,995.924147
3384.325120,-2146.597232,-10066.800811,-383.047749
3384.325448,-1924.535449,-10288.862594,-2145.067394
3384.325775,0.000000,-10807.006753,-2451.505594
3384.326103,592.164754,-9992.780217,-2451.505594
3384.326430,-1036.288319,-10362.883188,76.609550
3384.326758,-1332.370696,-10658.965565,306.438199
3384.327086,592.164754,-9474.636058,-1991.848295
3384.327413,370.102971,-10288.862594,-1302.362347
3384.327741,-1924.535449,-8438.347739,-766.095498
3384.328069,-2442.679609,-8586.388927,766.095498
3384.328396,0.000000,-8290.306550,0.000000
3384.328724,814.226536,-10510.924376,-229.828649
3384.329052,1924.535449,-12583.501014,919.314598
3384.329379,2072.576638,-10732.986159,842.705048
3384.329707,1850.514855,-8882.471304,-612.876398
3384.330035,2738.761985,-9696.697840,-1378.971896
3384.330362,222.061783,-9474.636058,-459.657299
3384.330690,-1036.288319,-7328.038826,1455.581446
3384.331018,-1110.308913,-7105.977043,1762.019645
3384.331345,-1036.288319,-8956.491898,689.485948
3384.331673,-592.164754,-10658.965565,76.609550
3384.332000,0.000000,-9252.574275,-1225.752797
3384.332328,-814.226536,-9992.780217,-2221.676944
3384.332656,888.247130,-10140.821405,-1532.190996
3384.332983,1332.370696,-9696.697840,-459.657299
3384.333311,222.061783,-9548.656652,766.095498
3384.333639,0.000000,-9104.533087,1225.752797
3384.333966,518.144159,-9252.574275,459.657299
3384.334294,444.123565,-8660.409521,229.828649
3384.334622,222.061783,-10140.821405,459.657299
3384.334949,0.000000,-9696.697840,0.000000
3384.335277,518.144159,-8364.327145,-153.219100
3384.335605,2886.803174,-10732.986159,-1378.971896
3384.335932,3849.070898,-12657.521608,-1915.238745
3384.336260,1850.514855,-10510.924376,-229.828649
3384.336587,444.123565,-9770.718434,536.266849
3384.336915,1406.391290,-10214.842000,-766.095498
3384.337243,1702.473667,-10214.842000,-1149.143247
3384.337570,296.082377,-9474.636058,766.095498
3384.337898,-1702.473667,-10214.842000,2298.286494
3384.338226,-1332.370696,-9844.739029,306.438199
3384.338553,222.061783,-9326.594869,-2604.724693
3384.338881,-1184.329507,-10140.821405,-2528.115143
3384.339209,-2442.679609,-8882.471304,-919.314598
3384.339536,-3182.885551,-7328.038826,1072.533697
3384.339864,0.000000,-8586.388927,-229.828649
3384.340192,2812.782580,-10881.027347,-689.485948
3384.340519,1998.556043,-11325.150913,1455.581446
3384.340847,518.144159,-9474.636058,2757.943793
3384.341175,1036.288319,-8586.388927,1149.143247
3384.341502,2960.823768,-10066.800811,-1608.800546
3384.341830,1554.432478,-9622.677246,-1762.019645
3384.342157,-296.082377,-8956.491898,76.609550
3384.342485,-1850.514855,-9178.553681,1762.019645
3384.342813,962.267725,-10288.862594,1149.143247
3384.343140,1776.494261,-10066.800811,612.876398
3384.343468,-592.164754,-10066.800811,1685.410096
3384.343796,-2368.659014,-11621.233289,1072.533697
3384.344123,740.205942,-8586.388927,-2604.724693
3384.344451,296.082377,-7920.203579,-3907.087040
3384.344779,-1998.556043,-9770.718434,-1838.629195
3384.345106,-2072.576638,-9252.574275,536.266849
3384.345434,-444.123565,-9400.615463,1149.143247
3384.345762,666.185348,-9770.718434,842.705048
3384.346089,740.205942,-10955.047942,306.438199
3384.346417,-444.123565,-8512.368333,383.047749
3384.346744,962.267725,-7846.182985,0.000000
3384.347072,2664.741391,-9696.697840,-766.095498
3384.347400,2516.700203,-12287.418637,229.828649
3384.347727,1406.391290,-9696.697840,842.705048
3384.348055,2368.659014,-8808.450710,153.219100
3384.348383,518.144159,-9992.780217,-153.219100
3384.348710,666.185348,-10140.821405,1225.752797
3384.349038,296.082377,-8956.491898,2145.067394
3384.349366,0.000000,-8216.285956,153.219100
3384.349693,222.061783,-9844.739029,-1762.019645
3384.350021,296.082377,-9696.697840,-3140.991542
3384.350349,-1184.329507,-10288.862594,-2068.457845
3384.350676,-1110.308913,-10066.800811,-536.266849
3384.351004,518.144159,-9326.594869,-1302.362347
3384.351332,74.020594,-9770.718434,0.000000
3384.351659,1184.329507,-11251.130318,1455.581446
3384.351987,1628.453072,-10807.006753,1838.629195
3384.352314,592.164754,-8586.388927,1532.190996
3384.352642,-592.164754,-7550.100608,0.000000
3384.352970,-1258.350101,-7920.203579,-1762.019645
3384.353297,-370.102971,-9030.512492,-1991.848295
3384.353625,0.000000,-9844.739029,-1225.752797
3384.353953,444.123565,-12509.480420,0.000000
3384.354280,1406.391290,-11029.068536,612.876398
3384.354608,3108.864956,-10214.842000,383.047749
3384.354936,1480.411884,-11177.109724,1378.971896
3384.355263,0.000000,-10510.924376,919.314598
3384.355591,0.000000,-7772.162391,-689.485948
3384.355919,-222.061783,-7698.141797,-1149.143247
3384.356246,-1628.453072,-9030.512492,-1225.752797
3384.356574,-3108.864956,-9474.636058,689.485948
3384.356901,-3627.009116,-10362.883188,1149.143247
3384.357229,-1184.329507,-10066.800811,-1072.533697
3384.357557,-444.123565,-9770.718434,-2298.286494
3384.357884,0.000000,-9252.574275,-612.876398
3384.358212,962.267725,-9104.533087,1685.410096
3384.358540,2664.741391,-8956.491898,766.095498
3384.358867,3182.885551,-10658.965565,0.000000
3384.359195,1406.391290,-9992.780217,0.000000
3384.359523,222.061783,-8290.306550,-459.657299
3384.359850,222.061783,-8660.409521,-766.095498
3384.360178,1184.329507,-9548.656652,229.828649
3384.360506,1332.370696,-12065.356855,1149.143247
3384.360833,888.247130,-10362.883188,919.314598
3384.361161,1110.308913,-7772.162391,0.000000
3384.361489,814.226536,-9474.636058,-612.876398
3384.361816,0.000000,-13545.768739,-459.657299
3384.362144,296.082377,-9992.780217,-2298.286494
3384.362471,-1850.514855,-5921.647536,-3140.991542
3384.362799,-2368.659014,-8216.285956,-1378.971896
3384.363127,-888.247130,-11843.295072,689.485948
3384.363454,888.247130,-11251.130318,1455.581446
3384.363782,444.123565,-9252.574275,536.266849
3384.364110,-666.185348,-9474.636058,-229.828649
3384.364437,518.144159,-8438.347739,-919.314598
3384.364765,1406.391290,-8512.368333,-1455.581446
3384.365093,370.102971,-8882.471304,689.485948
3384.365420,-814.226536,-9918.759623,2068.457845
3384.365748,1258.350101,-8438.347739,1149.143247
3384.366076,3627.009116,-9548.656652,76.609550
3384.366403,1924.535449,-10807.006753,1225.752797
3384.366731,592.164754,-9548.656652,2604.724693
3384.367058,962.267725,-7920.203579,1378.971896
3384.367386,2368.659014,-7402.059420,-1225.752797
3384.367714,-370.102971,-9178.553681,-2451.505594
3384.368041,-3034.844362,-9770.718434,0.000000
3384.368369,-2072.576638,-10140.821405,-1149.143247
3384.368697,1258.350101,-11029.068536,-1608.800546
3384.369024,1998.556043,-11991.336260,-306.438199
3384.369352,666.185348,-9622.677246,1915.238745
3384.369680,740.205942,-8512.368333,2987.772442
3384.370007,2368.659014,-9400.615463,76.609550
3384.370335,2146.597232,-9622.677246,-1455.581446
3384.370663,-1924.535449,-8068.244768,-383.047749
3384.370990,-3404.947333,-6661.853478,-689.485948
3384.371318,-1998.556043,-8956.491898,-2145.067394
3384.371646,962.267725,-12731.542202,-1302.362347
3384.371973,1332.370696,-13841.851115,689.485948
3384.372301,1258.350101,-10362.883188,612.876398
3384.372628,2590.720797,-10362.883188,0.000000
3384.372956,2960.823768,-11473.192101,-919.314598
3384.373284,1406.391290,-10362.883188,-459.657299
3384.373611,-2442.679609,-6365.771101,-459.657299
3384.373939,-4441.235652,-5921.647536,306.438199
3384.374267,-2294.638420,-9252.574275,0.000000
3384.374594,-1406.391290,-10732.986159,229.828649
3384.374922,-1110.308913,-11917.315666,-153.219100
3384.375250,-1184.329507,-10732.986159,-1072.533697
3384.375577,-444.123565,-9622.677246,-383.047749
3384.375905,1628.453072,-8438.347739,-1378.971896
3384.376233,2516.700203,-8364.327145,76.609550
3384.376560,370.102971,-9030.512492,1762.019645
3384.376888,296.082377,-9548.656652,2068.457845
3384.377215,2072.576638,-9030.512492,0.000000
3384.377543,2146.597232,-9992.780217,-153.219100
3384.377871,518.144159,-9844.739029,1378.971896
3384.378198,-444.123565,-9030.512492,1838.629195
3384.378526,148.041188,-7846.182985,-689.485948
3384.378854,1702.473667,-8068.244768,-2068.457845
3384.379181,1036.288319,-10436.903782,-2145.067394
3384.379509,148.041188,-11917.315666,766.095498
3384.379837,0.000000,-11029.068536,1072.533697
3384.380164,444.123565,-9918.759623,0.000000
3384.380492,-962.267725,-9992.780217,-459.657299
3384.380820,-1184.329507,-9030.512492,-1532.190996
3384.381147,-222.061783,-8068.244768,-1991.848295
3384.381475,148.041188,-10140.821405,-995.924147
3384.381803,1776.494261,-11177.109724,0.000000
3384.382130,888.247130,-9326.594869,-153.219100
3384.382458,148.041188,-8290.306550,-536.266849
3384.382785,-444.123565,-11769.274478,-1149.143247
3384.383113,1332.370696,-11251.130318,-306.438199
3384.383441,1406.391290,-9622.677246,612.876398
3384.383768,1332.370696,-7994.224174,306.438199
3384.384096,740.205942,-9400.615463,229.828649
3384.384424,1850.514855,-10436.903782,689.485948
3384.384751,2368.659014,-9326.594869,383.047749
3384.385079,0.000000,-7550.100608,-919.314598
3384.385407,-1554.432478,-10214.842000,-459.657299
3384.385734,-1184.329507,-10436.903782,153.219100
3384.386062,740.205942,-9104.533087,-766.095498
3384.386390,962.267725,-10510.924376,-689.485948
3384.386717,-518.144159,-11177.109724,229.828649
3384.387045,-1480.411884,-9326.594869,306.438199
3384.387372,2072.576638,-8586.388927,-1225.752797
3384.387700,2146.597232,-8364.327145,-1072.533697
3384.388028,888.247130,-9104.533087,0.000000
3384.388355,-1332.370696,-8734.430116,2451.505594
3384.388683,-1258.350101,-8068.244768,995.924147
3384.389011,74.020594,-9770.718434,-536.266849
3384.389340,-666.185348,-10658.965565,-1762.019645
3384.389668,-1776.494261,-9178.553681,-536.266849
3384.389995,888.247130,-9992.780217,-1838.629195
3384.390323,3256.906145,-11251.130318,-2451.505594
3384.390651,2368.659014,-11325.150913,0.000000
3384.390978,1628.453072,-9474.636058,1608.800546
3384.391306,296.082377,-10140.821405,1532.190996
3384.391633,0.000000,-8438.347739,689.485948
3384.391961,-222.061783,-9474.636058,0.000000
3384.392289,-1480.411884,-9622.677246,-459.657299
3384.392616,-1850.514855,-9474.636058,-153.219100
3384.392944,-2072.576638,-10436.903782,-919.314598
3384.393271,-592.164754,-10214.842000,-1838.629195
3384.393599,-1480.411884,-8586.388927,-2528.115143
3384.393927,-666.185348,-9474.636058,-1838.629195
3384.394254,-222.061783,-9696.697840,-842.705048
3384.394582,1850.514855,-10214.842000,766.095498
3384.394909,2886.803174,-10584.944971,1302.362347
3384.395237,2294.638420,-9548.656652,1915.238745
3384.395565,1258.350101,-9474.636058,1532.190996
3384.395892,1554.432478,-8512.368333,153.219100
3384.396220,1480.411884,-8438.347739,-766.095498
3384.396547,888.247130,-9992.780217,-383.047749
3384.396875,148.041188,-10362.883188,0.000000
3384.397202,-1184.329507,-9030.512492,0.000000
3384.397530,444.123565,-10140.821405,-306.438199
3384.397858,1184.329507,-12805.562797,-459.657299
3384.398185,814.226536,-10881.027347,-919.314598
3384.398513,222.061783,-8882.471304,-689.485948
3384.398840,592.164754,-8660.409521,-842.705048
3384.399168,2368.659014,-9622.677246,-1225.752797
3384.399496,1110.308913,-8660.409521,0.000000
3384.399823,-2072.576638,-8882.471304,2374.896044
3384.400151,-2220.617826,-8364.327145,-229.828649
3384.400478,148.041188,-9918.759623,-2528.115143
3384.400806,444.123565,-10955.047942,-2374.896044
3384.401134,-370.102971,-11251.130318,-459.657299
3384.401461,1036.288319,-11029.068536,1149.143247
3384.401789,3775.050304,-9770.718434,76.609550
3384.402116,2220.617826,-9548.656652,-383.047749
3384.402444,0.000000,-9474.636058,459.657299
3384.402772,-1850.514855,-9104.533087,1838.629195
3384.403099,-444.123565,-6957.935855,1149.143247
3384.403427,74.020594,-8956.491898,-1532.190996
3384.403754,-444.123565,-11991.336260,0.000000
3384.404082,-592.164754,-10214.842000,0.000000
3384.404410,888.247130,-9770.718434,-1378.971896
3384.404737,1184.329507,-10510.924376,-2298.286494
3384.405065,-148.041188,-10362.883188,-1072.533697
3384.405392,-148.041188,-7846.182985,919.314598
3384.405720,0.000000,-6587.832884,1455.581446
3384.406048,296.082377,-9104.533087,1149.143247
3384.406375,962.267725,-11029.068536,2451.505594
3384.406703,-740.205942,-9178.553681,1149.143247
3384.407030,-962.267725,-8808.450710,459.657299
3384.407358,666.185348,-9104.533087,-2145.067394
3384.407686,1480.411884,-10732.986159,-2451.505594
3384.408013,962.267725,-11103.089130,-842.705048
3384.408341,1332.370696,-9770.718434,0.000000
3384.408668,1110.308913,-9474.636058,153.219100
3384.408996,592.164754,-9474.636058,459.657299
3384.409324,148.041188,-10288.862594,76.609550
3384.409651,-740.205942,-9474.636058,-612.876398
3384.409979,0.000000,-8956.491898,0.000000
3384.410306,1406.391290,-8734.430116,153.219100
3384.410634,1480.411884,-9844.739029,-919.314598
3384.410962,-296.082377,-11251.130318,459.657299
3384.411289,-666.185348,-8956.491898,-842.705048
3384.411617,-2146.597232,-7920.203579,-1762.019645
3384.411944,-1258.350101,-9622.677246,-1302.362347
3384.412272,592.164754,-11621.233289,-1149.143247
3384.412600,1406.391290,-10066.800811,-383.047749
3384.412927,2442.679609,-10881.027347,1378.971896
3384.413255,3478.967927,-11399.171507,383.047749
3384.413582,3404.947333,-11029.068536,-612.876398
3384.413910,1036.288319,-9474.636058,-306.438199
3384.414238,-740.205942,-9326.594869,842.705048
3384.414565,-370.102971,-8290.306550,229.828649
3384.414893,962.267725,-8882.471304,0.000000
3384.415220,222.061783,-9474.636058,536.266849
3384.415548,-666.185348,-10436.903782,612.876398
3384.415875,1036.288319,-12657.521608,-153.219100
3384.416203,3034.844362,-9696.697840,-2757.943793
3384.416531,888.247130,-8808.450710,-2528.115143
3384.416858,-1036.288319,-8734.430116,-536.266849
3384.417186,-592.164754,-8290.306550,995.924147
3384.417513,-592.164754,-8438.347739,1838.629195
3384.417841,0.000000,-11621.233289,2451.505594
3384.418169,-962.267725,-10214.842000,-153.219100
3384.418496,-1036.288319,-7105.977043,-1685.410096
3384.418824,148.041188,-9030.512492,-2145.067394
3384.419151,518.144159,-12287.418637,-1072.533697
3384.419479,1258.350101,-11769.274478,842.705048
3384.419807,148.041188,-9030.512492,1072.533697
3384.420134,0.000000,-9030.512492,0.000000
3384.420462,0.000000,-8068.244768,-229.828649
3384.420789,666.185348,-9770.718434,995.924147
3384.421117,-740.205942,-8586.388927,1378.971896
3384.421445,-2146.597232,-9104.533087,153.219100
3384.421772,-740.205942,-9326.594869,-1762.019645
3384.422100,1924.535449,-10955.047942,-2834.553343
3384.422427,1258.350101,-10584.944971,-1378.971896
3384.422755,-962.267725,-9474.636058,0.000000
3384.423083,-2442.679609,-10955.047942,1302.362347
3384.423410,1110.308913,-9326.594869,-153.219100
3384.423738,1702.473667,-8882.471304,-459.657299
3384.424065,-1480.411884,-8882.471304,1455.581446
3384.424393,-1258.350101,-10732.986159,1838.629195
3384.424721,888.247130,-9178.553681,-1072.533697
3384.425048,1110.308913,-10066.800811,-2451.505594
3384.425376,444.123565,-10807.006753,-1608.800546
3384.425703,74.020594,-10732.986159,0.000000
3384.426031,1036.288319,-9622.677246,459.657299
3384.426359,2442.679609,-11325.150913,459.657299
3384.426686,1332.370696,-11325.150913,-229.828649
3384.427014,-222.061783,-7846.182985,0.000000
