#time,accel_x,accel_y,accel_z
2850.256317,592.164754,-9400.615463,0.000000
2850.256645,666.185348,-9992.780217,76.609550
2850.256973,814.226536,-9474.636058,0.000000
2850.257300,518.144159,-9622.677246,153.219100
2850.257628,518.144159,-9252.574275,76.609550
2850.257956,0.000000,-9178.553681,76.609550
2850.258284,0.000000,-9252.574275,0.000000
2850.258612,0.000000,-9030.512492,153.219100
2850.258940,-370.102971,-9104.533087,383.047749
2850.259268,0.000000,-9400.615463,0.000000
2850.259595,74.020594,-9696.697840,-153.219100
2850.259923,222.061783,-9548.656652,76.609550
2850.260251,444.123565,-9474.636058,536.266849
2850.260579,740.205942,-9696.697840,612.876398
2850.260907,666.185348,-9992.780217,383.047749
2850.261235,370.102971,-8956.491898,153.219100
2850.261562,740.205942,-9252.574275,0.000000
2850.261890,148.041188,-9400.615463,0.000000
2850.262218,0.000000,-9178.553681,-459.657299
2850.262546,0.000000,-9548.656652,-766.095498
2850.262874,0.000000,-9770.718434,-689.485948
2850.263202,444.123565,-10140.821405,-1149.143247
2850.263530,0.000000,-9992.780217,-612.876398
2850.263857,518.144159,-10288.862594,-383.047749
2850.264185,888.247130,-10362.883188,-229.828649
2850.264513,666.185348,-10436.903782,0.000000
2850.264841,518.144159,-10066.800811,-383.047749
2850.265169,370.102971,-9844.739029,-766.095498
2850.265497,0.000000,-9474.636058,-383.047749
2850.265824,370.102971,-9992.780217,-306.438199
2850.266152,-148.041188,-9474.636058,-612.876398
2850.266480,-222.061783,-9770.718434,-612.876398
2850.266808,74.020594,-9992.780217,-536.266849
2850.267136,0.000000,-10066.800811,-536.266849
2850.267464,296.082377,-10140.821405,-689.485948
2850.267792,666.185348,-9622.677246,0.000000
2850.268119,740.205942,-9474.636058,153.219100
2850.268447,518.144159,-9178.553681,-153.219100
2850.268775,962.267725,-9104.533087,76.609550
2850.269103,1258.350101,-8882.471304,229.828649
2850.269431,1776.494261,-8956.491898,76.609550
2850.269759,2220.617826,-8512.368333,153.219100
2850.270086,3034.844362,-8068.244768,76.609550
2850.270414,3997.112087,-8882.471304,0.000000
2850.270742,5181.441594,-9548.656652,-229.828649
2850.271070,5995.668130,-9548.656652,0.000000
2850.271398,6957.935855,-9548.656652,0.000000
2850.271726,7476.080014,-10436.903782,306.438199
2850.272054,8660.409521,-10510.924376,536.266849
2850.272381,8512.368333,-10436.903782,0.000000
2850.272709,7698.141797,-9844.739029,689.485948
2850.273037,7994.224174,-9252.574275,-229.828649
2850.273365,8290.306550,-8660.409521,-689.485948
2850.273693,8882.471304,-8956.491898,-229.828649
2850.274021,10066.800811,-8956.491898,-459.657299
2850.274349,11769.274478,-9622.677246,-383.047749
2850.274676,11991.336260,-10584.944971,153.219100
2850.275004,11547.212695,-10140.821405,306.438199
2850.275332,11547.212695,-9474.636058,0.000000
2850.275660,11177.109724,-9992.780217,-229.828649
2850.275988,12361.439231,-9474.636058,-689.485948
2850.276316,13693.809927,-10288.862594,0.000000
2850.276643,14656.077652,-10436.903782,919.314598
2850.276971,15248.242405,-9770.718434,1838.629195
2850.277299,14656.077652,-8586.388927,459.657299
2850.277627,13323.706956,-8364.327145,0.000000
2850.277955,12583.501014,-9696.697840,0.000000
2850.278283,12805.562797,-9770.718434,0.000000
2850.278611,13619.789333,-10066.800811,153.219100
2850.278938,13545.768739,-10288.862594,919.314598
2850.279266,13767.830521,-9474.636058,2145.067394
2850.279594,12731.542202,-8956.491898,2145.067394
2850.279922,11769.274478,-9548.656652,1455.581446
2850.280250,9622.677246,-9770.718434,306.438199
2850.280578,8290.306550,-9844.739029,-306.438199
2850.280905,6883.915261,-9844.739029,-229.828649
2850.281233,4959.379811,-9104.533087,0.000000
2850.281561,4441.235652,-8438.347739,0.000000
2850.281889,3849.070898,-8660.409521,919.314598
2850.282217,4885.359217,-9548.656652,0.000000
2850.282545,5403.503377,-10584.944971,-306.438199
2850.282873,4441.235652,-11103.089130,536.266849
2850.283200,3182.885551,-10362.883188,383.047749
2850.283528,1184.329507,-8438.347739,0.000000
2850.283856,-370.102971,-7254.018232,0.000000
2850.284184,666.185348,-6957.935855,-536.266849
2850.284512,3182.885551,-9474.636058,-153.219100
2850.284840,4367.215058,-13323.706956,459.657299
2850.285167,3330.926739,-12657.521608,306.438199
2850.285495,1110.308913,-9252.574275,-842.705048
2850.285823,-1110.308913,-8956.491898,-1991.848295
2850.286151,-1850.514855,-10658.965565,-1532.190996
2850.286479,0.000000,-10658.965565,-995.924147
2850.286807,1110.308913,-11177.109724,-229.828649
2850.287135,2220.617826,-10288.862594,229.828649
2850.287462,2072.576638,-7920.203579,995.924147
2850.287790,-1258.350101,-8142.265362,1838.629195
2850.288118,-4663.297435,-8882.471304,1915.238745
2850.288446,-4885.359217,-9030.512492,-995.924147
2850.288774,-3108.864956,-9104.533087,-4060.306139
2850.289102,-740.205942,-9400.615463,-3830.477490
2850.289429,592.164754,-8956.491898,-995.924147
2850.289757,0.000000,-9474.636058,2068.457845
2850.290085,-444.123565,-11325.150913,2451.505594
2850.290413,-370.102971,-11399.171507,0.000000
2850.290741,222.061783,-8512.368333,-2298.286494
2850.291069,1850.514855,-7698.141797,-2451.505594
2850.291397,1628.453072,-8660.409521,-689.485948
2850.291724,1332.370696,-9770.718434,2221.676944
2850.292052,2146.597232,-9918.759623,1991.848295
2850.292380,3552.988522,-8290.306550,76.609550
2850.292708,3034.844362,-8586.388927,-689.485948
2850.293036,1776.494261,-9844.739029,0.000000
2850.293364,1776.494261,-9844.739029,-459.657299
2850.293691,2812.782580,-8808.450710,-1225.752797
2850.294019,3034.844362,-9252.574275,-919.314598
2850.294347,2812.782580,-10807.006753,689.485948
2850.294675,2146.597232,-10584.944971,1532.190996
2850.295003,2590.720797,-11103.089130,842.705048
2850.295331,3182.885551,-11251.130318,-612.876398
2850.295659,2220.617826,-10362.883188,-1838.629195
2850.295986,888.247130,-9622.677246,-1608.800546
2850.296314,-296.082377,-9770.718434,0.000000
2850.296642,962.267725,-9474.636058,-229.828649
2850.296970,2590.720797,-10436.903782,-1302.362347
2850.297298,2664.741391,-11177.109724,-536.266849
2850.297626,814.226536,-9252.574275,1225.752797
2850.297953,0.000000,-8956.491898,1225.752797
2850.298281,1406.391290,-9400.615463,612.876398
2850.298609,2442.679609,-10288.862594,-1072.533697
2850.298937,2072.576638,-10584.944971,-536.266849
2850.299265,-444.123565,-10214.842000,1149.143247
2850.299593,-666.185348,-11103.089130,536.266849
2850.299921,148.041188,-11177.109724,-689.485948
2850.300248,148.041188,-9178.553681,-1378.971896
2850.300576,-1628.453072,-8512.368333,0.000000
2850.300904,-1406.391290,-10658.965565,995.924147
2850.301232,-2590.720797,-9844.739029,1455.581446
2850.301560,-666.185348,-8364.327145,0.000000
2850.301888,-740.205942,-7105.977043,-842.705048
2850.302215,-2146.597232,-7994.224174,1608.800546
2850.302543,-2886.803174,-7550.100608,2221.676944
2850.302871,-2220.617826,-8068.244768,919.314598
2850.303199,-518.144159,-8882.471304,-459.657299
2850.303527,-592.164754,-9992.780217,-766.095498
2850.303855,-2368.659014,-9178.553681,229.828649
2850.304183,-2664.741391,-10362.883188,842.705048
2850.304510,-1406.391290,-9770.718434,-306.438199
2850.304838,370.102971,-9918.759623,-2451.505594
2850.305166,-888.247130,-10807.006753,-1149.143247
2850.305494,-1258.350101,-10066.800811,919.314598
2850.305822,-740.205942,-8660.409521,1149.143247
2850.306150,592.164754,-8660.409521,-153.219100
2850.306478,1036.288319,-9474.636058,-1072.533697
2850.306805,-222.061783,-9474.636058,-1532.190996
2850.307133,-1480.411884,-9030.512492,0.000000
2850.307461,-222.061783,-10807.006753,-383.047749
2850.307789,1480.411884,-10362.883188,-1302.362347
2850.308117,1184.329507,-10288.862594,-1378.971896
2850.308445,-592.164754,-10658.965565,-536.266849
2850.308772,-740.205942,-11621.233289,-689.485948
2850.309100,222.061783,-11325.150913,-1302.362347
2850.309428,962.267725,-9992.780217,-2145.067394
2850.309756,0.000000,-8364.327145,-1608.800546
2850.310084,-1406.391290,-8882.471304,0.000000
2850.310412,-740.205942,-9474.636058,306.438199
2850.310740,2294.638420,-9474.636058,-612.876398
2850.311067,4293.194464,-9400.615463,-766.095498
2850.311395,2442.679609,-9992.780217,459.657299
2850.311723,370.102971,-10881.027347,2068.457845
2850.312051,2960.823768,-11399.171507,1072.533697
2850.312379,4515.256246,-9770.718434,-1915.238745
2850.312707,3478.967927,-9918.759623,-1685.410096
2850.313034,1480.411884,-9770.718434,919.314598
2850.313362,518.144159,-9992.780217,1991.848295
2850.313690,1702.473667,-9104.533087,1455.581446
2850.314018,2590.720797,-7772.162391,-383.047749
2850.314346,740.205942,-8586.388927,-766.095498
2850.314674,-1332.370696,-9030.512492,1072.533697
2850.315002,-888.247130,-8882.471304,612.876398
2850.315329,1036.288319,-8586.388927,-842.705048
2850.315657,1850.514855,-8512.368333,-612.876398
2850.315985,962.267725,-9548.656652,995.924147
2850.316313,-814.226536,-10288.862594,2221.676944
2850.316641,-592.164754,-9548.656652,1072.533697
2850.316969,1036.288319,-9548.656652,-1608.800546
2850.317296,296.082377,-10584.944971,-1685.410096
2850.317624,-1184.329507,-10362.883188,-306.438199
2850.317952,-1258.350101,-9918.759623,0.000000
2850.318280,148.041188,-10436.903782,-383.047749
2850.318607,2072.576638,-9474.636058,-2681.334243
2850.318935,1628.453072,-10214.842000,-612.876398
2850.319263,0.000000,-10066.800811,612.876398
2850.319591,-666.185348,-10066.800811,919.314598
2850.319918,1036.288319,-9622.677246,-306.438199
2850.320246,1480.411884,-9474.636058,-689.485948
2850.320574,-666.185348,-9178.553681,689.485948
2850.320901,-2886.803174,-9548.656652,1378.971896
2850.321229,-3478.967927,-9770.718434,-229.828649
2850.321557,-1628.453072,-10288.862594,-3294.210641
2850.321885,-1924.535449,-10362.883188,-3830.477490
2850.322212,-3775.050304,-10066.800811,-842.705048
2850.322540,-3552.988522,-9548.656652,306.438199
2850.322868,-1554.432478,-9918.759623,-536.266849
2850.323195,370.102971,-9474.636058,-1685.410096
2850.323523,666.185348,-8956.491898,-1149.143247
2850.323851,-296.082377,-8956.491898,1072.533697
2850.324179,-222.061783,-9104.533087,1915.238745
2850.324506,2220.617826,-9104.533087,1072.533697
2850.324834,3034.844362,-8956.491898,229.828649
2850.325162,1628.453072,-9252.574275,383.047749
2850.325490,-1110.308913,-9326.594869,842.705048
2850.325817,-592.164754,-9770.718434,536.266849
2850.326145,222.061783,-9918.759623,-1532.190996
2850.326473,814.226536,-9252.574275,-2451.505594
2850.326800,-370.102971,-9474.636058,-919.314598
2850.327128,-1480.411884,-9844.739029,1149.143247
2850.327456,962.267725,-10362.883188,1072.533697
2850.327784,2368.659014,-9030.512492,153.219100
2850.328111,1702.473667,-9474.636058,-459.657299
2850.328439,-148.041188,-9548.656652,689.485948
2850.328767,-1258.350101,-9696.697840,919.314598
2850.329095,0.000000,-9622.677246,-153.219100
2850.329422,1554.432478,-9548.656652,-1838.629195
2850.329750,1258.350101,-10955.047942,-1532.190996
2850.330078,148.041188,-11547.212695,383.047749
2850.330405,1850.514855,-10881.027347,153.219100
2850.330733,3404.947333,-10140.821405,-1378.971896
2850.331061,4071.132681,-10584.944971,-1072.533697
2850.331389,2442.679609,-10140.821405,383.047749
2850.331716,962.267725,-9104.533087,1225.752797
2850.332044,740.205942,-9474.636058,459.657299
2850.332372,1776.494261,-8512.368333,-306.438199
2850.332699,1776.494261,-8956.491898,-689.485948
2850.333027,-592.164754,-9844.739029,536.266849
2850.333355,-2072.576638,-10214.842000,766.095498
2850.333683,444.123565,-10140.821405,-919.314598
2850.334010,1480.411884,-10214.842000,-2221.676944
2850.334338,0.000000,-9770.718434,-612.876398
2850.334666,-1332.370696,-8438.347739,1762.019645
2850.334994,-1998.556043,-9030.512492,995.924147
2850.335321,-222.061783,-9918.759623,153.219100
2850.335649,1850.514855,-9474.636058,-1915.238745
2850.335977,1110.308913,-9178.553681,76.609550
2850.336304,296.082377,-9770.718434,2298.286494
2850.336632,1480.411884,-9622.677246,1991.848295
2850.336960,2220.617826,-8882.471304,-1532.190996
2850.337288,1036.288319,-8512.368333,-1915.238745
2850.337615,-1480.411884,-9474.636058,-536.266849
2850.337943,-2738.761985,-9548.656652,383.047749
2850.338271,-2072.576638,-9918.759623,76.609550
2850.338599,0.000000,-9918.759623,-995.924147
2850.338926,-1036.288319,-10288.862594,-1072.533697
2850.339254,-2960.823768,-10066.800811,459.657299
2850.339582,-2516.700203,-9844.739029,306.438199
2850.339909,-1332.370696,-9400.615463,-1225.752797
2850.340237,-740.205942,-9548.656652,-2068.457845
2850.340565,-1998.556043,-9252.574275,-1225.752797
2850.340893,-2294.638420,-9030.512492,0.000000
2850.341220,-666.185348,-10214.842000,0.000000
2850.341548,1036.288319,-10140.821405,-536.266849
2850.341876,1702.473667,-10510.924376,-766.095498
2850.342204,370.102971,-11103.089130,459.657299
2850.342531,-296.082377,-10288.862594,689.485948
2850.342859,666.185348,-9326.594869,-612.876398
2850.343187,1924.535449,-9030.512492,-1149.143247
2850.343514,1110.308913,-9030.512492,-306.438199
2850.343842,-740.205942,-8956.491898,919.314598
2850.344170,-1110.308913,-9770.718434,1225.752797
2850.344498,0.000000,-9474.636058,-153.219100
2850.344825,1554.432478,-8956.491898,-1378.971896
2850.345153,1110.308913,-9326.594869,-306.438199
2850.345481,74.020594,-9844.739029,1072.533697
2850.345808,962.267725,-10362.883188,1149.143247
2850.346136,2516.700203,-10584.944971,-383.047749
2850.346464,1850.514855,-9252.574275,-536.266849
2850.346792,-370.102971,-9030.512492,842.705048
2850.347119,-2072.576638,-8956.491898,1149.143247
2850.347447,-1406.391290,-9474.636058,-229.828649
2850.347775,370.102971,-9326.594869,-2298.286494
2850.348103,1184.329507,-9474.636058,-2221.676944
2850.348430,0.000000,-9474.636058,0.000000
2850.348758,1776.494261,-9252.574275,842.705048
2850.349086,3849.070898,-8882.471304,0.000000
2850.349413,5107.421000,-10140.821405,-612.876398
2850.349741,4071.132681,-10955.047942,0.000000
2850.350069,2368.659014,-10362.883188,919.314598
2850.350397,1702.473667,-10288.862594,842.705048
2850.350724,1924.535449,-9474.636058,919.314598
2850.351052,1480.411884,-9104.533087,-1302.362347
2850.351380,0.000000,-9104.533087,-766.095498
2850.351708,-1184.329507,-10732.986159,-766.095498
2850.352035,0.000000,-11325.150913,-1302.362347
2850.352363,1628.453072,-9844.739029,-1991.848295
2850.352691,666.185348,-9326.594869,-766.095498
2850.353018,-962.267725,-9326.594869,919.314598
2850.353346,-1924.535449,-9252.574275,1225.752797
2850.353674,74.020594,-10066.800811,-306.438199
2850.354002,1406.391290,-9622.677246,-1532.190996
2850.354329,740.205942,-9992.780217,-1225.752797
2850.354657,-1184.329507,-10362.883188,1378.971896
2850.354985,-1924.535449,-9252.574275,1225.752797
2850.355312,-518.144159,-8290.306550,-842.705048
2850.355640,296.082377,-9326.594869,-2374.896044
2850.355968,-370.102971,-10066.800811,-919.314598
2850.356296,-1184.329507,-9918.759623,995.924147
2850.356623,-1184.329507,-9030.512492,1378.971896
2850.356951,444.123565,-9326.594869,306.438199
2850.357279,1258.350101,-9474.636058,0.000000
2850.357607,-518.144159,-9252.574275,612.876398
2850.357934,-1702.473667,-9104.533087,1149.143247
2850.358262,0.000000,-9992.780217,-689.485948
2850.358590,1110.308913,-10214.842000,-1378.971896
2850.358917,-444.123565,-9992.780217,-383.047749
2850.359245,-2738.761985,-9696.697840,536.266849
2850.359573,-2960.823768,-11029.068536,-306.438199
2850.359901,-666.185348,-10955.047942,-2604.724693
2850.360228,296.082377,-10510.924376,-4290.134789
2850.360556,-518.144159,-10214.842000,-1608.800546
2850.360884,-1258.350101,-10066.800811,1149.143247
2850.361212,0.000000,-9400.615463,1532.190996
2850.361539,2516.700203,-9030.512492,-459.657299
2850.361867,3034.844362,-9696.697840,-1149.143247
2850.362195,1036.288319,-9474.636058,689.485948
2850.362522,0.000000,-9252.574275,689.485948
2850.362850,0.000000,-9696.697840,0.000000
2850.363178,1258.350101,-9252.574275,-1378.971896
2850.363506,1776.494261,-9178.553681,-1302.362347
2850.363833,814.226536,-10066.800811,306.438199
2850.364161,666.185348,-10807.006753,1762.019645
2850.364489,2368.659014,-10140.821405,229.828649
2850.364816,2738.761985,-8808.450710,-1072.533697
2850.365144,592.164754,-8290.306550,383.047749
2850.365472,-962.267725,-8068.244768,1532.190996
2850.365800,-444.123565,-8512.368333,1225.752797
2850.366127,1628.453072,-8438.347739,-306.438199
2850.366455,2812.782580,-9104.533087,-1149.143247
2850.366783,1184.329507,-10658.965565,0.000000
2850.367111,-592.164754,-10807.006753,1532.190996
2850.367438,592.164754,-9992.780217,-229.828649
2850.367766,1480.411884,-9622.677246,-2374.896044
2850.368094,1702.473667,-10510.924376,-2068.457845
2850.368421,1110.308913,-10288.862594,0.000000
2850.368749,74.020594,-8882.471304,1838.629195
2850.369077,296.082377,-9252.574275,1685.410096
2850.369405,1702.473667,-9548.656652,-459.657299
2850.369732,2146.597232,-9844.739029,-689.485948
2850.370060,-370.102971,-9474.636058,76.609550
2850.370388,-1258.350101,-9918.759623,0.000000
2850.370716,0.000000,-9918.759623,-1149.143247
2850.371043,518.144159,-9696.697840,-995.924147
2850.371371,-592.164754,-9622.677246,-383.047749
2850.371699,-1554.432478,-10214.842000,995.924147
2850.372026,-888.247130,-11621.233289,459.657299
2850.372354,666.185348,-10955.047942,-1608.800546
2850.372682,814.226536,-10140.821405,-2145.067394
2850.373010,-1850.514855,-9400.615463,0.000000
2850.373337,-2886.803174,-8734.430116,536.266849
2850.373665,-666.185348,-8290.306550,383.047749
2850.373993,1776.494261,-9696.697840,-1685.410096
2850.374320,1554.432478,-10288.862594,-536.266849
2850.374648,444.123565,-10140.821405,766.095498
2850.374976,-962.267725,-9326.594869,1455.581446
2850.375304,-296.082377,-8808.450710,229.828649
2850.375631,1110.308913,-8438.347739,-995.924147
2850.375959,222.061783,-8734.430116,-689.485948
2850.376287,-888.247130,-9474.636058,1149.143247
2850.376615,-370.102971,-10140.821405,459.657299
2850.376942,74.020594,-9622.677246,0.000000
2850.377270,-666.185348,-9326.594869,0.000000
2850.377598,-2146.597232,-8808.450710,0.000000
2850.377925,-2146.597232,-9770.718434,-995.924147
2850.378253,-444.123565,-10584.944971,-995.924147
2850.378581,888.247130,-9992.780217,-2528.115143
2850.378909,814.226536,-9548.656652,-1378.971896
2850.379236,74.020594,-9474.636058,689.485948
2850.379564,444.123565,-10066.800811,1149.143247
2850.379892,2368.659014,-10066.800811,76.609550
2850.380220,3849.070898,-9918.759623,-689.485948
2850.380547,3108.864956,-10288.862594,-459.657299
2850.380875,1258.350101,-10140.821405,383.047749
2850.381203,444.123565,-9770.718434,229.828649
2850.381530,444.123565,-9474.636058,-306.438199
2850.381858,1776.494261,-9474.636058,-1838.629195
2850.382186,1110.308913,-9696.697840,-1455.581446
2850.382514,-222.061783,-9918.759623,383.047749
2850.382841,518.144159,-9252.574275,383.047749
2850.383169,1554.432478,-9326.594869,-536.266849
2850.383497,962.267725,-10214.842000,-766.095498
2850.383824,-888.247130,-9844.739029,0.000000
2850.384152,-518.144159,-10214.842000,-306.438199
2850.384480,1258.350101,-10807.006753,-1072.533697
2850.384808,2738.761985,-10214.842000,-1225.752797
2850.385135,2072.576638,-10066.800811,0.000000
2850.385463,-1036.288319,-8956.491898,1838.629195
2850.385791,-444.123565,-9548.656652,1378.971896
2850.386119,1332.370696,-9548.656652,-689.485948
2850.386446,1702.473667,-9474.636058,-1685.410096
2850.386774,0.000000,-9474.636058,0.000000
2850.387102,-1406.391290,-8290.306550,1685.410096
2850.387429,-1850.514855,-8142.265362,1455.581446
2850.387757,0.000000,-7994.224174,0.000000
2850.388085,1406.391290,-8216.285956,-1072.533697
2850.388413,888.247130,-9548.656652,-689.485948
2850.388740,0.000000,-10881.027347,995.924147
2850.389068,592.164754,-11103.089130,612.876398
2850.389396,814.226536,-9178.553681,-1072.533697
2850.389724,0.000000,-10066.800811,-689.485948
2850.390051,-962.267725,-10288.862594,-612.876398
2850.390379,-888.247130,-11029.068536,-612.876398
2850.390707,666.185348,-10436.903782,-919.314598
2850.391034,1554.432478,-9696.697840,-1685.410096
2850.391362,-518.144159,-9696.697840,0.000000
2850.391690,-1554.432478,-9326.594869,1685.410096
2850.392018,-1184.329507,-8660.409521,-229.828649
2850.392345,518.144159,-9770.718434,-1991.848295
2850.392673,888.247130,-10214.842000,-2221.676944
2850.393001,222.061783,-10288.862594,-766.095498
2850.393328,-1184.329507,-10214.842000,766.095498
2850.393656,-1036.288319,-10066.800811,689.485948
2850.393984,666.185348,-9770.718434,-536.266849
2850.394312,888.247130,-10436.903782,-1608.800546
2850.394639,0.000000,-9918.759623,-1608.800546
2850.394967,-1036.288319,-9548.656652,306.438199
2850.395295,0.000000,-8660.409521,-306.438199
2850.395623,222.061783,-8512.368333,-306.438199
2850.395950,-370.102971,-8586.388927,153.219100
2850.396278,-814.226536,-9474.636058,229.828649
2850.396606,74.020594,-10214.842000,0.000000
2850.396933,2146.597232,-9770.718434,-766.095498
2850.397261,2146.597232,-9400.615463,-842.705048
2850.397589,0.000000,-9844.739029,1685.410096
2850.397917,-888.247130,-10510.924376,1685.410096
2850.398244,888.247130,-10140.821405,-536.266849
2850.398572,2886.803174,-10436.903782,-2145.067394
2850.398900,2886.803174,-11251.130318,-842.705048
2850.399228,666.185348,-10658.965565,1455.581446
2850.399555,-962.267725,-9696.697840,1455.581446
2850.399883,-1036.288319,-9030.512492,-229.828649
2850.400211,0.000000,-8586.388927,-1915.238745
2850.400538,0.000000,-8734.430116,-1762.019645
2850.400866,-592.164754,-9252.574275,459.657299
2850.401194,-518.144159,-8586.388927,1149.143247
2850.401522,1480.411884,-8956.491898,306.438199
2850.401849,1702.473667,-9326.594869,-76.609550
2850.402177,814.226536,-10214.842000,612.876398
2850.402505,444.123565,-10658.965565,459.657299
2850.402832,962.267725,-11325.150913,-383.047749
2850.403160,1998.556043,-10807.006753,-2451.505594
2850.403488,1036.288319,-9474.636058,-1915.238745
2850.403816,-740.205942,-9992.780217,383.047749
2850.404143,-1332.370696,-9696.697840,1149.143247
2850.404471,740.205942,-10140.821405,-229.828649
2850.404799,2516.700203,-10066.800811,-1838.629195
2850.405127,1406.391290,-9696.697840,-689.485948
2850.405454,-444.123565,-8882.471304,1455.581446
2850.405782,-518.144159,-8586.388927,1838.629195
2850.406110,370.102971,-8438.347739,1072.533697
2850.406437,1184.329507,-8364.327145,-383.047749
2850.406765,222.061783,-9474.636058,-766.095498
2850.407093,-1258.350101,-10288.862594,153.219100
2850.407421,-962.267725,-9844.739029,0.000000
2850.407748,0.000000,-8956.491898,-1455.581446
2850.408076,740.205942,-9474.636058,-1225.752797
2850.408404,0.000000,-10066.800811,153.219100
2850.408732,-370.102971,-10288.862594,76.609550
2850.409059,666.185348,-10066.800811,-383.047749
2850.409387,1406.391290,-9474.636058,-1149.143247
2850.409715,666.185348,-9104.533087,76.609550
2850.410042,-1036.288319,-9252.574275,2374.896044
2850.410370,-296.082377,-9326.594869,766.095498
2850.410698,1776.494261,-9326.594869,-536.266849
2850.411026,1924.535449,-9696.697840,-1915.238745
2850.411353,-296.082377,-10066.800811,-919.314598
2850.411681,-2516.700203,-9548.656652,153.219100
2850.412009,-2294.638420,-9918.759623,-383.047749
2850.412336,370.102971,-10066.800811,-1838.629195
2850.412664,2220.617826,-10658.965565,-1532.190996
2850.412992,1776.494261,-10288.862594,0.000000
2850.413320,888.247130,-10584.944971,2145.067394
2850.413647,296.082377,-9030.512492,1225.752797
2850.413975,592.164754,-8216.285956,-842.705048
2850.414303,-222.061783,-8660.409521,-1685.410096
2850.414631,-1480.411884,-9548.656652,-459.657299
2850.414958,-1184.329507,-10362.883188,383.047749
2850.415286,666.185348,-10584.944971,-459.657299
2850.415614,888.247130,-10436.903782,-995.924147
2850.415941,74.020594,-10807.006753,153.219100
2850.416269,-814.226536,-10732.986159,536.266849
2850.416597,-148.041188,-10658.965565,0.000000
2850.416925,1554.432478,-9474.636058,-1302.362347
2850.417252,1998.556043,-9104.533087,-1685.410096
2850.417580,370.102971,-8512.368333,0.000000
2850.417908,-666.185348,-8734.430116,2068.457845
2850.418236,0.000000,-8882.471304,1532.190996
2850.418563,1702.473667,-9252.574275,-383.047749
2850.418891,2220.617826,-9844.739029,-1532.190996
2850.419219,444.123565,-9326.594869,-153.219100
2850.419546,-296.082377,-9104.533087,459.657299
2850.419874,-296.082377,-8660.409521,153.219100
2850.420201,1554.432478,-9474.636058,-383.047749
2850.420529,1184.329507,-9474.636058,0.000000
2850.420856,-296.082377,-9326.594869,842.705048
2850.421184,-1036.288319,-10436.903782,842.705048
2850.421511,0.000000,-9918.759623,-766.095498
2850.421839,740.205942,-9178.553681,-2145.067394
2850.422166,-1258.350101,-9696.697840,-383.047749
2850.422494,-1258.350101,-10214.842000,229.828649
2850.422821,1776.494261,-10881.027347,-1072.533697
2850.423149,3701.029710,-11029.068536,-2221.676944
2850.423476,3182.885551,-11473.192101,-536.266849
2850.423804,1406.391290,-10288.862594,1455.581446
2850.424131,-444.123565,-9474.636058,1608.800546
2850.424459,-222.061783,-8290.306550,995.924147
2850.424786,1258.350101,-9252.574275,-1608.800546
2850.425114,444.123565,-9474.636058,-1072.533697
2850.425441,-1184.329507,-8956.491898,536.266849
2850.425769,-2146.597232,-8586.388927,459.657299
2850.426096,-962.267725,-8882.471304,-1991.848295
2850.426424,222.061783,-8882.471304,-2451.505594
2850.426751,296.082377,-9918.759623,-919.314598
2850.427079,-148.041188,-9992.780217,153.219100
2850.427406,444.123565,-10436.903782,612.876398
2850.427734,1702.473667,-10658.965565,0.000000
2850.428061,1850.514855,-10658.965565,-459.657299
2850.428389,0.000000,-10881.027347,766.095498
2850.428717,74.020594,-10066.800811,612.876398
2850.429044,1628.453072,-9104.533087,-1378.971896
2850.429372,1554.432478,-9178.553681,-1838.629195
2850.429699,592.164754,-9326.594869,-536.266849
2850.430027,-962.267725,-8882.471304,1225.752797
2850.430354,-2146.597232,-8068.244768,1685.410096
2850.430682,-518.144159,-7846.182985,0.000000
2850.431009,1332.370696,-9178.553681,-995.924147
2850.431337,666.185348,-8882.471304,76.609550
2850.431664,-444.123565,-9252.574275,1378.971896
2850.431992,-518.144159,-9696.697840,995.924147
2850.432319,0.000000,-9770.718434,0.000000
2850.432647,740.205942,-9770.718434,-1225.752797
2850.432974,-592.164754,-10140.821405,-995.924147
2850.433302,-2442.679609,-10140.821405,0.000000
2850.433629,-1036.288319,-10732.986159,-766.095498
2850.433957,666.185348,-10584.944971,-2528.115143
2850.434284,814.226536,-9992.780217,-1225.752797
2850.434612,74.020594,-10140.821405,842.705048
2850.434939,666.185348,-9918.759623,1378.971896
2850.435267,2368.659014,-9918.759623,-689.485948
2850.435594,3775.050304,-9548.656652,-1072.533697
2850.435922,1998.556043,-9696.697840,612.876398
2850.436249,-1332.370696,-9474.636058,1455.581446
2850.436577,-1184.329507,-9622.677246,459.657299
2850.436904,296.082377,-9844.739029,-1838.629195
2850.437232,1036.288319,-10658.965565,-2451.505594
2850.437560,962.267725,-11769.274478,-1378.971896
2850.437887,0.000000,-11177.109724,842.705048
2850.438215,0.000000,-9992.780217,0.000000
2850.438542,1258.350101,-9252.574275,-1762.019645
2850.438870,-370.102971,-8808.450710,-1762.019645
2850.439197,-2146.597232,-7994.224174,229.828649
2850.439525,-2368.659014,-7772.162391,536.266849
2850.439852,0.000000,-7994.224174,306.438199
2850.440180,1480.411884,-7698.141797,-229.828649
2850.440507,1184.329507,-8512.368333,995.924147
2850.440835,222.061783,-9844.739029,1915.238745
2850.441162,1110.308913,-10807.006753,459.657299
2850.441490,2960.823768,-11103.089130,-2068.457845
2850.441817,3108.864956,-10807.006753,-2451.505594
2850.442145,2072.576638,-10288.862594,0.000000
2850.442472,518.144159,-9400.615463,1762.019645
2850.442800,592.164754,-9474.636058,1991.848295
2850.443127,592.164754,-9178.553681,383.047749
2850.443455,962.267725,-9622.677246,-1072.533697
2850.443782,-1036.288319,-8512.368333,-383.047749
2850.444110,-2220.617826,-8068.244768,0.000000
2850.444437,-1702.473667,-8586.388927,153.219100
2850.444765,-444.123565,-8956.491898,-306.438199
2850.445092,-666.185348,-9992.780217,-766.095498
2850.445420,-1850.514855,-10955.047942,0.000000
2850.445747,-1776.494261,-11621.233289,0.000000
2850.446075,222.061783,-11399.171507,-1302.362347
2850.446403,1332.370696,-11547.212695,-1378.971896
2850.446730,0.000000,-10732.986159,0.000000
2850.447058,-740.205942,-9548.656652,1072.533697
2850.447385,222.061783,-10436.903782,459.657299
2850.447713,1628.453072,-9770.718434,-1149.143247
2850.448040,1406.391290,-9252.574275,-995.924147
2850.448368,296.082377,-8586.388927,766.095498
2850.448695,-444.123565,-8882.471304,2298.286494
2850.449023,518.144159,-9252.574275,919.314598
2850.449350,2072.576638,-8290.306550,-383.047749
2850.449678,2072.576638,-9104.533087,-229.828649
2850.450005,74.020594,-9844.739029,153.219100
2850.450333,-814.226536,-10362.883188,383.047749
2850.450660,1110.308913,-9326.594869,-1072.533697
2850.450988,3182.885551,-9548.656652,-1608.800546
2850.451315,2516.700203,-10732.986159,76.609550
2850.451643,1184.329507,-10140.821405,2145.067394
2850.451970,814.226536,-9400.615463,766.095498
2850.452298,1184.329507,-9030.512492,-1915.238745
2850.452625,666.185348,-8882.471304,-2604.724693
2850.452953,-518.144159,-8734.430116,-306.438199
2850.453280,-518.144159,-9178.553681,1302.362347
2850.453608,1110.308913,-9770.718434,1072.533697
2850.453935,2886.803174,-10214.842000,-306.438199
2850.454263,2368.659014,-10732.986159,-459.657299
2850.454590,222.061783,-10214.842000,-306.438199
2850.454918,-1554.432478,-9400.615463,229.828649
2850.455245,-1332.370696,-10066.800811,-1225.752797
2850.455573,-518.144159,-10214.842000,-2451.505594
2850.455901,148.041188,-9770.718434,-2451.505594
2850.456228,0.000000,-9474.636058,0.000000
2850.456556,0.000000,-10140.821405,1225.752797
2850.456883,1110.308913,-10214.842000,536.266849
2850.457211,1554.432478,-10140.821405,-1302.362347
2850.457538,0.000000,-10214.842000,-1302.362347
2850.457866,-1036.288319,-9548.656652,-229.828649
2850.458193,-814.226536,-8882.471304,689.485948
2850.458521,814.226536,-8290.306550,536.266849
2850.458848,1184.329507,-9326.594869,612.876398
2850.459176,0.000000,-10066.800811,995.924147
2850.459503,-1332.370696,-10510.924376,919.314598
2850.459831,-740.205942,-9918.759623,-919.314598
2850.460158,222.061783,-9770.718434,-2068.457845
2850.460486,-222.061783,-10436.903782,-1072.533697
2850.460813,-740.205942,-9474.636058,459.657299
2850.461141,-1332.370696,-9178.553681,1072.533697
2850.461468,-296.082377,-9178.553681,536.266849
2850.461796,1776.494261,-9252.574275,-689.485948
2850.462123,740.205942,-9326.594869,229.828649
2850.462451,-1702.473667,-8956.491898,1838.629195
2850.462778,-962.267725,-8808.450710,612.876398
2850.463106,370.102971,-8290.306550,-383.047749
2850.463433,148.041188,-8808.450710,-383.047749
2850.463761,-740.205942,-8808.450710,0.000000
2850.464088,-2072.576638,-9474.636058,1455.581446
2850.464416,-2072.576638,-10066.800811,383.047749
2850.464744,0.000000,-10436.903782,-2068.457845
2850.465071,0.000000,-9844.739029,-2451.505594
2850.465399,-1406.391290,-9622.677246,76.609550
2850.465726,-2146.597232,-9696.697840,229.828649
2850.466054,888.247130,-9696.697840,-612.876398
2850.466381,2368.659014,-9770.718434,-1915.238745
2850.466709,2590.720797,-10955.047942,-1149.143247
2850.467036,1332.370696,-11029.068536,459.657299
2850.467364,1184.329507,-10658.965565,459.657299
2850.467691,2220.617826,-10140.821405,-229.828649
2850.468019,2368.659014,-10066.800811,-1149.143247
2850.468346,1406.391290,-9474.636058,0.000000
2850.468674,0.000000,-9326.594869,229.828649
2850.469001,74.020594,-8882.471304,306.438199
2850.469329,2146.597232,-9104.533087,-612.876398
2850.469656,2146.597232,-9252.574275,-995.924147
2850.469984,0.000000,-9474.636058,536.266849
2850.470311,-1480.411884,-9252.574275,1378.971896
2850.470639,0.000000,-9548.656652,-1072.533697
2850.470966,1776.494261,-10066.800811,-2221.676944
2850.471294,1628.453072,-11029.068536,-1378.971896
2850.471621,814.226536,-10658.965565,383.047749
2850.471949,1184.329507,-10658.965565,536.266849
2850.472276,2368.659014,-10807.006753,0.000000
2850.472604,2886.803174,-9474.636058,-766.095498
2850.472931,2072.576638,-9474.636058,0.000000
2850.473259,370.102971,-8586.388927,1225.752797
2850.473587,-148.041188,-8216.285956,1685.410096
2850.473914,444.123565,-8956.491898,612.876398
2850.474242,666.185348,-9400.615463,-153.219100
2850.474569,-148.041188,-9474.636058,-383.047749
2850.474897,-1776.494261,-8734.430116,0.000000
2850.475224,0.000000,-10140.821405,-1072.533697
2850.475552,1924.535449,-10955.047942,-995.924147
2850.475879,1554.432478,-11103.089130,-306.438199
2850.476207,-222.061783,-11177.109724,1072.533697
2850.476534,-1184.329507,-10732.986159,612.876398
2850.476862,-1480.411884,-10288.862594,-1225.752797
2850.477189,-740.205942,-9918.759623,-2681.334243
2850.477517,-2664.741391,-8438.347739,-1915.238745
2850.477844,-3849.070898,-8956.491898,153.219100
2850.478172,-2368.659014,-9252.574275,842.705048
2850.478499,518.144159,-8586.388927,-459.657299
2850.478827,1480.411884,-9326.594869,-536.266849
2850.479154,444.123565,-9548.656652,536.266849
2850.479482,-1184.329507,-9548.656652,766.095498
2850.479809,-592.164754,-9992.780217,76.609550
2850.480137,1036.288319,-9918.759623,-766.095498
2850.480464,1406.391290,-10140.821405,-383.047749
2850.480792,-444.123565,-9770.718434,1149.143247
2850.481119,-1258.350101,-9548.656652,689.485948
2850.481447,-444.123565,-10140.821405,-612.876398
2850.481774,148.041188,-10214.842000,-1991.848295
2850.482102,-1332.370696,-9252.574275,-2068.457845
2850.482429,-2294.638420,-8882.471304,-459.657299
2850.482757,-1702.473667,-8586.388927,306.438199
2850.483085,518.144159,-9400.615463,-229.828649
2850.483412,1332.370696,-9844.739029,-229.828649
2850.483740,296.082377,-9548.656652,689.485948
2850.484067,370.102971,-10140.821405,1225.752797
2850.484395,1184.329507,-9992.780217,-153.219100
2850.484722,2294.638420,-9918.759623,-1455.581446
2850.485050,2442.679609,-10288.862594,-1608.800546
2850.485377,1110.308913,-10140.821405,-536.266849
2850.485705,148.041188,-9770.718434,0.000000
2850.486032,1184.329507,-9622.677246,306.438199
2850.486360,2516.700203,-9622.677246,0.000000
2850.486687,2738.761985,-9030.512492,153.219100
2850.487015,1406.391290,-8512.368333,1072.533697
2850.487342,1184.329507,-8438.347739,919.314598
2850.487670,2220.617826,-8660.409521,383.047749
2850.487997,2294.638420,-9178.553681,76.609550
2850.488325,370.102971,-9178.553681,76.609550
2850.488652,-444.123565,-9178.553681,0.000000
2850.488980,888.247130,-10732.986159,-1072.533697
2850.489307,2294.638420,-11325.150913,-1149.143247
2850.489635,2516.700203,-11177.109724,-842.705048
2850.489962,1554.432478,-11769.274478,-383.047749
2850.490290,666.185348,-11029.068536,0.000000
2850.490617,1110.308913,-9252.574275,-306.438199
2850.490945,1702.473667,-8364.327145,-612.876398
2850.491272,592.164754,-8068.244768,919.314598
2850.491600,0.000000,-8734.430116,1838.629195
2850.491928,-1258.350101,-8956.491898,1838.629195
2850.492255,-1184.329507,-9178.553681,842.705048
2850.492583,-74.020594,-9030.512492,-612.876398
2850.492910,-1110.308913,-9400.615463,-1302.362347
2850.493238,-3108.864956,-9474.636058,229.828649
2850.493565,-3404.947333,-9992.780217,-536.266849
2850.493893,-518.144159,-10584.944971,-1915.238745
2850.494220,370.102971,-10584.944971,-1608.800546
2850.494548,-1110.308913,-10214.842000,0.000000
2850.494875,-2368.659014,-9992.780217,1455.581446
2850.495203,-1480.411884,-10288.862594,-612.876398
2850.495530,0.000000,-9918.759623,-1378.971896
2850.495858,0.000000,-9548.656652,-1225.752797
2850.496185,-1110.308913,-8364.327145,229.828649
2850.496513,-888.247130,-9178.553681,919.314598
2850.496840,74.020594,-9474.636058,383.047749
2850.497168,1332.370696,-9622.677246,-229.828649
2850.497495,814.226536,-9918.759623,-766.095498
2850.497823,-1554.432478,-10066.800811,0.000000
2850.498150,-1998.556043,-9400.615463,306.438199
2850.498478,-370.102971,-9474.636058,-766.095498
2850.498805,740.205942,-9622.677246,-1302.362347
2850.499133,-148.041188,-9548.656652,0.000000
2850.499460,-1332.370696,-9622.677246,689.485948
2850.499788,-296.082377,-9696.697840,76.609550
2850.500115,444.123565,-9400.615463,-1149.143247
2850.500443,1258.350101,-9474.636058,-2221.676944
2850.500771,0.000000,-9326.594869,-919.314598
2850.501098,-592.164754,-9918.759623,842.705048
2850.501426,1554.432478,-10658.965565,0.000000
2850.501753,4071.132681,-10362.883188,-612.876398
2850.502081,2886.803174,-9844.739029,766.095498
2850.502408,1036.288319,-9992.780217,1608.800546
2850.502736,0.000000,-9252.574275,1302.362347
2850.503063,1480.411884,-8734.430116,0.000000
2850.503391,1998.556043,-8808.450710,-1608.800546
2850.503718,666.185348,-9252.574275,-459.657299
2850.504046,-370.102971,-8808.450710,229.828649
2850.504373,814.226536,-9326.594869,383.047749
2850.504701,2146.597232,-9770.718434,-689.485948
2850.505028,2664.741391,-10658.965565,-612.876398
2850.505356,2294.638420,-10584.944971,-153.219100
2850.505683,1184.329507,-10288.862594,306.438199
2850.506011,2516.700203,-10066.800811,0.000000
2850.506338,3478.967927,-9844.739029,-536.266849
2850.506666,2442.679609,-9992.780217,0.000000
2850.506993,74.020594,-9918.759623,0.000000
2850.507321,-888.247130,-9770.718434,766.095498
2850.507648,444.123565,-9696.697840,-1072.533697
2850.507976,1554.432478,-9696.697840,-2221.676944
2850.508303,518.144159,-10362.883188,-766.095498
2850.508631,-592.164754,-10510.924376,995.924147
2850.508958,0.000000,-10288.862594,842.705048
2850.509286,1702.473667,-9696.697840,-842.705048
2850.509613,2220.617826,-10362.883188,-1455.581446
2850.509941,-444.123565,-9844.739029,459.657299
2850.510269,-2146.597232,-8734.430116,842.705048
2850.510596,-2072.576638,-8956.491898,0.000000
2850.510924,0.000000,-9770.718434,-1302.362347
2850.511251,296.082377,-9548.656652,-766.095498
2850.511579,-1850.514855,-8290.306550,1149.143247
2850.511906,-2146.597232,-8438.347739,306.438199
2850.512234,-1258.350101,-9548.656652,-1378.971896
2850.512561,0.000000,-9844.739029,-1915.238745
2850.512889,-370.102971,-9178.553681,-383.047749
2850.513216,-2146.597232,-9326.594869,1838.629195
2850.513544,-1036.288319,-10584.944971,1608.800546
2850.513871,1258.350101,-10362.883188,-383.047749
2850.514199,666.185348,-9992.780217,-919.314598
2850.514526,-740.205942,-10510.924376,0.000000
2850.514854,-1776.494261,-10140.821405,0.000000
2850.515181,-1406.391290,-9992.780217,-995.924147
2850.515509,-370.102971,-9400.615463,-2221.676944
2850.515836,-222.061783,-9104.533087,-1608.800546
2850.516164,-1850.514855,-8956.491898,536.266849
2850.516491,-1924.535449,-9104.533087,612.876398
2850.516819,-444.123565,-8586.388927,0.000000
2850.517146,888.247130,-8734.430116,-1072.533697
2850.517474,814.226536,-9104.533087,-995.924147
2850.517801,0.000000,-9474.636058,229.828649
2850.518129,444.123565,-9104.533087,383.047749
2850.518456,2516.700203,-9178.553681,0.000000
2850.518784,2516.700203,-9770.718434,-1378.971896
2850.519112,666.185348,-10584.944971,-842.705048
2850.519439,-518.144159,-11177.109724,0.000000
2850.519767,1036.288319,-11103.089130,-1378.971896
2850.520094,2516.700203,-11251.130318,-2145.067394
2850.520422,2368.659014,-10881.027347,-383.047749
2850.520749,1184.329507,-9548.656652,1608.800546
2850.521077,1406.391290,-8734.430116,1455.581446
2850.521404,2294.638420,-9252.574275,919.314598
2850.521732,2960.823768,-9474.636058,0.000000
2850.522060,2072.576638,-9400.615463,612.876398
2850.522387,370.102971,-8808.450710,919.314598
2850.522715,-518.144159,-9252.574275,383.047749
2850.523043,518.144159,-9770.718434,-689.485948
2850.523370,1628.453072,-9918.759623,-1378.971896
2850.523698,2146.597232,-10362.883188,-536.266849
2850.524026,814.226536,-10214.842000,459.657299
2850.524353,666.185348,-10140.821405,995.924147
2850.524681,2294.638420,-8882.471304,459.657299
2850.525008,1998.556043,-8808.450710,383.047749
2850.525336,296.082377,-7994.224174,1838.629195
2850.525664,-1480.411884,-8216.285956,2145.067394
2850.525991,-888.247130,-9474.636058,0.000000
2850.526319,222.061783,-10214.842000,-1685.410096
2850.526647,296.082377,-9696.697840,-1455.581446
2850.526974,-518.144159,-10214.842000,229.828649
2850.527302,-370.102971,-11177.109724,919.314598
2850.527629,1332.370696,-10214.842000,-689.485948
2850.527957,2442.679609,-10807.006753,-2604.724693
2850.528285,370.102971,-10066.800811,-1072.533697
2850.528612,-1628.453072,-8882.471304,229.828649
2850.528940,-2072.576638,-8290.306550,229.828649
2850.529268,-666.185348,-9326.594869,0.000000
2850.529595,74.020594,-9770.718434,-919.314598
2850.529923,-740.205942,-9770.718434,153.219100
2850.530250,-1554.432478,-9400.615463,383.047749
2850.530578,-1036.288319,-9992.780217,-1149.143247
2850.530906,-592.164754,-9992.780217,-1838.629195
2850.531233,-1480.411884,-9770.718434,-1378.971896
2850.531561,-2516.700203,-9696.697840,-229.828649
2850.531889,-1776.494261,-10214.842000,383.047749
2850.532216,148.041188,-10658.965565,153.219100
2850.532544,1184.329507,-10288.862594,-459.657299
2850.532871,444.123565,-10066.800811,0.000000
2850.533199,-1702.473667,-9992.780217,76.609550
2850.533527,-814.226536,-10140.821405,-383.047749
2850.533854,1406.391290,-9474.636058,-1838.629195
2850.534182,2294.638420,-9844.739029,-766.095498
2850.534510,1036.288319,-9326.594869,995.924147
2850.534837,-370.102971,-8438.347739,1532.190996
2850.535165,-74.020594,-8956.491898,1149.143247
2850.535492,962.267725,-9252.574275,306.438199
2850.535820,1628.453072,-9178.553681,0.000000
2850.536148,148.041188,-9104.533087,612.876398
2850.536475,-1258.350101,-9104.533087,612.876398
2850.536803,-592.164754,-8290.306550,229.828649
2850.537131,1480.411884,-8364.327145,-1455.581446
2850.537458,666.185348,-9400.615463,0.000000
2850.537786,0.000000,-10658.965565,689.485948
2850.538114,740.205942,-11177.109724,153.219100
2850.538441,2516.700203,-11177.109724,-1378.971896
2850.538769,3108.864956,-10510.924376,-1532.190996
2850.539096,1184.329507,-9770.718434,0.000000
2850.539424,0.000000,-10214.842000,919.314598
2850.539752,2294.638420,-10288.862594,76.609550
2850.540079,4441.235652,-10658.965565,-1072.533697
2850.540407,3849.070898,-10140.821405,0.000000
2850.540735,1480.411884,-8956.491898,1762.019645
2850.541062,-1628.453072,-7550.100608,1838.629195
2850.541390,-2072.576638,-8512.368333,-229.828649
2850.541717,0.000000,-9844.739029,-2757.943793
2850.542045,0.000000,-8882.471304,-2911.162892
2850.542373,-666.185348,-8882.471304,-612.876398
2850.542700,-370.102971,-9326.594869,1149.143247
2850.543028,1406.391290,-10362.883188,842.705048
2850.543356,2368.659014,-11251.130318,-306.438199
2850.543683,814.226536,-10362.883188,-766.095498
2850.544011,-518.144159,-9992.780217,-153.219100
2850.544338,-296.082377,-10214.842000,-612.876398
2850.544666,1036.288319,-10436.903782,-919.314598
2850.544994,888.247130,-9474.636058,-536.266849
2850.545321,0.000000,-9474.636058,536.266849
2850.545649,-814.226536,-10140.821405,1149.143247
2850.545977,148.041188,-9104.533087,306.438199
2850.546304,1776.494261,-8512.368333,-1455.581446
2850.546632,296.082377,-9104.533087,-1225.752797
2850.546959,-1554.432478,-9104.533087,766.095498
2850.547287,-2368.659014,-8216.285956,919.314598
2850.547615,-1850.514855,-8512.368333,0.000000
2850.547942,0.000000,-9548.656652,-919.314598
2850.548270,-518.144159,-10140.821405,-919.314598
2850.548598,-1480.411884,-9622.677246,-995.924147
2850.548925,-1776.494261,-9622.677246,76.609550
2850.549253,-740.205942,-10288.862594,-842.705048
2850.549580,-370.102971,-10214.842000,-536.266849
2850.549908,-1258.350101,-9326.594869,-153.219100
2850.550236,-1036.288319,-9548.656652,-306.438199
2850.550563,740.205942,-10658.965565,-1378.971896
2850.550891,1998.556043,-10362.883188,0.000000
2850.551219,2220.617826,-10658.965565,995.924147
2850.551546,740.205942,-9622.677246,1608.800546
2850.551874,-296.082377,-9696.697840,1455.581446
2850.552202,1110.308913,-10140.821405,-536.266849
2850.552529,2368.659014,-10881.027347,-2528.115143
2850.552857,1480.411884,-10807.006753,-1149.143247
2850.553184,0.000000,-10362.883188,153.219100
2850.553512,-1406.391290,-9030.512492,689.485948
2850.553840,-740.205942,-9474.636058,153.219100
2850.554167,740.205942,-9400.615463,-689.485948
2850.554495,0.000000,-9104.533087,-383.047749
2850.554823,-1628.453072,-8660.409521,383.047749
2850.555150,-814.226536,-7994.224174,0.000000
2850.555478,740.205942,-8068.244768,0.000000
2850.555805,814.226536,-8364.327145,153.219100
2850.556133,666.185348,-9696.697840,919.314598
2850.556461,888.247130,-10436.903782,383.047749
2850.556788,1998.556043,-10881.027347,-383.047749
2850.557116,3256.906145,-10881.027347,-1149.143247
2850.557444,1924.535449,-10140.821405,0.000000
2850.557771,222.061783,-10140.821405,1225.752797
2850.558099,518.144159,-9252.574275,76.609550
2850.558426,1850.514855,-9400.615463,-689.485948
2850.558754,2738.761985,-10510.924376,-995.924147
2850.559082,1110.308913,-9548.656652,0.000000
2850.559409,-1406.391290,-7624.121203,536.266849
2850.559737,-1924.535449,-8364.327145,-153.219100
2850.560065,-666.185348,-9622.677246,-1532.190996
2850.560392,0.000000,-9770.718434,-919.314598
2850.560720,0.000000,-9400.615463,-689.485948
2850.561047,-296.082377,-9622.677246,-536.266849
2850.561375,370.102971,-10362.883188,-766.095498
2850.561703,1554.432478,-10732.986159,-306.438199
2850.562030,1332.370696,-11029.068536,-612.876398
2850.562358,-370.102971,-9622.677246,229.828649
2850.562686,0.000000,-9474.636058,-153.219100
2850.563013,1110.308913,-9770.718434,-1072.533697
2850.563341,1480.411884,-9474.636058,-612.876398
2850.563668,222.061783,-9178.553681,919.314598
2850.563996,-1554.432478,-8808.450710,919.314598
2850.564324,-1332.370696,-9622.677246,0.000000
2850.564651,592.164754,-10214.842000,-1455.581446
2850.564979,1702.473667,-9474.636058,-1455.581446
2850.565307,666.185348,-9992.780217,766.095498
2850.565634,-962.267725,-9622.677246,1991.848295
2850.565962,-1110.308913,-9252.574275,612.876398
2850.566290,0.000000,-9548.656652,-1149.143247
2850.566617,0.000000,-10066.800811,-1608.800546
2850.566945,-1998.556043,-9326.594869,0.000000
2850.567272,-1924.535449,-8364.327145,0.000000
2850.567600,-592.164754,-8438.347739,-229.828649
2850.567928,1036.288319,-9918.759623,0.000000
2850.568255,814.226536,-11325.150913,919.314598
2850.568583,74.020594,-10288.862594,1685.410096
2850.568911,444.123565,-9030.512492,76.609550
2850.569238,296.082377,-9844.739029,-1302.362347
2850.569566,-296.082377,-9474.636058,-995.924147
2850.569893,-814.226536,-9400.615463,689.485948
2850.570221,-592.164754,-9844.739029,919.314598
2850.570549,518.144159,-10214.842000,-383.047749
2850.570876,1850.514855,-11029.068536,-1991.848295
2850.571204,962.267725,-10436.903782,-842.705048
2850.571532,-888.247130,-9252.574275,-383.047749
2850.571859,-1702.473667,-9326.594869,-766.095498
2850.572187,-296.082377,-9400.615463,-1685.410096
2850.572514,1998.556043,-9844.739029,-842.705048
2850.572842,2812.782580,-9770.718434,76.609550
2850.573170,1628.453072,-9400.615463,2145.067394
2850.573497,740.205942,-9030.512492,1915.238745
2850.573825,888.247130,-8956.491898,153.219100
2850.574153,1036.288319,-9474.636058,-842.705048
2850.574480,-370.102971,-9918.759623,-1149.143247
2850.574808,-1332.370696,-9548.656652,-612.876398
2850.575135,-888.247130,-9326.594869,-689.485948
2850.575463,1184.329507,-10288.862594,-919.314598
2850.575791,2072.576638,-10807.006753,-306.438199
2850.576118,444.123565,-10436.903782,842.705048
2850.576446,148.041188,-9918.759623,0.000000
2850.576774,1702.473667,-9474.636058,-1915.238745
2850.577101,2812.782580,-9844.739029,-1838.629195
2850.577429,1776.494261,-9326.594869,612.876398
2850.577756,-296.082377,-8586.388927,2068.457845
2850.578084,-296.082377,-9030.512492,919.314598
2850.578412,740.205942,-10510.924376,-689.485948
2850.578739,1184.329507,-10140.821405,-612.876398
2850.579067,518.144159,-9252.574275,0.000000
2850.579395,-1332.370696,-9104.533087,229.828649
2850.579722,-2294.638420,-9252.574275,383.047749
2850.580050,-666.185348,-9252.574275,-459.657299
2850.580378,666.185348,-8734.430116,-459.657299
2850.580705,-592.164754,-8512.368333,689.485948
2850.581033,-888.247130,-8808.450710,766.095498
2850.581360,-296.082377,-9844.739029,229.828649
2850.581688,1258.350101,-10436.903782,-995.924147
2850.582016,1554.432478,-10140.821405,-766.095498
2850.582343,74.020594,-10658.965565,0.000000
2850.582671,518.144159,-10807.006753,-229.828649
2850.582999,2368.659014,-11103.089130,-1532.190996
2850.583326,3478.967927,-11029.068536,-842.705048
2850.583654,1850.514855,-10214.842000,766.095498
2850.583981,0.000000,-9400.615463,1762.019645
2850.584309,-814.226536,-7920.203579,1149.143247
2850.584637,0.000000,-8586.388927,-229.828649
2850.584964,444.123565,-9696.697840,-459.657299
2850.585292,-740.205942,-8586.388927,1225.752797
2850.585620,-1776.494261,-7846.182985,766.095498
2850.585947,-1258.350101,-8586.388927,229.828649
2850.586275,0.000000,-10362.883188,-1072.533697
2850.586602,370.102971,-10955.047942,-1378.971896
2850.586930,-518.144159,-10214.842000,-919.314598
2850.587258,-2072.576638,-9474.636058,0.000000
2850.587585,-888.247130,-10584.944971,-229.828649
2850.587913,370.102971,-9548.656652,-612.876398
2850.588241,888.247130,-9770.718434,-1072.533697
2850.588568,370.102971,-9696.697840,0.000000
2850.588896,740.205942,-9844.739029,0.000000
2850.589223,2368.659014,-9844.739029,0.000000
2850.589551,2886.803174,-10066.800811,0.000000
2850.589879,1628.453072,-9770.718434,1149.143247
2850.590206,-370.102971,-9252.574275,919.314598
2850.590534,-888.247130,-9548.656652,-229.828649
2850.590862,1406.391290,-10140.821405,-1608.800546
2850.591189,1998.556043,-10510.924376,-1378.971896
2850.591517,592.164754,-9696.697840,306.438199
2850.591844,-1110.308913,-9104.533087,2068.457845
2850.592172,-740.205942,-9030.512492,383.047749
2850.592500,518.144159,-9400.615463,-1608.800546
2850.592827,-370.102971,-9252.574275,-1302.362347
2850.593155,-1110.308913,-9474.636058,-766.095498
2850.593483,-962.267725,-9548.656652,-383.047749
2850.593810,518.144159,-9400.615463,-689.485948
2850.594138,1924.535449,-9474.636058,-383.047749
2850.594466,2220.617826,-10066.800811,76.609550
2850.594793,1924.535449,-10436.903782,1302.362347
2850.595121,2368.659014,-10807.006753,689.485948
2850.595448,3552.988522,-11029.068536,-919.314598
2850.595776,2590.720797,-10214.842000,-306.438199
2850.596104,444.123565,-9104.533087,1072.533697
2850.596431,-1332.370696,-7476.080014,995.924147
2850.596759,-1258.350101,-9178.553681,-919.314598
2850.597087,222.061783,-10140.821405,-1149.143247
2850.597414,296.082377,-9992.780217,-842.705048
2850.597742,-1036.288319,-9400.615463,306.438199
2850.598069,-2146.597232,-8586.388927,1378.971896
2850.598397,-1554.432478,-8512.368333,0.000000
2850.598725,-296.082377,-9030.512492,-995.924147
2850.599052,0.000000,-9622.677246,-842.705048
2850.599380,-370.102971,-9696.697840,0.000000
2850.599708,-370.102971,-9992.780217,612.876398
2850.600035,1036.288319,-9844.739029,0.000000
2850.600363,1406.391290,-9918.759623,-306.438199
2850.600690,-296.082377,-10214.842000,153.219100
2850.601018,0.000000,-9918.759623,-689.485948
2850.601346,1406.391290,-9474.636058,-1685.410096
2850.601673,3108.864956,-10066.800811,-766.095498
2850.602001,2368.659014,-10807.006753,689.485948
2850.602329,-296.082377,-8956.491898,2221.676944
2850.602656,-2590.720797,-8290.306550,1608.800546
2850.602984,-2072.576638,-9474.636058,-995.924147
2850.603311,444.123565,-10214.842000,-2757.943793
2850.603639,222.061783,-9918.759623,-1608.800546
2850.603967,-1110.308913,-9030.512492,536.266849
2850.604294,-1702.473667,-9400.615463,919.314598
2850.604622,-592.164754,-10288.862594,-459.657299
2850.604950,74.020594,-9992.780217,-1991.848295
2850.605277,-296.082377,-9696.697840,-2068.457845
2850.605605,-1036.288319,-9252.574275,-383.047749
2850.605933,888.247130,-10140.821405,-1302.362347
2850.606260,2294.638420,-10436.903782,536.266849
2850.606588,2664.741391,-10436.903782,1225.752797
2850.606915,592.164754,-9548.656652,1532.190996
2850.607243,0.000000,-9992.780217,766.095498
2850.607571,1110.308913,-9548.656652,-1532.190996
2850.607898,2442.679609,-9918.759623,-2145.067394
2850.608226,296.082377,-9030.512492,229.828649
2850.608554,-1480.411884,-8512.368333,2451.505594
2850.608881,-1332.370696,-9252.574275,612.876398
2850.609209,0.000000,-10214.842000,-766.095498
2850.609536,962.267725,-10066.800811,-1302.362347
2850.609864,518.144159,-9400.615463,-919.314598
2850.610192,-148.041188,-8882.471304,-306.438199
2850.610519,74.020594,-8956.491898,153.219100
2850.610847,1184.329507,-8808.450710,459.657299
2850.611175,1850.514855,-9474.636058,383.047749
2850.611502,148.041188,-9252.574275,536.266849
2850.611830,-518.144159,-9326.594869,-306.438199
2850.612157,370.102971,-9696.697840,-766.095498
2850.612485,2072.576638,-10955.047942,-383.047749
2850.612813,2294.638420,-11029.068536,153.219100
2850.613140,0.000000,-9474.636058,1225.752797
2850.613468,0.000000,-9770.718434,536.266849
2850.613796,1332.370696,-10140.821405,-919.314598
2850.614123,2738.761985,-10362.883188,-1455.581446
2850.614451,1480.411884,-9918.759623,229.828649
2850.614778,0.000000,-9252.574275,1608.800546
2850.615106,-962.267725,-9400.615463,1378.971896
2850.615434,-296.082377,-9844.739029,-1072.533697
2850.615761,296.082377,-10140.821405,-1762.019645
2850.616089,-370.102971,-9844.739029,-1302.362347
2850.616417,-1332.370696,-9918.759623,-229.828649
2850.616744,-148.041188,-9992.780217,0.000000
2850.617072,1702.473667,-9844.739029,306.438199
2850.617399,962.267725,-9030.512492,919.314598
2850.617727,-592.164754,-8808.450710,1455.581446
2850.618055,-1776.494261,-8956.491898,1149.143247
2850.618382,-1332.370696,-9326.594869,-689.485948
2850.618710,74.020594,-9030.512492,-1302.362347
2850.619038,222.061783,-8734.430116,-383.047749
2850.619365,-296.082377,-9622.677246,1072.533697
2850.619693,222.061783,-9992.780217,153.219100
2850.620021,1480.411884,-10140.821405,-689.485948
2850.620348,2664.741391,-11399.171507,-1762.019645
2850.620676,1258.350101,-10881.027347,-766.095498
2850.621004,-888.247130,-9770.718434,459.657299
2850.621331,-666.185348,-8956.491898,459.657299
2850.621659,962.267725,-9400.615463,0.000000
2850.621987,1406.391290,-8956.491898,-536.266849
2850.622315,-296.082377,-8364.327145,76.609550
2850.622642,-1850.514855,-8142.265362,689.485948
2850.622970,-1258.350101,-8956.491898,-306.438199
2850.623298,0.000000,-9178.553681,-1608.800546
2850.623625,-666.185348,-9770.718434,-1915.238745
2850.623953,-1554.432478,-9844.739029,-306.438199
2850.624281,-1184.329507,-10066.800811,-306.438199
2850.624608,1258.350101,-11177.109724,-995.924147
2850.624936,2294.638420,-11251.130318,-842.705048
2850.625264,1110.308913,-10288.862594,-153.219100
2850.625591,222.061783,-9992.780217,842.705048
2850.625919,0.000000,-9696.697840,306.438199
2850.626247,1110.308913,-9474.636058,-1149.143247
2850.626574,1332.370696,-9918.759623,-1149.143247
2850.626902,-296.082377,-9548.656652,0.000000
2850.627230,-740.205942,-8734.430116,229.828649
2850.627557,444.123565,-9548.656652,0.000000
2850.627885,1850.514855,-10214.842000,0.000000
2850.628213,1998.556043,-10436.903782,306.438199
2850.628541,666.185348,-9548.656652,1149.143247
2850.628868,0.000000,-9474.636058,689.485948
2850.629196,740.205942,-9252.574275,-536.266849
2850.629524,1184.329507,-9178.553681,0.000000
2850.629851,0.000000,-9030.512492,306.438199
2850.630179,-1702.473667,-9400.615463,842.705048
2850.630507,-1406.391290,-9770.718434,0.000000
2850.630834,222.061783,-9770.718434,-1455.581446
2850.631162,1332.370696,-10362.883188,-1685.410096
2850.631490,-518.144159,-9918.759623,0.000000
2850.631817,-1258.350101,-8586.388927,1149.143247
2850.632145,740.205942,-8660.409521,0.000000
2850.632473,1998.556043,-9252.574275,-766.095498
2850.632800,2220.617826,-10214.842000,76.609550
2850.633128,1110.308913,-9918.759623,1455.581446
2850.633456,-148.041188,-8808.450710,1455.581446
2850.633783,0.000000,-9992.780217,-306.438199
2850.634111,1036.288319,-10732.986159,-1225.752797
2850.634439,666.185348,-10214.842000,-1378.971896
2850.634767,-888.247130,-9474.636058,-306.438199
2850.635094,-1110.308913,-10288.862594,-229.828649
2850.635422,0.000000,-9770.718434,-1149.143247
2850.635750,814.226536,-9770.718434,-919.314598
2850.636077,-740.205942,-9622.677246,459.657299
2850.636405,-1850.514855,-9474.636058,919.314598
2850.636733,-888.247130,-9400.615463,459.657299
2850.637060,888.247130,-10066.800811,-842.705048
2850.637388,1036.288319,-9918.759623,-1225.752797
2850.637716,-518.144159,-9474.636058,0.000000
2850.638043,-1110.308913,-10140.821405,383.047749
2850.638371,814.226536,-10362.883188,-2298.286494
2850.638699,1776.494261,-9474.636058,-1762.019645
2850.639026,1850.514855,-10436.903782,-536.266849
2850.639354,814.226536,-10214.842000,842.705048
2850.639682,592.164754,-9104.533087,612.876398
2850.640009,1406.391290,-8808.450710,229.828649
2850.640337,1184.329507,-8808.450710,689.485948
2850.640665,222.061783,-8956.491898,1149.143247
2850.640993,-1998.556043,-8142.265362,1378.971896
2850.641320,-1850.514855,-8660.409521,0.000000
2850.641648,-222.061783,-9918.759623,-1149.143247
2850.641976,814.226536,-11029.068536,-1455.581446
2850.642303,-296.082377,-10436.903782,0.000000
2850.642631,-1776.494261,-10288.862594,383.047749
2850.642959,-370.102971,-10658.965565,-766.095498
2850.643286,1258.350101,-10658.965565,-1762.019645
2850.643614,1184.329507,-9622.677246,-919.314598
2850.643942,74.020594,-8882.471304,612.876398
2850.644269,296.082377,-9104.533087,1149.143247
2850.644597,2590.720797,-10066.800811,0.000000
2850.644925,3701.029710,-10881.027347,76.609550
2850.645252,1184.329507,-10436.903782,459.657299
2850.645580,-444.123565,-9474.636058,229.828649
2850.645908,-888.247130,-9252.574275,-842.705048
2850.646235,0.000000,-10066.800811,-1991.848295
2850.646563,592.164754,-10214.842000,-919.314598
2850.646891,296.082377,-9992.780217,536.266849
2850.647219,-888.247130,-9474.636058,1838.629195
2850.647546,-296.082377,-9252.574275,0.000000
2850.647874,222.061783,-9474.636058,-612.876398
2850.648202,-222.061783,-9474.636058,-919.314598
2850.648529,-1554.432478,-9548.656652,-306.438199
2850.648857,-1332.370696,-9548.656652,-536.266849
2850.649185,74.020594,-10066.800811,-689.485948
2850.649512,2294.638420,-9844.739029,-1072.533697
2850.649840,1258.350101,-9326.594869,-766.095498
2850.650168,148.041188,-9474.636058,842.705048
2850.650495,296.082377,-9474.636058,842.705048
2850.650823,2442.679609,-9696.697840,-766.095498
2850.651151,2886.803174,-9696.697840,-612.876398
2850.651478,1258.350101,-9474.636058,842.705048
2850.651806,-370.102971,-8956.491898,1685.410096
2850.652134,-1184.329507,-7846.182985,919.314598
2850.652461,-296.082377,-8808.450710,-536.266849
2850.652789,444.123565,-9770.718434,-1991.848295
2850.653117,-370.102971,-9622.677246,-842.705048
2850.653445,-740.205942,-9548.656652,153.219100
2850.653772,74.020594,-9770.718434,-383.047749
2850.654100,1036.288319,-10436.903782,-1149.143247
2850.654428,-370.102971,-10214.842000,-766.095498
2850.654755,-1702.473667,-9548.656652,0.000000
2850.655083,0.000000,-9844.739029,-459.657299
2850.655411,1998.556043,-10362.883188,-689.485948
2850.655738,2146.597232,-10140.821405,153.219100
2850.656066,296.082377,-9474.636058,1685.410096
2850.656394,-1184.329507,-9474.636058,1302.362347
2850.656721,-518.144159,-9400.615463,-689.485948
2850.657049,296.082377,-8882.471304,-2374.896044
2850.657377,1258.350101,-10066.800811,-2451.505594
2850.657704,444.123565,-10436.903782,153.219100
2850.658032,-370.102971,-9326.594869,1608.800546
2850.658360,296.082377,-9474.636058,766.095498
2850.658687,1184.329507,-9918.759623,-459.657299
2850.659015,1258.350101,-10584.944971,-229.828649
2850.659343,296.082377,-9844.739029,-229.828649
2850.659670,-74.020594,-9326.594869,0.000000
2850.659998,888.247130,-9178.553681,-536.266849
2850.660326,1554.432478,-9844.739029,-383.047749
2850.660654,-148.041188,-9696.697840,919.314598
2850.660981,-1258.350101,-9178.553681,766.095498
2850.661309,-592.164754,-9030.512492,-153.219100
2850.661637,666.185348,-9400.615463,-2374.896044
2850.661964,1110.308913,-9252.574275,-1532.190996
2850.662292,222.061783,-9178.553681,1072.533697
2850.662620,-444.123565,-9326.594869,2068.457845
2850.662947,592.164754,-9548.656652,536.266849
2850.663275,2294.638420,-10066.800811,-1302.362347
2850.663603,1702.473667,-10140.821405,-1072.533697
2850.663930,296.082377,-10140.821405,0.000000
2850.664258,-1998.556043,-9326.594869,0.000000
2850.664586,-1702.473667,-9400.615463,-306.438199
2850.664913,-370.102971,-9696.697840,-1532.190996
2850.665241,-222.061783,-9918.759623,-1762.019645
2850.665569,-666.185348,-9992.780217,-995.924147
2850.665896,0.000000,-9622.677246,-459.657299
2850.666224,1554.432478,-9400.615463,-383.047749
2850.666552,1850.514855,-9770.718434,0.000000
2850.666880,666.185348,-10140.821405,919.314598
2850.667207,-592.164754,-10214.842000,919.314598
2850.667535,0.000000,-9992.780217,-766.095498
2850.667863,1184.329507,-10510.924376,-2068.457845
2850.668190,740.205942,-10658.965565,-1072.533697
2850.668518,-518.144159,-9474.636058,0.000000
2850.668846,-296.082377,-10140.821405,919.314598
2850.669173,1406.391290,-10288.862594,-306.438199
2850.669501,2960.823768,-10362.883188,-1302.362347
2850.669829,1998.556043,-9770.718434,-153.219100
2850.670156,0.000000,-8438.347739,1072.533697
2850.670484,-1184.329507,-7550.100608,306.438199
2850.670812,-222.061783,-7624.121203,0.000000
2850.671139,0.000000,-8586.388927,-536.266849
2850.671467,296.082377,-9474.636058,153.219100
2850.671795,74.020594,-9178.553681,612.876398
2850.672122,370.102971,-9622.677246,-383.047749
2850.672450,1406.391290,-11029.068536,-766.095498
2850.672778,1184.329507,-11103.089130,-612.876398
2850.673106,0.000000,-9474.636058,689.485948
2850.673433,-740.205942,-9622.677246,306.438199
2850.673761,148.041188,-9474.636058,0.000000
2850.674089,1776.494261,-9474.636058,-383.047749
2850.674416,1480.411884,-9548.656652,459.657299
2850.674744,74.020594,-9770.718434,1455.581446
2850.675072,-148.041188,-9770.718434,-229.828649
2850.675399,592.164754,-9474.636058,-1455.581446
2850.675727,1110.308913,-10362.883188,-2221.676944
2850.676055,222.061783,-10436.903782,-842.705048
2850.676382,-444.123565,-9622.677246,459.657299
2850.676710,-518.144159,-9400.615463,153.219100
2850.677038,740.205942,-10510.924376,-229.828649
2850.677365,2072.576638,-10955.047942,-536.266849
2850.677693,962.267725,-9844.739029,919.314598
2850.678021,-222.061783,-9178.553681,229.828649
2850.678348,-740.205942,-8438.347739,-612.876398
2850.678676,148.041188,-8882.471304,-1455.581446
2850.679004,222.061783,-9548.656652,-612.876398
2850.679332,-1036.288319,-9252.574275,1532.190996
2850.679659,-1998.556043,-9474.636058,1378.971896
2850.679987,-148.041188,-11251.130318,-995.924147
2850.680315,1184.329507,-11695.253884,-1915.238745
2850.680642,1110.308913,-10510.924376,-612.876398
2850.680970,0.000000,-9696.697840,536.266849
2850.681298,74.020594,-9548.656652,612.876398
2850.681625,1628.453072,-9918.759623,-459.657299
2850.681953,2072.576638,-9696.697840,-1149.143247
2850.682281,296.082377,-8956.491898,612.876398
2850.682608,-1036.288319,-7846.182985,1302.362347
2850.682936,-1110.308913,-8142.265362,-459.657299
2850.683264,148.041188,-9622.677246,-1532.190996
2850.683591,740.205942,-10510.924376,-995.924147
2850.683919,-370.102971,-9548.656652,536.266849
2850.684247,-962.267725,-8734.430116,383.047749
2850.684574,0.000000,-8734.430116,229.828649
2850.684902,1258.350101,-9474.636058,-306.438199
2850.685230,444.123565,-9992.780217,536.266849
2850.685558,-1036.288319,-9770.718434,842.705048
2850.685885,-1258.350101,-9400.615463,-383.047749
2850.686213,0.000000,-9622.677246,-1685.410096
2850.686541,296.082377,-10362.883188,-1455.581446
2850.686868,0.000000,-10140.821405,-383.047749
2850.687196,0.000000,-10510.924376,-306.438199
2850.687524,1332.370696,-10807.006753,-995.924147
2850.687851,3182.885551,-10955.047942,-1915.238745
2850.688179,3256.906145,-10584.944971,-229.828649
2850.688507,1850.514855,-9474.636058,1915.238745
2850.688834,74.020594,-7994.224174,2298.286494
2850.689162,296.082377,-8290.306550,1225.752797
2850.689490,1036.288319,-9104.533087,-383.047749
2850.689817,1110.308913,-9918.759623,-153.219100
2850.690145,0.000000,-9474.636058,306.438199
2850.690473,-1258.350101,-9030.512492,612.876398
2850.690800,-444.123565,-9326.594869,-689.485948
2850.691128,296.082377,-9696.697840,-1685.410096
2850.691456,-444.123565,-10362.883188,153.219100
2850.691784,-592.164754,-9918.759623,536.266849
2850.692111,444.123565,-9918.759623,0.000000
2850.692439,1628.453072,-9918.759623,-306.438199
2850.692767,1406.391290,-9918.759623,153.219100
2850.693094,74.020594,-9474.636058,1455.581446
2850.693422,-592.164754,-9178.553681,1685.410096
2850.693750,592.164754,-9474.636058,-383.047749
2850.694077,2368.659014,-10066.800811,-1685.410096
2850.694405,2146.597232,-10510.924376,0.000000
2850.694733,222.061783,-9252.574275,2068.457845
2850.695060,-1702.473667,-8364.327145,1685.410096
2850.695388,-1628.453072,-8512.368333,229.828649
2850.695716,296.082377,-9474.636058,-1838.629195
2850.696043,222.061783,-9474.636058,-689.485948
2850.696371,-1036.288319,-8586.388927,-612.876398
2850.696699,-1036.288319,-8660.409521,76.609550
2850.697026,222.061783,-9474.636058,-842.705048
2850.697354,444.123565,-10288.862594,-1455.581446
2850.697682,-444.123565,-10658.965565,-536.266849
2850.698010,-1628.453072,-10955.047942,-1225.752797
2850.698337,296.082377,-11325.150913,-1762.019645
2850.698665,2220.617826,-11769.274478,-2221.676944
2850.698993,1776.494261,-11029.068536,-766.095498
2850.699320,148.041188,-9918.759623,1838.629195
2850.699648,0.000000,-9178.553681,1838.629195
2850.699976,1036.288319,-8660.409521,-153.219100
2850.700303,1850.514855,-9696.697840,-1608.800546
2850.700631,1258.350101,-9548.656652,-459.657299
2850.700959,-666.185348,-7772.162391,1455.581446
2850.701286,-888.247130,-8364.327145,1225.752797
2850.701614,-370.102971,-9622.677246,0.000000
2850.701942,148.041188,-10362.883188,-1072.533697
2850.702269,0.000000,-10066.800811,-995.924147
2850.702597,-296.082377,-9548.656652,-766.095498
2850.702925,296.082377,-9474.636058,-766.095498
2850.703252,814.226536,-9992.780217,76.609550
2850.703580,0.000000,-9178.553681,1072.533697
2850.703908,-1332.370696,-8438.347739,919.314598
2850.704236,-1924.535449,-8882.471304,-306.438199
2850.704563,0.000000,-9030.512492,-1685.410096
2850.704891,1258.350101,-10140.821405,-1378.971896
2850.705219,888.247130,-10140.821405,153.219100
2850.705546,740.205942,-10584.944971,2068.457845
2850.705874,1258.350101,-10658.965565,689.485948
2850.706202,1998.556043,-10807.006753,-612.876398
2850.706529,2516.700203,-10807.006753,-1149.143247
2850.706857,1406.391290,-9918.759623,76.609550
2850.707185,370.102971,-9844.739029,459.657299
2850.707512,-740.205942,-8660.409521,612.876398
2850.707840,0.000000,-8438.347739,459.657299
2850.708168,1406.391290,-9696.697840,0.000000
2850.708495,592.164754,-10140.821405,0.000000
2850.708823,-1406.391290,-9474.636058,0.000000
2850.709151,-962.267725,-8068.244768,-1225.752797
2850.709478,740.205942,-8364.327145,-1991.848295
2850.709806,888.247130,-10140.821405,-842.705048
2850.710134,0.000000,-10436.903782,1149.143247
2850.710462,-222.061783,-10140.821405,1302.362347
2850.710789,2220.617826,-10732.986159,-536.266849
2850.711117,3034.844362,-11695.253884,-1532.190996
2850.711445,1110.308913,-11103.089130,-612.876398
2850.711772,-740.205942,-9474.636058,1225.752797
2850.712100,74.020594,-8956.491898,0.000000
2850.712428,1702.473667,-9548.656652,-1915.238745
2850.712755,1924.535449,-10288.862594,-842.705048
2850.713083,222.061783,-9104.533087,1225.752797
2850.713411,-888.247130,-8586.388927,1685.410096
2850.713738,-962.267725,-9030.512492,306.438199
2850.714066,0.000000,-10066.800811,-306.438199
2850.714394,-444.123565,-9770.718434,-306.438199
2850.714721,-518.144159,-7994.224174,-229.828649
2850.715049,-592.164754,-8660.409521,153.219100
2850.715377,592.164754,-9992.780217,-459.657299
2850.715704,814.226536,-10510.924376,-459.657299
2850.716032,0.000000,-9252.574275,0.000000
2850.716360,-1036.288319,-8734.430116,-229.828649
2850.716688,-740.205942,-10584.944971,-919.314598
2850.717015,0.000000,-9400.615463,-1838.629195
2850.717343,1480.411884,-9548.656652,-1302.362347
2850.717671,814.226536,-9844.739029,766.095498
2850.717998,74.020594,-9844.739029,1302.362347
2850.718326,222.061783,-9770.718434,612.876398
2850.718654,1110.308913,-9992.780217,-766.095498
2850.718981,1332.370696,-9992.780217,-536.266849
2850.719309,962.267725,-9770.718434,459.657299
2850.719637,-1110.308913,-8956.491898,536.266849
2850.719964,-666.185348,-9918.759623,-612.876398
2850.720292,888.247130,-10658.965565,-1838.629195
2850.720620,370.102971,-10732.986159,-1378.971896
2850.720947,-962.267725,-9992.780217,-766.095498
2850.721275,-444.123565,-8438.347739,-536.266849
2850.721603,592.164754,-7994.224174,-1225.752797
2850.721930,1628.453072,-10140.821405,0.000000
2850.722258,296.082377,-10436.903782,1608.800546
2850.722585,-1110.308913,-9696.697840,1838.629195
2850.722913,-962.267725,-9474.636058,229.828649
2850.723241,222.061783,-9770.718434,-995.924147
2850.723568,518.144159,-9770.718434,-1532.190996
2850.723896,-740.205942,-9474.636058,229.828649
2850.724224,-814.226536,-9918.759623,612.876398
2850.724551,666.185348,-9844.739029,-689.485948
2850.724879,1628.453072,-9992.780217,-1302.362347
2850.725207,1110.308913,-10140.821405,306.438199
2850.725534,-148.041188,-9030.512492,1072.533697
2850.725862,-666.185348,-8068.244768,306.438199
2850.726189,740.205942,-8882.471304,-766.095498
2850.726517,2146.597232,-9992.780217,-306.438199
2850.726845,1406.391290,-9548.656652,766.095498
2850.727172,0.000000,-8364.327145,1072.533697
2850.727500,-888.247130,-8438.347739,383.047749
2850.727828,148.041188,-9400.615463,-1225.752797
2850.728155,814.226536,-10510.924376,-1149.143247
2850.728483,74.020594,-9770.718434,-229.828649
2850.728810,-962.267725,-9844.739029,0.000000
2850.729138,-518.144159,-10288.862594,-229.828649
2850.729466,1406.391290,-10362.883188,-1149.143247
2850.729793,1480.411884,-9696.697840,-919.314598
2850.730121,222.061783,-9844.739029,842.705048
2850.730449,0.000000,-10658.965565,0.000000
2850.730776,1480.411884,-10362.883188,-1072.533697
2850.731104,1924.535449,-10288.862594,-2068.457845
2850.731431,222.061783,-10436.903782,-383.047749
2850.731759,-1480.411884,-9844.739029,536.266849
2850.732087,-1480.411884,-10362.883188,0.000000
2850.732414,222.061783,-9844.739029,-766.095498
2850.732742,1036.288319,-10066.800811,-842.705048
2850.733070,222.061783,-8882.471304,842.705048
2850.733397,-888.247130,-7994.224174,1532.190996
2850.733725,-592.164754,-7698.141797,153.219100
2850.734053,222.061783,-9326.594869,-995.924147
2850.734380,222.061783,-9696.697840,-383.047749
2850.734708,148.041188,-9474.636058,536.266849
2850.735035,0.000000,-9326.594869,1149.143247
2850.735363,370.102971,-9992.780217,-306.438199
2850.735691,1110.308913,-11103.089130,-766.095498
2850.736018,592.164754,-11029.068536,229.828649
2850.736346,0.000000,-10066.800811,306.438199
2850.736674,0.000000,-9178.553681,-229.828649
2850.737001,962.267725,-8808.450710,-995.924147
2850.737329,1184.329507,-9030.512492,0.000000
2850.737656,518.144159,-9400.615463,1455.581446
2850.737984,-1332.370696,-8364.327145,1302.362347
2850.738312,-1110.308913,-8216.285956,-689.485948
2850.738639,444.123565,-9474.636058,-1762.019645
2850.738967,1036.288319,-10510.924376,-842.705048
2850.739295,370.102971,-10362.883188,842.705048
2850.739622,444.123565,-10066.800811,1225.752797
2850.739950,1184.329507,-9474.636058,-536.266849
2850.740278,1924.535449,-10510.924376,-1991.848295
2850.740605,740.205942,-10955.047942,-459.657299
2850.740933,-666.185348,-10288.862594,766.095498
2850.741260,-1258.350101,-9400.615463,536.266849
2850.741588,-592.164754,-9178.553681,-1072.533697
2850.741916,0.000000,-9622.677246,-1455.581446
2850.742243,-666.185348,-9252.574275,-229.828649
2850.742571,-370.102971,-10066.800811,-766.095498
2850.742899,814.226536,-10881.027347,-2068.457845
2850.743226,2738.761985,-11399.171507,-2145.067394
2850.743554,3256.906145,-10955.047942,-306.438199
2850.743881,2294.638420,-10066.800811,2068.457845
2850.744209,666.185348,-9178.553681,2681.334243
2850.744537,518.144159,-9474.636058,0.000000
2850.744864,1110.308913,-9474.636058,-1685.410096
2850.745192,222.061783,-8216.285956,-1072.533697
2850.745520,-1332.370696,-7402.059420,689.485948
2850.745847,-1184.329507,-7624.121203,1302.362347
2850.746175,740.205942,-8364.327145,-229.828649
2850.746502,1406.391290,-9326.594869,-919.314598
2850.746830,0.000000,-9178.553681,842.705048
2850.747158,-296.082377,-9400.615463,459.657299
2850.747485,0.000000,-9548.656652,-459.657299
2850.747813,1110.308913,-10214.842000,-1072.533697
2850.748141,1924.535449,-10288.862594,0.000000
2850.748468,1332.370696,-9770.718434,1532.190996
2850.748796,1184.329507,-9844.739029,1149.143247
2850.749124,1776.494261,-11103.089130,-306.438199
2850.749451,1332.370696,-10658.965565,-1991.848295
2850.749779,592.164754,-10288.862594,-1532.190996
2850.750106,-1110.308913,-9252.574275,-153.219100
2850.750434,-2220.617826,-8660.409521,306.438199
2850.750762,-1332.370696,-8364.327145,-306.438199
2850.751089,740.205942,-9844.739029,-1225.752797
2850.751417,1702.473667,-10732.986159,0.000000
2850.751745,0.000000,-9474.636058,1225.752797
2850.752072,-1184.329507,-8660.409521,1302.362347
2850.752400,-296.082377,-9548.656652,-689.485948
2850.752727,444.123565,-11251.130318,-1532.190996
2850.753055,-666.185348,-10732.986159,-459.657299
2850.753383,-1924.535449,-9622.677246,-229.828649
2850.753710,-1332.370696,-9918.759623,-766.095498
2850.754038,296.082377,-10732.986159,-1455.581446
2850.754366,222.061783,-10584.944971,-459.657299
2850.754693,-296.082377,-9474.636058,1072.533697
2850.755021,148.041188,-8142.265362,1225.752797
2850.755349,1628.453072,-8216.285956,0.000000
2850.755676,2516.700203,-8586.388927,383.047749
2850.756004,1480.411884,-8808.450710,2068.457845
2850.756331,-666.185348,-8216.285956,2681.334243
2850.756659,-1702.473667,-8512.368333,919.314598
2850.756987,-962.267725,-9770.718434,-1608.800546
2850.757314,740.205942,-11029.068536,-1915.238745
2850.757642,370.102971,-11029.068536,-153.219100
2850.757970,0.000000,-9770.718434,229.828649
2850.758297,-444.123565,-9326.594869,-383.047749
2850.758625,888.247130,-9548.656652,-1532.190996
2850.758952,740.205942,-9326.594869,-995.924147
2850.759280,-740.205942,-8364.327145,536.266849
2850.759608,-1110.308913,-8364.327145,612.876398
2850.759935,1184.329507,-9696.697840,-459.657299
2850.760263,2812.782580,-10362.883188,-689.485948
2850.760591,1998.556043,-10288.862594,383.047749
2850.760918,0.000000,-10732.986159,1149.143247
2850.761246,0.000000,-10807.006753,-689.485948
2850.761573,1184.329507,-10732.986159,-3217.601092
2850.761901,1480.411884,-11177.109724,-2604.724693
2850.762229,444.123565,-10140.821405,0.000000
2850.762556,0.000000,-9770.718434,1915.238745
2850.762884,74.020594,-9918.759623,536.266849
2850.763212,518.144159,-9844.739029,-842.705048
2850.763539,222.061783,-9474.636058,-919.314598
2850.763867,-444.123565,-8438.347739,-459.657299
2850.764195,-518.144159,-8142.265362,-306.438199
2850.764522,222.061783,-8660.409521,76.609550
2850.764850,1998.556043,-8512.368333,-766.095498
2850.765177,1258.350101,-9548.656652,919.314598
2850.765505,148.041188,-10288.862594,1685.410096
2850.765833,-148.041188,-9474.636058,229.828649
2850.766160,296.082377,-10214.842000,-1149.143247
2850.766488,1036.288319,-10881.027347,-995.924147
2850.766816,444.123565,-9400.615463,919.314598
2850.767143,296.082377,-8882.471304,2221.676944
2850.767471,-222.061783,-8586.388927,1149.143247
2850.767798,666.185348,-9030.512492,-459.657299
2850.768126,888.247130,-9770.718434,-536.266849
2850.768454,-222.061783,-9326.594869,383.047749
2850.768781,-1110.308913,-8586.388927,919.314598
2850.769109,-592.164754,-8512.368333,-153.219100
2850.769437,814.226536,-9844.739029,-1455.581446
2850.769764,1110.308913,-11029.068536,0.000000
2850.770092,74.020594,-10510.924376,842.705048
2850.770420,-222.061783,-9548.656652,612.876398
2850.770747,814.226536,-9104.533087,-1149.143247
2850.771075,1480.411884,-10214.842000,-1532.190996
2850.771402,148.041188,-10436.903782,459.657299
2850.771730,-1110.308913,-9252.574275,1685.410096
2850.772058,-1628.453072,-8290.306550,0.000000
2850.772385,-814.226536,-9326.594869,-2145.067394
2850.772713,0.000000,-10732.986159,-2298.286494
2850.773041,-370.102971,-11177.109724,0.000000
2850.773368,-296.082377,-10288.862594,842.705048
2850.773696,1406.391290,-9918.759623,-1455.581446
2850.774023,2516.700203,-10584.944971,-1302.362347
2850.774351,1628.453072,-11547.212695,0.000000
2850.774679,814.226536,-10584.944971,919.314598
2850.775006,74.020594,-9030.512492,536.266849
2850.775334,370.102971,-8660.409521,-689.485948
2850.775662,740.205942,-9548.656652,-766.095498
2850.775989,-222.061783,-9400.615463,689.485948
2850.776317,-1332.370696,-7772.162391,1072.533697
2850.776644,-1110.308913,-8364.327145,-459.657299
2850.776972,0.000000,-8956.491898,-2145.067394
2850.777300,666.185348,-9030.512492,-1149.143247
2850.777627,222.061783,-9178.553681,766.095498
2850.777955,0.000000,-9252.574275,1302.362347
2850.778283,148.041188,-9622.677246,766.095498
2850.778610,1850.514855,-10066.800811,0.000000
2850.778938,2220.617826,-10288.862594,0.000000
2850.779266,814.226536,-10140.821405,1072.533697
2850.779593,74.020594,-10214.842000,842.705048
2850.779921,666.185348,-9992.780217,-1225.752797
2850.780248,518.144159,-9844.739029,-2374.896044
2850.780576,0.000000,-9992.780217,-1532.190996
2850.780904,0.000000,-9474.636058,-919.314598
2850.781231,0.000000,-9474.636058,-536.266849
2850.781559,1332.370696,-10066.800811,-1072.533697
2850.781887,2442.679609,-10436.903782,-383.047749
2850.782214,1702.473667,-10807.006753,1149.143247
2850.782542,0.000000,-9992.780217,1915.238745
2850.782869,296.082377,-9104.533087,76.609550
2850.783197,814.226536,-8808.450710,-2604.724693
2850.783525,444.123565,-10288.862594,-1915.238745
2850.783852,-1036.288319,-10584.944971,76.609550
2850.784180,-1776.494261,-9548.656652,1455.581446
2850.784508,0.000000,-9474.636058,-383.047749
2850.784835,962.267725,-11029.068536,-1455.581446
2850.785163,666.185348,-11177.109724,-306.438199
2850.785491,0.000000,-8586.388927,1685.410096
2850.785818,222.061783,-8142.265362,1302.362347
2850.786146,1036.288319,-8586.388927,-612.876398
2850.786473,1184.329507,-9770.718434,-229.828649
2850.786801,1036.288319,-10140.821405,1455.581446
2850.787129,222.061783,-9696.697840,1915.238745
2850.787456,222.061783,-9252.574275,76.609550
2850.787784,0.000000,-9104.533087,-2145.067394
2850.788112,-222.061783,-10362.883188,-2145.067394
2850.788439,-814.226536,-10214.842000,76.609550
2850.788767,-1628.453072,-8586.388927,842.705048
2850.789094,-888.247130,-7846.182985,-306.438199
2850.789422,592.164754,-9252.574275,-766.095498
2850.789750,814.226536,-9474.636058,-229.828649
2850.790077,-1110.308913,-9400.615463,1532.190996
2850.790405,-2294.638420,-9252.574275,1532.190996
2850.790733,-814.226536,-9622.677246,-1455.581446
2850.791060,814.226536,-11029.068536,-2451.505594
2850.791388,444.123565,-11325.150913,-1149.143247
2850.791716,-296.082377,-10732.986159,689.485948
2850.792043,74.020594,-10362.883188,0.000000
2850.792371,1036.288319,-10066.800811,-536.266849
2850.792698,1184.329507,-10362.883188,-1302.362347
2850.793026,296.082377,-9770.718434,0.000000
2850.793354,-296.082377,-8808.450710,689.485948
2850.793681,222.061783,-8660.409521,0.000000
2850.794009,888.247130,-8586.388927,-842.705048
2850.794337,296.082377,-9178.553681,0.000000
2850.794664,-1036.288319,-8586.388927,1838.629195
2850.794992,-1850.514855,-7772.162391,459.657299
2850.795319,-592.164754,-9622.677246,-1915.238745
2850.795647,74.020594,-11769.274478,-2528.115143
2850.795975,888.247130,-11621.233289,-995.924147
2850.796302,814.226536,-10658.965565,689.485948
2850.796630,148.041188,-10436.903782,536.266849
2850.796958,1036.288319,-10658.965565,-689.485948
2850.797285,814.226536,-9104.533087,-766.095498
2850.797613,-296.082377,-8586.388927,536.266849
2850.797940,0.000000,-8512.368333,842.705048
2850.798268,370.102971,-8364.327145,-306.438199
2850.798596,1924.535449,-9104.533087,-995.924147
2850.798923,2368.659014,-10584.944971,-229.828649
2850.799251,1628.453072,-10658.965565,1685.410096
2850.799579,-296.082377,-9252.574275,1378.971896
2850.799906,592.164754,-8438.347739,-1072.533697
2850.800234,1702.473667,-9770.718434,-1991.848295
2850.800562,888.247130,-11251.130318,306.438199
2850.800889,0.000000,-9918.759623,1838.629195
2850.801217,74.020594,-8290.306550,1225.752797
2850.801544,888.247130,-8660.409521,-1762.019645
2850.801872,-518.144159,-9474.636058,-2221.676944
2850.802200,-592.164754,-10510.924376,-536.266849
2850.802527,-1406.391290,-9918.759623,229.828649
2850.802855,0.000000,-10140.821405,-1302.362347
2850.803183,1480.411884,-11029.068536,-1915.238745
2850.803510,2072.576638,-10732.986159,0.000000
2850.803838,1554.432478,-10362.883188,2451.505594
2850.804165,814.226536,-9696.697840,2374.896044
2850.804493,1184.329507,-9474.636058,-383.047749
2850.804821,1776.494261,-10732.986159,-1378.971896
2850.805148,1332.370696,-10214.842000,-229.828649
2850.805476,0.000000,-8882.471304,1149.143247
2850.805804,-1480.411884,-8438.347739,1608.800546
2850.806131,-2072.576638,-9252.574275,-459.657299
2850.806459,-740.205942,-8734.430116,-2528.115143
2850.806787,-666.185348,-9474.636058,-995.924147
2850.807114,0.000000,-10214.842000,383.047749
2850.807442,222.061783,-10066.800811,612.876398
2850.807769,1110.308913,-8808.450710,-536.266849
2850.808097,74.020594,-8956.491898,-459.657299
2850.808425,-666.185348,-11103.089130,1072.533697
2850.808752,-1110.308913,-10214.842000,536.266849
2850.809080,-1406.391290,-9252.574275,-766.095498
2850.809408,296.082377,-10066.800811,-1685.410096
2850.809735,2220.617826,-11251.130318,-919.314598
2850.810063,666.185348,-9622.677246,1685.410096
2850.810390,0.000000,-8956.491898,1455.581446
2850.810718,-296.082377,-8808.450710,-1072.533697
2850.811046,888.247130,-10658.965565,-1762.019645
2850.811373,518.144159,-9844.739029,-689.485948
2850.811701,0.000000,-8882.471304,1072.533697
2850.812029,-222.061783,-7105.977043,919.314598
2850.812356,888.247130,-9622.677246,153.219100
2850.812684,1406.391290,-11621.233289,-459.657299
2850.813011,888.247130,-10881.027347,-995.924147
2850.813339,-518.144159,-8956.491898,-612.876398
2850.813667,296.082377,-9252.574275,-1378.971896
2850.813994,0.000000,-9696.697840,-1915.238745
2850.814322,74.020594,-10732.986159,-612.876398
2850.814650,-518.144159,-10658.965565,1302.362347
2850.814977,-888.247130,-10140.821405,1149.143247
2850.815305,444.123565,-9622.677246,-1302.362347
2850.815633,1480.411884,-9474.636058,-995.924147
2850.815960,1776.494261,-9918.759623,536.266849
2850.816288,888.247130,-9844.739029,2298.286494
2850.816615,222.061783,-9252.574275,1149.143247
2850.816943,962.267725,-9252.574275,-1149.143247
2850.817271,1776.494261,-9992.780217,-1225.752797
2850.817598,1332.370696,-10584.944971,612.876398
2850.817926,592.164754,-9918.759623,1608.800546
2850.818254,0.000000,-8586.388927,0.000000
2850.818581,444.123565,-8364.327145,-1455.581446
2850.818909,296.082377,-9474.636058,-612.876398
2850.819236,0.000000,-9696.697840,1225.752797
2850.819564,-518.144159,-8290.306550,766.095498
2850.819892,370.102971,-7550.100608,-1762.019645
2850.820219,1036.288319,-8512.368333,-1838.629195
2850.820547,0.000000,-10140.821405,-612.876398
2850.820875,-1184.329507,-10881.027347,1455.581446
2850.821202,-1628.453072,-9918.759623,0.000000
2850.821530,0.000000,-10214.842000,-2528.115143
2850.821858,1332.370696,-11621.233289,-3064.381992
2850.822185,1036.288319,-10881.027347,0.000000
2850.822513,444.123565,-9844.739029,2451.505594
2850.822840,740.205942,-9474.636058,383.047749
2850.823168,1554.432478,-10436.903782,-1302.362347
2850.823496,1184.329507,-10510.924376,-995.924147
2850.823823,0.000000,-9252.574275,689.485948
2850.824151,-1924.535449,-7846.182985,919.314598
2850.824479,-1850.514855,-8216.285956,-689.485948
2850.824806,-1184.329507,-9770.718434,-2298.286494
2850.825134,-592.164754,-11621.233289,-2068.457845
2850.825462,-296.082377,-11325.150913,-536.266849
2850.825789,444.123565,-9918.759623,-689.485948
2850.826117,1332.370696,-9548.656652,-1608.800546
2850.826445,1702.473667,-10066.800811,-842.705048
2850.826772,1406.391290,-10881.027347,536.266849
2850.827100,-666.185348,-9992.780217,2145.067394
2850.827428,-814.226536,-9474.636058,76.609550
2850.827755,74.020594,-9252.574275,-1991.848295
2850.828083,222.061783,-9770.718434,-1685.410096
2850.828411,-222.061783,-9770.718434,536.266849
2850.828738,-962.267725,-8660.409521,2221.676944
2850.829066,222.061783,-8660.409521,459.657299
2850.829394,2072.576638,-10436.903782,-1225.752797
2850.829721,2368.659014,-11029.068536,-306.438199
2850.830049,148.041188,-9178.553681,2451.505594
2850.830377,-592.164754,-7105.977043,1685.410096
2850.830704,-666.185348,-7031.956449,-689.485948
2850.831032,296.082377,-9030.512492,-1685.410096
2850.831360,740.205942,-10214.842000,306.438199
2850.831687,666.185348,-9474.636058,1072.533697
2850.832015,592.164754,-8882.471304,0.000000
2850.832343,518.144159,-9030.512492,-2298.286494
2850.832670,74.020594,-10066.800811,-2451.505594
2850.832998,-370.102971,-11473.192101,-459.657299
2850.833325,0.000000,-10584.944971,1149.143247
2850.833653,1110.308913,-10066.800811,-842.705048
2850.833981,2590.720797,-9844.739029,-995.924147
2850.834308,2664.741391,-10955.047942,229.828649
2850.834636,1332.370696,-10881.027347,1838.629195
2850.834964,296.082377,-10288.862594,766.095498
2850.835291,370.102971,-9326.594869,-2221.676944
2850.835619,1258.350101,-10288.862594,-3600.648841
2850.835947,1258.350101,-10807.006753,-919.314598
2850.836274,962.267725,-10658.965565,1455.581446
2850.836602,0.000000,-9326.594869,689.485948
2850.836930,370.102971,-9474.636058,-1762.019645
2850.837257,666.185348,-11029.068536,-1991.848295
2850.837585,0.000000,-10288.862594,0.000000
2850.837913,148.041188,-8734.430116,1532.190996
2850.838240,-148.041188,-7254.018232,536.266849
2850.838568,666.185348,-7920.203579,-612.876398
2850.838896,-666.185348,-8660.409521,919.314598
2850.839223,-2220.617826,-9474.636058,1991.848295
2850.839551,-2664.741391,-10066.800811,1072.533697
2850.839879,-1702.473667,-10362.883188,-1915.238745
2850.840206,-222.061783,-10214.842000,-3524.039291
2850.840534,370.102971,-10436.903782,-842.705048
2850.840862,444.123565,-10436.903782,2374.896044
2850.841189,74.020594,-9474.636058,1991.848295
2850.841517,1258.350101,-9178.553681,-536.266849
2850.841845,2146.597232,-9770.718434,-2068.457845
2850.842172,740.205942,-9770.718434,536.266849
2850.842500,-888.247130,-7920.203579,2834.553343
2850.842827,-1184.329507,-6735.874072,1072.533697
2850.843155,-1258.350101,-8216.285956,-689.485948
2850.843483,0.000000,-10807.006753,-1685.410096
2850.843810,0.000000,-11399.171507,229.828649
2850.844138,74.020594,-9400.615463,459.657299
2850.844466,518.144159,-8068.244768,-1532.190996
2850.844793,740.205942,-9400.615463,-2451.505594
2850.845121,222.061783,-10066.800811,0.000000
2850.845449,0.000000,-10214.842000,1302.362347
2850.845776,-370.102971,-9622.677246,306.438199
2850.846104,740.205942,-10732.986159,-1532.190996
2850.846432,1554.432478,-11399.171507,-2145.067394
2850.846759,1702.473667,-11399.171507,-919.314598
2850.847087,444.123565,-10955.047942,0.000000
2850.847415,0.000000,-10362.883188,-689.485948
2850.847742,1332.370696,-10362.883188,-2451.505594
2850.848070,2812.782580,-11029.068536,-1838.629195
2850.848398,2294.638420,-9770.718434,995.924147
2850.848725,592.164754,-8216.285956,3064.381992
2850.849053,-296.082377,-7105.977043,1838.629195
2850.849381,148.041188,-8734.430116,-689.485948
2850.849708,0.000000,-9326.594869,-1149.143247
2850.850036,0.000000,-9252.574275,536.266849
2850.850364,-666.185348,-8216.285956,1072.533697
2850.850691,518.144159,-8808.450710,-766.095498
2850.851019,1184.329507,-9770.718434,-1455.581446
2850.851347,814.226536,-10584.944971,0.000000
2850.851674,-148.041188,-10584.944971,1608.800546
2850.852002,0.000000,-9474.636058,229.828649
2850.852330,592.164754,-8956.491898,-995.924147
2850.852657,962.267725,-9992.780217,-995.924147
2850.852985,0.000000,-9992.780217,766.095498
2850.853312,-296.082377,-9474.636058,1991.848295
2850.853640,-222.061783,-8364.327145,766.095498
2850.853968,1184.329507,-8956.491898,-1608.800546
2850.854295,1332.370696,-10066.800811,-1072.533697
2850.854623,518.144159,-9770.718434,0.000000
2850.854951,-814.226536,-8882.471304,842.705048
2850.855278,-962.267725,-9252.574275,-919.314598
2850.855606,0.000000,-10214.842000,-2451.505594
2850.855934,222.061783,-11103.089130,-689.485948
2850.856261,222.061783,-10658.965565,1455.581446
2850.856589,74.020594,-8808.450710,1149.143247
2850.856917,814.226536,-8290.306550,-1685.410096
2850.857244,370.102971,-9770.718434,-2145.067394
2850.857572,-740.205942,-11473.192101,0.000000
2850.857900,-1702.473667,-10732.986159,1149.143247
2850.858227,-1110.308913,-9326.594869,-536.266849
2850.858555,370.102971,-9844.739029,-3294.210641
2850.858883,444.123565,-11473.192101,-2221.676944
2850.859210,-370.102971,-10955.047942,1302.362347
2850.859538,-666.185348,-10140.821405,2374.896044
2850.859866,666.185348,-9622.677246,-383.047749
2850.860193,1998.556043,-10288.862594,-1991.848295
2850.860521,1332.370696,-9992.780217,0.000000
2850.860849,-370.102971,-8586.388927,2451.505594
2850.861176,-1036.288319,-6809.894666,2221.676944
2850.861504,-1036.288319,-8142.265362,-1149.143247
2850.861832,-740.205942,-9474.636058,-2068.457845
2850.862159,-444.123565,-9770.718434,-383.047749
2850.862487,370.102971,-9474.636058,1072.533697
2850.862815,518.144159,-8438.347739,536.266849
2850.863142,518.144159,-8216.285956,-536.266849
2850.863470,814.226536,-9696.697840,-612.876398
2850.863797,814.226536,-10658.965565,612.876398
2850.864125,518.144159,-9548.656652,229.828649
2850.864453,888.247130,-9696.697840,-1149.143247
2850.864780,2220.617826,-10584.944971,-1608.800546
2850.865108,2442.679609,-11029.068536,-383.047749
2850.865436,962.267725,-11103.089130,1225.752797
2850.865763,0.000000,-10066.800811,306.438199
2850.866091,1036.288319,-9474.636058,-3370.820191
2850.866419,1776.494261,-9918.759623,-3830.477490
2850.866746,1406.391290,-10510.924376,-1149.143247
2850.867074,-222.061783,-8734.430116,2528.115143
2850.867402,-444.123565,-8290.306550,2451.505594
2850.867729,592.164754,-9104.533087,-536.266849
2850.868057,1110.308913,-10584.944971,-1225.752797
2850.868385,444.123565,-10066.800811,0.000000
2850.868712,222.061783,-8882.471304,1072.533697
2850.869040,148.041188,-8216.285956,-306.438199
2850.869368,740.205942,-8734.430116,-2298.286494
2850.869695,222.061783,-9770.718434,-919.314598
2850.870023,-222.061783,-10955.047942,2451.505594
2850.870351,74.020594,-10436.903782,1149.143247
2850.870678,814.226536,-9622.677246,-1915.238745
2850.871006,1702.473667,-10066.800811,-2068.457845
2850.871334,888.247130,-10807.006753,153.219100
2850.871661,148.041188,-10658.965565,2145.067394
2850.871989,0.000000,-9030.512492,1455.581446
2850.872317,1184.329507,-8734.430116,-995.924147
2850.872644,1258.350101,-9474.636058,-1455.581446
2850.872972,296.082377,-10140.821405,1149.143247
2850.873299,-814.226536,-8660.409521,2068.457845
2850.873627,-1258.350101,-7994.224174,459.657299
2850.873955,-370.102971,-9178.553681,-1685.410096
2850.874282,74.020594,-10807.006753,-1532.190996
2850.874610,370.102971,-10214.842000,229.828649
2850.874938,370.102971,-8660.409521,383.047749
2850.875265,296.082377,-7994.224174,0.000000
2850.875593,962.267725,-8882.471304,-919.314598
2850.875921,0.000000,-10510.924376,229.828649
2850.876248,-518.144159,-10658.965565,1455.581446
2850.876576,-1332.370696,-9696.697840,536.266849
2850.876904,-814.226536,-8734.430116,-2145.067394
2850.877231,-814.226536,-9252.574275,-2451.505594
2850.877559,-1036.288319,-11991.336260,-995.924147
2850.877887,-1406.391290,-10955.047942,1072.533697
2850.878214,444.123565,-10140.821405,-689.485948
2850.878542,2738.761985,-10807.006753,-2298.286494
2850.878870,2960.823768,-11399.171507,-919.314598
2850.879197,1480.411884,-10510.924376,2298.286494
2850.879525,-370.102971,-9178.553681,1915.238745
2850.879853,-1406.391290,-7476.080014,-1455.581446
2850.880180,-592.164754,-8808.450710,-2834.553343
2850.880508,-148.041188,-9770.718434,-1532.190996
2850.880836,0.000000,-9992.780217,1225.752797
2850.881163,222.061783,-9400.615463,1762.019645
2850.881491,222.061783,-8808.450710,-306.438199
2850.881819,518.144159,-10362.883188,-1378.971896
2850.882146,370.102971,-10732.986159,-1302.362347
2850.882474,0.000000,-9400.615463,306.438199
2850.882802,-888.247130,-8808.450710,383.047749
2850.883129,296.082377,-8956.491898,-842.705048
2850.883457,1406.391290,-9696.697840,-689.485948
2850.883784,1036.288319,-10732.986159,1149.143247
2850.884112,0.000000,-10214.842000,1685.410096
2850.884440,592.164754,-9474.636058,-842.705048
2850.884767,1702.473667,-10066.800811,-3447.429741
2850.885095,1628.453072,-10955.047942,-2221.676944
2850.885423,1332.370696,-9992.780217,1149.143247
2850.885750,592.164754,-8660.409521,2757.943793
2850.886078,444.123565,-8660.409521,1149.143247
2850.886406,1110.308913,-10066.800811,-459.657299
2850.886733,888.247130,-9918.759623,-306.438199
2850.887061,296.082377,-8660.409521,1225.752797
2850.887389,-444.123565,-7402.059420,766.095498
2850.887716,-296.082377,-8142.265362,-995.924147
2850.888044,74.020594,-10140.821405,-1762.019645
2850.888372,-222.061783,-10955.047942,-383.047749
2850.888699,-296.082377,-10732.986159,612.876398
2850.889027,370.102971,-10881.027347,-612.876398
2850.889355,1850.514855,-10510.924376,-2451.505594
2850.889682,2368.659014,-11473.192101,-1149.143247
2850.890010,1776.494261,-11177.109724,1685.410096
2850.890338,814.226536,-9844.739029,2068.457845
2850.890665,814.226536,-8438.347739,0.000000
2850.890993,1258.350101,-8882.471304,-1302.362347
2850.891321,1332.370696,-10807.006753,0.000000
2850.891648,-370.102971,-9252.574275,1455.581446
2850.891976,-2072.576638,-8364.327145,1072.533697
2850.892304,-1702.473667,-8660.409521,-1225.752797
2850.892631,-370.102971,-10362.883188,-2528.115143
2850.892959,0.000000,-10658.965565,-536.266849
2850.893287,0.000000,-9252.574275,1685.410096
2850.893614,0.000000,-8290.306550,995.924147
2850.893942,888.247130,-8512.368333,-536.266849
2850.894269,222.061783,-9400.615463,-229.828649
2850.894597,-148.041188,-10436.903782,1455.581446
2850.894925,-1332.370696,-9548.656652,1072.533697
2850.895252,-1480.411884,-9030.512492,-1378.971896
2850.895580,-370.102971,-9918.759623,-2987.772442
2850.895908,888.247130,-10658.965565,-2451.505594
2850.896235,592.164754,-10066.800811,-306.438199
2850.896563,518.144159,-9548.656652,689.485948
2850.896891,1332.370696,-10436.903782,-612.876398
2850.897218,2516.700203,-11251.130318,-1838.629195
2850.897546,1998.556043,-10658.965565,0.000000
2850.897874,444.123565,-9030.512492,2068.457845
2850.898201,-518.144159,-8512.368333,536.266849
2850.898529,-296.082377,-9252.574275,-842.705048
2850.898857,-296.082377,-10362.883188,-1532.190996
2850.899184,-592.164754,-10436.903782,-306.438199
2850.899512,-1184.329507,-9400.615463,306.438199
2850.899840,-740.205942,-8216.285956,-1225.752797
2850.900167,74.020594,-9178.553681,-2298.286494
2850.900495,518.144159,-10807.006753,-612.876398
2850.900823,518.144159,-10510.924376,1225.752797
2850.901150,-666.185348,-9104.533087,1762.019645
2850.901478,-148.041188,-9474.636058,0.000000
2850.901806,1258.350101,-10436.903782,-1991.848295
2850.902133,1258.350101,-10584.944971,-919.314598
2850.902461,1406.391290,-10140.821405,689.485948
2850.902789,1480.411884,-9918.759623,306.438199
2850.903116,2812.782580,-10214.842000,-842.705048
2850.903444,2960.823768,-11325.150913,-536.266849
2850.903771,1628.453072,-10658.965565,612.876398
2850.904099,-370.102971,-8956.491898,1225.752797
2850.904427,-1184.329507,-8290.306550,0.000000
2850.904754,-518.144159,-7698.141797,-1838.629195
2850.905082,0.000000,-8808.450710,-306.438199
2850.905410,74.020594,-9104.533087,1991.848295
2850.905737,-148.041188,-8364.327145,2528.115143
2850.906065,-222.061783,-8290.306550,459.657299
2850.906393,222.061783,-9252.574275,-2068.457845
2850.906720,-370.102971,-10732.986159,-1532.190996
2850.907048,-962.267725,-10140.821405,-383.047749
2850.907376,-370.102971,-9252.574275,-1455.581446
2850.907703,592.164754,-9104.533087,-1915.238745
2850.908031,2072.576638,-10658.965565,-995.924147
2850.908359,2146.597232,-11843.295072,1302.362347
2850.908686,1332.370696,-10881.027347,1762.019645
2850.909014,740.205942,-9104.533087,-459.657299
2850.909342,1110.308913,-9030.512492,-2221.676944
2850.909669,1036.288319,-10362.883188,-2604.724693
2850.909997,0.000000,-10140.821405,1378.971896
2850.910325,-1332.370696,-8808.450710,2068.457845
2850.910652,-888.247130,-8512.368333,-612.876398
2850.910980,148.041188,-10658.965565,-2451.505594
2850.911308,296.082377,-11843.295072,-1532.190996
2850.911635,-518.144159,-10066.800811,1302.362347
2850.911963,-740.205942,-8364.327145,1378.971896
2850.912291,0.000000,-8364.327145,-689.485948
2850.912618,962.267725,-9474.636058,-1532.190996
2850.912946,296.082377,-9992.780217,0.000000
2850.913274,-370.102971,-9770.718434,1455.581446
2850.913601,0.000000,-9474.636058,229.828649
2850.913929,592.164754,-9400.615463,-1378.971896
2850.914256,740.205942,-9548.656652,-1149.143247
2850.914584,-296.082377,-9104.533087,689.485948
2850.914912,-518.144159,-9178.553681,1378.971896
2850.915239,-370.102971,-9474.636058,-383.047749
2850.915567,814.226536,-9992.780217,-1915.238745
2850.915895,1110.308913,-10955.047942,-689.485948
2850.916222,740.205942,-10066.800811,1991.848295
2850.916550,0.000000,-8882.471304,2757.943793
2850.916878,444.123565,-8956.491898,0.000000
2850.917205,0.000000,-9474.636058,-1378.971896
2850.917533,-666.185348,-9844.739029,-689.485948
2850.917861,-1554.432478,-8808.450710,76.609550
2850.918188,-1628.453072,-7920.203579,-766.095498
2850.918516,148.041188,-8808.450710,-1685.410096
2850.918844,1184.329507,-10288.862594,-1149.143247
2850.919171,1110.308913,-10881.027347,612.876398
2850.919499,518.144159,-10436.903782,1302.362347
2850.919827,888.247130,-9992.780217,-459.657299
2850.920154,1406.391290,-10214.842000,-2298.286494
2850.920480,1406.391290,-10510.924376,-1072.533697
2850.920807,1110.308913,-9918.759623,1225.752797
2850.921135,444.123565,-9326.594869,1915.238745
2850.921462,1036.288319,-9770.718434,-689.485948
2850.921790,1850.514855,-11029.068536,-1915.238745
2850.922117,1332.370696,-11325.150913,-689.485948
2850.922445,0.000000,-10510.924376,536.266849
2850.922773,-444.123565,-8660.409521,-459.657299
2850.923100,814.226536,-8586.388927,-1915.238745
2850.923428,1110.308913,-10214.842000,-1455.581446
2850.923755,666.185348,-10214.842000,1991.848295
2850.924083,0.000000,-8660.409521,2374.896044
2850.924410,0.000000,-8586.388927,842.705048
2850.924738,0.000000,-8660.409521,-1685.410096
2850.925066,0.000000,-9474.636058,-1608.800546
2850.925393,-592.164754,-9252.574275,0.000000
2850.925721,-2072.576638,-8956.491898,689.485948
2850.926048,-888.247130,-9400.615463,229.828649
2850.926376,1258.350101,-10214.842000,-1915.238745
2850.926703,1184.329507,-10732.986159,-153.219100
2850.927031,518.144159,-10214.842000,1838.629195
2850.927359,0.000000,-8882.471304,1072.533697
2850.927686,1332.370696,-8882.471304,-766.095498
2850.928014,2072.576638,-10288.862594,-1991.848295
2850.928341,814.226536,-10584.944971,-229.828649
2850.928669,74.020594,-9474.636058,1378.971896
2850.928996,0.000000,-8660.409521,153.219100
2850.929324,666.185348,-9400.615463,-1915.238745
2850.929651,444.123565,-11029.068536,-1532.190996
2850.929979,-296.082377,-10288.862594,842.705048
2850.930307,-1036.288319,-9474.636058,1149.143247
2850.930634,-518.144159,-8438.347739,-1532.190996
2850.930962,222.061783,-8808.450710,-2528.115143
2850.931289,-888.247130,-9696.697840,-612.876398
2850.931617,-1406.391290,-9844.739029,1455.581446
2850.931944,-1036.288319,-9252.574275,689.485948
2850.932272,296.082377,-9252.574275,-1991.848295
2850.932600,1332.370696,-10658.965565,-1991.848295
2850.932927,1258.350101,-11251.130318,0.000000
2850.933255,444.123565,-10510.924376,1302.362347
2850.933582,444.123565,-9400.615463,0.000000
2850.933910,1850.514855,-9696.697840,-1991.848295
2850.934237,2442.679609,-11251.130318,-1762.019645
2850.934565,2220.617826,-11029.068536,1302.362347
2850.934893,888.247130,-8734.430116,2681.334243
2850.935220,888.247130,-7994.224174,-306.438199
2850.935548,222.061783,-8438.347739,-1608.800546
2850.935875,-740.205942,-9844.739029,-536.266849
2850.936203,-1332.370696,-9844.739029,1149.143247
2850.936530,-1258.350101,-8882.471304,766.095498
2850.936858,-740.205942,-8660.409521,-1915.238745
2850.937185,592.164754,-9918.759623,-1991.848295
2850.937513,0.000000,-10584.944971,76.609550
2850.937841,-518.144159,-10066.800811,2068.457845
2850.938168,-740.205942,-9474.636058,612.876398
2850.938496,370.102971,-9104.533087,-1685.410096
2850.938823,518.144159,-9252.574275,-1225.752797
2850.939151,0.000000,-9252.574275,919.314598
2850.939478,-370.102971,-9252.574275,2451.505594
2850.939806,0.000000,-9104.533087,0.000000
2850.940134,1628.453072,-9400.615463,-3064.381992
2850.940461,2146.597232,-11103.089130,-2298.286494
2850.940789,1850.514855,-11769.274478,995.924147
2850.941116,1702.473667,-10362.883188,2221.676944
2850.941444,1924.535449,-9104.533087,0.000000
2850.941771,2294.638420,-9992.780217,-1838.629195
2850.942099,1258.350101,-10881.027347,-536.266849
2850.942427,74.020594,-10288.862594,1072.533697
2850.942754,-740.205942,-8216.285956,153.219100
2850.943082,-370.102971,-7772.162391,-1991.848295
2850.943409,0.000000,-9252.574275,-1991.848295
2850.943737,0.000000,-10732.986159,0.000000
2850.944064,-1036.288319,-10214.842000,2298.286494
2850.944392,-1554.432478,-8956.491898,612.876398
2850.944719,0.000000,-9770.718434,-2221.676944
2850.945047,888.247130,-11177.109724,-1991.848295
2850.945375,666.185348,-10066.800811,689.485948
2850.945702,0.000000,-8290.306550,2221.676944
2850.946030,222.061783,-8290.306550,1149.143247
2850.946357,1776.494261,-9918.759623,-1455.581446
2850.946685,1554.432478,-10732.986159,-536.266849
2850.947012,370.102971,-9696.697840,1072.533697
2850.947340,-518.144159,-8142.265362,459.657299
2850.947668,-962.267725,-8290.306550,-1991.848295
2850.947995,-888.247130,-9992.780217,-1915.238745
2850.948323,-592.164754,-10362.883188,306.438199
2850.948650,-370.102971,-9400.615463,1762.019645
2850.948978,0.000000,-8734.430116,919.314598
2850.949305,1628.453072,-9474.636058,-1225.752797
2850.949633,1332.370696,-10214.842000,-612.876398
2850.949961,-370.102971,-10140.821405,1302.362347
2850.950288,-1332.370696,-9474.636058,1532.190996
2850.950616,-370.102971,-9252.574275,-229.828649
2850.950943,962.267725,-9474.636058,-2221.676944
2850.951271,1554.432478,-10288.862594,-1225.752797
2850.951598,1258.350101,-10881.027347,1225.752797
2850.951926,1332.370696,-10362.883188,842.705048
2850.952253,1924.535449,-9770.718434,-1225.752797
2850.952581,2220.617826,-9770.718434,-1991.848295
2850.952909,2146.597232,-10066.800811,-306.438199
2850.953236,222.061783,-9696.697840,1838.629195
2850.953564,-592.164754,-8882.471304,1608.800546
2850.953891,148.041188,-8290.306550,-1072.533697
2850.954219,740.205942,-10362.883188,-1685.410096
2850.954546,0.000000,-11843.295072,689.485948
2850.954874,-666.185348,-10362.883188,1685.410096
2850.955202,0.000000,-8068.244768,-1378.971896
2850.955529,-370.102971,-8216.285956,-2911.162892
2850.955857,-814.226536,-9770.718434,-2757.943793
2850.956184,-1110.308913,-9770.718434,383.047749
2850.956512,-1554.432478,-9918.759623,1762.019645
2850.956839,518.144159,-10214.842000,153.219100
2850.957167,1850.514855,-10436.903782,-1378.971896
2850.957495,1850.514855,-10584.944971,0.000000
2850.957822,1184.329507,-9696.697840,1838.629195
2850.958150,74.020594,-8512.368333,153.219100
2850.958477,444.123565,-8290.306550,-1532.190996
2850.958805,740.205942,-10140.821405,-1838.629195
2850.959132,518.144159,-10510.924376,0.000000
2850.959460,-296.082377,-9474.636058,1838.629195
2850.959787,-592.164754,-9030.512492,1838.629195
2850.960115,0.000000,-9474.636058,-1532.190996
2850.960443,592.164754,-11029.068536,-1915.238745
2850.960770,222.061783,-10510.924376,0.000000
2850.961098,-222.061783,-8512.368333,1072.533697
2850.961425,296.082377,-7476.080014,-383.047749
2850.961753,1110.308913,-9030.512492,-995.924147
2850.962080,592.164754,-10881.027347,459.657299
2850.962408,-1332.370696,-10436.903782,1608.800546
2850.962736,-1258.350101,-9992.780217,76.609550
2850.963063,-148.041188,-9844.739029,-2528.115143
2850.963391,1480.411884,-11103.089130,-2911.162892
2850.963718,962.267725,-10584.944971,0.000000
2850.964046,444.123565,-9030.512492,1915.238745
2850.964373,740.205942,-9326.594869,1455.581446
2850.964701,2146.597232,-9474.636058,-383.047749
2850.965029,1776.494261,-9548.656652,-919.314598
2850.965356,740.205942,-9474.636058,919.314598
2850.965684,0.000000,-8734.430116,2068.457845
2850.966011,-666.185348,-8660.409521,-229.828649
2850.966339,74.020594,-9992.780217,-2374.896044
2850.966666,148.041188,-10436.903782,-1378.971896
2850.966994,0.000000,-9474.636058,842.705048
2850.967321,370.102971,-9548.656652,689.485948
2850.967649,1036.288319,-9326.594869,-383.047749
2850.967977,1776.494261,-9770.718434,-1149.143247
2850.968304,518.144159,-9992.780217,536.266849
2850.968632,-666.185348,-9918.759623,2145.067394
2850.968959,-1184.329507,-8808.450710,1072.533697
2850.969287,-518.144159,-8068.244768,-995.924147
2850.969614,148.041188,-9400.615463,-2298.286494
2850.969942,296.082377,-10140.821405,-459.657299
2850.970270,0.000000,-9252.574275,1149.143247
2850.970597,518.144159,-9400.615463,0.000000
2850.970925,2072.576638,-10436.903782,-1838.629195
2850.971252,2294.638420,-11103.089130,-536.266849
2850.971580,1110.308913,-10881.027347,1302.362347
2850.971907,814.226536,-9696.697840,1072.533697
2850.972235,296.082377,-8512.368333,-536.266849
2850.972562,814.226536,-9696.697840,-1378.971896
2850.972890,740.205942,-10732.986159,-689.485948
2850.973218,0.000000,-10140.821405,1149.143247
2850.973545,0.000000,-8364.327145,229.828649
2850.973873,370.102971,-8068.244768,-1838.629195
2850.974200,-222.061783,-9400.615463,-1225.752797
2850.974528,-814.226536,-9918.759623,-689.485948
2850.974855,-1776.494261,-10362.883188,919.314598
2850.975183,-1406.391290,-10214.842000,76.609550
2850.975511,1332.370696,-10584.944971,-2068.457845
2850.975838,1924.535449,-10955.047942,-1762.019645
2850.976166,1036.288319,-10214.842000,1302.362347
2850.976493,0.000000,-9326.594869,1762.019645
2850.976821,74.020594,-8956.491898,-383.047749
2850.977148,296.082377,-9474.636058,-2145.067394
2850.977476,-444.123565,-10066.800811,-766.095498
2850.977804,-1554.432478,-9252.574275,995.924147
2850.978131,-1850.514855,-7920.203579,459.657299
2850.978459,-296.082377,-8956.491898,-1608.800546
2850.978786,1036.288319,-10658.965565,-2757.943793
2850.979114,888.247130,-10955.047942,383.047749
2850.979441,444.123565,-9252.574275,1915.238745
2850.979769,1036.288319,-7920.203579,612.876398
2850.980096,1776.494261,-8808.450710,-919.314598
2850.980424,1036.288319,-10214.842000,-459.657299
2850.980752,-370.102971,-10214.842000,1072.533697
2850.981079,-740.205942,-10214.842000,1378.971896
2850.981407,0.000000,-9548.656652,-1072.533697
2850.981734,814.226536,-10214.842000,-2681.334243
2850.982062,740.205942,-11029.068536,-1302.362347
2850.982389,666.185348,-10584.944971,1072.533697
2850.982717,222.061783,-9622.677246,1149.143247
2850.983045,1036.288319,-8956.491898,-306.438199
2850.983372,2146.597232,-8882.471304,-1225.752797
2850.983700,1332.370696,-9770.718434,1225.752797
2850.984027,222.061783,-9326.594869,2451.505594
2850.984355,0.000000,-8586.388927,1149.143247
2850.984682,444.123565,-8882.471304,-1378.971896
2850.985010,666.185348,-10658.965565,-1991.848295
2850.985338,222.061783,-10955.047942,306.438199
2850.985665,148.041188,-9622.677246,1072.533697
2850.985993,222.061783,-8586.388927,-1072.533697
2850.986320,962.267725,-9178.553681,-1762.019645
2850.986648,592.164754,-9918.759623,-459.657299
2850.986975,-592.164754,-9992.780217,1532.190996
2850.987303,-1332.370696,-9474.636058,2221.676944
2850.987630,-370.102971,-9326.594869,-153.219100
2850.987958,666.185348,-9770.718434,-2604.724693
2850.988286,518.144159,-10288.862594,0.000000
2850.988613,0.000000,-10066.800811,1302.362347
2850.988941,0.000000,-9326.594869,536.266849
2850.989268,814.226536,-9400.615463,-1532.190996
2850.989596,2072.576638,-11473.192101,-2451.505594
2850.989923,1184.329507,-10658.965565,0.000000
2850.990251,1036.288319,-9548.656652,1149.143247
2850.990579,74.020594,-7550.100608,153.219100
2850.990906,1628.453072,-8660.409521,-1455.581446
2850.991234,1406.391290,-9918.759623,-536.266849
2850.991561,-888.247130,-9548.656652,1762.019645
2850.991889,-1702.473667,-7698.141797,1225.752797
2850.992216,-666.185348,-7328.038826,-1532.190996
2850.992544,-518.144159,-9104.533087,-2451.505594
2850.992872,-518.144159,-12287.418637,-919.314598
2850.993199,-888.247130,-11843.295072,1149.143247
2850.993527,-444.123565,-11177.109724,229.828649
2850.993854,592.164754,-10658.965565,-2451.505594
2850.994182,814.226536,-10658.965565,-2757.943793
2850.994509,0.000000,-9474.636058,229.828649
2850.994837,-370.102971,-8290.306550,1762.019645
2850.995164,148.041188,-8882.471304,76.609550
2850.995492,1332.370696,-9844.739029,-1149.143247
2850.995820,1924.535449,-10510.924376,-1225.752797
2850.996147,296.082377,-9918.759623,766.095498
2850.996475,-888.247130,-9178.553681,1608.800546
2850.996802,-444.123565,-8660.409521,-459.657299
2850.997130,666.185348,-9474.636058,-2757.943793
2850.997457,666.185348,-10288.862594,-995.924147
2850.997785,222.061783,-9548.656652,1608.800546
2850.998113,0.000000,-8142.265362,1838.629195
2850.998440,0.000000,-8290.306550,153.219100
2850.998768,-444.123565,-8956.491898,-1915.238745
2850.999095,-1406.391290,-9770.718434,-842.705048
2850.999423,-1480.411884,-10436.903782,612.876398
2850.999750,0.000000,-10214.842000,-383.047749
2851.000078,1480.411884,-9696.697840,-1915.238745
2851.000406,1702.473667,-10362.883188,-919.314598
2851.000733,1036.288319,-11029.068536,1072.533697
2851.001061,74.020594,-9918.759623,1838.629195
2851.001388,814.226536,-9030.512492,0.000000
2851.001716,2442.679609,-9178.553681,-2451.505594
2851.002043,2368.659014,-10214.842000,0.000000
2851.002371,1406.391290,-10066.800811,2451.505594
2851.002698,74.020594,-8808.450710,2451.505594
2851.003026,0.000000,-7846.182985,-383.047749
2851.003354,0.000000,-9326.594869,-2451.505594
2851.003681,222.061783,-10955.047942,-689.485948
2851.004009,0.000000,-9844.739029,536.266849
2851.004336,222.061783,-8364.327145,306.438199
2851.004664,962.267725,-9104.533087,-1149.143247
2851.004991,1406.391290,-10658.965565,-1608.800546
2851.005319,814.226536,-10584.944971,153.219100
2851.005647,296.082377,-10214.842000,689.485948
2851.005974,444.123565,-9622.677246,0.000000
2851.006302,1998.556043,-9326.594869,-1455.581446
2851.006629,1258.350101,-9992.780217,-153.219100
2851.006957,0.000000,-10066.800811,1532.190996
2851.007284,-740.205942,-9326.594869,1685.410096
2851.007612,-296.082377,-8512.368333,-995.924147
2851.007940,666.185348,-9474.636058,-2911.162892
2851.008267,814.226536,-10288.862594,-1378.971896
2851.008595,0.000000,-9030.512492,1608.800546
2851.008922,-592.164754,-8660.409521,1991.848295
2851.009250,222.061783,-8956.491898,229.828649
2851.009577,1110.308913,-10362.883188,-536.266849
2851.009905,-148.041188,-10510.924376,536.266849
2851.010232,-1258.350101,-9474.636058,612.876398
2851.010560,0.000000,-7846.182985,-919.314598
2851.010888,1258.350101,-8956.491898,-2068.457845
2851.011215,666.185348,-10732.986159,-1608.800546
2851.011543,-1110.308913,-10807.006753,0.000000
2851.011870,-1258.350101,-9770.718434,229.828649
2851.012198,-222.061783,-9474.636058,-1378.971896
2851.012525,444.123565,-9622.677246,-2221.676944
2851.012853,666.185348,-10214.842000,0.000000
2851.013181,222.061783,-9696.697840,2145.067394
2851.013508,592.164754,-9622.677246,1915.238745
2851.013836,888.247130,-9992.780217,-766.095498
2851.014163,1258.350101,-10436.903782,-1608.800546
2851.014491,518.144159,-10658.965565,-306.438199
2851.014818,-592.164754,-9696.697840,842.705048
2851.015146,-1480.411884,-8956.491898,459.657299
2851.015474,-1184.329507,-9326.594869,-1378.971896
2851.015801,-1258.350101,-10510.924376,-2374.896044
2851.016129,-1258.350101,-10288.862594,-306.438199
2851.016456,-814.226536,-8956.491898,229.828649
2851.016784,0.000000,-8142.265362,-842.705048
2851.017111,1258.350101,-9696.697840,-1149.143247
2851.017439,1036.288319,-10658.965565,76.609550
2851.017766,0.000000,-9696.697840,1762.019645
2851.018094,-518.144159,-8882.471304,1072.533697
2851.018422,592.164754,-9030.512492,-1838.629195
2851.018749,1406.391290,-10140.821405,-2221.676944
2851.019077,888.247130,-10436.903782,-459.657299
2851.019404,296.082377,-10214.842000,1302.362347
2851.019732,962.267725,-10214.842000,1225.752797
2851.020059,2886.803174,-9548.656652,-612.876398
2851.020387,3182.885551,-9918.759623,-1225.752797
2851.020715,1258.350101,-10288.862594,1302.362347
2851.021042,0.000000,-8734.430116,1685.410096
2851.021370,0.000000,-7254.018232,0.000000
2851.021697,518.144159,-8512.368333,-1685.410096
2851.022025,148.041188,-9770.718434,-995.924147
2851.022352,0.000000,-9622.677246,2451.505594
2851.022680,148.041188,-9030.512492,1532.190996
2851.023008,1258.350101,-9252.574275,-2145.067394
2851.023335,1480.411884,-9992.780217,-3370.820191
2851.023663,888.247130,-10807.006753,-1072.533697
2851.023991,0.000000,-10510.924376,1149.143247
2851.024318,370.102971,-9252.574275,842.705048
2851.024646,1628.453072,-9326.594869,-689.485948
2851.024973,1184.329507,-9918.759623,-689.485948
2851.025301,592.164754,-10436.903782,536.266849
2851.025629,-148.041188,-9844.739029,1378.971896
2851.025956,0.000000,-9178.553681,0.000000
2851.026284,1184.329507,-9770.718434,-2528.115143
2851.026612,1110.308913,-10214.842000,-1762.019645
2851.026939,814.226536,-10584.944971,1302.362347
2851.027267,0.000000,-9770.718434,2221.676944
2851.027594,148.041188,-8882.471304,0.000000
2851.027922,814.226536,-9474.636058,-1378.971896
2851.028250,518.144159,-9844.739029,0.000000
2851.028577,518.144159,-9326.594869,1762.019645
2851.028905,296.082377,-8290.306550,2298.286494
2851.029232,592.164754,-7476.080014,-842.705048
2851.029560,74.020594,-9030.512492,-1608.800546
2851.029888,-1998.556043,-10140.821405,306.438199
2851.030215,-3108.864956,-10066.800811,459.657299
2851.030543,-1924.535449,-9548.656652,-919.314598
2851.030871,370.102971,-10362.883188,-2145.067394
2851.031198,1110.308913,-11251.130318,0.000000
2851.031526,-370.102971,-10807.006753,2068.457845
2851.031853,-370.102971,-10140.821405,2681.334243
2851.032181,74.020594,-8956.491898,-612.876398
2851.032509,222.061783,-9252.574275,-2604.724693
2851.032836,-518.144159,-9252.574275,-1072.533697
2851.033164,-1110.308913,-9178.553681,995.924147
2851.033492,-1184.329507,-9548.656652,1225.752797
2851.033819,518.144159,-10140.821405,-1378.971896
2851.034147,592.164754,-11843.295072,-2757.943793
2851.034474,444.123565,-11399.171507,-919.314598
2851.034802,222.061783,-9844.739029,229.828649
2851.035130,222.061783,-8290.306550,-306.438199
2851.035457,1110.308913,-7920.203579,-1378.971896
2851.035785,370.102971,-8734.430116,0.000000
2851.036112,-370.102971,-9326.594869,2681.334243
2851.036440,-1184.329507,-9918.759623,2145.067394
2851.036768,-1258.350101,-9622.677246,-766.095498
2851.037095,0.000000,-9474.636058,-2987.772442
2851.037423,222.061783,-10362.883188,-2604.724693
2851.037751,296.082377,-11029.068536,76.609550
2851.038078,962.267725,-10436.903782,1455.581446
2851.038406,2886.803174,-9178.553681,0.000000
2851.038733,3552.988522,-10807.006753,-1762.019645
2851.039061,1924.535449,-10732.986159,153.219100
2851.039389,814.226536,-9844.739029,1838.629195
2851.039716,74.020594,-8068.244768,1302.362347
2851.040044,1110.308913,-8364.327145,-689.485948
2851.040372,1406.391290,-9474.636058,-842.705048
2851.040699,592.164754,-9178.553681,1225.752797
2851.041027,0.000000,-8290.306550,1685.410096
2851.041354,-148.041188,-7624.121203,-689.485948
2851.041682,444.123565,-8438.347739,-2681.334243
2851.042010,0.000000,-9844.739029,-2145.067394
2851.042337,-370.102971,-10584.944971,842.705048
2851.042665,222.061783,-10066.800811,1838.629195
2851.042993,740.205942,-9992.780217,153.219100
2851.043320,1480.411884,-10955.047942,-1685.410096
2851.043648,1258.350101,-10436.903782,-689.485948
2851.043975,1036.288319,-10584.944971,842.705048
2851.044303,962.267725,-10140.821405,842.705048
2851.044631,1332.370696,-10066.800811,-1225.752797
2851.044958,1628.453072,-10436.903782,-1915.238745
2851.045286,888.247130,-10584.944971,459.657299
2851.045613,-1776.494261,-9548.656652,1149.143247
2851.045941,-1776.494261,-9178.553681,76.609550
2851.046269,0.000000,-9400.615463,-1991.848295
2851.046596,592.164754,-10658.965565,-1838.629195
2851.046924,-296.082377,-9992.780217,919.314598
2851.047252,74.020594,-8290.306550,1455.581446
2851.047579,-518.144159,-7328.038826,153.219100
2851.047907,-222.061783,-8882.471304,-842.705048
2851.048234,-962.267725,-10807.006753,-842.705048
2851.048562,-1554.432478,-11103.089130,459.657299
2851.048890,-888.247130,-10214.842000,-306.438199
2851.049217,222.061783,-10066.800811,-1762.019645
2851.049545,814.226536,-10584.944971,-1225.752797
2851.049873,592.164754,-10658.965565,76.609550
2851.050200,-222.061783,-9104.533087,1149.143247
2851.050528,0.000000,-8290.306550,153.219100
2851.050855,1702.473667,-8438.347739,-1149.143247
2851.051183,1702.473667,-9770.718434,-306.438199
2851.051511,74.020594,-9992.780217,2451.505594
2851.051838,-1480.411884,-9178.553681,2528.115143
2851.052166,-1406.391290,-9252.574275,-459.657299
2851.052493,518.144159,-10214.842000,-3064.381992
2851.052821,0.000000,-10066.800811,-1608.800546
2851.053149,-1258.350101,-9844.739029,1225.752797
2851.053476,-2220.617826,-8956.491898,919.314598
2851.053804,-1480.411884,-8586.388927,-1762.019645
2851.054132,222.061783,-9030.512492,-3447.429741
2851.054459,0.000000,-10288.862594,-766.095498
2851.054787,-666.185348,-10658.965565,1762.019645
2851.055114,740.205942,-9474.636058,766.095498
2851.055442,1998.556043,-9400.615463,-1915.238745
2851.055770,1998.556043,-11251.130318,-1378.971896
2851.056097,1332.370696,-11621.233289,612.876398
2851.056425,962.267725,-10584.944971,383.047749
2851.056753,1998.556043,-9326.594869,-1532.190996
2851.057080,2368.659014,-10214.842000,-2987.772442
2851.057408,2072.576638,-10658.965565,-919.314598
2851.057735,1554.432478,-10658.965565,2298.286494
2851.058063,1332.370696,-9844.739029,2604.724693
2851.058391,2146.597232,-9326.594869,-153.219100
2851.058718,2072.576638,-9474.636058,-1685.410096
2851.059046,814.226536,-9992.780217,-995.924147
2851.059373,-666.185348,-7698.141797,1378.971896
2851.059701,-370.102971,-6513.812290,383.047749
2851.060029,74.020594,-7920.203579,-612.876398
2851.060356,962.267725,-10362.883188,-383.047749
2851.060684,296.082377,-11177.109724,1149.143247
2851.061012,0.000000,-10436.903782,1685.410096
2851.061339,370.102971,-9400.615463,-919.314598
2851.061667,1702.473667,-9474.636058,-2604.724693
2851.061994,666.185348,-9400.615463,-536.266849
2851.062322,296.082377,-9030.512492,1838.629195
2851.062650,518.144159,-8808.450710,2145.067394
2851.062977,1480.411884,-8956.491898,0.000000
2851.063305,1776.494261,-9474.636058,-919.314598
2851.063633,518.144159,-10066.800811,0.000000
2851.063960,-1110.308913,-10436.903782,536.266849
2851.064288,-1480.411884,-9844.739029,0.000000
2851.064615,0.000000,-9622.677246,-2298.286494
