#time,accel_x,accel_y,accel_z
2751.402340,0.000000,-9104.533087,-306.438199
2751.402667,222.061783,-9474.636058,-229.828649
2751.402995,444.123565,-9400.615463,0.000000
2751.403322,518.144159,-9548.656652,0.000000
2751.403649,592.164754,-9326.594869,536.266849
2751.403977,740.205942,-9252.574275,536.266849
2751.404304,518.144159,-9252.574275,306.438199
2751.404631,148.041188,-9326.594869,383.047749
2751.404959,148.041188,-9252.574275,-153.219100
2751.405286,0.000000,-9178.553681,-229.828649
2751.405613,0.000000,-9622.677246,-383.047749
2751.405941,74.020594,-9474.636058,-612.876398
2751.406268,518.144159,-9918.759623,0.000000
2751.406595,370.102971,-9770.718434,-536.266849
2751.406922,740.205942,-10362.883188,-689.485948
2751.407250,814.226536,-10066.800811,0.000000
2751.407577,888.247130,-10140.821405,-306.438199
2751.407904,814.226536,-10214.842000,-459.657299
2751.408232,814.226536,-10362.883188,0.000000
2751.408559,-222.061783,-9696.697840,-689.485948
2751.408886,296.082377,-9770.718434,-459.657299
2751.409214,148.041188,-9844.739029,-1532.190996
2751.409541,-148.041188,-9992.780217,-612.876398
2751.409868,0.000000,-10066.800811,-689.485948
2751.410196,0.000000,-10140.821405,-766.095498
2751.410523,666.185348,-10658.965565,0.000000
2751.410850,592.164754,-9844.739029,0.000000
2751.411178,888.247130,-10288.862594,-306.438199
2751.411505,518.144159,-9474.636058,536.266849
2751.411832,444.123565,-9474.636058,229.828649
2751.412159,222.061783,-9474.636058,153.219100
2751.412487,0.000000,-9326.594869,0.000000
2751.412814,-296.082377,-8808.450710,0.000000
2751.413141,-296.082377,-8956.491898,0.000000
2751.413469,0.000000,-9252.574275,229.828649
2751.413796,74.020594,-9252.574275,-153.219100
2751.414123,222.061783,-9474.636058,0.000000
2751.414451,518.144159,-9400.615463,76.609550
2751.414778,666.185348,-9548.656652,153.219100
2751.415105,888.247130,-9326.594869,383.047749
2751.415433,888.247130,-9474.636058,612.876398
2751.415760,0.000000,-9252.574275,76.609550
2751.416087,0.000000,-9178.553681,0.000000
2751.416415,0.000000,-9474.636058,-306.438199
2751.416742,0.000000,-9474.636058,-612.876398
2751.417069,0.000000,-9770.718434,-612.876398
2751.417397,296.082377,-9992.780217,-919.314598
2751.417724,296.082377,-9696.697840,-689.485948
2751.418051,814.226536,-10214.842000,-842.705048
2751.418378,740.205942,-10510.924376,-459.657299
2751.418706,740.205942,-10362.883188,-383.047749
2751.419033,814.226536,-10140.821405,-459.657299
2751.419360,518.144159,-9918.759623,-459.657299
2751.419688,444.123565,-9844.739029,-383.047749
2751.420015,0.000000,-9326.594869,-383.047749
2751.420342,222.061783,-10066.800811,-766.095498
2751.420670,518.144159,-9400.615463,-766.095498
2751.420997,814.226536,-9474.636058,-612.876398
2751.421324,1998.556043,-9918.759623,-612.876398
2751.421652,2664.741391,-9178.553681,-153.219100
2751.421979,3849.070898,-8512.368333,459.657299
2751.422306,5033.400406,-9104.533087,689.485948
2751.422634,5551.544565,-9844.739029,536.266849
2751.422961,6143.709319,-9844.739029,229.828649
2751.423288,6513.812290,-8660.409521,-153.219100
2751.423615,6513.812290,-9474.636058,0.000000
2751.423943,6957.935855,-9770.718434,0.000000
2751.424270,7105.977043,-9992.780217,0.000000
2751.424597,7772.162391,-9622.677246,612.876398
2751.424925,9104.533087,-9252.574275,689.485948
2751.425252,9474.636058,-8438.347739,0.000000
2751.425579,9474.636058,-8142.265362,612.876398
2751.425907,10362.883188,-8216.285956,919.314598
2751.426234,11547.212695,-8882.471304,536.266849
2751.426561,11917.315666,-9474.636058,1149.143247
2751.426889,11695.253884,-9474.636058,689.485948
2751.427216,11325.150913,-8882.471304,153.219100
2751.427543,11251.130318,-9326.594869,76.609550
2751.427871,11843.295072,-10955.047942,-383.047749
2751.428198,12361.439231,-10807.006753,-919.314598
2751.428525,13323.706956,-9918.759623,-383.047749
2751.428853,14952.160028,-9622.677246,536.266849
2751.429180,15766.386565,-9844.739029,919.314598
2751.429507,14804.118840,-9474.636058,1532.190996
2751.429834,13915.871710,-9326.594869,1149.143247
2751.430162,12731.542202,-9918.759623,76.609550
2751.430489,11843.295072,-11399.171507,-383.047749
2751.430816,10955.047942,-10584.944971,0.000000
2751.431144,8882.471304,-8882.471304,229.828649
2751.431471,7994.224174,-10658.965565,689.485948
2751.431798,6957.935855,-10658.965565,-1302.362347
2751.432126,5477.523971,-9770.718434,-842.705048
2751.432453,4589.276840,-10066.800811,-766.095498
2751.432780,3182.885551,-9696.697840,-536.266849
2751.433108,3034.844362,-9030.512492,-612.876398
2751.433435,2590.720797,-7994.224174,-306.438199
2751.433762,2886.803174,-7772.162391,383.047749
2751.434090,4811.338623,-8734.430116,689.485948
2751.434417,5477.523971,-10362.883188,459.657299
2751.434744,5181.441594,-11029.068536,995.924147
2751.435071,4441.235652,-10881.027347,76.609550
2751.435399,1850.514855,-10584.944971,0.000000
2751.435726,-370.102971,-9844.739029,76.609550
2751.436053,-296.082377,-8142.265362,0.000000
2751.436381,666.185348,-7550.100608,-689.485948
2751.436708,1998.556043,-9104.533087,689.485948
2751.437035,1110.308913,-10436.903782,1685.410096
2751.437363,-740.205942,-10066.800811,1915.238745
2751.437690,-2368.659014,-8216.285956,306.438199
2751.438017,-3627.009116,-7328.038826,-2451.505594
2751.438345,-3997.112087,-6809.894666,-3677.258390
2751.438672,-2442.679609,-8586.388927,-1532.190996
2751.438999,370.102971,-10807.006753,0.000000
2751.439327,518.144159,-12139.377449,1149.143247
2751.439654,296.082377,-11251.130318,919.314598
2751.439981,-666.185348,-9770.718434,-919.314598
2751.440309,-2442.679609,-11177.109724,-1302.362347
2751.440636,-2960.823768,-11769.274478,-1838.629195
2751.440963,-1924.535449,-11177.109724,-2604.724693
2751.441290,-740.205942,-9400.615463,-1378.971896
2751.441618,-296.082377,-8290.306550,0.000000
2751.441945,-1184.329507,-7402.059420,1455.581446
2751.442272,-1628.453072,-8364.327145,1762.019645
2751.442600,-814.226536,-9992.780217,153.219100
2751.442927,666.185348,-10214.842000,-2221.676944
2751.443254,2072.576638,-9622.677246,-2528.115143
2751.443582,2886.803174,-8586.388927,-995.924147
2751.443909,3923.091493,-9326.594869,842.705048
2751.444236,3478.967927,-10955.047942,2374.896044
2751.444564,3182.885551,-13397.727550,1225.752797
2751.444891,2072.576638,-11547.212695,-689.485948
2751.445218,1702.473667,-8808.450710,-1991.848295
2751.445546,1258.350101,-7698.141797,-1149.143247
2751.445873,444.123565,-8438.347739,383.047749
2751.446200,0.000000,-9030.512492,1838.629195
2751.446527,0.000000,-8956.491898,842.705048
2751.446855,1554.432478,-7994.224174,-995.924147
2751.447182,3256.906145,-6809.894666,-1685.410096
2751.447509,3701.029710,-7846.182985,-306.438199
2751.447837,4367.215058,-10658.965565,1685.410096
2751.448164,4663.297435,-12213.398043,2068.457845
2751.448491,4441.235652,-11917.315666,1072.533697
2751.448819,3849.070898,-11399.171507,-842.705048
2751.449146,3182.885551,-10881.027347,-1225.752797
2751.449473,1258.350101,-10807.006753,-766.095498
2751.449801,0.000000,-11177.109724,459.657299
2751.450128,-1036.288319,-11547.212695,-459.657299
2751.450455,-592.164754,-8882.471304,-153.219100
2751.450783,-592.164754,-6883.915261,-459.657299
2751.451110,-740.205942,-7846.182985,229.828649
2751.451437,-962.267725,-9696.697840,536.266849
2751.451765,0.000000,-10584.944971,0.000000
2751.452092,0.000000,-9696.697840,-306.438199
2751.452419,444.123565,-8734.430116,229.828649
2751.452746,1480.411884,-9474.636058,0.000000
2751.453074,518.144159,-11695.253884,842.705048
2751.453401,-592.164754,-13397.727550,459.657299
2751.453728,-1850.514855,-13471.748144,-1302.362347
2751.454056,-2368.659014,-10362.883188,-2374.896044
2751.454383,-2368.659014,-7179.997637,-2451.505594
2751.454710,-2146.597232,-7846.182985,-536.266849
2751.455038,-2960.823768,-9326.594869,1072.533697
2751.455365,-2220.617826,-9992.780217,1378.971896
2751.455692,-1258.350101,-8512.368333,842.705048
2751.456020,-1036.288319,-6365.771101,76.609550
2751.456347,-962.267725,-6069.688724,612.876398
2751.456674,-1258.350101,-8142.265362,1685.410096
2751.457002,-814.226536,-10362.883188,1225.752797
2751.457329,-296.082377,-10807.006753,-536.266849
2751.457656,-814.226536,-10362.883188,-1685.410096
2751.457983,-666.185348,-10066.800811,-1915.238745
2751.458311,-1036.288319,-10362.883188,-1072.533697
2751.458638,-962.267725,-11547.212695,-536.266849
2751.458965,-518.144159,-12139.377449,-1225.752797
2751.459293,222.061783,-10658.965565,-1455.581446
2751.459620,1184.329507,-7254.018232,-995.924147
2751.459947,962.267725,-6291.750507,689.485948
2751.460275,740.205942,-8068.244768,1302.362347
2751.460602,222.061783,-10362.883188,842.705048
2751.460929,444.123565,-10881.027347,-842.705048
2751.461257,1554.432478,-8956.491898,-1762.019645
2751.461584,1924.535449,-8660.409521,-2451.505594
2751.461911,1850.514855,-10732.986159,-459.657299
2751.462239,1628.453072,-12879.583391,-306.438199
2751.462566,1850.514855,-14063.912898,-1072.533697
2751.462893,1702.473667,-12583.501014,-2221.676944
2751.463220,1998.556043,-10436.903782,-2451.505594
2751.463548,1702.473667,-9252.574275,153.219100
2751.463875,1036.288319,-8808.450710,1915.238745
2751.464202,740.205942,-9252.574275,1685.410096
2751.464530,296.082377,-8660.409521,842.705048
2751.464857,666.185348,-6883.915261,-459.657299
2751.465184,1184.329507,-5995.668130,-383.047749
2751.465512,740.205942,-7476.080014,229.828649
2751.465839,888.247130,-10732.986159,1991.848295
2751.466166,1258.350101,-11991.336260,612.876398
2751.466494,1628.453072,-10436.903782,-1072.533697
2751.466821,1332.370696,-9030.512492,-842.705048
2751.467148,1850.514855,-9770.718434,-229.828649
2751.467476,1480.411884,-11177.109724,612.876398
2751.467803,296.082377,-11843.295072,1072.533697
2751.468130,-222.061783,-9474.636058,0.000000
2751.468458,666.185348,-7254.018232,-1072.533697
2751.468785,1184.329507,-6661.853478,-1072.533697
2751.469112,0.000000,-7476.080014,612.876398
2751.469439,222.061783,-9622.677246,1608.800546
2751.469767,592.164754,-10214.842000,689.485948
2751.470094,740.205942,-8438.347739,-612.876398
2751.470422,1110.308913,-7476.080014,-536.266849
2751.470750,666.185348,-9252.574275,76.609550
2751.471077,-592.164754,-11695.253884,919.314598
2751.471405,-1480.411884,-12805.562797,0.000000
2751.471733,-1702.473667,-11251.130318,-1991.848295
2751.472060,-1628.453072,-9178.553681,-3140.991542
2751.472388,-1776.494261,-8808.450710,-2451.505594
2751.472716,-2812.782580,-10140.821405,-536.266849
2751.473043,-2516.700203,-11473.192101,153.219100
2751.473371,-2664.741391,-10658.965565,-1762.019645
2751.473699,-1776.494261,-8956.491898,-1915.238745
2751.474026,-888.247130,-6513.812290,-919.314598
2751.474354,0.000000,-7698.141797,689.485948
2751.474682,74.020594,-10584.944971,2374.896044
2751.475009,370.102971,-12065.356855,919.314598
2751.475337,370.102971,-10732.986159,-459.657299
2751.475665,888.247130,-8586.388927,-2068.457845
2751.475993,814.226536,-8882.471304,-1302.362347
2751.476320,0.000000,-11473.192101,153.219100
2751.476648,0.000000,-12065.356855,229.828649
2751.476976,222.061783,-10881.027347,-689.485948
2751.477303,1036.288319,-9030.512492,-612.876398
2751.477631,1184.329507,-7698.141797,0.000000
2751.477959,666.185348,-8216.285956,1608.800546
2751.478286,-222.061783,-9474.636058,2604.724693
2751.478614,-370.102971,-9548.656652,1302.362347
2751.478942,0.000000,-8216.285956,-306.438199
2751.479269,740.205942,-7105.977043,-995.924147
2751.479597,1184.329507,-7846.182985,-689.485948
2751.479925,592.164754,-10362.883188,919.314598
2751.480252,1110.308913,-13101.645173,612.876398
2751.480580,962.267725,-12583.501014,-919.314598
2751.480908,814.226536,-9474.636058,-2145.067394
2751.481235,1332.370696,-8808.450710,-1532.190996
2751.481563,1702.473667,-10140.821405,612.876398
2751.481891,1702.473667,-11103.089130,1991.848295
2751.482218,1258.350101,-10584.944971,1149.143247
2751.482546,1628.453072,-8956.491898,306.438199
2751.482874,1628.453072,-6809.894666,-459.657299
2751.483201,444.123565,-8142.265362,0.000000
2751.483529,-148.041188,-9844.739029,536.266849
2751.483857,-518.144159,-11325.150913,-612.876398
2751.484184,592.164754,-11991.336260,-2757.943793
2751.484512,1406.391290,-10881.027347,-3370.820191
2751.484840,1554.432478,-10807.006753,-1072.533697
2751.485167,1332.370696,-11399.171507,919.314598
2751.485495,518.144159,-11917.315666,1225.752797
2751.485823,74.020594,-11473.192101,0.000000
2751.486150,148.041188,-9104.533087,-1378.971896
2751.486478,-296.082377,-6661.853478,-306.438199
2751.486806,-222.061783,-6587.832884,689.485948
2751.487133,-1036.288319,-8808.450710,1838.629195
2751.487461,-1554.432478,-10436.903782,1608.800546
2751.487789,-962.267725,-9918.759623,-229.828649
2751.488116,296.082377,-8586.388927,-1762.019645
2751.488444,740.205942,-7994.224174,-766.095498
2751.488772,666.185348,-9030.512492,766.095498
2751.489099,444.123565,-11843.295072,1225.752797
2751.489427,-666.185348,-11473.192101,2221.676944
2751.489755,-666.185348,-8882.471304,-612.876398
2751.490082,-740.205942,-6439.791695,-1762.019645
2751.490410,-1110.308913,-7402.059420,-383.047749
2751.490738,-1702.473667,-9696.697840,612.876398
2751.491065,-1776.494261,-10436.903782,459.657299
2751.491393,-1776.494261,-9770.718434,-1149.143247
2751.491721,0.000000,-8512.368333,-1532.190996
2751.492048,296.082377,-8586.388927,-1072.533697
2751.492376,444.123565,-10510.924376,1302.362347
2751.492704,962.267725,-11769.274478,1991.848295
2751.493031,888.247130,-11547.212695,0.000000
2751.493359,888.247130,-10214.842000,-1072.533697
2751.493687,296.082377,-8364.327145,-1072.533697
2751.494014,74.020594,-8808.450710,459.657299
2751.494342,-888.247130,-10807.006753,76.609550
2751.494670,-1258.350101,-12583.501014,-1302.362347
2751.494997,-814.226536,-10584.944971,-3140.991542
2751.495325,0.000000,-8216.285956,-2834.553343
2751.495653,666.185348,-8586.388927,-766.095498
2751.495980,888.247130,-10658.965565,1608.800546
2751.496308,1332.370696,-11547.212695,919.314598
2751.496636,2072.576638,-11029.068536,0.000000
2751.496963,2368.659014,-9104.533087,-1608.800546
2751.497291,1998.556043,-7476.080014,-995.924147
2751.497619,1258.350101,-8438.347739,1225.752797
2751.497946,1036.288319,-10140.821405,1991.848295
2751.498274,1554.432478,-10732.986159,842.705048
2751.498602,1332.370696,-10436.903782,-919.314598
2751.498929,1850.514855,-8586.388927,-689.485948
2751.499257,1554.432478,-7772.162391,76.609550
2751.499585,296.082377,-9326.594869,1608.800546
2751.499912,-296.082377,-10658.965565,1455.581446
2751.500240,-222.061783,-9770.718434,-153.219100
2751.500568,592.164754,-7624.121203,-1685.410096
2751.500895,1184.329507,-7476.080014,-383.047749
2751.501223,1258.350101,-9548.656652,1378.971896
2751.501551,222.061783,-11251.130318,1608.800546
2751.501878,0.000000,-11325.150913,-459.657299
2751.502206,0.000000,-9992.780217,-2451.505594
2751.502534,0.000000,-7920.203579,-2451.505594
2751.502861,296.082377,-8216.285956,-766.095498
2751.503189,1036.288319,-11177.109724,919.314598
2751.503517,962.267725,-12953.603985,919.314598
2751.503844,1850.514855,-12139.377449,0.000000
2751.504172,2294.638420,-9548.656652,-1149.143247
2751.504500,2072.576638,-8364.327145,-1149.143247
2751.504827,592.164754,-8882.471304,153.219100
2751.505155,-1258.350101,-9770.718434,919.314598
2751.505483,-1850.514855,-10140.821405,-766.095498
2751.505810,-1184.329507,-9400.615463,-2834.553343
2751.506138,-518.144159,-9030.512492,-2757.943793
2751.506466,-888.247130,-9918.759623,-766.095498
2751.506793,-1110.308913,-11547.212695,459.657299
2751.507121,-1554.432478,-11917.315666,153.219100
2751.507449,-962.267725,-10436.903782,-1685.410096
2751.507776,-370.102971,-8142.265362,-1991.848295
2751.508104,0.000000,-7105.977043,-689.485948
2751.508432,-148.041188,-8882.471304,1532.190996
2751.508760,148.041188,-10584.944971,1838.629195
2751.509087,0.000000,-10510.924376,1072.533697
2751.509415,-222.061783,-8364.327145,229.828649
2751.509743,740.205942,-7328.038826,-1072.533697
2751.510070,222.061783,-8586.388927,306.438199
2751.510398,0.000000,-11103.089130,612.876398
2751.510726,0.000000,-12287.418637,0.000000
2751.511053,370.102971,-10140.821405,-1149.143247
2751.511381,1480.411884,-8364.327145,-842.705048
2751.511709,1554.432478,-7772.162391,0.000000
2751.512036,592.164754,-9474.636058,1991.848295
2751.512364,0.000000,-10881.027347,2145.067394
2751.512692,222.061783,-10362.883188,-383.047749
2751.513019,222.061783,-8586.388927,-2068.457845
2751.513347,148.041188,-7624.121203,-1838.629195
2751.513675,222.061783,-8660.409521,-153.219100
2751.514002,814.226536,-11177.109724,1072.533697
2751.514330,1258.350101,-12583.501014,919.314598
2751.514658,1776.494261,-10584.944971,-1225.752797
2751.514985,2368.659014,-8660.409521,-2221.676944
2751.515313,1702.473667,-9400.615463,-153.219100
2751.515641,666.185348,-10732.986159,919.314598
2751.515968,444.123565,-11547.212695,536.266849
2751.516296,444.123565,-10584.944971,-612.876398
2751.516624,1036.288319,-8438.347739,-2068.457845
2751.516951,962.267725,-7476.080014,-1455.581446
2751.517279,148.041188,-9178.553681,0.000000
2751.517607,-370.102971,-11769.274478,383.047749
2751.517934,0.000000,-12065.356855,-919.314598
2751.518262,370.102971,-9696.697840,-1838.629195
2751.518590,962.267725,-7698.141797,-1838.629195
2751.518917,1850.514855,-8216.285956,-689.485948
2751.519245,1850.514855,-10362.883188,1762.019645
2751.519573,1184.329507,-11325.150913,1762.019645
2751.519900,1406.391290,-10807.006753,-306.438199
2751.520228,962.267725,-8660.409521,-995.924147
2751.520556,222.061783,-7105.977043,-536.266849
2751.520883,-814.226536,-8586.388927,842.705048
2751.521211,-888.247130,-11399.171507,612.876398
2751.521539,-666.185348,-10732.986159,383.047749
2751.521866,-370.102971,-8956.491898,-1455.581446
2751.522194,-148.041188,-8068.244768,-842.705048
2751.522522,0.000000,-8808.450710,459.657299
2751.522849,-222.061783,-10066.800811,1608.800546
2751.523177,-962.267725,-11177.109724,459.657299
2751.523505,-518.144159,-10584.944971,-1072.533697
2751.523832,148.041188,-8364.327145,-1838.629195
2751.524160,296.082377,-8512.368333,-1608.800546
2751.524488,-518.144159,-10066.800811,689.485948
2751.524815,-666.185348,-12065.356855,766.095498
2751.525143,-888.247130,-11695.253884,-689.485948
2751.525471,74.020594,-9548.656652,-2068.457845
2751.525798,1036.288319,-7698.141797,-2298.286494
2751.526126,888.247130,-8956.491898,-306.438199
2751.526454,666.185348,-10732.986159,1991.848295
2751.526781,296.082377,-11177.109724,1072.533697
2751.527109,888.247130,-10214.842000,-689.485948
2751.527437,962.267725,-8808.450710,-1149.143247
2751.527764,592.164754,-7698.141797,76.609550
2751.528092,0.000000,-9400.615463,919.314598
2751.528420,-814.226536,-11177.109724,842.705048
2751.528747,-444.123565,-11621.233289,-1532.190996
2751.529075,-148.041188,-9622.677246,-3140.991542
2751.529403,444.123565,-8290.306550,-2298.286494
2751.529730,962.267725,-9622.677246,383.047749
2751.530058,814.226536,-11177.109724,1762.019645
2751.530386,1406.391290,-10881.027347,995.924147
2751.530713,1924.535449,-9474.636058,-995.924147
2751.531041,1480.411884,-7105.977043,-536.266849
2751.531369,518.144159,-7105.977043,459.657299
2751.531696,-296.082377,-8586.388927,1762.019645
2751.532024,-666.185348,-10807.006753,1225.752797
2751.532352,370.102971,-10584.944971,-229.828649
2751.532679,2294.638420,-9326.594869,-1608.800546
2751.533007,2960.823768,-8808.450710,-689.485948
2751.533335,2886.803174,-9474.636058,1149.143247
2751.533662,1184.329507,-10955.047942,2298.286494
2751.533990,444.123565,-11103.089130,919.314598
2751.534318,-370.102971,-9474.636058,-842.705048
2751.534645,-296.082377,-7402.059420,-1685.410096
2751.534973,-222.061783,-6957.935855,0.000000
2751.535301,-666.185348,-9030.512492,1455.581446
2751.535628,-814.226536,-11251.130318,612.876398
2751.535956,-962.267725,-11251.130318,-919.314598
2751.536284,-518.144159,-9474.636058,-2451.505594
2751.536611,444.123565,-9474.636058,-2528.115143
2751.536939,666.185348,-10436.903782,0.000000
2751.537267,962.267725,-11695.253884,919.314598
2751.537594,1258.350101,-12361.439231,306.438199
2751.537922,1110.308913,-10807.006753,-689.485948
2751.538250,814.226536,-7994.224174,-766.095498
2751.538577,370.102971,-8364.327145,76.609550
2751.538905,-592.164754,-10584.944971,842.705048
2751.539233,-2072.576638,-10881.027347,229.828649
2751.539560,-666.185348,-9770.718434,-2068.457845
2751.539888,666.185348,-8142.265362,-2221.676944
2751.540216,1776.494261,-8216.285956,-766.095498
2751.540543,888.247130,-9844.739029,1915.238745
2751.540871,74.020594,-11325.150913,2451.505594
2751.541199,222.061783,-11325.150913,0.000000
2751.541526,222.061783,-9548.656652,-2068.457845
2751.541854,740.205942,-8438.347739,-1762.019645
2751.542182,592.164754,-7772.162391,1072.533697
2751.542510,-222.061783,-9474.636058,2451.505594
2751.542837,-592.164754,-10807.006753,1072.533697
2751.543165,-666.185348,-9474.636058,-995.924147
2751.543493,-888.247130,-7105.977043,-1838.629195
2751.543820,-1184.329507,-7105.977043,-766.095498
2751.544148,-592.164754,-9400.615463,383.047749
2751.544476,-444.123565,-10807.006753,1455.581446
2751.544803,148.041188,-10807.006753,76.609550
2751.545131,370.102971,-9030.512492,-995.924147
2751.545459,592.164754,-8216.285956,-689.485948
2751.545786,148.041188,-9696.697840,76.609550
2751.546114,74.020594,-10807.006753,229.828649
2751.546442,148.041188,-12065.356855,-229.828649
2751.546769,222.061783,-10510.924376,-1455.581446
2751.547097,1110.308913,-8290.306550,-2298.286494
2751.547425,1406.391290,-8216.285956,-995.924147
2751.547752,962.267725,-10066.800811,612.876398
2751.548080,814.226536,-12361.439231,1072.533697
2751.548408,1406.391290,-11917.315666,-612.876398
2751.548735,2072.576638,-9400.615463,-1378.971896
2751.549063,2368.659014,-8068.244768,-229.828649
2751.549391,1110.308913,-9326.594869,1302.362347
2751.549718,-222.061783,-10362.883188,2374.896044
2751.550046,-888.247130,-10510.924376,0.000000
2751.550374,-1702.473667,-10140.821405,-2145.067394
2751.550701,-1554.432478,-9104.533087,-3600.648841
2751.551029,-962.267725,-7920.203579,-919.314598
2751.551357,-370.102971,-9770.718434,76.609550
2751.551684,-370.102971,-11325.150913,612.876398
2751.552012,0.000000,-10881.027347,0.000000
2751.552340,888.247130,-8364.327145,-842.705048
2751.552667,1258.350101,-7031.956449,-536.266849
2751.552995,1406.391290,-8438.347739,1608.800546
2751.553323,296.082377,-9178.553681,2987.772442
2751.553650,74.020594,-9474.636058,2221.676944
2751.553978,370.102971,-8438.347739,0.000000
2751.554306,1184.329507,-7772.162391,-1302.362347
2751.554633,1036.288319,-8512.368333,-153.219100
2751.554961,0.000000,-9918.759623,842.705048
2751.555289,-148.041188,-11547.212695,229.828649
2751.555616,-222.061783,-11399.171507,-995.924147
2751.555944,74.020594,-9474.636058,-1532.190996
2751.556272,444.123565,-7624.121203,-1225.752797
2751.556599,370.102971,-8808.450710,1072.533697
2751.556927,0.000000,-10658.965565,2068.457845
2751.557255,148.041188,-10955.047942,229.828649
2751.557582,-666.185348,-9326.594869,-1838.629195
2751.557910,-740.205942,-8290.306550,-2374.896044
2751.558238,-370.102971,-9104.533087,-1225.752797
2751.558565,-814.226536,-10658.965565,0.000000
2751.558893,-518.144159,-12287.418637,-306.438199
2751.559221,592.164754,-11695.253884,-1225.752797
2751.559548,1406.391290,-9474.636058,-1455.581446
2751.559876,1480.411884,-8808.450710,-536.266849
2751.560204,814.226536,-9918.759623,383.047749
2751.560531,444.123565,-11769.274478,1532.190996
2751.560859,-296.082377,-11325.150913,0.000000
2751.561187,0.000000,-8364.327145,-1685.410096
2751.561514,592.164754,-6661.853478,-1915.238745
2751.561842,222.061783,-8364.327145,306.438199
2751.562170,0.000000,-10807.006753,2374.896044
2751.562497,222.061783,-11473.192101,229.828649
2751.562825,0.000000,-9770.718434,-1455.581446
2751.563153,370.102971,-8660.409521,-2221.676944
2751.563480,444.123565,-8660.409521,-536.266849
2751.563808,518.144159,-9548.656652,1915.238745
2751.564136,888.247130,-10658.965565,2451.505594
2751.564463,814.226536,-9918.759623,995.924147
2751.564791,222.061783,-7994.224174,-689.485948
2751.565119,1110.308913,-7105.977043,-766.095498
2751.565446,962.267725,-8882.471304,0.000000
2751.565774,0.000000,-10584.944971,1225.752797
2751.566102,74.020594,-11325.150913,0.000000
2751.566429,444.123565,-9992.780217,-1685.410096
2751.566757,666.185348,-7920.203579,-1225.752797
2751.567085,740.205942,-8512.368333,76.609550
2751.567412,666.185348,-10881.027347,1838.629195
2751.567740,888.247130,-12361.439231,1225.752797
2751.568068,814.226536,-11251.130318,-383.047749
2751.568395,814.226536,-8956.491898,-1455.581446
2751.568723,1258.350101,-7920.203579,-1302.362347
2751.569051,814.226536,-9178.553681,0.000000
2751.569378,296.082377,-10955.047942,1532.190996
2751.569706,-296.082377,-11991.336260,306.438199
2751.570033,444.123565,-10658.965565,-1302.362347
2751.570361,1258.350101,-9104.533087,-2298.286494
2751.570689,888.247130,-9548.656652,-383.047749
2751.571016,0.000000,-10288.862594,1838.629195
2751.571344,-962.267725,-10955.047942,1532.190996
2751.571672,-370.102971,-10436.903782,-919.314598
2751.571999,0.000000,-8438.347739,-1915.238745
2751.572327,-444.123565,-7624.121203,-1225.752797
2751.572654,-1184.329507,-8364.327145,919.314598
2751.572982,-1110.308913,-10807.006753,1378.971896
2751.573310,-1110.308913,-11621.233289,-766.095498
2751.573637,-222.061783,-9992.780217,-2987.772442
2751.573965,518.144159,-8438.347739,-3217.601092
2751.574292,1036.288319,-9104.533087,-383.047749
2751.574620,1110.308913,-11251.130318,1838.629195
2751.574948,962.267725,-11917.315666,1378.971896
2751.575275,1406.391290,-10362.883188,-383.047749
2751.575603,1850.514855,-7476.080014,-1225.752797
2751.575930,1332.370696,-6809.894666,0.000000
2751.576258,0.000000,-8438.347739,1685.410096
2751.576586,-666.185348,-9992.780217,2145.067394
2751.576913,0.000000,-10510.924376,76.609550
2751.577241,1258.350101,-10066.800811,-2451.505594
2751.577569,1776.494261,-9474.636058,-1302.362347
2751.577896,1332.370696,-9400.615463,842.705048
2751.578224,592.164754,-10362.883188,2145.067394
2751.578551,666.185348,-11621.233289,1302.362347
2751.578879,-962.267725,-9918.759623,-766.095498
2751.579207,-1184.329507,-7179.997637,-1532.190996
2751.579534,-962.267725,-7476.080014,-612.876398
2751.579862,-1110.308913,-9030.512492,459.657299
2751.580189,-1110.308913,-10881.027347,689.485948
2751.580517,-1036.288319,-11103.089130,-1302.362347
2751.580845,370.102971,-9548.656652,-2374.896044
2751.581172,1258.350101,-8734.430116,-2145.067394
2751.581500,1332.370696,-10732.986159,-766.095498
2751.581828,1406.391290,-11843.295072,1532.190996
2751.582155,1776.494261,-12139.377449,766.095498
2751.582483,1924.535449,-10658.965565,-229.828649
2751.582810,2368.659014,-8290.306550,-383.047749
2751.583138,1998.556043,-7698.141797,306.438199
2751.583466,592.164754,-9030.512492,1225.752797
2751.583793,-518.144159,-10436.903782,306.438199
2751.584121,-518.144159,-10584.944971,-995.924147
2751.584448,0.000000,-8882.471304,-2451.505594
2751.584776,518.144159,-8142.265362,-1532.190996
2751.585104,148.041188,-9104.533087,766.095498
2751.585431,74.020594,-11399.171507,2298.286494
2751.585759,0.000000,-11177.109724,383.047749
2751.586086,296.082377,-9622.677246,-1378.971896
2751.586414,444.123565,-8216.285956,-1762.019645
2751.586742,666.185348,-8586.388927,0.000000
2751.587069,888.247130,-9400.615463,1225.752797
2751.587397,296.082377,-10510.924376,766.095498
2751.587725,0.000000,-10658.965565,-153.219100
2751.588052,0.000000,-8290.306550,-995.924147
2751.588380,0.000000,-6809.894666,-689.485948
2751.588707,-888.247130,-8734.430116,612.876398
2751.589035,-1406.391290,-11473.192101,1225.752797
2751.589363,-814.226536,-11769.274478,-229.828649
2751.589690,370.102971,-10288.862594,-1915.238745
2751.590018,888.247130,-8438.347739,-1838.629195
2751.590345,1184.329507,-8882.471304,0.000000
2751.590673,592.164754,-10362.883188,1608.800546
2751.591001,0.000000,-11177.109724,689.485948
2751.591328,0.000000,-11029.068536,-1608.800546
2751.591656,-740.205942,-9326.594869,-2298.286494
2751.591984,-370.102971,-8290.306550,-1378.971896
2751.592311,-222.061783,-9178.553681,536.266849
2751.592639,148.041188,-11843.295072,1225.752797
2751.592966,740.205942,-11991.336260,536.266849
2751.593294,1258.350101,-10214.842000,-689.485948
2751.593622,1702.473667,-7772.162391,-1302.362347
2751.593949,1480.411884,-8586.388927,76.609550
2751.594277,666.185348,-9844.739029,1378.971896
2751.594604,74.020594,-11029.068536,689.485948
2751.594932,-740.205942,-10214.842000,-229.828649
2751.595260,-518.144159,-8438.347739,-2298.286494
2751.595587,-962.267725,-8290.306550,-1302.362347
2751.595915,-1406.391290,-9918.759623,0.000000
2751.596242,-1332.370696,-11325.150913,229.828649
2751.596570,-740.205942,-10955.047942,-612.876398
2751.596898,296.082377,-8882.471304,-1532.190996
2751.597225,1184.329507,-7105.977043,-306.438199
2751.597553,1406.391290,-6809.894666,919.314598
2751.597881,370.102971,-9030.512492,2604.724693
2751.598208,888.247130,-10658.965565,2298.286494
2751.598536,1628.453072,-9844.739029,306.438199
2751.598863,2368.659014,-8734.430116,-1072.533697
2751.599191,1702.473667,-8660.409521,153.219100
2751.599519,592.164754,-9844.739029,1915.238745
2751.599846,370.102971,-11917.315666,459.657299
2751.600174,0.000000,-11843.295072,-1685.410096
2751.600501,-592.164754,-9622.677246,-2834.553343
2751.600829,-370.102971,-7920.203579,-1991.848295
2751.601157,518.144159,-8438.347739,229.828649
2751.601484,518.144159,-9326.594869,1991.848295
2751.601812,814.226536,-10955.047942,995.924147
2751.602140,0.000000,-9992.780217,-919.314598
2751.602467,444.123565,-8660.409521,-1762.019645
2751.602795,296.082377,-8586.388927,-1608.800546
2751.603122,0.000000,-10436.903782,-306.438199
2751.603450,370.102971,-12287.418637,76.609550
2751.603778,1554.432478,-12139.377449,-995.924147
2751.604105,2368.659014,-10140.821405,-919.314598
2751.604433,2368.659014,-8586.388927,-153.219100
2751.604760,1998.556043,-9178.553681,76.609550
2751.605088,1036.288319,-10436.903782,1149.143247
2751.605416,0.000000,-10732.986159,536.266849
2751.605743,-592.164754,-9178.553681,-689.485948
2751.606071,0.000000,-6587.832884,-995.924147
2751.606398,370.102971,-7105.977043,766.095498
2751.606726,0.000000,-9844.739029,1608.800546
2751.607054,-296.082377,-11695.253884,1072.533697
2751.607381,-740.205942,-11399.171507,-919.314598
2751.607709,-888.247130,-8808.450710,-2451.505594
2751.608037,-740.205942,-7772.162391,-2298.286494
2751.608364,-740.205942,-9252.574275,229.828649
2751.608692,-740.205942,-10807.006753,1608.800546
2751.609019,296.082377,-10955.047942,842.705048
2751.609347,74.020594,-9474.636058,0.000000
2751.609675,222.061783,-8290.306550,-842.705048
2751.610002,222.061783,-8660.409521,-383.047749
2751.610330,0.000000,-9918.759623,995.924147
2751.610657,0.000000,-10584.944971,612.876398
2751.610985,0.000000,-10436.903782,-1072.533697
2751.611313,370.102971,-8290.306550,-1762.019645
2751.611640,592.164754,-7179.997637,-612.876398
2751.611968,370.102971,-9400.615463,995.924147
2751.612296,74.020594,-12287.418637,1838.629195
2751.612623,370.102971,-12287.418637,-459.657299
2751.612951,74.020594,-9844.739029,-2221.676944
2751.613278,0.000000,-8586.388927,-2604.724693
2751.613606,0.000000,-9252.574275,-383.047749
2751.613934,-444.123565,-10362.883188,1838.629195
2751.614261,-740.205942,-11251.130318,612.876398
2751.614589,-222.061783,-10288.862594,-1302.362347
2751.614916,222.061783,-8586.388927,-1762.019645
2751.615244,740.205942,-8068.244768,306.438199
2751.615572,296.082377,-9548.656652,1072.533697
2751.615899,0.000000,-10214.842000,1455.581446
2751.616227,0.000000,-10066.800811,76.609550
2751.616554,74.020594,-9400.615463,-1378.971896
2751.616882,444.123565,-7772.162391,-612.876398
2751.617210,148.041188,-8290.306550,1072.533697
2751.617537,-370.102971,-10214.842000,1455.581446
2751.617865,74.020594,-11029.068536,-689.485948
2751.618193,888.247130,-10288.862594,-1532.190996
2751.618520,1406.391290,-8438.347739,-1685.410096
2751.618848,1776.494261,-7994.224174,-536.266849
2751.619175,1776.494261,-9696.697840,995.924147
2751.619503,1776.494261,-11621.233289,1762.019645
2751.619831,1702.473667,-10881.027347,536.266849
2751.620158,1406.391290,-8808.450710,-1225.752797
2751.620486,888.247130,-7328.038826,-842.705048
2751.620813,814.226536,-8734.430116,-153.219100
2751.621141,-444.123565,-10807.006753,1685.410096
2751.621469,-370.102971,-11177.109724,383.047749
2751.621796,296.082377,-9622.677246,-1991.848295
2751.622124,1406.391290,-9844.739029,-1991.848295
2751.622452,1258.350101,-9622.677246,76.609550
2751.622779,1184.329507,-10584.944971,1072.533697
2751.623107,1036.288319,-11473.192101,995.924147
2751.623434,0.000000,-11399.171507,0.000000
2751.623762,-148.041188,-8956.491898,-766.095498
2751.624090,-592.164754,-7105.977043,-842.705048
2751.624417,-1258.350101,-8808.450710,0.000000
2751.624745,-1110.308913,-11103.089130,612.876398
2751.625072,-518.144159,-10881.027347,-919.314598
2751.625400,-666.185348,-9252.574275,-1455.581446
2751.625728,518.144159,-8438.347739,-1838.629195
2751.626055,962.267725,-8734.430116,-766.095498
2751.626383,592.164754,-10807.006753,1378.971896
2751.626711,1110.308913,-12139.377449,1149.143247
2751.627038,1258.350101,-10881.027347,306.438199
2751.627366,1036.288319,-8882.471304,-842.705048
2751.627693,666.185348,-7994.224174,689.485948
2751.628021,-592.164754,-8882.471304,919.314598
2751.628349,-1258.350101,-9770.718434,995.924147
2751.628676,-1184.329507,-9844.739029,-1072.533697
2751.629004,-888.247130,-8734.430116,-2221.676944
2751.629331,-518.144159,-7624.121203,-1532.190996
2751.629659,74.020594,-8734.430116,306.438199
2751.629987,148.041188,-9770.718434,1072.533697
2751.630314,0.000000,-11769.274478,689.485948
2751.630642,0.000000,-10955.047942,-842.705048
2751.630969,370.102971,-9252.574275,-1915.238745
2751.631297,444.123565,-8808.450710,-919.314598
2751.631625,518.144159,-9770.718434,459.657299
2751.631952,-666.185348,-10881.027347,1532.190996
2751.632280,-222.061783,-10214.842000,0.000000
2751.632608,518.144159,-8512.368333,-1455.581446
2751.632935,518.144159,-7402.059420,-1608.800546
2751.633263,74.020594,-8438.347739,-383.047749
2751.633590,-592.164754,-10955.047942,1455.581446
2751.633918,0.000000,-10955.047942,229.828649
2751.634246,592.164754,-10436.903782,-1149.143247
2751.634573,1406.391290,-9400.615463,-1149.143247
2751.634901,1406.391290,-9252.574275,-306.438199
2751.635228,1184.329507,-10288.862594,995.924147
2751.635556,1258.350101,-11473.192101,919.314598
2751.635884,888.247130,-11177.109724,-689.485948
2751.636211,74.020594,-9400.615463,-1378.971896
2751.636539,0.000000,-7476.080014,-689.485948
2751.636867,0.000000,-8364.327145,76.609550
2751.637194,814.226536,-10881.027347,536.266849
2751.637522,1628.453072,-11991.336260,306.438199
2751.637849,2220.617826,-10807.006753,0.000000
2751.638177,2738.761985,-8068.244768,76.609550
2751.638505,2442.679609,-7698.141797,536.266849
2751.638832,1628.453072,-9474.636058,1608.800546
2751.639160,444.123565,-10510.924376,1149.143247
2751.639487,370.102971,-10288.862594,-689.485948
2751.639815,-222.061783,-9770.718434,-1378.971896
2751.640143,-296.082377,-8882.471304,-1455.581446
2751.640470,-962.267725,-9326.594869,-306.438199
2751.640798,-1850.514855,-10362.883188,76.609550
2751.641125,-1628.453072,-10658.965565,-536.266849
2751.641453,-1110.308913,-9474.636058,-1685.410096
2751.641781,-666.185348,-7846.182985,-1991.848295
2751.642108,0.000000,-6735.874072,0.000000
2751.642436,0.000000,-7994.224174,2451.505594
2751.642764,0.000000,-10807.006753,3217.601092
2751.643091,0.000000,-10584.944971,2068.457845
2751.643419,1036.288319,-8808.450710,-1225.752797
2751.643746,370.102971,-7994.224174,-1685.410096
2751.644074,-740.205942,-10362.883188,-306.438199
2751.644402,-888.247130,-11695.253884,0.000000
2751.644729,-1110.308913,-12213.398043,-995.924147
2751.645057,-1184.329507,-10881.027347,-2068.457845
2751.645384,-518.144159,-8882.471304,-1991.848295
2751.645712,-148.041188,-7698.141797,-689.485948
2751.646040,-518.144159,-9696.697840,1455.581446
2751.646367,0.000000,-10955.047942,995.924147
2751.646695,0.000000,-10436.903782,-153.219100
2751.647023,74.020594,-8660.409521,-1302.362347
2751.647350,814.226536,-7698.141797,-1378.971896
2751.647678,444.123565,-8956.491898,0.000000
2751.648005,370.102971,-12139.377449,1378.971896
2751.648333,1628.453072,-12435.459826,153.219100
2751.648661,2220.617826,-10066.800811,-1608.800546
2751.648988,1850.514855,-9030.512492,-1302.362347
2751.649316,1628.453072,-9622.677246,153.219100
2751.649643,814.226536,-10732.986159,1685.410096
2751.649971,296.082377,-10510.924376,1762.019645
2751.650299,296.082377,-8808.450710,-306.438199
2751.650626,296.082377,-7031.956449,-1685.410096
2751.650954,370.102971,-7105.977043,0.000000
2751.651281,296.082377,-8586.388927,1302.362347
2751.651609,296.082377,-10584.944971,1225.752797
2751.651937,74.020594,-11029.068536,-612.876398
2751.652264,0.000000,-9622.677246,-2298.286494
2751.652592,962.267725,-8216.285956,-2145.067394
2751.652920,1258.350101,-9252.574275,-153.219100
2751.653247,1480.411884,-11103.089130,1608.800546
2751.653575,1998.556043,-11843.295072,1225.752797
2751.653902,2146.597232,-10658.965565,0.000000
2751.654230,1850.514855,-8364.327145,-919.314598
2751.654558,1850.514855,-7994.224174,-383.047749
2751.654885,814.226536,-9104.533087,766.095498
2751.655213,888.247130,-9770.718434,689.485948
2751.655540,1554.432478,-10436.903782,-383.047749
2751.655868,888.247130,-9104.533087,-919.314598
2751.656196,592.164754,-8586.388927,-459.657299
2751.656523,148.041188,-9548.656652,459.657299
2751.656851,-740.205942,-11251.130318,689.485948
2751.657179,-222.061783,-13249.686362,-612.876398
2751.657506,-666.185348,-10214.842000,-1838.629195
2751.657834,-296.082377,-8734.430116,-2145.067394
2751.658161,0.000000,-9178.553681,-612.876398
2751.658489,-888.247130,-9992.780217,995.924147
2751.658817,-1332.370696,-11029.068536,689.485948
2751.659144,-1258.350101,-10658.965565,-306.438199
2751.659472,-666.185348,-9104.533087,-1532.190996
2751.659799,-296.082377,-7402.059420,-459.657299
2751.660127,-518.144159,-8142.265362,1225.752797
2751.660455,-148.041188,-10362.883188,2221.676944
2751.660782,0.000000,-11177.109724,1685.410096
2751.661110,-740.205942,-9400.615463,0.000000
2751.661437,-888.247130,-7994.224174,-1532.190996
2751.661765,-1628.453072,-8216.285956,-2221.676944
2751.662093,-1110.308913,-9770.718434,0.000000
2751.662420,-814.226536,-11325.150913,-229.828649
2751.662748,-962.267725,-11029.068536,-383.047749
2751.663076,0.000000,-9474.636058,-1225.752797
2751.663403,814.226536,-8586.388927,-1149.143247
2751.663731,518.144159,-9992.780217,306.438199
2751.664058,0.000000,-10807.006753,1532.190996
2751.664386,74.020594,-10214.842000,612.876398
2751.664714,222.061783,-8216.285956,-1225.752797
2751.665041,0.000000,-7698.141797,-995.924147
2751.665369,518.144159,-8512.368333,383.047749
2751.665696,592.164754,-10214.842000,1915.238745
2751.666024,592.164754,-11547.212695,1072.533697
2751.666352,666.185348,-11547.212695,-1838.629195
2751.666679,1332.370696,-10214.842000,-2911.162892
2751.667007,1036.288319,-8142.265362,-1685.410096
2751.667335,1184.329507,-9622.677246,306.438199
2751.667662,1702.473667,-11991.336260,1455.581446
2751.667990,2072.576638,-11621.233289,842.705048
2751.668317,1702.473667,-9696.697840,0.000000
2751.668645,1776.494261,-7550.100608,-1225.752797
2751.668973,1480.411884,-8586.388927,306.438199
2751.669300,518.144159,-9622.677246,1225.752797
2751.669628,0.000000,-9918.759623,229.828649
2751.669956,0.000000,-9548.656652,-1532.190996
2751.670283,962.267725,-8882.471304,-2145.067394
2751.670611,1924.535449,-8808.450710,-842.705048
2751.670939,1702.473667,-10288.862594,1302.362347
2751.671266,2368.659014,-11843.295072,1991.848295
2751.671594,2294.638420,-11325.150913,689.485948
2751.671922,1628.453072,-9326.594869,-459.657299
2751.672249,1480.411884,-7994.224174,-842.705048
2751.672577,1110.308913,-8808.450710,612.876398
2751.672905,592.164754,-10362.883188,1685.410096
2751.673232,444.123565,-10732.986159,306.438199
2751.673560,370.102971,-9844.739029,-1378.971896
2751.673888,0.000000,-7402.059420,-1608.800546
2751.674216,222.061783,-8216.285956,-612.876398
2751.674543,-444.123565,-9622.677246,1302.362347
2751.674871,-370.102971,-10955.047942,383.047749
2751.675199,0.000000,-11325.150913,-383.047749
2751.675526,296.082377,-9992.780217,-1455.581446
2751.675854,1258.350101,-8216.285956,-995.924147
2751.676182,740.205942,-8956.491898,1532.190996
2751.676509,0.000000,-10658.965565,2068.457845
2751.676837,74.020594,-11473.192101,383.047749
2751.677165,-666.185348,-9474.636058,-1455.581446
2751.677492,-1406.391290,-7846.182985,-1915.238745
2751.677820,-1702.473667,-9178.553681,-1302.362347
2751.678148,-1998.556043,-10214.842000,1072.533697
2751.678476,-666.185348,-11251.130318,76.609550
2751.678803,-444.123565,-11325.150913,-383.047749
2751.679131,-148.041188,-9474.636058,-536.266849
2751.679459,0.000000,-7994.224174,-229.828649
2751.679786,-518.144159,-8586.388927,306.438199
2751.680114,-1184.329507,-10288.862594,383.047749
2751.680442,-2368.659014,-10732.986159,-612.876398
2751.680769,-2072.576638,-9992.780217,-2221.676944
2751.681097,-1110.308913,-8290.306550,-1685.410096
2751.681425,-592.164754,-9252.574275,-383.047749
2751.681752,-296.082377,-11325.150913,919.314598
2751.682080,518.144159,-11991.336260,306.438199
2751.682408,1110.308913,-11029.068536,-1762.019645
2751.682736,1406.391290,-8290.306550,-1225.752797
2751.683063,1332.370696,-7698.141797,0.000000
2751.683391,1406.391290,-8364.327145,1378.971896
2751.683719,1110.308913,-9548.656652,1838.629195
2751.684046,888.247130,-10362.883188,612.876398
2751.684374,814.226536,-10510.924376,-536.266849
2751.684702,148.041188,-9474.636058,-919.314598
2751.685029,0.000000,-9178.553681,-1149.143247
2751.685357,-740.205942,-10584.944971,-459.657299
2751.685685,-1628.453072,-11399.171507,-383.047749
2751.686013,-1258.350101,-9992.780217,-1532.190996
2751.686340,0.000000,-7624.121203,-1915.238745
2751.686668,444.123565,-6513.812290,-612.876398
2751.686996,74.020594,-7920.203579,1455.581446
2751.687323,1036.288319,-10288.862594,1838.629195
2751.687651,1702.473667,-10955.047942,842.705048
2751.687979,1850.514855,-9548.656652,-766.095498
2751.688306,1776.494261,-8660.409521,-842.705048
2751.688634,1628.453072,-9400.615463,0.000000
2751.688962,1702.473667,-10140.821405,1991.848295
2751.689289,1406.391290,-11843.295072,919.314598
2751.689617,888.247130,-11177.109724,-383.047749
2751.689945,1850.514855,-10066.800811,-459.657299
2751.690273,1850.514855,-8290.306550,0.000000
2751.690600,592.164754,-8068.244768,1225.752797
2751.690928,0.000000,-9622.677246,1455.581446
2751.691256,222.061783,-9918.759623,76.609550
2751.691583,148.041188,-8660.409521,-689.485948
2751.691911,962.267725,-7920.203579,-1149.143247
2751.692239,666.185348,-9178.553681,612.876398
2751.692566,74.020594,-10658.965565,1225.752797
2751.692894,0.000000,-11843.295072,0.000000
2751.693222,0.000000,-10510.924376,-1685.410096
2751.693549,666.185348,-8586.388927,-2068.457845
2751.693877,740.205942,-8586.388927,-689.485948
2751.694205,222.061783,-10066.800811,766.095498
2751.694533,0.000000,-10658.965565,1455.581446
2751.694860,-296.082377,-10436.903782,229.828649
2751.695188,-444.123565,-8438.347739,-919.314598
2751.695516,-296.082377,-7846.182985,-1225.752797
2751.695843,-814.226536,-8586.388927,383.047749
2751.696171,-666.185348,-10214.842000,536.266849
2751.696499,-370.102971,-11695.253884,-842.705048
2751.696826,0.000000,-10955.047942,-1838.629195
2751.697154,-296.082377,-9178.553681,-1762.019645
2751.697482,-222.061783,-8660.409521,-612.876398
2751.697810,-592.164754,-10362.883188,689.485948
2751.698137,-370.102971,-11843.295072,612.876398
2751.698465,-370.102971,-10584.944971,0.000000
2751.698793,-444.123565,-8586.388927,-1762.019645
2751.699120,0.000000,-8216.285956,-1149.143247
2751.699448,-370.102971,-9178.553681,612.876398
2751.699776,-370.102971,-10214.842000,1225.752797
2751.700103,148.041188,-10214.842000,0.000000
2751.700431,444.123565,-9030.512492,-1991.848295
2751.700759,74.020594,-8142.265362,-995.924147
2751.701086,518.144159,-8512.368333,842.705048
2751.701414,74.020594,-10214.842000,1762.019645
2751.701742,0.000000,-11769.274478,536.266849
2751.702070,518.144159,-11547.212695,-1225.752797
2751.702397,666.185348,-9030.512492,-1762.019645
2751.702725,666.185348,-7476.080014,-919.314598
2751.703053,-518.144159,-8808.450710,842.705048
2751.703380,-740.205942,-11473.192101,1302.362347
2751.703708,-444.123565,-10881.027347,-612.876398
2751.704036,888.247130,-9474.636058,-1915.238745
2751.704363,1850.514855,-7994.224174,-1378.971896
2751.704691,2146.597232,-8216.285956,153.219100
2751.705019,1554.432478,-9696.697840,2681.334243
2751.705346,888.247130,-11103.089130,1302.362347
2751.705674,444.123565,-9770.718434,0.000000
2751.706002,444.123565,-8660.409521,-1991.848295
2751.706330,148.041188,-8586.388927,-1685.410096
2751.706657,296.082377,-9918.759623,0.000000
2751.706985,296.082377,-11843.295072,842.705048
2751.707313,518.144159,-10955.047942,-229.828649
2751.707640,1036.288319,-9918.759623,-1685.410096
2751.707968,1406.391290,-8660.409521,-1608.800546
2751.708296,444.123565,-8660.409521,0.000000
2751.708623,296.082377,-10140.821405,766.095498
2751.708951,592.164754,-11103.089130,76.609550
2751.709279,370.102971,-10066.800811,-612.876398
2751.709606,518.144159,-8142.265362,-229.828649
2751.709934,592.164754,-7994.224174,536.266849
2751.710262,0.000000,-10362.883188,1532.190996
2751.710590,592.164754,-11695.253884,689.485948
2751.710917,-222.061783,-11103.089130,-1378.971896
2751.711245,-370.102971,-9844.739029,-2068.457845
2751.711573,888.247130,-8438.347739,-1302.362347
2751.711900,1258.350101,-8882.471304,1225.752797
2751.712228,148.041188,-9696.697840,2451.505594
2751.712556,592.164754,-10807.006753,1685.410096
2751.712883,444.123565,-9326.594869,0.000000
2751.713211,666.185348,-8216.285956,-459.657299
2751.713539,-296.082377,-8068.244768,612.876398
2751.713867,-1776.494261,-8586.388927,1302.362347
2751.714194,-2442.679609,-9474.636058,229.828649
2751.714522,-2294.638420,-9474.636058,-2145.067394
2751.714850,-1998.556043,-8882.471304,-2528.115143
2751.715177,-592.164754,-8660.409521,-1762.019645
2751.715505,370.102971,-9844.739029,0.000000
2751.715833,666.185348,-11843.295072,919.314598
2751.716160,814.226536,-12435.459826,459.657299
2751.716488,296.082377,-10140.821405,-1225.752797
2751.716816,518.144159,-7846.182985,-1915.238745
2751.717143,74.020594,-7624.121203,-995.924147
2751.717471,0.000000,-9992.780217,459.657299
2751.717799,444.123565,-11621.233289,536.266849
2751.718127,962.267725,-11473.192101,-536.266849
2751.718454,1184.329507,-9400.615463,-1685.410096
2751.718782,1258.350101,-8216.285956,-1532.190996
2751.719110,296.082377,-9474.636058,76.609550
2751.719437,0.000000,-10510.924376,-612.876398
2751.719765,222.061783,-11177.109724,-1378.971896
2751.720093,962.267725,-10658.965565,-1762.019645
2751.720420,1850.514855,-9622.677246,-689.485948
2751.720748,1776.494261,-9252.574275,1149.143247
2751.721076,1184.329507,-10140.821405,2451.505594
2751.721403,148.041188,-10658.965565,383.047749
2751.721731,-592.164754,-9844.739029,-2834.553343
2751.722059,-1258.350101,-7624.121203,-2681.334243
2751.722387,-1184.329507,-8068.244768,-1532.190996
2751.722714,0.000000,-9252.574275,689.485948
2751.723042,1184.329507,-10584.944971,1455.581446
2751.723370,1702.473667,-11769.274478,1149.143247
2751.723697,1406.391290,-9770.718434,0.000000
2751.724025,962.267725,-7920.203579,-536.266849
2751.724353,1036.288319,-8142.265362,0.000000
2751.724680,518.144159,-9474.636058,229.828649
2751.725008,222.061783,-10436.903782,306.438199
2751.725336,666.185348,-9992.780217,229.828649
2751.725664,1628.453072,-9326.594869,0.000000
2751.725991,2220.617826,-8586.388927,0.000000
2751.726319,888.247130,-9474.636058,1302.362347
2751.726647,0.000000,-10584.944971,1149.143247
2751.726974,148.041188,-10584.944971,-1149.143247
2751.727302,444.123565,-9548.656652,-2221.676944
2751.727630,1258.350101,-8734.430116,-995.924147
2751.727957,1628.453072,-8956.491898,1225.752797
2751.728285,888.247130,-10140.821405,2451.505594
2751.728613,666.185348,-11843.295072,1532.190996
2751.728940,-296.082377,-11103.089130,-1302.362347
2751.729268,-962.267725,-9252.574275,-2528.115143
2751.729596,-1406.391290,-8956.491898,-2145.067394
2751.729924,-1850.514855,-10510.924376,-612.876398
2751.730251,-1776.494261,-11325.150913,-229.828649
2751.730579,-1850.514855,-10436.903782,-766.095498
2751.730907,-1258.350101,-8660.409521,-1302.362347
2751.731234,-296.082377,-8290.306550,-842.705048
2751.731562,0.000000,-9030.512492,383.047749
2751.731890,0.000000,-11103.089130,1608.800546
2751.732217,296.082377,-11621.233289,536.266849
2751.732545,296.082377,-10214.842000,-536.266849
2751.732873,-222.061783,-7698.141797,-842.705048
2751.733200,-148.041188,-7179.997637,0.000000
2751.733528,-370.102971,-9326.594869,1378.971896
2751.733856,222.061783,-11843.295072,612.876398
2751.734184,444.123565,-11177.109724,-612.876398
2751.734511,222.061783,-9696.697840,-612.876398
2751.734839,222.061783,-7846.182985,229.828649
2751.735167,0.000000,-8438.347739,1915.238745
2751.735494,-740.205942,-9474.636058,1072.533697
2751.735822,-444.123565,-10066.800811,0.000000
2751.736150,-222.061783,-8660.409521,-1378.971896
2751.736477,518.144159,-8216.285956,-1149.143247
2751.736805,518.144159,-9178.553681,383.047749
2751.737133,666.185348,-10214.842000,1302.362347
2751.737460,444.123565,-11547.212695,0.000000
2751.737788,740.205942,-11843.295072,-1915.238745
2751.738116,1554.432478,-9178.553681,-2911.162892
2751.738444,1702.473667,-7772.162391,-1915.238745
2751.738771,1110.308913,-9030.512492,995.924147
2751.739099,1480.411884,-11399.171507,2298.286494
2751.739427,1702.473667,-11325.150913,459.657299
2751.739754,1702.473667,-9252.574275,-612.876398
2751.740082,1258.350101,-7402.059420,-1608.800546
2751.740410,1036.288319,-8586.388927,-919.314598
2751.740737,74.020594,-10436.903782,689.485948
2751.741065,-296.082377,-11399.171507,76.609550
2751.741393,370.102971,-11103.089130,-1225.752797
2751.741721,1184.329507,-10436.903782,-1302.362347
2751.742048,1258.350101,-9622.677246,-229.828649
2751.742376,962.267725,-9770.718434,1455.581446
2751.742704,74.020594,-10214.842000,995.924147
2751.743031,-296.082377,-10362.883188,0.000000
2751.743359,0.000000,-9400.615463,-1762.019645
2751.743687,0.000000,-7698.141797,-1532.190996
2751.744014,222.061783,-8216.285956,383.047749
2751.744342,962.267725,-9252.574275,2068.457845
2751.744670,1258.350101,-11029.068536,689.485948
2751.744997,296.082377,-9844.739029,0.000000
2751.745325,666.185348,-8068.244768,-689.485948
2751.745653,518.144159,-7994.224174,0.000000
2751.745981,-296.082377,-9622.677246,1149.143247
2751.746308,148.041188,-11621.233289,689.485948
2751.746636,444.123565,-11251.130318,-995.924147
2751.746964,370.102971,-9326.594869,-1149.143247
2751.747291,1036.288319,-8142.265362,-689.485948
2751.747619,0.000000,-8586.388927,306.438199
2751.747947,-1406.391290,-9474.636058,842.705048
2751.748274,-1776.494261,-10436.903782,0.000000
2751.748602,-888.247130,-10436.903782,-1225.752797
2751.748930,296.082377,-9030.512492,-2221.676944
2751.749257,0.000000,-8512.368333,383.047749
2751.749585,-296.082377,-9696.697840,842.705048
2751.749913,-962.267725,-11325.150913,1302.362347
2751.750241,-1332.370696,-10955.047942,-1225.752797
2751.750568,-1258.350101,-8882.471304,-3064.381992
2751.750896,-740.205942,-8290.306550,-2604.724693
2751.751224,-222.061783,-9548.656652,-766.095498
2751.751551,296.082377,-11621.233289,1302.362347
2751.751879,814.226536,-11473.192101,-383.047749
2751.752207,518.144159,-10510.924376,-1608.800546
2751.752534,370.102971,-8660.409521,-1915.238745
2751.752862,296.082377,-8586.388927,-1149.143247
2751.753190,222.061783,-9548.656652,383.047749
2751.753517,1036.288319,-11621.233289,536.266849
2751.753845,1628.453072,-11029.068536,612.876398
2751.754173,1776.494261,-8734.430116,153.219100
2751.754501,1998.556043,-7550.100608,536.266849
2751.754828,666.185348,-8586.388927,1149.143247
2751.755156,222.061783,-10214.842000,612.876398
2751.755484,222.061783,-11251.130318,-766.095498
2751.755811,814.226536,-10214.842000,-1378.971896
2751.756139,1110.308913,-8734.430116,-766.095498
2751.756467,444.123565,-8142.265362,1608.800546
2751.756794,222.061783,-9474.636058,2681.334243
2751.757122,370.102971,-10658.965565,1149.143247
2751.757450,666.185348,-9548.656652,-919.314598
2751.757778,888.247130,-7476.080014,-1532.190996
2751.758105,74.020594,-7772.162391,459.657299
2751.758433,-962.267725,-8290.306550,2145.067394
2751.758761,-666.185348,-9918.759623,1225.752797
2751.759088,-740.205942,-10584.944971,-766.095498
2751.759416,-962.267725,-9918.759623,-2221.676944
2751.759744,222.061783,-8956.491898,-2298.286494
2751.760071,2072.576638,-10436.903782,-766.095498
2751.760399,1924.535449,-11843.295072,995.924147
2751.760727,1776.494261,-12879.583391,1149.143247
2751.761054,1702.473667,-10955.047942,459.657299
2751.761382,1924.535449,-8882.471304,-1225.752797
2751.761710,1258.350101,-7476.080014,-1302.362347
2751.762038,814.226536,-8956.491898,0.000000
2751.762365,444.123565,-10362.883188,1072.533697
2751.762693,1036.288319,-11029.068536,0.000000
2751.763021,1110.308913,-9622.677246,-995.924147
2751.763348,666.185348,-8808.450710,-1532.190996
2751.763676,0.000000,-9178.553681,-612.876398
2751.764004,-370.102971,-10658.965565,229.828649
2751.764331,-370.102971,-11325.150913,0.000000
2751.764659,222.061783,-10140.821405,-536.266849
2751.764987,1332.370696,-9104.533087,-306.438199
2751.765314,1258.350101,-8660.409521,1072.533697
2751.765642,370.102971,-9252.574275,2068.457845
2751.765970,-740.205942,-10288.862594,1532.190996
2751.766298,-1406.391290,-9844.739029,-612.876398
2751.766625,-1776.494261,-7772.162391,-2528.115143
2751.766953,-1776.494261,-7328.038826,-1915.238745
2751.767281,-1850.514855,-8660.409521,229.828649
2751.767608,444.123565,-10881.027347,1455.581446
2751.767936,1184.329507,-12361.439231,306.438199
2751.768264,0.000000,-10066.800811,0.000000
2751.768591,222.061783,-7772.162391,-995.924147
2751.768919,592.164754,-7105.977043,-689.485948
2751.769247,-814.226536,-8216.285956,919.314598
2751.769575,-666.185348,-10362.883188,1072.533697
2751.769902,-592.164754,-9992.780217,0.000000
2751.770230,666.185348,-9622.677246,-1532.190996
2751.770558,814.226536,-9918.759623,-1225.752797
2751.770885,148.041188,-10732.986159,153.219100
2751.771213,-296.082377,-11769.274478,459.657299
2751.771541,74.020594,-11325.150913,-1378.971896
2751.771868,74.020594,-9992.780217,-2757.943793
2751.772196,370.102971,-8734.430116,-1532.190996
2751.772524,962.267725,-8068.244768,0.000000
2751.772851,1110.308913,-10066.800811,1455.581446
2751.773179,962.267725,-11843.295072,1149.143247
2751.773507,370.102971,-11991.336260,-1149.143247
2751.773835,74.020594,-10288.862594,-2451.505594
2751.774162,-222.061783,-8660.409521,-1762.019645
2751.774490,-296.082377,-9400.615463,-1302.362347
2751.774818,148.041188,-11325.150913,459.657299
2751.775145,0.000000,-11473.192101,-229.828649
2751.775473,962.267725,-9474.636058,-1072.533697
2751.775801,1702.473667,-7920.203579,-229.828649
2751.776128,1554.432478,-7254.018232,766.095498
2751.776456,1036.288319,-9326.594869,2528.115143
2751.776784,888.247130,-9992.780217,1838.629195
2751.777111,1258.350101,-10214.842000,0.000000
2751.777439,1184.329507,-9104.533087,-536.266849
2751.777767,1258.350101,-7698.141797,153.219100
2751.778094,518.144159,-8808.450710,1149.143247
2751.778422,74.020594,-11177.109724,1762.019645
2751.778750,-370.102971,-11103.089130,-306.438199
2751.779078,-148.041188,-9252.574275,-1532.190996
2751.779405,-518.144159,-7031.956449,-306.438199
2751.779733,0.000000,-7550.100608,536.266849
2751.780061,222.061783,-9178.553681,1455.581446
2751.780388,148.041188,-10140.821405,1225.752797
2751.780716,0.000000,-9400.615463,0.000000
2751.781044,518.144159,-7698.141797,-1225.752797
2751.781371,888.247130,-8882.471304,-459.657299
2751.781699,222.061783,-9992.780217,229.828649
2751.782027,222.061783,-11991.336260,229.828649
2751.782354,370.102971,-12287.418637,-1225.752797
2751.782682,1406.391290,-11103.089130,-2374.896044
2751.783010,1776.494261,-9030.512492,-1302.362347
2751.783338,1702.473667,-8808.450710,459.657299
2751.783665,1036.288319,-10140.821405,1762.019645
2751.783993,1036.288319,-11695.253884,919.314598
2751.784321,74.020594,-10510.924376,-1608.800546
2751.784648,-592.164754,-8290.306550,-2068.457845
2751.784976,-888.247130,-8068.244768,-995.924147
2751.785304,-962.267725,-9844.739029,766.095498
2751.785631,-888.247130,-11251.130318,459.657299
2751.785959,-888.247130,-11251.130318,-1455.581446
2751.786287,-370.102971,-10436.903782,-2221.676944
2751.786614,0.000000,-8956.491898,-1302.362347
2751.786942,-370.102971,-9326.594869,153.219100
2751.787270,-740.205942,-10140.821405,1302.362347
2751.787598,-592.164754,-10584.944971,0.000000
2751.787925,0.000000,-9474.636058,-1762.019645
2751.788253,0.000000,-7920.203579,-842.705048
2751.788581,444.123565,-7698.141797,612.876398
2751.788908,370.102971,-9474.636058,1685.410096
2751.789236,666.185348,-11103.089130,995.924147
2751.789564,666.185348,-10436.903782,-689.485948
2751.789891,666.185348,-8512.368333,-1072.533697
2751.790219,814.226536,-7179.997637,0.000000
2751.790547,1406.391290,-8586.388927,689.485948
2751.790874,370.102971,-11029.068536,2221.676944
2751.791202,296.082377,-11399.171507,536.266849
2751.791530,1184.329507,-10066.800811,-1378.971896
2751.791858,740.205942,-8734.430116,-1455.581446
2751.792185,0.000000,-8956.491898,-459.657299
2751.792513,-1036.288319,-9474.636058,919.314598
2751.792841,-888.247130,-10881.027347,689.485948
2751.793168,-222.061783,-10066.800811,-1762.019645
2751.793496,592.164754,-9474.636058,-1991.848295
2751.793824,592.164754,-8808.450710,-306.438199
2751.794151,0.000000,-9548.656652,1762.019645
2751.794479,-222.061783,-11177.109724,1149.143247
2751.794807,-666.185348,-11177.109724,-1302.362347
2751.795134,-296.082377,-10362.883188,-2757.943793
2751.795462,444.123565,-8734.430116,-2374.896044
2751.795790,888.247130,-9696.697840,-306.438199
2751.796118,1184.329507,-11399.171507,1149.143247
2751.796445,2072.576638,-12657.521608,76.609550
2751.796773,1628.453072,-11399.171507,-1302.362347
2751.797101,1554.432478,-8882.471304,-2145.067394
2751.797428,1258.350101,-7179.997637,-1072.533697
2751.797756,1110.308913,-8586.388927,0.000000
2751.798084,592.164754,-10732.986159,1225.752797
2751.798411,814.226536,-10214.842000,919.314598
2751.798739,1628.453072,-9178.553681,76.609550
2751.799067,1406.391290,-8660.409521,766.095498
2751.799394,444.123565,-8512.368333,842.705048
2751.799722,-1480.411884,-9252.574275,1378.971896
2751.800050,-814.226536,-10510.924376,-459.657299
2751.800377,-888.247130,-9400.615463,-1685.410096
2751.800705,0.000000,-8290.306550,-1302.362347
2751.801033,0.000000,-8290.306550,536.266849
2751.801361,0.000000,-9252.574275,2145.067394
2751.801688,962.267725,-10955.047942,1455.581446
2751.802016,0.000000,-9844.739029,-306.438199
2751.802344,148.041188,-8364.327145,-1378.971896
2751.802671,74.020594,-7624.121203,-1149.143247
2751.802999,-370.102971,-8142.265362,536.266849
2751.803327,-814.226536,-10066.800811,1608.800546
2751.803654,-740.205942,-10881.027347,306.438199
2751.803982,-740.205942,-9622.677246,-1608.800546
2751.804310,-592.164754,-8364.327145,-1915.238745
2751.804637,0.000000,-9104.533087,-1455.581446
2751.804965,0.000000,-10955.047942,76.609550
2751.805293,814.226536,-12139.377449,306.438199
2751.805621,1480.411884,-11769.274478,-842.705048
2751.805948,1628.453072,-10658.965565,-1608.800546
2751.806276,1258.350101,-9474.636058,-612.876398
2751.806604,222.061783,-9326.594869,383.047749
2751.806931,-666.185348,-10732.986159,1225.752797
2751.807259,-444.123565,-10955.047942,-229.828649
2751.807587,-222.061783,-9696.697840,-2221.676944
2751.807914,-296.082377,-8660.409521,-1838.629195
2751.808242,-296.082377,-8290.306550,-536.266849
2751.808570,-148.041188,-9474.636058,229.828649
2751.808897,0.000000,-10584.944971,76.609550
2751.809225,518.144159,-10510.924376,-1072.533697
2751.809553,814.226536,-8956.491898,-995.924147
2751.809881,1628.453072,-8586.388927,76.609550
2751.810208,1110.308913,-9400.615463,1991.848295
2751.810536,370.102971,-10066.800811,1685.410096
2751.810864,148.041188,-10214.842000,76.609550
2751.811191,-296.082377,-9326.594869,-1685.410096
2751.811519,0.000000,-8364.327145,-1378.971896
2751.811847,0.000000,-8142.265362,0.000000
2751.812174,444.123565,-9770.718434,1608.800546
2751.812502,1258.350101,-10955.047942,1225.752797
2751.812830,962.267725,-10066.800811,0.000000
2751.813157,740.205942,-8290.306550,-1149.143247
2751.813485,962.267725,-7402.059420,0.000000
2751.813813,814.226536,-8882.471304,842.705048
2751.814141,-222.061783,-10214.842000,1149.143247
2751.814468,-444.123565,-10436.903782,-306.438199
2751.814796,296.082377,-9696.697840,-1685.410096
2751.815124,666.185348,-9474.636058,-1915.238745
2751.815451,222.061783,-9992.780217,76.609550
2751.815779,-296.082377,-11251.130318,842.705048
2751.816107,370.102971,-11399.171507,-459.657299
2751.816434,962.267725,-11103.089130,-2681.334243
2751.816762,814.226536,-9474.636058,-1915.238745
2751.817090,1406.391290,-7994.224174,229.828649
2751.817417,1406.391290,-9178.553681,1991.848295
2751.817745,1406.391290,-11917.315666,1608.800546
2751.818073,962.267725,-11843.295072,-1378.971896
2751.818401,444.123565,-9770.718434,-1991.848295
2751.818728,518.144159,-8882.471304,-2068.457845
2751.819056,-370.102971,-8808.450710,-1072.533697
2751.819384,-592.164754,-10584.944971,306.438199
2751.819711,-370.102971,-11251.130318,0.000000
2751.820039,0.000000,-10288.862594,-1302.362347
2751.820367,370.102971,-8216.285956,-1225.752797
2751.820694,444.123565,-7476.080014,383.047749
2751.821022,0.000000,-8734.430116,1532.190996
2751.821350,-814.226536,-9918.759623,1762.019645
2751.821677,-370.102971,-9992.780217,0.000000
2751.822005,148.041188,-8882.471304,-766.095498
2751.822333,74.020594,-7698.141797,0.000000
2751.822660,0.000000,-8438.347739,1225.752797
2751.822988,-814.226536,-10288.862594,1302.362347
2751.823316,0.000000,-11621.233289,0.000000
2751.823644,-370.102971,-10807.006753,-1608.800546
2751.823971,0.000000,-8438.347739,-1455.581446
2751.824299,-222.061783,-7624.121203,-306.438199
2751.824627,148.041188,-8956.491898,689.485948
2751.824954,370.102971,-10510.924376,919.314598
2751.825282,222.061783,-10881.027347,-229.828649
2751.825610,444.123565,-8142.265362,-995.924147
2751.825937,888.247130,-7624.121203,-1149.143247
2751.826265,666.185348,-9474.636058,-383.047749
2751.826593,518.144159,-11547.212695,612.876398
2751.826920,148.041188,-11177.109724,-306.438199
2751.827248,888.247130,-10584.944971,-1532.190996
2751.827576,1776.494261,-9992.780217,-2068.457845
2751.827904,1332.370696,-9918.759623,-766.095498
2751.828231,666.185348,-10214.842000,1532.190996
2751.828559,222.061783,-10584.944971,919.314598
2751.828887,518.144159,-10955.047942,-842.705048
2751.829214,148.041188,-8882.471304,-1378.971896
2751.829542,-444.123565,-7476.080014,-536.266849
2751.829870,-666.185348,-7920.203579,689.485948
2751.830197,0.000000,-10214.842000,919.314598
2751.830525,0.000000,-11547.212695,-842.705048
2751.830853,0.000000,-10658.965565,-1532.190996
2751.831180,296.082377,-8438.347739,-1302.362347
2751.831508,1258.350101,-8586.388927,0.000000
2751.831836,888.247130,-10510.924376,1455.581446
2751.832164,518.144159,-11621.233289,459.657299
2751.832491,444.123565,-9548.656652,-536.266849
2751.832819,1332.370696,-8586.388927,-1378.971896
2751.833147,1332.370696,-7846.182985,-306.438199
2751.833474,814.226536,-8438.347739,1149.143247
2751.833802,814.226536,-10066.800811,1608.800546
2751.834130,1406.391290,-10510.924376,0.000000
2751.834457,740.205942,-9178.553681,-536.266849
2751.834785,962.267725,-8512.368333,-306.438199
2751.835113,592.164754,-8808.450710,842.705048
2751.835440,-296.082377,-10732.986159,1685.410096
2751.835768,-962.267725,-11251.130318,536.266849
2751.836096,-814.226536,-10066.800811,-1225.752797
2751.836424,-370.102971,-8734.430116,-1915.238745
2751.836751,-962.267725,-8438.347739,-612.876398
2751.837079,-1258.350101,-9178.553681,612.876398
2751.837407,-666.185348,-11029.068536,229.828649
2751.837734,-592.164754,-11251.130318,-995.924147
2751.838062,-666.185348,-9474.636058,-1532.190996
2751.838390,-370.102971,-7772.162391,-1532.190996
2751.838717,-592.164754,-8808.450710,76.609550
2751.839045,0.000000,-10955.047942,919.314598
2751.839373,592.164754,-11621.233289,76.609550
2751.839700,666.185348,-10584.944971,-689.485948
2751.840028,1406.391290,-9474.636058,-919.314598
2751.840356,1702.473667,-8512.368333,0.000000
2751.840684,962.267725,-9918.759623,1302.362347
2751.841011,74.020594,-10807.006753,1225.752797
2751.841339,74.020594,-10288.862594,-1225.752797
2751.841667,370.102971,-8586.388927,-2374.896044
2751.841994,444.123565,-8364.327145,-1378.971896
2751.842322,222.061783,-9178.553681,766.095498
2751.842650,222.061783,-10584.944971,2221.676944
2751.842977,740.205942,-10658.965565,919.314598
2751.843305,1110.308913,-9326.594869,-536.266849
2751.843633,74.020594,-7105.977043,-1838.629195
2751.843960,-296.082377,-7624.121203,0.000000
2751.844288,-222.061783,-9252.574275,842.705048
2751.844616,0.000000,-10955.047942,919.314598
2751.844943,0.000000,-10807.006753,-689.485948
2751.845271,592.164754,-9474.636058,-1532.190996
2751.845599,1110.308913,-8808.450710,-1455.581446
2751.845927,962.267725,-9400.615463,306.438199
2751.846254,296.082377,-10732.986159,1149.143247
2751.846582,740.205942,-11621.233289,76.609550
2751.846910,1258.350101,-9696.697840,-995.924147
2751.847237,2072.576638,-7994.224174,-1072.533697
2751.847565,1776.494261,-8142.265362,536.266849
2751.847893,1110.308913,-9252.574275,2451.505594
2751.848220,1406.391290,-10807.006753,1455.581446
2751.848548,592.164754,-10584.944971,-842.705048
2751.848876,0.000000,-10066.800811,-2451.505594
2751.849203,0.000000,-9178.553681,-1378.971896
2751.849531,-296.082377,-9548.656652,229.828649
2751.849859,0.000000,-11547.212695,919.314598
2751.850187,148.041188,-11917.315666,0.000000
2751.850514,740.205942,-9474.636058,-842.705048
2751.850842,592.164754,-7550.100608,-995.924147
2751.851170,444.123565,-8734.430116,383.047749
2751.851497,0.000000,-9844.739029,1838.629195
2751.851825,0.000000,-10584.944971,689.485948
2751.852153,0.000000,-10140.821405,-919.314598
2751.852480,814.226536,-9030.512492,-995.924147
2751.852808,888.247130,-8364.327145,-306.438199
2751.853136,74.020594,-8956.491898,842.705048
2751.853463,148.041188,-10658.965565,1072.533697
2751.853791,740.205942,-11029.068536,-306.438199
2751.854119,1036.288319,-10066.800811,-1225.752797
2751.854447,888.247130,-8216.285956,-383.047749
2751.854774,370.102971,-7624.121203,1149.143247
2751.855102,-370.102971,-8956.491898,2221.676944
2751.855430,-962.267725,-9918.759623,383.047749
2751.855757,-1258.350101,-9770.718434,-1915.238745
2751.856085,-1258.350101,-9030.512492,-2451.505594
2751.856413,-814.226536,-9400.615463,-1149.143247
2751.856740,-518.144159,-10955.047942,612.876398
2751.857068,-296.082377,-11695.253884,995.924147
2751.857396,-148.041188,-10732.986159,-383.047749
2751.857723,-222.061783,-9474.636058,-2145.067394
2751.858051,-740.205942,-8364.327145,-1378.971896
2751.858379,-666.185348,-8586.388927,306.438199
2751.858707,-444.123565,-9992.780217,1072.533697
2751.859034,0.000000,-11473.192101,0.000000
2751.859362,-518.144159,-10807.006753,-1302.362347
2751.859690,0.000000,-8882.471304,-1685.410096
2751.860017,518.144159,-8808.450710,-1072.533697
2751.860345,74.020594,-9992.780217,229.828649
2751.860673,148.041188,-11621.233289,0.000000
2751.861000,666.185348,-11251.130318,-995.924147
2751.861328,1702.473667,-9474.636058,-995.924147
2751.861656,2294.638420,-7920.203579,0.000000
2751.861983,1998.556043,-8290.306550,1762.019645
2751.862311,1480.411884,-10140.821405,2757.943793
2751.862639,962.267725,-10436.903782,842.705048
2751.862966,814.226536,-9622.677246,-1608.800546
2751.863294,888.247130,-8882.471304,-2145.067394
2751.863622,1258.350101,-9030.512492,-229.828649
2751.863950,518.144159,-10214.842000,2068.457845
2751.864277,962.267725,-11251.130318,1685.410096
2751.864605,1184.329507,-10584.944971,-536.266849
2751.864933,592.164754,-8512.368333,-2068.457845
2751.865260,148.041188,-7698.141797,-766.095498
2751.865588,-666.185348,-7846.182985,919.314598
2751.865916,-222.061783,-9178.553681,1149.143247
2751.866243,0.000000,-10214.842000,229.828649
2751.866571,592.164754,-10362.883188,-1302.362347
2751.866899,1110.308913,-8808.450710,-1532.190996
2751.867226,1110.308913,-8808.450710,-306.438199
2751.867554,444.123565,-10658.965565,919.314598
2751.867882,0.000000,-12139.377449,76.609550
2751.868210,222.061783,-11325.150913,-1072.533697
2751.868537,666.185348,-9474.636058,-2298.286494
2751.868865,1480.411884,-8660.409521,-995.924147
2751.869193,1702.473667,-9844.739029,2068.457845
2751.869520,666.185348,-10807.006753,2145.067394
2751.869848,0.000000,-10288.862594,229.828649
2751.870176,-740.205942,-9104.533087,-1608.800546
2751.870503,-222.061783,-8142.265362,-1991.848295
2751.870831,-962.267725,-9252.574275,0.000000
2751.871159,-444.123565,-10436.903782,1455.581446
2751.871486,-1110.308913,-10807.006753,842.705048
2751.871814,0.000000,-11399.171507,-995.924147
2751.872142,0.000000,-9992.780217,-1302.362347
2751.872470,74.020594,-8290.306550,-919.314598
2751.872797,-370.102971,-8956.491898,76.609550
2751.873125,-1110.308913,-10658.965565,1685.410096
2751.873453,-518.144159,-10732.986159,76.609550
2751.873780,74.020594,-9104.533087,-612.876398
2751.874108,148.041188,-7772.162391,-306.438199
2751.874436,0.000000,-8586.388927,766.095498
2751.874763,-962.267725,-9918.759623,1608.800546
2751.875091,-814.226536,-10214.842000,0.000000
2751.875419,-370.102971,-9474.636058,-1608.800546
2751.875746,592.164754,-8808.450710,-1915.238745
2751.876074,814.226536,-8068.244768,766.095498
2751.876402,1406.391290,-9844.739029,2451.505594
2751.876729,888.247130,-10658.965565,1838.629195
2751.877057,518.144159,-10658.965565,-229.828649
2751.877384,518.144159,-9622.677246,-1915.238745
2751.877712,148.041188,-8660.409521,-1838.629195
2751.878040,0.000000,-8586.388927,306.438199
2751.878367,370.102971,-10807.006753,1302.362347
2751.878695,222.061783,-10732.986159,229.828649
2751.879023,1184.329507,-10436.903782,-1685.410096
2751.879350,814.226536,-8956.491898,-2145.067394
2751.879678,444.123565,-8142.265362,-383.047749
2751.880006,370.102971,-9178.553681,842.705048
2751.880333,814.226536,-11251.130318,1149.143247
2751.880661,592.164754,-11251.130318,-306.438199
2751.880989,370.102971,-9622.677246,-766.095498
2751.881316,296.082377,-8512.368333,-766.095498
2751.881644,444.123565,-9844.739029,0.000000
2751.881971,370.102971,-11399.171507,76.609550
2751.882299,74.020594,-10955.047942,-689.485948
2751.882627,0.000000,-9548.656652,-995.924147
2751.882954,1110.308913,-8586.388927,-1378.971896
2751.883282,518.144159,-8290.306550,0.000000
2751.883610,-296.082377,-9326.594869,1455.581446
2751.883937,0.000000,-10288.862594,1302.362347
2751.884265,0.000000,-10436.903782,-689.485948
2751.884593,296.082377,-8882.471304,-1302.362347
2751.884920,1258.350101,-7846.182985,-459.657299
2751.885248,1184.329507,-8956.491898,2068.457845
2751.885576,962.267725,-11621.233289,1608.800546
2751.885903,592.164754,-11621.233289,-306.438199
2751.886231,518.144159,-9474.636058,-1991.848295
2751.886558,0.000000,-8068.244768,-1838.629195
2751.886886,-296.082377,-8216.285956,0.000000
2751.887214,0.000000,-10214.842000,1685.410096
2751.887541,1036.288319,-11325.150913,1378.971896
2751.887869,1406.391290,-10584.944971,76.609550
2751.888197,888.247130,-8586.388927,-1149.143247
2751.888524,444.123565,-7624.121203,-766.095498
2751.888852,-148.041188,-8512.368333,689.485948
2751.889180,-814.226536,-9770.718434,1149.143247
2751.889507,-962.267725,-11029.068536,-459.657299
2751.889835,0.000000,-10066.800811,-1072.533697
2751.890163,592.164754,-8882.471304,-1608.800546
2751.890490,518.144159,-9696.697840,0.000000
2751.890818,222.061783,-11399.171507,1072.533697
2751.891145,296.082377,-11843.295072,229.828649
2751.891473,592.164754,-10362.883188,-1378.971896
2751.891801,296.082377,-8660.409521,-1838.629195
2751.892128,-444.123565,-8290.306550,-229.828649
2751.892456,0.000000,-9474.636058,1838.629195
2751.892784,-222.061783,-10362.883188,1991.848295
2751.893111,-666.185348,-10362.883188,0.000000
2751.893439,-814.226536,-9030.512492,-2068.457845
2751.893767,-666.185348,-7994.224174,-1838.629195
2751.894094,-888.247130,-9696.697840,-536.266849
2751.894422,222.061783,-11029.068536,306.438199
2751.894750,1036.288319,-11695.253884,-383.047749
2751.895077,370.102971,-10658.965565,0.000000
2751.895405,1036.288319,-8882.471304,0.000000
2751.895732,1258.350101,-8438.347739,536.266849
2751.896060,370.102971,-9104.533087,1762.019645
2751.896388,370.102971,-10584.944971,153.219100
2751.896715,-74.020594,-9992.780217,-842.705048
2751.897043,518.144159,-8512.368333,-1608.800546
2751.897371,148.041188,-7179.997637,-383.047749
2751.897698,296.082377,-8364.327145,1072.533697
2751.898026,666.185348,-10214.842000,2145.067394
2751.898354,1406.391290,-11399.171507,842.705048
2751.898681,1702.473667,-9844.739029,-1302.362347
2751.899009,2072.576638,-9770.718434,-1838.629195
2751.899337,1924.535449,-9104.533087,0.000000
2751.899664,1776.494261,-10288.862594,1915.238745
2751.899992,1258.350101,-11177.109724,1532.190996
2751.900319,592.164754,-10140.821405,-536.266849
2751.900647,-296.082377,-8660.409521,-2221.676944
2751.900975,-1628.453072,-8808.450710,-2374.896044
2751.901302,-1702.473667,-9548.656652,-919.314598
2751.901630,0.000000,-11177.109724,-536.266849
2751.901958,0.000000,-11621.233289,-766.095498
2751.902285,0.000000,-11251.130318,-995.924147
2751.902613,518.144159,-9252.574275,-919.314598
2751.902941,1258.350101,-8290.306550,153.219100
2751.903268,296.082377,-9844.739029,766.095498
2751.903596,-370.102971,-11251.130318,459.657299
2751.903924,-296.082377,-10066.800811,-1149.143247
2751.904251,370.102971,-9252.574275,-2221.676944
2751.904579,1554.432478,-8956.491898,-919.314598
2751.904906,1110.308913,-9992.780217,1225.752797
2751.905234,740.205942,-11325.150913,1991.848295
2751.905562,962.267725,-10732.986159,-1225.752797
2751.905889,296.082377,-9178.553681,-2068.457845
2751.906217,222.061783,-8216.285956,-1838.629195
2751.906545,74.020594,-7920.203579,766.095498
2751.906872,296.082377,-8660.409521,2528.115143
2751.907200,-296.082377,-9844.739029,2068.457845
2751.907528,-962.267725,-10658.965565,-689.485948
2751.907855,-370.102971,-9252.574275,-1991.848295
2751.908183,-888.247130,-7624.121203,-1302.362347
2751.908511,-592.164754,-9030.512492,0.000000
2751.908838,-666.185348,-10955.047942,306.438199
2751.909166,-296.082377,-11621.233289,-153.219100
2751.909493,74.020594,-10066.800811,-1302.362347
2751.909821,518.144159,-7846.182985,-306.438199
2751.910149,592.164754,-8142.265362,536.266849
2751.910476,518.144159,-9474.636058,2145.067394
2751.910804,962.267725,-11399.171507,536.266849
2751.911132,740.205942,-10732.986159,-842.705048
2751.911459,1554.432478,-9844.739029,-1608.800546
2751.911787,1110.308913,-8586.388927,-766.095498
2751.912115,296.082377,-9474.636058,1225.752797
2751.912442,0.000000,-11177.109724,919.314598
2751.912770,-666.185348,-10732.986159,-536.266849
2751.913098,0.000000,-10214.842000,-2221.676944
2751.913425,592.164754,-9400.615463,-1762.019645
2751.913753,592.164754,-9104.533087,383.047749
2751.914080,370.102971,-10510.924376,1302.362347
2751.914408,0.000000,-11177.109724,919.314598
2751.914736,-1184.329507,-8290.306550,-1378.971896
2751.915063,74.020594,-7254.018232,-1225.752797
2751.915391,-222.061783,-7920.203579,0.000000
2751.915719,370.102971,-9770.718434,1685.410096
2751.916046,1406.391290,-11103.089130,919.314598
2751.916374,1110.308913,-11103.089130,-536.266849
2751.916702,1036.288319,-9992.780217,-1455.581446
2751.917029,1036.288319,-8216.285956,-1378.971896
2751.917357,1036.288319,-7994.224174,1072.533697
2751.917685,444.123565,-10140.821405,2068.457845
2751.918012,962.267725,-11177.109724,383.047749
2751.918340,1184.329507,-9696.697840,-766.095498
2751.918667,1036.288319,-8068.244768,-842.705048
2751.918995,444.123565,-7476.080014,536.266849
2751.919323,-444.123565,-8586.388927,919.314598
2751.919650,-666.185348,-10140.821405,689.485948
2751.919978,-370.102971,-10955.047942,-1455.581446
2751.920306,0.000000,-9622.677246,-1915.238745
2751.920633,666.185348,-8808.450710,-766.095498
2751.920961,962.267725,-9548.656652,919.314598
2751.921289,74.020594,-11473.192101,1302.362347
2751.921616,0.000000,-11103.089130,383.047749
2751.921944,-222.061783,-9400.615463,-1608.800546
2751.922272,0.000000,-7994.224174,-2145.067394
2751.922599,0.000000,-8586.388927,-919.314598
2751.922927,-296.082377,-9696.697840,766.095498
2751.923254,148.041188,-11103.089130,612.876398
2751.923582,444.123565,-11103.089130,-459.657299
2751.923910,666.185348,-9474.636058,-1991.848295
2751.924237,0.000000,-8364.327145,-995.924147
2751.924565,-222.061783,-9400.615463,536.266849
2751.924893,0.000000,-10955.047942,1225.752797
2751.925220,-370.102971,-11325.150913,306.438199
2751.925548,74.020594,-9696.697840,-919.314598
2751.925876,740.205942,-8068.244768,-1072.533697
2751.926203,1036.288319,-8734.430116,383.047749
2751.926531,0.000000,-10140.821405,1915.238745
2751.926859,0.000000,-11177.109724,306.438199
2751.927186,-518.144159,-9622.677246,-995.924147
2751.927514,-592.164754,-8808.450710,-1302.362347
2751.927841,-740.205942,-8808.450710,-229.828649
2751.928169,-1036.288319,-9474.636058,2068.457845
2751.928497,0.000000,-10510.924376,536.266849
2751.928824,0.000000,-10362.883188,-459.657299
2751.929152,-740.205942,-9474.636058,-919.314598
2751.929480,-370.102971,-8290.306550,-612.876398
2751.929807,222.061783,-7772.162391,0.000000
2751.930135,666.185348,-10066.800811,612.876398
2751.930463,1110.308913,-11473.192101,0.000000
2751.930790,814.226536,-10436.903782,-995.924147
2751.931118,888.247130,-8956.491898,-1532.190996
2751.931446,1036.288319,-8956.491898,-1302.362347
2751.931773,592.164754,-10066.800811,919.314598
2751.932101,1406.391290,-11177.109724,919.314598
2751.932428,1998.556043,-11399.171507,0.000000
2751.932756,2738.761985,-9622.677246,-1915.238745
2751.933084,2368.659014,-8290.306550,-919.314598
2751.933411,1406.391290,-7994.224174,1072.533697
2751.933739,740.205942,-10066.800811,919.314598
2751.934067,74.020594,-10881.027347,306.438199
2751.934394,444.123565,-10807.006753,-995.924147
2751.934722,1110.308913,-9474.636058,-1991.848295
2751.935050,1110.308913,-9548.656652,-1302.362347
2751.935377,370.102971,-10955.047942,1455.581446
2751.935705,0.000000,-11621.233289,612.876398
2751.936033,0.000000,-10510.924376,-995.924147
2751.936360,74.020594,-8586.388927,-2145.067394
2751.936688,222.061783,-6809.894666,-1378.971896
2751.937015,74.020594,-8438.347739,1072.533697
2751.937343,0.000000,-9770.718434,2298.286494
2751.937671,74.020594,-10955.047942,612.876398
2751.937998,370.102971,-10288.862594,-1149.143247
2751.938326,296.082377,-9178.553681,-2145.067394
2751.938654,0.000000,-8956.491898,-1225.752797
2751.938981,74.020594,-9918.759623,536.266849
2751.939309,74.020594,-11029.068536,153.219100
2751.939637,888.247130,-11473.192101,0.000000
2751.939964,1110.308913,-9252.574275,-383.047749
2751.940292,888.247130,-7550.100608,689.485948
2751.940620,1036.288319,-8216.285956,995.924147
2751.940947,74.020594,-9622.677246,1149.143247
2751.941275,-666.185348,-10436.903782,0.000000
2751.941602,-222.061783,-9696.697840,-1915.238745
2751.941930,0.000000,-7994.224174,-2298.286494
2751.942258,814.226536,-8438.347739,459.657299
2751.942585,518.144159,-10436.903782,2451.505594
2751.942913,444.123565,-11251.130318,1762.019645
2751.943241,148.041188,-11103.089130,-766.095498
2751.943568,0.000000,-9326.594869,-2528.115143
2751.943896,-518.144159,-8364.327145,-1991.848295
2751.944224,-1036.288319,-9030.512492,612.876398
2751.944551,0.000000,-10066.800811,1225.752797
2751.944879,-370.102971,-10732.986159,0.000000
2751.945207,-888.247130,-9992.780217,-1225.752797
2751.945534,-814.226536,-9326.594869,-1685.410096
2751.945862,-296.082377,-9622.677246,-842.705048
2751.946189,0.000000,-11251.130318,0.000000
2751.946517,0.000000,-11695.253884,-383.047749
2751.946845,296.082377,-11029.068536,-1378.971896
2751.947172,814.226536,-8660.409521,-766.095498
2751.947500,1184.329507,-7105.977043,306.438199
2751.947828,1110.308913,-8438.347739,1225.752797
2751.948155,74.020594,-10436.903782,1302.362347
2751.948483,-296.082377,-10436.903782,-153.219100
2751.948811,444.123565,-9474.636058,-1532.190996
2751.949138,444.123565,-9252.574275,-1378.971896
2751.949466,666.185348,-9178.553681,459.657299
2751.949794,1184.329507,-10510.924376,1455.581446
2751.950121,1110.308913,-11843.295072,76.609550
2751.950449,814.226536,-10658.965565,-1378.971896
2751.950776,518.144159,-7846.182985,-1608.800546
2751.951104,370.102971,-6661.853478,-459.657299
2751.951432,1036.288319,-8364.327145,1532.190996
2751.951759,888.247130,-9548.656652,1915.238745
2751.952087,296.082377,-10658.965565,0.000000
2751.952415,592.164754,-9770.718434,-1762.019645
2751.952742,962.267725,-9104.533087,-2221.676944
2751.953070,370.102971,-9178.553681,-306.438199
2751.953398,444.123565,-10214.842000,689.485948
2751.953725,740.205942,-11103.089130,153.219100
2751.954053,1702.473667,-10881.027347,-842.705048
2751.954381,2516.700203,-8956.491898,-766.095498
2751.954708,1924.535449,-8068.244768,-306.438199
2751.955036,1184.329507,-9178.553681,1532.190996
2751.955363,296.082377,-10807.006753,1455.581446
2751.955691,518.144159,-11029.068536,0.000000
2751.956019,444.123565,-9622.677246,-1915.238745
2751.956346,1110.308913,-9104.533087,-919.314598
2751.956674,1332.370696,-9474.636058,229.828649
2751.957002,0.000000,-11547.212695,1072.533697
2751.957329,-814.226536,-12139.377449,0.000000
2751.957657,-962.267725,-10214.842000,-1838.629195
2751.957985,-666.185348,-8142.265362,-1838.629195
2751.958312,-296.082377,-7920.203579,0.000000
2751.958640,148.041188,-8956.491898,1991.848295
2751.958968,148.041188,-10658.965565,1149.143247
2751.959295,-1036.288319,-10140.821405,459.657299
2751.959623,-1554.432478,-8882.471304,-995.924147
2751.959950,-962.267725,-8290.306550,-1302.362347
2751.960278,-666.185348,-8882.471304,0.000000
2751.960606,-518.144159,-10436.903782,919.314598
2751.960933,592.164754,-11325.150913,459.657299
2751.961261,1776.494261,-11325.150913,-1225.752797
2751.961589,1628.453072,-8882.471304,-536.266849
2751.961916,592.164754,-7624.121203,383.047749
2751.962244,-592.164754,-9104.533087,1685.410096
2751.962572,-740.205942,-10066.800811,689.485948
2751.962899,-592.164754,-9326.594869,-383.047749
2751.963227,-222.061783,-8660.409521,-536.266849
2751.963555,444.123565,-8660.409521,0.000000
2751.963882,0.000000,-9548.656652,1532.190996
2751.964210,-666.185348,-11177.109724,1072.533697
2751.964537,-1406.391290,-11177.109724,-1149.143247
2751.964865,-1184.329507,-9326.594869,-2987.772442
2751.965193,-518.144159,-7698.141797,-2757.943793
2751.965520,0.000000,-9400.615463,-689.485948
2751.965848,0.000000,-10881.027347,2145.067394
2751.966176,962.267725,-11029.068536,1225.752797
2751.966503,592.164754,-10732.986159,-766.095498
2751.966831,666.185348,-9770.718434,-1915.238745
2751.967159,518.144159,-8364.327145,-2221.676944
2751.967486,592.164754,-9474.636058,306.438199
2751.967814,1332.370696,-11695.253884,0.000000
2751.968142,1036.288319,-11103.089130,-536.266849
2751.968469,1628.453072,-9400.615463,-1072.533697
2751.968797,2072.576638,-7698.141797,-766.095498
2751.969124,1480.411884,-9030.512492,536.266849
2751.969452,1480.411884,-10658.965565,2068.457845
2751.969780,444.123565,-10881.027347,689.485948
2751.970107,1036.288319,-9252.574275,-995.924147
2751.970435,1110.308913,-8734.430116,-1149.143247
2751.970763,592.164754,-8512.368333,0.000000
2751.971090,0.000000,-9622.677246,1455.581446
2751.971418,0.000000,-11103.089130,459.657299
2751.971745,74.020594,-10807.006753,-1378.971896
2751.972073,0.000000,-8660.409521,-1608.800546
2751.972400,-370.102971,-7402.059420,-689.485948
2751.972728,-962.267725,-8068.244768,1762.019645
2751.973055,-740.205942,-9400.615463,1378.971896
2751.973383,296.082377,-10955.047942,-459.657299
2751.973710,888.247130,-10881.027347,-1302.362347
2751.974038,666.185348,-9252.574275,-536.266849
2751.974365,962.267725,-8142.265362,842.705048
2751.974693,1110.308913,-9622.677246,766.095498
2751.975020,1036.288319,-11177.109724,383.047749
2751.975348,1036.288319,-11177.109724,-1378.971896
2751.975675,1258.350101,-9474.636058,-1915.238745
2751.976003,1184.329507,-8660.409521,-1455.581446
2751.976331,1110.308913,-8956.491898,76.609550
2751.976658,592.164754,-10140.821405,689.485948
2751.976986,0.000000,-10732.986159,1072.533697
2751.977313,370.102971,-9918.759623,229.828649
2751.977641,962.267725,-8882.471304,-995.924147
2751.977968,444.123565,-8808.450710,-229.828649
2751.978296,-370.102971,-9918.759623,1072.533697
2751.978623,-814.226536,-11251.130318,306.438199
2751.978951,-814.226536,-10584.944971,-536.266849
2751.979278,-296.082377,-8956.491898,-1608.800546
2751.979606,0.000000,-8512.368333,-1225.752797
2751.979933,-1036.288319,-9622.677246,919.314598
2751.980261,-444.123565,-11177.109724,766.095498
2751.980588,-444.123565,-10732.986159,-536.266849
2751.980916,-740.205942,-9474.636058,-1225.752797
2751.981243,-592.164754,-7920.203579,-919.314598
2751.981571,-814.226536,-6883.915261,536.266849
2751.981898,0.000000,-8808.450710,1685.410096
2751.982226,0.000000,-10658.965565,995.924147
2751.982553,222.061783,-10436.903782,-689.485948
2751.982881,0.000000,-8438.347739,-1378.971896
2751.983208,222.061783,-8364.327145,-995.924147
2751.983536,0.000000,-9770.718434,0.000000
2751.983863,518.144159,-11843.295072,766.095498
2751.984191,962.267725,-11843.295072,-229.828649
2751.984518,592.164754,-10214.842000,-1225.752797
2751.984846,1036.288319,-8956.491898,-842.705048
2751.985173,370.102971,-8364.327145,536.266849
2751.985501,296.082377,-9622.677246,1532.190996
2751.985828,0.000000,-10955.047942,153.219100
2751.986156,592.164754,-10140.821405,-1915.238745
2751.986483,814.226536,-8364.327145,-1838.629195
2751.986811,444.123565,-8068.244768,0.000000
2751.987138,74.020594,-9104.533087,1608.800546
2751.987466,592.164754,-10807.006753,1225.752797
2751.987793,740.205942,-11769.274478,-689.485948
2751.988121,1332.370696,-10584.944971,-1455.581446
2751.988448,1480.411884,-8956.491898,-1532.190996
2751.988776,1184.329507,-8216.285956,383.047749
2751.989103,740.205942,-9844.739029,1455.581446
2751.989431,148.041188,-10807.006753,766.095498
2751.989759,0.000000,-9992.780217,-842.705048
2751.990086,-148.041188,-8882.471304,-1608.800546
2751.990414,148.041188,-8660.409521,-1072.533697
2751.990741,1480.411884,-10140.821405,-612.876398
2751.991069,1184.329507,-11325.150913,842.705048
2751.991396,592.164754,-10955.047942,229.828649
2751.991724,222.061783,-9326.594869,-689.485948
2751.992051,592.164754,-8142.265362,-919.314598
2751.992379,444.123565,-8586.388927,229.828649
2751.992706,0.000000,-10066.800811,1302.362347
2751.993034,-666.185348,-11177.109724,612.876398
2751.993361,-444.123565,-9770.718434,-689.485948
2751.993689,370.102971,-9474.636058,-1915.238745
2751.994016,0.000000,-8512.368333,-919.314598
2751.994344,0.000000,-9474.636058,306.438199
2751.994671,0.000000,-11325.150913,0.000000
2751.994999,0.000000,-11547.212695,-1378.971896
2751.995326,148.041188,-9696.697840,-1762.019645
2751.995654,370.102971,-8068.244768,229.828649
2751.995981,296.082377,-8364.327145,1838.629195
2751.996309,444.123565,-10436.903782,2298.286494
2751.996636,370.102971,-11473.192101,383.047749
2751.996964,0.000000,-10362.883188,-1532.190996
2751.997291,0.000000,-8586.388927,-1991.848295
2751.997619,0.000000,-8956.491898,-919.314598
2751.997946,-666.185348,-10066.800811,1455.581446
2751.998274,-148.041188,-10732.986159,1072.533697
2751.998601,222.061783,-10140.821405,-919.314598
2751.998929,888.247130,-9474.636058,-1608.800546
2751.999256,962.267725,-8956.491898,-153.219100
2751.999584,296.082377,-8956.491898,995.924147
2751.999911,0.000000,-9992.780217,2451.505594
2752.000239,-1036.288319,-9918.759623,306.438199
2752.000566,296.082377,-9252.574275,-1608.800546
2752.000894,740.205942,-8734.430116,-1532.190996
2752.001221,666.185348,-9474.636058,76.609550
2752.001549,518.144159,-10955.047942,1149.143247
2752.001876,666.185348,-11399.171507,229.828649
2752.002204,-222.061783,-10807.006753,-1302.362347
2752.002531,222.061783,-9548.656652,-689.485948
2752.002859,74.020594,-7772.162391,-689.485948
2752.003187,444.123565,-8364.327145,1149.143247
2752.003514,1110.308913,-9844.739029,766.095498
2752.003842,962.267725,-10362.883188,306.438199
2752.004169,444.123565,-9474.636058,-306.438199
2752.004497,1110.308913,-7698.141797,-1302.362347
2752.004824,1110.308913,-8586.388927,-842.705048
2752.005152,814.226536,-10214.842000,0.000000
2752.005479,666.185348,-11769.274478,383.047749
2752.005807,1332.370696,-11769.274478,-612.876398
2752.006134,1924.535449,-9992.780217,-1455.581446
2752.006462,2072.576638,-8956.491898,-689.485948
2752.006789,1184.329507,-9696.697840,766.095498
2752.007117,370.102971,-10955.047942,1455.581446
2752.007444,-222.061783,-9696.697840,153.219100
2752.007772,-296.082377,-8586.388927,-1991.848295
2752.008099,-592.164754,-7698.141797,-1532.190996
2752.008427,-370.102971,-8216.285956,306.438199
2752.008754,-444.123565,-9992.780217,1302.362347
2752.009082,-296.082377,-11991.336260,0.000000
2752.009409,74.020594,-11695.253884,-1608.800546
2752.009737,370.102971,-9400.615463,-2834.553343
2752.010064,296.082377,-8512.368333,-919.314598
2752.010392,370.102971,-9918.759623,1608.800546
2752.010719,444.123565,-11103.089130,1685.410096
2752.011047,370.102971,-10436.903782,229.828649
2752.011374,592.164754,-9030.512492,-1072.533697
2752.011702,1110.308913,-8068.244768,-1072.533697
2752.012029,666.185348,-8512.368333,306.438199
2752.012357,74.020594,-9918.759623,1378.971896
2752.012684,0.000000,-10288.862594,306.438199
2752.013012,74.020594,-9548.656652,-1225.752797
2752.013339,0.000000,-8882.471304,-995.924147
2752.013667,666.185348,-8956.491898,0.000000
2752.013994,296.082377,-10066.800811,995.924147
2752.014322,-296.082377,-11177.109724,1532.190996
2752.014649,-666.185348,-10510.924376,0.000000
2752.014977,-740.205942,-8734.430116,-1302.362347
2752.015304,-1480.411884,-8068.244768,-689.485948
2752.015632,-1184.329507,-9252.574275,-306.438199
2752.015959,-444.123565,-9918.759623,0.000000
2752.016287,-666.185348,-10881.027347,-919.314598
2752.016615,-1110.308913,-10362.883188,-1608.800546
2752.016942,0.000000,-9104.533087,-919.314598
2752.017270,148.041188,-8364.327145,229.828649
2752.017597,-222.061783,-9992.780217,1608.800546
2752.017925,-518.144159,-11695.253884,919.314598
2752.018252,-518.144159,-10510.924376,-766.095498
2752.018580,518.144159,-8808.450710,-1838.629195
2752.018907,518.144159,-8364.327145,-766.095498
2752.019235,666.185348,-9918.759623,1072.533697
2752.019562,1036.288319,-10955.047942,1378.971896
2752.019890,1406.391290,-11177.109724,-383.047749
2752.020217,1332.370696,-10436.903782,-1685.410096
2752.020545,1258.350101,-9104.533087,-1455.581446
2752.020872,592.164754,-8734.430116,-689.485948
2752.021200,666.185348,-9770.718434,1302.362347
2752.021527,592.164754,-10584.944971,1378.971896
2752.021855,740.205942,-9770.718434,0.000000
2752.022182,1110.308913,-8216.285956,-995.924147
2752.022510,1332.370696,-7624.121203,-536.266849
2752.022837,962.267725,-9178.553681,1225.752797
2752.023165,74.020594,-9696.697840,919.314598
2752.023492,-518.144159,-11029.068536,-919.314598
2752.023820,74.020594,-10214.842000,-2145.067394
2752.024147,518.144159,-8438.347739,-1685.410096
2752.024475,518.144159,-9178.553681,612.876398
2752.024802,666.185348,-10732.986159,2068.457845
2752.025130,592.164754,-11029.068536,612.876398
2752.025457,444.123565,-9770.718434,-919.314598
2752.025785,666.185348,-8364.327145,-1532.190996
2752.026112,814.226536,-7846.182985,-1225.752797
2752.026440,1036.288319,-8660.409521,919.314598
2752.026767,444.123565,-10510.924376,1455.581446
2752.027095,0.000000,-11029.068536,0.000000
2752.027422,444.123565,-9844.739029,-1762.019645
2752.027750,0.000000,-8660.409521,-1378.971896
2752.028077,-444.123565,-9474.636058,-459.657299
2752.028405,-222.061783,-11325.150913,229.828649
2752.028732,-518.144159,-11621.233289,0.000000
2752.029060,0.000000,-10732.986159,-1149.143247
2752.029387,666.185348,-8956.491898,-1762.019645
2752.029715,148.041188,-8882.471304,76.609550
2752.030042,0.000000,-8734.430116,1455.581446
2752.030370,-518.144159,-9992.780217,612.876398
2752.030698,-518.144159,-10955.047942,-919.314598
2752.031025,0.000000,-10288.862594,-1991.848295
2752.031353,0.000000,-8660.409521,-995.924147
2752.031680,518.144159,-8216.285956,689.485948
2752.032008,592.164754,-10066.800811,2068.457845
2752.032335,666.185348,-11473.192101,1532.190996
2752.032663,962.267725,-10436.903782,-459.657299
2752.032990,1258.350101,-8956.491898,-919.314598
2752.033318,888.247130,-7994.224174,306.438199
2752.033645,0.000000,-8734.430116,2145.067394
2752.033973,-814.226536,-9030.512492,1685.410096
2752.034300,-1480.411884,-8216.285956,-383.047749
2752.034628,-592.164754,-8068.244768,-1685.410096
2752.034955,-592.164754,-8290.306550,-1608.800546
2752.035283,-666.185348,-10288.862594,0.000000
2752.035610,0.000000,-11917.315666,766.095498
2752.035938,370.102971,-11325.150913,-459.657299
2752.036265,666.185348,-10140.821405,-1991.848295
2752.036593,740.205942,-8660.409521,-919.314598
2752.036920,1184.329507,-8290.306550,0.000000
2752.037248,1184.329507,-9252.574275,1149.143247
2752.037575,1110.308913,-10955.047942,153.219100
2752.037903,0.000000,-11325.150913,-612.876398
2752.038230,148.041188,-9696.697840,-1455.581446
2752.038558,444.123565,-8882.471304,-1225.752797
2752.038885,0.000000,-9326.594869,-383.047749
2752.039213,518.144159,-11621.233289,0.000000
2752.039540,1110.308913,-11769.274478,-612.876398
2752.039868,1850.514855,-10362.883188,-1532.190996
2752.040195,2146.597232,-9030.512492,-1225.752797
2752.040523,1258.350101,-8660.409521,306.438199
2752.040850,148.041188,-9474.636058,1378.971896
2752.041178,518.144159,-10066.800811,229.828649
2752.041505,74.020594,-10066.800811,-919.314598
2752.041833,74.020594,-9548.656652,-1608.800546
2752.042160,0.000000,-9474.636058,-919.314598
2752.042488,-148.041188,-9696.697840,229.828649
2752.042815,-370.102971,-10881.027347,383.047749
2752.043143,-296.082377,-10658.965565,-536.266849
2752.043470,0.000000,-8512.368333,-842.705048
2752.043798,666.185348,-7031.956449,-689.485948
2752.044126,1258.350101,-7698.141797,1378.971896
2752.044453,740.205942,-9548.656652,2451.505594
2752.044781,518.144159,-10807.006753,919.314598
2752.045108,0.000000,-10066.800811,-459.657299
2752.045436,518.144159,-8512.368333,-1225.752797
2752.045763,518.144159,-9474.636058,-842.705048
2752.046091,814.226536,-10584.944971,153.219100
2752.046418,0.000000,-10214.842000,153.219100
2752.046746,1184.329507,-11843.295072,-919.314598
2752.047073,1184.329507,-10658.965565,-995.924147
2752.047401,518.144159,-8882.471304,-766.095498
2752.047728,-222.061783,-7105.977043,1072.533697
2752.048056,0.000000,-8734.430116,1378.971896
2752.048383,222.061783,-10288.862594,306.438199
2752.048711,370.102971,-9474.636058,-383.047749
2752.049038,-148.041188,-8586.388927,-995.924147
2752.049366,370.102971,-9474.636058,-536.266849
2752.049693,0.000000,-11177.109724,76.609550
2752.050021,-592.164754,-12139.377449,0.000000
2752.050348,-370.102971,-10362.883188,-1072.533697
2752.050676,-296.082377,-9178.553681,-842.705048
2752.051003,0.000000,-8808.450710,-1378.971896
2752.051331,518.144159,-9696.697840,306.438199
2752.051658,-222.061783,-10436.903782,995.924147
2752.051986,-518.144159,-10510.924376,76.609550
2752.052313,-444.123565,-9992.780217,-536.266849
2752.052641,-592.164754,-8216.285956,-995.924147
2752.052968,-1036.288319,-6957.935855,229.828649
2752.053296,-740.205942,-9104.533087,1149.143247
2752.053623,0.000000,-11399.171507,306.438199
2752.053951,74.020594,-11843.295072,-842.705048
2752.054278,592.164754,-10066.800811,-1455.581446
2752.054606,1184.329507,-8290.306550,-536.266849
2752.054933,1332.370696,-9474.636058,1149.143247
2752.055261,518.144159,-10955.047942,1685.410096
2752.055588,296.082377,-9548.656652,919.314598
2752.055916,222.061783,-8290.306550,-1225.752797
2752.056243,296.082377,-8216.285956,-1532.190996
2752.056571,0.000000,-9178.553681,0.000000
2752.056898,148.041188,-10066.800811,1762.019645
2752.057226,148.041188,-10288.862594,536.266849
2752.057554,-148.041188,-9252.574275,-1532.190996
2752.057881,518.144159,-8734.430116,-2068.457845
2752.058209,666.185348,-8364.327145,-842.705048
2752.058536,444.123565,-8882.471304,1455.581446
2752.058864,814.226536,-11177.109724,919.314598
2752.059191,888.247130,-12509.480420,-383.047749
2752.059519,962.267725,-10436.903782,-1378.971896
2752.059846,962.267725,-7698.141797,-995.924147
2752.060174,0.000000,-7994.224174,76.609550
2752.060501,0.000000,-10881.027347,689.485948
2752.060829,444.123565,-11621.233289,-842.705048
2752.061156,296.082377,-10288.862594,-1608.800546
2752.061484,888.247130,-9252.574275,-1225.752797
2752.061811,1628.453072,-8882.471304,153.219100
2752.062139,814.226536,-9326.594869,1455.581446
2752.062466,370.102971,-10436.903782,1915.238745
2752.062794,296.082377,-10066.800811,-306.438199
2752.063121,666.185348,-9696.697840,-1685.410096
2752.063449,740.205942,-9326.594869,-689.485948
2752.063776,888.247130,-9252.574275,1685.410096
2752.064104,444.123565,-9918.759623,1838.629195
2752.064431,0.000000,-11103.089130,-383.047749
2752.064759,-814.226536,-9844.739029,-1608.800546
2752.065086,-222.061783,-7772.162391,-2374.896044
2752.065414,74.020594,-8216.285956,-995.924147
2752.065741,222.061783,-9474.636058,919.314598
2752.066069,962.267725,-11029.068536,1072.533697
2752.066396,1036.288319,-11399.171507,153.219100
2752.066724,1258.350101,-9770.718434,459.657299
2752.067051,1480.411884,-7920.203579,-536.266849
2752.067379,0.000000,-7698.141797,689.485948
2752.067706,-518.144159,-9992.780217,766.095498
2752.068034,-370.102971,-11029.068536,-612.876398
2752.068361,-370.102971,-10584.944971,-1225.752797
2752.068689,-370.102971,-9326.594869,-536.266849
2752.069016,296.082377,-9474.636058,-459.657299
2752.069344,-444.123565,-10066.800811,306.438199
2752.069671,-888.247130,-10807.006753,-153.219100
2752.069999,-962.267725,-10140.821405,-1838.629195
2752.070326,370.102971,-9474.636058,-1991.848295
2752.070654,1332.370696,-8586.388927,-689.485948
2752.070982,1554.432478,-10362.883188,1608.800546
2752.071309,888.247130,-10807.006753,1915.238745
2752.071637,0.000000,-9992.780217,766.095498
2752.071964,-444.123565,-9400.615463,-1991.848295
2752.072292,-666.185348,-8142.265362,-2834.553343
2752.072619,-592.164754,-8290.306550,-1608.800546
2752.072947,222.061783,-10436.903782,995.924147
2752.073274,962.267725,-12065.356855,1149.143247
2752.073602,814.226536,-11399.171507,153.219100
2752.073929,592.164754,-9474.636058,0.000000
2752.074257,74.020594,-7105.977043,-536.266849
2752.074584,0.000000,-8142.265362,306.438199
2752.074912,-296.082377,-10140.821405,306.438199
2752.075239,0.000000,-10214.842000,-306.438199
2752.075567,740.205942,-9918.759623,-995.924147
2752.075894,1110.308913,-8364.327145,0.000000
2752.076222,592.164754,-8734.430116,689.485948
2752.076549,222.061783,-10140.821405,1149.143247
2752.076877,370.102971,-10584.944971,-153.219100
2752.077205,444.123565,-9992.780217,-1455.581446
2752.077532,1036.288319,-8956.491898,-1378.971896
2752.077860,370.102971,-8734.430116,306.438199
2752.078187,814.226536,-9770.718434,2374.896044
2752.078515,0.000000,-9918.759623,2298.286494
2752.078842,-1184.329507,-9770.718434,-459.657299
2752.079170,-592.164754,-9030.512492,-2145.067394
2752.079497,444.123565,-8364.327145,-2451.505594
2752.079825,296.082377,-9178.553681,0.000000
2752.080152,444.123565,-10955.047942,1225.752797
2752.080480,962.267725,-11695.253884,153.219100
2752.080807,1332.370696,-11251.130318,-995.924147
2752.081135,1406.391290,-8882.471304,-1149.143247
2752.081462,1554.432478,-7846.182985,-306.438199
2752.081790,1258.350101,-8956.491898,1149.143247
2752.082118,1702.473667,-10807.006753,1225.752797
2752.082445,1258.350101,-10732.986159,153.219100
2752.082773,1480.411884,-10436.903782,-383.047749
2752.083100,1110.308913,-8734.430116,-766.095498
2752.083428,1036.288319,-8438.347739,229.828649
2752.083755,222.061783,-9622.677246,842.705048
2752.084083,444.123565,-10584.944971,0.000000
2752.084410,1184.329507,-10288.862594,-459.657299
2752.084738,1480.411884,-9770.718434,-536.266849
2752.085065,962.267725,-8882.471304,306.438199
2752.085393,0.000000,-9178.553681,1532.190996
2752.085720,-1332.370696,-9770.718434,1225.752797
2752.086048,-2516.700203,-9548.656652,-383.047749
2752.086376,-2220.617826,-8882.471304,-2145.067394
2752.086703,-1036.288319,-8882.471304,-2145.067394
2752.087031,-148.041188,-9548.656652,0.000000
2752.087358,0.000000,-11103.089130,229.828649
2752.087686,-666.185348,-11769.274478,383.047749
2752.088013,-814.226536,-10362.883188,-919.314598
2752.088341,74.020594,-7994.224174,-1991.848295
2752.088668,-666.185348,-7105.977043,-766.095498
2752.088996,-814.226536,-8882.471304,1302.362347
2752.089323,518.144159,-10881.027347,1455.581446
2752.089651,1036.288319,-11177.109724,612.876398
2752.089978,1036.288319,-10214.842000,-689.485948
2752.090306,1406.391290,-9548.656652,-995.924147
2752.090633,888.247130,-9548.656652,76.609550
2752.090961,-296.082377,-10584.944971,0.000000
2752.091289,-592.164754,-10955.047942,-919.314598
2752.091616,74.020594,-9844.739029,-2298.286494
2752.091944,444.123565,-9400.615463,-2374.896044
2752.092271,-296.082377,-9548.656652,612.876398
2752.092599,-1110.308913,-9992.780217,1762.019645
2752.092926,-444.123565,-10510.924376,76.609550
2752.093254,-518.144159,-9622.677246,-1762.019645
2752.093581,-222.061783,-7846.182985,-2681.334243
2752.093909,148.041188,-7624.121203,-1608.800546
2752.094236,1258.350101,-9622.677246,766.095498
2752.094564,1406.391290,-10807.006753,1225.752797
2752.094891,1258.350101,-11695.253884,-306.438199
2752.095219,1406.391290,-11177.109724,-689.485948
2752.095546,1406.391290,-8956.491898,-383.047749
2752.095874,1480.411884,-8068.244768,0.000000
2752.096202,1258.350101,-9474.636058,1608.800546
2752.096529,370.102971,-10955.047942,919.314598
2752.096857,592.164754,-9918.759623,0.000000
2752.097184,444.123565,-8586.388927,-383.047749
2752.097512,444.123565,-7328.038826,0.000000
2752.097839,518.144159,-8734.430116,1072.533697
2752.098167,-296.082377,-10066.800811,1225.752797
2752.098494,-962.267725,-10066.800811,-229.828649
2752.098822,888.247130,-10362.883188,-2221.676944
2752.099149,1628.453072,-10066.800811,-2145.067394
2752.099477,814.226536,-10066.800811,536.266849
2752.099804,740.205942,-10066.800811,1991.848295
2752.100132,444.123565,-9992.780217,1072.533697
2752.100459,370.102971,-9178.553681,-919.314598
2752.100787,518.144159,-8660.409521,-1608.800546
2752.101115,148.041188,-8808.450710,-383.047749
2752.101442,0.000000,-9474.636058,995.924147
2752.101770,962.267725,-10807.006753,0.000000
2752.102097,222.061783,-11473.192101,-995.924147
2752.102425,222.061783,-10288.862594,-1378.971896
2752.102752,518.144159,-8216.285956,-1072.533697
2752.103080,444.123565,-8364.327145,306.438199
2752.103407,518.144159,-11769.274478,1149.143247
2752.103735,444.123565,-12213.398043,229.828649
2752.104062,370.102971,-11029.068536,-689.485948
2752.104390,518.144159,-9252.574275,-995.924147
2752.104717,592.164754,-8734.430116,-459.657299
2752.105045,-222.061783,-9474.636058,766.095498
2752.105373,-518.144159,-10214.842000,612.876398
2752.105700,0.000000,-9548.656652,-689.485948
2752.106028,74.020594,-10214.842000,-1225.752797
2752.106355,296.082377,-9622.677246,-766.095498
2752.106683,0.000000,-9030.512492,1455.581446
2752.107010,-444.123565,-9474.636058,2221.676944
2752.107338,-444.123565,-9992.780217,689.485948
2752.107665,-222.061783,-9252.574275,-689.485948
2752.107993,0.000000,-7698.141797,-766.095498
2752.108320,222.061783,-8142.265362,0.000000
2752.108648,0.000000,-10066.800811,1149.143247
2752.108975,-222.061783,-11325.150913,383.047749
2752.109303,-888.247130,-10214.842000,-1378.971896
2752.109630,-444.123565,-8438.347739,-2451.505594
2752.109958,222.061783,-8290.306550,-1915.238745
2752.110286,518.144159,-9474.636058,153.219100
2752.110613,1110.308913,-10955.047942,1149.143247
2752.110941,1406.391290,-11621.233289,76.609550
2752.111268,1184.329507,-9844.739029,-383.047749
2752.111596,1036.288319,-8068.244768,-612.876398
2752.111923,1110.308913,-7994.224174,0.000000
2752.112251,666.185348,-9474.636058,1302.362347
2752.112578,444.123565,-10881.027347,153.219100
2752.112906,-296.082377,-11325.150913,-1302.362347
2752.113233,-222.061783,-10881.027347,-2528.115143
2752.113561,0.000000,-9992.780217,-1915.238745
2752.113888,0.000000,-10140.821405,-459.657299
2752.114216,-518.144159,-11177.109724,0.000000
2752.114543,74.020594,-10658.965565,-919.314598
2752.114871,1036.288319,-9252.574275,-919.314598
2752.115199,740.205942,-8290.306550,-1149.143247
2752.115526,666.185348,-9178.553681,612.876398
2752.115854,444.123565,-9992.780217,1685.410096
2752.116181,370.102971,-10584.944971,306.438199
2752.116509,0.000000,-10140.821405,-1532.190996
2752.116836,74.020594,-9030.512492,-2298.286494
2752.117164,518.144159,-7920.203579,-383.047749
2752.117491,1036.288319,-9992.780217,1149.143247
2752.117819,1924.535449,-11843.295072,1149.143247
2752.118146,1406.391290,-11473.192101,153.219100
2752.118474,1480.411884,-9770.718434,76.609550
2752.118801,1850.514855,-7328.038826,0.000000
2752.119129,1406.391290,-7105.977043,1072.533697
2752.119456,592.164754,-8956.491898,1685.410096
2752.119784,74.020594,-9178.553681,1608.800546
2752.120112,296.082377,-10288.862594,-459.657299
2752.120439,666.185348,-9696.697840,-1608.800546
2752.120767,444.123565,-9178.553681,-919.314598
2752.121094,0.000000,-9622.677246,689.485948
2752.121422,-666.185348,-10436.903782,1149.143247
2752.121749,-666.185348,-9844.739029,-306.438199
2752.122077,0.000000,-8734.430116,-1838.629195
2752.122404,592.164754,-8290.306550,-1378.971896
2752.122732,222.061783,-9104.533087,842.705048
2752.123059,0.000000,-10362.883188,1149.143247
2752.123387,-370.102971,-10955.047942,76.609550
2752.123714,-740.205942,-9844.739029,-1762.019645
2752.124042,-296.082377,-9474.636058,-2221.676944
2752.124370,-740.205942,-8956.491898,-1455.581446
2752.124697,0.000000,-10214.842000,-229.828649
2752.125025,296.082377,-12065.356855,0.000000
2752.125352,740.205942,-11991.336260,-995.924147
2752.125680,1406.391290,-10362.883188,-1378.971896
2752.126007,1554.432478,-8290.306550,-383.047749
2752.126335,1258.350101,-8364.327145,1072.533697
2752.126662,74.020594,-10214.842000,1532.190996
2752.126990,-148.041188,-10436.903782,0.000000
2752.127317,0.000000,-9992.780217,-1608.800546
2752.127645,518.144159,-9770.718434,-1838.629195
2752.127972,518.144159,-9104.533087,0.000000
2752.128300,0.000000,-9696.697840,1685.410096
2752.128627,0.000000,-10584.944971,1225.752797
2752.128955,74.020594,-9548.656652,-612.876398
2752.129283,0.000000,-8216.285956,-1378.971896
2752.129610,-148.041188,-8438.347739,-612.876398
2752.129938,-666.185348,-9178.553681,1302.362347
2752.130265,518.144159,-10288.862594,1608.800546
2752.130593,888.247130,-10288.862594,229.828649
2752.130920,0.000000,-9696.697840,-459.657299
2752.131248,-592.164754,-9104.533087,-229.828649
2752.131575,-444.123565,-8364.327145,-612.876398
2752.131903,0.000000,-9474.636058,-459.657299
2752.132230,-518.144159,-10732.986159,-612.876398
2752.132558,-518.144159,-10510.924376,-536.266849
2752.132885,518.144159,-8882.471304,0.000000
2752.133213,1628.453072,-7624.121203,153.219100
2752.133540,1924.535449,-9104.533087,1685.410096
2752.133868,1184.329507,-10510.924376,1915.238745
2752.134196,888.247130,-11029.068536,-229.828649
2752.134523,962.267725,-10362.883188,-2145.067394
2752.134851,666.185348,-9548.656652,-2221.676944
2752.135178,0.000000,-9474.636058,0.000000
2752.135506,74.020594,-10658.965565,1455.581446
2752.135833,222.061783,-11399.171507,1072.533697
2752.136161,0.000000,-10510.924376,-1455.581446
2752.136488,-814.226536,-9770.718434,-2451.505594
2752.136816,-592.164754,-8364.327145,-1532.190996
2752.137143,-370.102971,-8364.327145,0.000000
2752.137471,-370.102971,-9770.718434,1455.581446
2752.137798,-296.082377,-9696.697840,383.047749
2752.138126,74.020594,-8660.409521,-536.266849
2752.138453,1628.453072,-8660.409521,-1225.752797
2752.138781,962.267725,-9474.636058,459.657299
2752.139109,740.205942,-11177.109724,1072.533697
2752.139436,1110.308913,-11769.274478,0.000000
2752.139764,1036.288319,-10510.924376,-1685.410096
2752.140091,1258.350101,-8882.471304,-1149.143247
2752.140419,1184.329507,-8364.327145,306.438199
2752.140746,1406.391290,-8882.471304,2374.896044
2752.141074,888.247130,-10066.800811,1838.629195
2752.141401,0.000000,-10140.821405,306.438199
2752.141729,-370.102971,-9104.533087,-842.705048
2752.142056,-148.041188,-7772.162391,-383.047749
2752.142384,0.000000,-8142.265362,229.828649
2752.142711,-444.123565,-9770.718434,919.314598
2752.143039,-1036.288319,-10510.924376,689.485948
2752.143366,-518.144159,-10066.800811,-689.485948
2752.143694,296.082377,-9400.615463,-1455.581446
2752.144022,444.123565,-9252.574275,-536.266849
2752.144349,0.000000,-9844.739029,995.924147
2752.144677,-518.144159,-10584.944971,919.314598
2752.145004,0.000000,-9992.780217,-995.924147
2752.145332,296.082377,-9548.656652,-1685.410096
2752.145659,518.144159,-8512.368333,-1149.143247
2752.145987,222.061783,-8660.409521,76.609550
2752.146314,518.144159,-10362.883188,689.485948
2752.146642,962.267725,-11325.150913,0.000000
2752.146969,814.226536,-10732.986159,-1532.190996
2752.147297,962.267725,-8586.388927,-1072.533697
2752.147624,888.247130,-8512.368333,0.000000
2752.147952,1036.288319,-10584.944971,1302.362347
2752.148280,518.144159,-11843.295072,1072.533697
2752.148607,370.102971,-10732.986159,-919.314598
2752.148935,0.000000,-10066.800811,-1685.410096
2752.149262,-370.102971,-9104.533087,-1455.581446
2752.149590,-518.144159,-9474.636058,842.705048
2752.149917,-1184.329507,-9548.656652,995.924147
2752.150245,-1480.411884,-9326.594869,-383.047749
2752.150572,-962.267725,-9252.574275,-1991.848295
2752.150900,-222.061783,-9104.533087,-1532.190996
2752.151227,148.041188,-8290.306550,229.828649
2752.151555,518.144159,-9326.594869,2298.286494
2752.151882,740.205942,-10732.986159,995.924147
2752.152210,0.000000,-9844.739029,-229.828649
2752.152537,444.123565,-9030.512492,-766.095498
2752.152865,814.226536,-8290.306550,0.000000
2752.153193,1110.308913,-9918.759623,919.314598
2752.153520,1110.308913,-10658.965565,689.485948
2752.153848,1036.288319,-10658.965565,-306.438199
2752.154175,444.123565,-10214.842000,-1532.190996
2752.154503,814.226536,-8586.388927,-1072.533697
2752.154830,962.267725,-8216.285956,0.000000
2752.155158,1036.288319,-9696.697840,1532.190996
2752.155485,1628.453072,-11029.068536,612.876398
2752.155813,1332.370696,-10288.862594,0.000000
2752.156140,1184.329507,-8882.471304,-612.876398
2752.156468,666.185348,-8734.430116,153.219100
2752.156795,-518.144159,-9770.718434,229.828649
2752.157123,-2072.576638,-10436.903782,612.876398
2752.157450,-1924.535449,-10510.924376,-1149.143247
2752.157778,-740.205942,-9844.739029,-2681.334243
2752.158106,0.000000,-9548.656652,-2145.067394
2752.158433,74.020594,-9548.656652,766.095498
2752.158761,444.123565,-10658.965565,842.705048
2752.159088,1184.329507,-11473.192101,536.266849
2752.159416,1110.308913,-10658.965565,-995.924147
2752.159743,148.041188,-8142.265362,-1302.362347
2752.160071,0.000000,-7254.018232,0.000000
2752.160398,518.144159,-9252.574275,1455.581446
2752.160726,0.000000,-10658.965565,536.266849
2752.161053,0.000000,-10140.821405,-383.047749
2752.161381,222.061783,-8882.471304,-2068.457845
2752.161708,592.164754,-8512.368333,-1532.190996
2752.162036,1036.288319,-9474.636058,-306.438199
2752.162363,592.164754,-10881.027347,919.314598
2752.162691,592.164754,-10881.027347,612.876398
2752.163019,1258.350101,-10066.800811,-383.047749
2752.163346,1258.350101,-8660.409521,-842.705048
2752.163674,666.185348,-8438.347739,306.438199
2752.164001,-444.123565,-9474.636058,1915.238745
2752.164329,-592.164754,-10362.883188,1302.362347
2752.164656,-148.041188,-10140.821405,-1608.800546
2752.164984,0.000000,-9696.697840,-2451.505594
2752.165311,148.041188,-8290.306550,-1149.143247
2752.165639,-444.123565,-8290.306550,383.047749
2752.165966,0.000000,-10214.842000,612.876398
2752.166294,592.164754,-11547.212695,-536.266849
2752.166621,518.144159,-10066.800811,-1378.971896
2752.166949,666.185348,-9178.553681,-536.266849
2752.167277,814.226536,-8808.450710,306.438199
2752.167604,1332.370696,-9770.718434,1225.752797
2752.167932,814.226536,-11029.068536,229.828649
2752.168259,444.123565,-10732.986159,-1455.581446
2752.168587,444.123565,-9622.677246,-1991.848295
2752.168914,740.205942,-8586.388927,-1608.800546
2752.169242,814.226536,-9326.594869,0.000000
2752.169569,518.144159,-11251.130318,1225.752797
2752.169897,814.226536,-10807.006753,612.876398
2752.170224,740.205942,-9474.636058,-536.266849
2752.170552,888.247130,-8882.471304,-919.314598
2752.170879,444.123565,-8290.306550,383.047749
2752.171207,148.041188,-9178.553681,1608.800546
2752.171534,0.000000,-10288.862594,1149.143247
2752.171862,0.000000,-9474.636058,-1072.533697
2752.172190,296.082377,-8882.471304,-612.876398
2752.172517,222.061783,-8734.430116,-689.485948
2752.172845,0.000000,-8956.491898,459.657299
2752.173172,-666.185348,-10066.800811,153.219100
2752.173500,-592.164754,-11177.109724,-1225.752797
2752.173827,-222.061783,-10288.862594,-1762.019645
2752.174155,518.144159,-8956.491898,-919.314598
2752.174482,1110.308913,-8586.388927,612.876398
2752.174810,222.061783,-10658.965565,2528.115143
2752.175137,370.102971,-10584.944971,1072.533697
2752.175465,0.000000,-9326.594869,-1072.533697
2752.175792,-370.102971,-8956.491898,-2068.457845
2752.176120,-222.061783,-8734.430116,-1532.190996
2752.176447,-74.020594,-9622.677246,76.609550
2752.176775,74.020594,-11769.274478,612.876398
2752.177102,0.000000,-11843.295072,-383.047749
2752.177430,592.164754,-9992.780217,-1302.362347
2752.177757,962.267725,-9622.677246,-995.924147
2752.178085,814.226536,-9178.553681,229.828649
2752.178412,444.123565,-10066.800811,842.705048
2752.178739,-370.102971,-10807.006753,536.266849
2752.179067,-370.102971,-8808.450710,-612.876398
2752.179394,74.020594,-8438.347739,-766.095498
2752.179722,518.144159,-8808.450710,0.000000
2752.180049,-296.082377,-9918.759623,766.095498
2752.180377,-370.102971,-11769.274478,383.047749
2752.180704,0.000000,-11621.233289,-1838.629195
2752.181032,-370.102971,-9844.739029,-2145.067394
2752.181359,-148.041188,-7846.182985,-1149.143247
2752.181687,0.000000,-8142.265362,612.876398
2752.182014,592.164754,-9622.677246,2068.457845
2752.182342,1184.329507,-10140.821405,612.876398
2752.182669,740.205942,-9770.718434,-229.828649
2752.182997,888.247130,-8512.368333,-459.657299
2752.183324,1258.350101,-7846.182985,-229.828649
2752.183652,1110.308913,-9474.636058,919.314598
2752.183979,222.061783,-10732.986159,612.876398
2752.184307,444.123565,-9992.780217,-1378.971896
2752.184634,888.247130,-9326.594869,-2145.067394
2752.184962,1184.329507,-9474.636058,-766.095498
2752.185289,740.205942,-9770.718434,1149.143247
2752.185617,0.000000,-10288.862594,2374.896044
2752.185944,-222.061783,-10066.800811,0.000000
2752.186272,-740.205942,-9474.636058,-2145.067394
2752.186599,74.020594,-8364.327145,-1762.019645
2752.186927,0.000000,-8364.327145,0.000000
2752.187254,-666.185348,-9696.697840,919.314598
2752.187582,-296.082377,-11621.233289,0.000000
2752.187909,148.041188,-11325.150913,-1685.410096
2752.188236,740.205942,-10436.903782,-1991.848295
2752.188564,0.000000,-9178.553681,-459.657299
2752.188891,148.041188,-9400.615463,919.314598
2752.189219,740.205942,-10807.006753,689.485948
2752.189546,888.247130,-10436.903782,0.000000
2752.189874,888.247130,-9178.553681,-842.705048
2752.190201,1258.350101,-8734.430116,-153.219100
2752.190529,1332.370696,-8290.306550,536.266849
2752.190856,740.205942,-9770.718434,1685.410096
2752.191184,74.020594,-10732.986159,306.438199
2752.191511,740.205942,-10732.986159,-1532.190996
2752.191839,444.123565,-9474.636058,-1608.800546
2752.192166,962.267725,-8734.430116,-536.266849
2752.192494,740.205942,-9548.656652,919.314598
2752.192821,444.123565,-11473.192101,2681.334243
2752.193149,0.000000,-10288.862594,842.705048
2752.193476,-296.082377,-8364.327145,-1149.143247
2752.193804,-444.123565,-7994.224174,-1149.143247
2752.194131,-444.123565,-8734.430116,0.000000
2752.194459,-1258.350101,-9326.594869,919.314598
2752.194786,-1184.329507,-10288.862594,0.000000
2752.195114,-222.061783,-10362.883188,-1455.581446
2752.195441,222.061783,-9400.615463,-1455.581446
2752.195769,518.144159,-8142.265362,229.828649
2752.196096,74.020594,-8734.430116,1225.752797
2752.196424,0.000000,-10732.986159,1455.581446
2752.196751,222.061783,-10510.924376,0.000000
2752.197078,518.144159,-9252.574275,-1149.143247
2752.197406,222.061783,-8142.265362,-383.047749
2752.197733,740.205942,-8660.409521,459.657299
2752.198061,222.061783,-10807.006753,995.924147
2752.198388,-148.041188,-11547.212695,-383.047749
2752.198716,-296.082377,-9844.739029,-2451.505594
2752.199043,0.000000,-9474.636058,-2221.676944
2752.199371,666.185348,-9696.697840,-842.705048
2752.199698,148.041188,-10955.047942,1072.533697
2752.200026,814.226536,-11399.171507,919.314598
2752.200353,1184.329507,-10066.800811,-1149.143247
2752.200681,518.144159,-9104.533087,-919.314598
2752.201008,-518.144159,-8364.327145,0.000000
2752.201336,-1110.308913,-8364.327145,536.266849
2752.201663,-1702.473667,-10510.924376,766.095498
2752.201991,-370.102971,-10955.047942,-1378.971896
2752.202318,74.020594,-10214.842000,-2834.553343
2752.202646,814.226536,-9622.677246,-1991.848295
2752.202973,962.267725,-9474.636058,612.876398
2752.203301,1184.329507,-10584.944971,1455.581446
2752.203628,666.185348,-10955.047942,1149.143247
2752.203956,1184.329507,-9918.759623,-995.924147
2752.204283,1036.288319,-8068.244768,-1225.752797
2752.204611,1406.391290,-7402.059420,306.438199
2752.204938,1036.288319,-7920.203579,1455.581446
2752.205266,444.123565,-9770.718434,2374.896044
2752.205593,666.185348,-10288.862594,919.314598
2752.205921,666.185348,-9252.574275,-1532.190996
2752.206248,370.102971,-8882.471304,-1608.800546
2752.206575,962.267725,-9326.594869,-919.314598
2752.206903,888.247130,-11029.068536,1072.533697
2752.207230,444.123565,-11325.150913,766.095498
2752.207558,592.164754,-10066.800811,-459.657299
2752.207885,666.185348,-8512.368333,-612.876398
2752.208213,518.144159,-7846.182985,383.047749
2752.208540,444.123565,-8660.409521,842.705048
2752.208868,74.020594,-9918.759623,995.924147
2752.209195,296.082377,-11621.233289,-1302.362347
2752.209523,0.000000,-10584.944971,-2374.896044
2752.209850,296.082377,-9252.574275,-1532.190996
2752.210178,296.082377,-8882.471304,0.000000
2752.210505,518.144159,-10214.842000,1072.533697
2752.210833,296.082377,-11769.274478,842.705048
2752.211160,666.185348,-11325.150913,-153.219100
2752.211488,2220.617826,-9696.697840,-1225.752797
2752.211815,962.267725,-8734.430116,0.000000
2752.212143,74.020594,-9400.615463,1149.143247
2752.212470,-444.123565,-10436.903782,1302.362347
2752.212798,-888.247130,-9918.759623,0.000000
2752.213125,0.000000,-9326.594869,-2221.676944
2752.213453,-518.144159,-9474.636058,-1838.629195
