#time,accel_x,accel_y,accel_z
2928.254342,370.102971,-10066.800811,-306.438199
2928.254670,296.082377,-9770.718434,0.000000
2928.254998,740.205942,-10066.800811,0.000000
2928.255326,518.144159,-10066.800811,229.828649
2928.255653,592.164754,-9696.697840,153.219100
2928.255981,444.123565,-9548.656652,306.438199
2928.256309,0.000000,-9104.533087,76.609550
2928.256637,74.020594,-9252.574275,-995.924147
2928.256964,0.000000,-9030.512492,-306.438199
2928.257292,-296.082377,-9030.512492,0.000000
2928.257620,148.041188,-9622.677246,0.000000
2928.257948,74.020594,-9622.677246,0.000000
2928.258275,444.123565,-9770.718434,0.000000
2928.258603,666.185348,-9474.636058,76.609550
2928.258931,592.164754,-9474.636058,153.219100
2928.259259,1036.288319,-9326.594869,0.000000
2928.259587,962.267725,-9474.636058,229.828649
2928.259914,296.082377,-9400.615463,0.000000
2928.260242,0.000000,-9178.553681,0.000000
2928.260570,-148.041188,-9474.636058,0.000000
2928.260898,0.000000,-9696.697840,-229.828649
2928.261225,0.000000,-9844.739029,-689.485948
2928.261553,296.082377,-10510.924376,-306.438199
2928.261881,444.123565,-10214.842000,-383.047749
2928.262209,592.164754,-10288.862594,-306.438199
2928.262536,740.205942,-10362.883188,0.000000
2928.262864,592.164754,-9918.759623,0.000000
2928.263192,444.123565,-9770.718434,153.219100
2928.263520,296.082377,-9474.636058,229.828649
2928.263848,222.061783,-9696.697840,-842.705048
2928.264175,222.061783,-9474.636058,-383.047749
2928.264503,0.000000,-9622.677246,-689.485948
2928.264831,0.000000,-9844.739029,-612.876398
2928.265159,74.020594,-10214.842000,-689.485948
2928.265486,444.123565,-9918.759623,-383.047749
2928.265814,518.144159,-10140.821405,0.000000
2928.266142,518.144159,-9548.656652,0.000000
2928.266470,592.164754,-9770.718434,0.000000
2928.266797,444.123565,-9474.636058,612.876398
2928.267125,370.102971,-9474.636058,229.828649
2928.267453,0.000000,-9252.574275,306.438199
2928.267781,148.041188,-8882.471304,0.000000
2928.268109,370.102971,-9474.636058,-1149.143247
2928.268436,0.000000,-8808.450710,-536.266849
2928.268764,0.000000,-9252.574275,-306.438199
2928.269092,370.102971,-9622.677246,-229.828649
2928.269420,518.144159,-9844.739029,-383.047749
2928.269747,888.247130,-9844.739029,-153.219100
2928.270075,740.205942,-9474.636058,0.000000
2928.270403,1184.329507,-8882.471304,229.828649
2928.270731,1776.494261,-9326.594869,306.438199
2928.271058,2368.659014,-9178.553681,0.000000
2928.271386,2886.803174,-8808.450710,0.000000
2928.271714,3552.988522,-8882.471304,-306.438199
2928.272042,4441.235652,-9622.677246,-383.047749
2928.272370,5255.462188,-9918.759623,-1225.752797
2928.272697,5921.647536,-9548.656652,-1149.143247
2928.273025,7105.977043,-9474.636058,-919.314598
2928.273353,7994.224174,-10732.986159,0.000000
2928.273681,9178.553681,-11177.109724,0.000000
2928.274008,8808.450710,-10881.027347,689.485948
2928.274336,8216.285956,-10288.862594,229.828649
2928.274664,8438.347739,-9474.636058,153.219100
2928.274992,8734.430116,-8956.491898,-383.047749
2928.275319,8956.491898,-9030.512492,0.000000
2928.275647,10140.821405,-8586.388927,-383.047749
2928.275975,11103.089130,-9178.553681,-229.828649
2928.276303,11399.171507,-10066.800811,459.657299
2928.276631,11103.089130,-10288.862594,459.657299
2928.276958,10732.986159,-9400.615463,536.266849
2928.277286,11177.109724,-9030.512492,689.485948
2928.277614,12065.356855,-10362.883188,919.314598
2928.277942,13545.768739,-9844.739029,229.828649
2928.278269,14063.912898,-9326.594869,1378.971896
2928.278597,14211.954086,-9474.636058,1762.019645
2928.278925,13323.706956,-8956.491898,1072.533697
2928.279253,12139.377449,-8660.409521,612.876398
2928.279580,11695.253884,-7920.203579,-689.485948
2928.279908,12435.459826,-9696.697840,-1072.533697
2928.280236,12953.603985,-11177.109724,-229.828649
2928.280564,12953.603985,-9992.780217,919.314598
2928.280892,12731.542202,-9400.615463,1608.800546
2928.281219,12953.603985,-9474.636058,1455.581446
2928.281547,11991.336260,-9252.574275,1149.143247
2928.281875,11769.274478,-9992.780217,612.876398
2928.282203,10732.986159,-9252.574275,0.000000
2928.282530,9400.615463,-9696.697840,-229.828649
2928.282858,7846.182985,-9474.636058,-229.828649
2928.283186,7105.977043,-8734.430116,0.000000
2928.283514,7031.956449,-8660.409521,-229.828649
2928.283841,7994.224174,-9918.759623,-229.828649
2928.284169,8660.409521,-12361.439231,76.609550
2928.284497,7920.203579,-12435.459826,153.219100
2928.284825,6365.771101,-10881.027347,153.219100
2928.285153,3997.112087,-8882.471304,612.876398
2928.285480,2590.720797,-7920.203579,612.876398
2928.285808,2812.782580,-8290.306550,536.266849
2928.286136,3034.844362,-9104.533087,612.876398
2928.286464,3552.988522,-9992.780217,0.000000
2928.286791,2738.761985,-9696.697840,-306.438199
2928.287119,1554.432478,-8438.347739,-1302.362347
2928.287447,666.185348,-8586.388927,-1225.752797
2928.287775,814.226536,-10732.986159,-1762.019645
2928.288102,2220.617826,-11843.295072,-1685.410096
2928.288430,4367.215058,-10807.006753,-766.095498
2928.288758,6143.709319,-9622.677246,-536.266849
2928.289086,4293.194464,-9326.594869,1838.629195
2928.289414,518.144159,-9400.615463,3447.429741
2928.289741,-2072.576638,-9104.533087,2757.943793
2928.290069,-1702.473667,-8068.244768,-995.924147
2928.290397,-444.123565,-7698.141797,-3600.648841
2928.290725,-1184.329507,-8512.368333,-1915.238745
2928.291052,-1702.473667,-8808.450710,612.876398
2928.291380,-1776.494261,-9622.677246,995.924147
2928.291708,-814.226536,-8438.347739,-766.095498
2928.292036,666.185348,-9696.697840,-2298.286494
2928.292363,592.164754,-10658.965565,-1072.533697
2928.292691,888.247130,-10140.821405,306.438199
2928.293019,1998.556043,-9844.739029,536.266849
2928.293347,3256.906145,-10288.862594,-689.485948
2928.293675,1702.473667,-10658.965565,0.000000
2928.294002,0.000000,-10510.924376,459.657299
2928.294330,74.020594,-9474.636058,-306.438199
2928.294658,1110.308913,-8882.471304,-1915.238745
2928.294986,1110.308913,-10214.842000,-2451.505594
2928.295313,-296.082377,-10214.842000,-766.095498
2928.295641,-740.205942,-6957.935855,689.485948
2928.295969,1480.411884,-7179.997637,459.657299
2928.296297,3256.906145,-10436.903782,76.609550
2928.296624,3923.091493,-11473.192101,-689.485948
2928.296952,3849.070898,-9474.636058,-766.095498
2928.297280,3849.070898,-9474.636058,0.000000
2928.297608,4293.194464,-12287.418637,76.609550
2928.297936,2886.803174,-13175.665768,612.876398
2928.298263,1776.494261,-11473.192101,0.000000
2928.298591,1776.494261,-8364.327145,-1149.143247
2928.298919,2368.659014,-9474.636058,-1915.238745
2928.299247,1776.494261,-11473.192101,459.657299
2928.299574,0.000000,-9326.594869,2145.067394
2928.299902,0.000000,-7031.956449,842.705048
2928.300230,518.144159,-7772.162391,0.000000
2928.300558,888.247130,-10658.965565,0.000000
2928.300885,370.102971,-9474.636058,766.095498
2928.301213,296.082377,-7031.956449,153.219100
2928.301541,0.000000,-9696.697840,-229.828649
2928.301869,74.020594,-12435.459826,-459.657299
2928.302197,-888.247130,-10881.027347,0.000000
2928.302524,-1480.411884,-9252.574275,0.000000
2928.302852,-370.102971,-9696.697840,-1762.019645
2928.303180,-1332.370696,-12139.377449,-995.924147
2928.303508,-2146.597232,-10658.965565,1455.581446
2928.303835,-518.144159,-7031.956449,1455.581446
2928.304163,296.082377,-5625.565159,0.000000
2928.304491,-666.185348,-8660.409521,995.924147
2928.304819,-2072.576638,-9844.739029,1838.629195
2928.305146,-1924.535449,-8142.265362,1072.533697
2928.305474,0.000000,-6661.853478,-1072.533697
2928.305802,0.000000,-10584.944971,-1455.581446
2928.306130,0.000000,-13397.727550,-306.438199
2928.306458,370.102971,-11991.336260,0.000000
2928.306785,444.123565,-9992.780217,-1225.752797
2928.307113,-370.102971,-11695.253884,-1302.362347
2928.307441,-1776.494261,-12731.542202,-689.485948
2928.307769,-2368.659014,-9770.718434,-612.876398
2928.308096,-1554.432478,-7846.182985,-995.924147
2928.308424,-1184.329507,-8364.327145,-1149.143247
2928.308752,-2072.576638,-9696.697840,229.828649
2928.309080,-2368.659014,-8142.265362,1838.629195
2928.309408,-1036.288319,-6291.750507,0.000000
2928.309735,148.041188,-6587.832884,-1915.238745
2928.310063,296.082377,-11029.068536,-612.876398
2928.310391,518.144159,-11991.336260,459.657299
2928.310719,2368.659014,-10362.883188,-306.438199
2928.311046,2886.803174,-10362.883188,-919.314598
2928.311374,1998.556043,-12953.603985,-383.047749
2928.311702,962.267725,-12361.439231,-383.047749
2928.312030,814.226536,-9400.615463,-612.876398
2928.312357,962.267725,-7994.224174,-1532.190996
2928.312685,0.000000,-9844.739029,-1149.143247
2928.313013,-370.102971,-10140.821405,0.000000
2928.313341,74.020594,-7550.100608,536.266849
2928.313669,888.247130,-6513.812290,459.657299
2928.313996,1036.288319,-9252.574275,229.828649
2928.314324,888.247130,-11177.109724,1455.581446
2928.314652,1258.350101,-9474.636058,1225.752797
2928.314980,1998.556043,-6957.935855,-536.266849
2928.315307,2072.576638,-9400.615463,-689.485948
2928.315635,1628.453072,-12953.603985,689.485948
2928.315963,1628.453072,-11547.212695,919.314598
2928.316291,2072.576638,-9104.533087,-1455.581446
2928.316618,2664.741391,-10732.986159,-2221.676944
2928.316946,2146.597232,-12583.501014,-1455.581446
2928.317274,1258.350101,-11029.068536,0.000000
2928.317601,1332.370696,-8364.327145,306.438199
2928.317929,1258.350101,-7994.224174,0.000000
2928.318257,814.226536,-9770.718434,766.095498
2928.318584,592.164754,-9400.615463,1915.238745
2928.318912,666.185348,-6661.853478,1838.629195
2928.319239,1036.288319,-7402.059420,0.000000
2928.319567,-518.144159,-10955.047942,383.047749
2928.319895,-3256.906145,-11695.253884,536.266849
2928.320222,-3182.885551,-9178.553681,-1149.143247
2928.320550,-1332.370696,-7846.182985,-3447.429741
2928.320877,-222.061783,-11251.130318,-3447.429741
2928.321205,-444.123565,-13767.830521,-153.219100
2928.321533,444.123565,-10881.027347,459.657299
2928.321860,1480.411884,-7698.141797,-306.438199
2928.322188,1924.535449,-9400.615463,-766.095498
2928.322515,740.205942,-11251.130318,459.657299
2928.322843,0.000000,-8586.388927,2068.457845
2928.323170,74.020594,-6217.729913,0.000000
2928.323498,-1258.350101,-7179.997637,-459.657299
2928.323826,-2146.597232,-10362.883188,919.314598
2928.324153,-2368.659014,-9178.553681,1378.971896
2928.324481,-1628.453072,-7476.080014,-306.438199
2928.324808,-1554.432478,-9474.636058,-2298.286494
2928.325136,-2886.803174,-12657.521608,-2068.457845
2928.325464,-2738.761985,-11769.274478,-536.266849
2928.325791,-888.247130,-7550.100608,-1532.190996
2928.326119,74.020594,-7105.977043,-1455.581446
2928.326446,592.164754,-11029.068536,229.828649
2928.326774,888.247130,-12805.562797,1532.190996
2928.327102,1258.350101,-9400.615463,995.924147
2928.327429,2294.638420,-7402.059420,-1762.019645
2928.327757,1332.370696,-10066.800811,-2068.457845
2928.328084,296.082377,-12435.459826,-919.314598
2928.328412,-296.082377,-9770.718434,0.000000
2928.328740,1554.432478,-8068.244768,-1608.800546
2928.329067,1998.556043,-9992.780217,-1072.533697
2928.329395,1480.411884,-11695.253884,766.095498
2928.329722,1480.411884,-8808.450710,2145.067394
2928.330050,1924.535449,-7328.038826,842.705048
2928.330378,1480.411884,-10584.944971,229.828649
2928.330705,0.000000,-12287.418637,-383.047749
2928.331033,0.000000,-9474.636058,-153.219100
2928.331360,666.185348,-6957.935855,-1225.752797
2928.331688,888.247130,-8290.306550,-1685.410096
2928.332016,814.226536,-11917.315666,0.000000
2928.332343,1110.308913,-12879.583391,1302.362347
2928.332671,2368.659014,-9400.615463,153.219100
2928.332998,3775.050304,-8882.471304,-1072.533697
2928.333326,3108.864956,-11547.212695,-306.438199
2928.333654,1554.432478,-11251.130318,1455.581446
2928.333981,1628.453072,-8882.471304,1532.190996
2928.334309,1998.556043,-7550.100608,919.314598
2928.334636,1406.391290,-9030.512492,612.876398
2928.334964,0.000000,-8438.347739,1072.533697
2928.335291,-444.123565,-7624.121203,1608.800546
2928.335619,-1628.453072,-8068.244768,-153.219100
2928.335947,-2146.597232,-10584.944971,-1915.238745
2928.336274,-3775.050304,-11695.253884,-919.314598
2928.336602,-2294.638420,-8808.450710,-766.095498
2928.336929,296.082377,-6957.935855,-3064.381992
2928.337257,0.000000,-10362.883188,-536.266849
2928.337585,296.082377,-13989.892304,-229.828649
2928.337912,1184.329507,-11843.295072,76.609550
2928.338240,1554.432478,-8216.285956,-306.438199
2928.338567,666.185348,-9030.512492,-612.876398
2928.338895,-1110.308913,-11547.212695,76.609550
2928.339223,-2368.659014,-11029.068536,536.266849
2928.339550,-962.267725,-7698.141797,-1225.752797
2928.339878,-962.267725,-7476.080014,-1915.238745
2928.340205,-962.267725,-9696.697840,0.000000
2928.340533,-592.164754,-10584.944971,1991.848295
2928.340861,-370.102971,-7772.162391,1838.629195
2928.341188,0.000000,-7328.038826,-153.219100
2928.341516,-1036.288319,-10584.944971,229.828649
2928.341843,-2442.679609,-10881.027347,153.219100
2928.342171,-1702.473667,-7624.121203,-153.219100
2928.342499,-370.102971,-7550.100608,-1532.190996
2928.342826,74.020594,-11769.274478,-1149.143247
2928.343154,-148.041188,-14137.933492,0.000000
2928.343481,222.061783,-10807.006753,459.657299
2928.343809,1184.329507,-7402.059420,-689.485948
2928.344137,518.144159,-9104.533087,-1762.019645
2928.344464,-666.185348,-10732.986159,383.047749
2928.344792,-222.061783,-8364.327145,1302.362347
2928.345119,1332.370696,-5921.647536,229.828649
2928.345447,1702.473667,-8216.285956,153.219100
2928.345775,1184.329507,-10288.862594,1455.581446
2928.346102,1406.391290,-7994.224174,1532.190996
2928.346430,1628.453072,-7846.182985,0.000000
2928.346757,1406.391290,-10436.903782,-1608.800546
2928.347085,444.123565,-12953.603985,-919.314598
2928.347412,0.000000,-11399.171507,-229.828649
2928.347740,518.144159,-8364.327145,-1149.143247
2928.348068,740.205942,-8734.430116,-1072.533697
2928.348395,148.041188,-11991.336260,0.000000
2928.348723,-814.226536,-12213.398043,842.705048
2928.349050,1628.453072,-9030.512492,-689.485948
2928.349378,1998.556043,-7105.977043,-1225.752797
2928.349706,1332.370696,-9918.759623,0.000000
2928.350033,814.226536,-11251.130318,1455.581446
2928.350361,1480.411884,-9326.594869,1455.581446
2928.350688,2220.617826,-7254.018232,-1072.533697
2928.351016,2220.617826,-10066.800811,-1072.533697
2928.351344,2960.823768,-11621.233289,0.000000
2928.351671,2590.720797,-9770.718434,1072.533697
2928.351999,2516.700203,-9622.677246,383.047749
2928.352326,666.185348,-11325.150913,-306.438199
2928.352654,-1850.514855,-11473.192101,-995.924147
2928.352982,-1776.494261,-8734.430116,-766.095498
2928.353309,-962.267725,-6069.688724,-1608.800546
2928.353637,-1110.308913,-7846.182985,-689.485948
2928.353964,-1850.514855,-11991.336260,995.924147
2928.354292,-1184.329507,-11473.192101,1608.800546
2928.354620,148.041188,-7846.182985,-995.924147
2928.354947,888.247130,-7772.162391,-2145.067394
2928.355275,148.041188,-11177.109724,-842.705048
2928.355602,-592.164754,-11621.233289,766.095498
2928.355930,1480.411884,-8512.368333,229.828649
2928.356258,2368.659014,-8660.409521,-689.485948
2928.356585,2886.803174,-11547.212695,383.047749
2928.356913,1480.411884,-10658.965565,2068.457845
2928.357240,-222.061783,-8216.285956,2374.896044
2928.357568,-1406.391290,-7698.141797,-1072.533697
2928.357896,-3108.864956,-9400.615463,-1302.362347
2928.358223,-4293.194464,-9474.636058,-612.876398
2928.358551,-3034.844362,-6661.853478,0.000000
2928.358878,-888.247130,-5921.647536,-536.266849
2928.359206,0.000000,-10732.986159,153.219100
2928.359533,0.000000,-13989.892304,1378.971896
2928.359861,666.185348,-10732.986159,0.000000
2928.360189,1924.535449,-7624.121203,-1378.971896
2928.360516,1554.432478,-10214.842000,-1149.143247
2928.360844,370.102971,-13175.665768,-459.657299
2928.361171,222.061783,-11917.315666,536.266849
2928.361499,1554.432478,-9030.512492,-536.266849
2928.361827,1998.556043,-9326.594869,-612.876398
2928.362154,1036.288319,-11177.109724,0.000000
2928.362482,370.102971,-9178.553681,1991.848295
2928.362809,222.061783,-6957.935855,383.047749
2928.363137,222.061783,-8068.244768,-383.047749
2928.363465,-962.267725,-9992.780217,229.828649
2928.363792,-962.267725,-9548.656652,919.314598
2928.364120,-222.061783,-6069.688724,1378.971896
2928.364447,592.164754,-8142.265362,229.828649
2928.364775,444.123565,-13175.665768,-229.828649
2928.365103,148.041188,-14285.974681,0.000000
2928.365430,1554.432478,-11177.109724,-1455.581446
2928.365758,2072.576638,-8808.450710,-2834.553343
2928.366085,370.102971,-11251.130318,-1915.238745
2928.366413,-370.102971,-12657.521608,0.000000
2928.366741,666.185348,-9918.759623,76.609550
2928.367068,2368.659014,-6735.874072,-536.266849
2928.367396,2664.741391,-8068.244768,383.047749
2928.367723,2294.638420,-9178.553681,1838.629195
2928.368051,1258.350101,-8586.388927,2911.162892
2928.368379,962.267725,-7328.038826,1915.238745
2928.368706,0.000000,-7994.224174,-612.876398
2928.369034,-1110.308913,-11103.089130,-1455.581446
2928.369361,-1480.411884,-10436.903782,-536.266849
2928.369689,-592.164754,-7550.100608,-1225.752797
2928.370017,-222.061783,-10881.027347,-689.485948
2928.370344,-814.226536,-14285.974681,0.000000
2928.370672,-666.185348,-12805.562797,-536.266849
2928.370999,370.102971,-8216.285956,-2145.067394
2928.371327,74.020594,-7254.018232,-2604.724693
2928.371654,0.000000,-11029.068536,-459.657299
2928.371982,0.000000,-10658.965565,459.657299
2928.372310,1406.391290,-8882.471304,76.609550
2928.372637,1850.514855,-7846.182985,153.219100
2928.372965,1776.494261,-10214.842000,766.095498
2928.373292,1184.329507,-11473.192101,1302.362347
2928.373620,-296.082377,-8808.450710,1838.629195
2928.373948,-592.164754,-7031.956449,229.828649
2928.374275,-296.082377,-9844.739029,-2221.676944
2928.374603,-1184.329507,-11695.253884,-459.657299
2928.374930,-1924.535449,-7698.141797,1225.752797
2928.375258,-444.123565,-6217.729913,0.000000
2928.375586,-370.102971,-9992.780217,-306.438199
2928.375913,-1480.411884,-12509.480420,-306.438199
2928.376241,-370.102971,-10807.006753,-766.095498
2928.376568,74.020594,-7402.059420,-1685.410096
2928.376896,1258.350101,-10214.842000,-1762.019645
2928.377224,1554.432478,-13619.789333,-383.047749
2928.377551,148.041188,-11621.233289,995.924147
2928.377879,592.164754,-8586.388927,689.485948
2928.378206,1332.370696,-8808.450710,-306.438199
2928.378534,518.144159,-10436.903782,0.000000
2928.378862,-592.164754,-9770.718434,1225.752797
2928.379189,-444.123565,-6883.915261,919.314598
2928.379517,0.000000,-7402.059420,-766.095498
2928.379844,74.020594,-10584.944971,-536.266849
2928.380172,-814.226536,-10214.842000,153.219100
2928.380500,74.020594,-8290.306550,76.609550
2928.380827,1628.453072,-8512.368333,-919.314598
2928.381155,2442.679609,-12731.542202,-1685.410096
2928.381482,2146.597232,-14878.139434,-306.438199
2928.381810,1406.391290,-10955.047942,76.609550
2928.382138,1776.494261,-8142.265362,-919.314598
2928.382465,1184.329507,-11029.068536,-1608.800546
2928.382793,-592.164754,-12213.398043,-919.314598
2928.383120,-1480.411884,-9844.739029,153.219100
2928.383448,-296.082377,-7402.059420,306.438199
2928.383775,222.061783,-7698.141797,-612.876398
2928.384103,814.226536,-9548.656652,0.000000
2928.384431,518.144159,-9178.553681,1455.581446
2928.384758,444.123565,-7105.977043,1225.752797
2928.385086,2368.659014,-7846.182985,-766.095498
2928.385413,2220.617826,-10362.883188,-536.266849
2928.385741,1332.370696,-10066.800811,1532.190996
2928.386069,1480.411884,-7698.141797,1149.143247
2928.386396,1110.308913,-9252.574275,-383.047749
2928.386724,444.123565,-13619.789333,-536.266849
2928.387051,0.000000,-13175.665768,-689.485948
2928.387379,0.000000,-7846.182985,-1455.581446
2928.387707,222.061783,-8142.265362,-2145.067394
2928.388034,-148.041188,-11843.295072,0.000000
2928.388362,-1036.288319,-12657.521608,689.485948
2928.388689,-1776.494261,-8586.388927,76.609550
2928.389017,-592.164754,-6143.709319,-1532.190996
2928.389345,666.185348,-9178.553681,-1532.190996
2928.389672,666.185348,-11029.068536,689.485948
2928.390000,-592.164754,-8808.450710,2221.676944
2928.390327,1258.350101,-7402.059420,153.219100
2928.390655,1480.411884,-10362.883188,-1378.971896
2928.390983,444.123565,-12435.459826,-1225.752797
2928.391310,-666.185348,-9696.697840,0.000000
2928.391638,-1036.288319,-7772.162391,-306.438199
2928.391965,-592.164754,-9770.718434,-842.705048
2928.392293,-740.205942,-11917.315666,0.000000
2928.392621,-1628.453072,-9622.677246,459.657299
2928.392948,0.000000,-7105.977043,153.219100
2928.393276,-370.102971,-8068.244768,-766.095498
2928.393603,-666.185348,-11547.212695,-995.924147
2928.393931,-1110.308913,-10807.006753,-306.438199
2928.394259,0.000000,-8068.244768,-459.657299
2928.394586,814.226536,-7920.203579,-1378.971896
2928.394914,1776.494261,-10436.903782,0.000000
2928.395241,1258.350101,-11473.192101,536.266849
2928.395569,888.247130,-9770.718434,612.876398
2928.395896,1702.473667,-9326.594869,-1149.143247
2928.396224,1184.329507,-10584.944971,-1302.362347
2928.396552,-370.102971,-10881.027347,536.266849
2928.396879,0.000000,-7254.018232,0.000000
2928.397207,-222.061783,-6365.771101,-306.438199
2928.397534,0.000000,-9548.656652,-612.876398
2928.397862,0.000000,-11251.130318,153.219100
2928.398190,0.000000,-8512.368333,536.266849
2928.398517,740.205942,-7254.018232,-459.657299
2928.398845,1776.494261,-11325.150913,-1532.190996
2928.399172,1110.308913,-15100.201217,-689.485948
2928.399500,222.061783,-12509.480420,459.657299
2928.399828,1110.308913,-8364.327145,-766.095498
2928.400155,1332.370696,-8660.409521,-1838.629195
2928.400483,0.000000,-11473.192101,-919.314598
2928.400810,-370.102971,-10732.986159,1149.143247
2928.401138,740.205942,-8068.244768,459.657299
2928.401466,740.205942,-7698.141797,-689.485948
2928.401793,518.144159,-9400.615463,-612.876398
2928.402121,-148.041188,-9326.594869,1149.143247
2928.402448,-740.205942,-7179.997637,1608.800546
2928.402776,296.082377,-7698.141797,153.219100
2928.403104,1110.308913,-11325.150913,-612.876398
2928.403431,814.226536,-11843.295072,306.438199
2928.403759,1110.308913,-10658.965565,766.095498
2928.404086,1110.308913,-10140.821405,-536.266849
2928.404414,74.020594,-12435.459826,-1685.410096
2928.404742,-1850.514855,-13397.727550,-919.314598
2928.405069,-2294.638420,-10436.903782,-1378.971896
2928.405397,-1480.411884,-6735.874072,-2145.067394
2928.405724,-370.102971,-8660.409521,-995.924147
2928.406052,-1406.391290,-9548.656652,153.219100
2928.406380,-962.267725,-7698.141797,1149.143247
2928.406707,0.000000,-6809.894666,689.485948
2928.407035,1332.370696,-8364.327145,0.000000
2928.407362,1184.329507,-10658.965565,842.705048
2928.407690,222.061783,-9992.780217,1991.848295
2928.408017,74.020594,-8364.327145,536.266849
2928.408345,370.102971,-8364.327145,-1455.581446
2928.408673,0.000000,-11029.068536,0.000000
2928.409000,-814.226536,-11473.192101,229.828649
2928.409328,0.000000,-9104.533087,-766.095498
2928.409655,814.226536,-9918.759623,-2068.457845
2928.409983,74.020594,-12139.377449,-2068.457845
2928.410311,-888.247130,-11621.233289,-153.219100
2928.410638,-962.267725,-9104.533087,229.828649
2928.410966,222.061783,-7772.162391,-919.314598
2928.411293,888.247130,-9770.718434,-1072.533697
2928.411621,1332.370696,-10732.986159,0.000000
2928.411949,1036.288319,-8882.471304,1225.752797
2928.412276,1628.453072,-7994.224174,1378.971896
2928.412604,1036.288319,-9918.759623,689.485948
2928.412931,-518.144159,-11695.253884,0.000000
2928.413259,-1850.514855,-9326.594869,-306.438199
2928.413587,-666.185348,-7698.141797,-2221.676944
2928.413914,1332.370696,-9326.594869,-2068.457845
2928.414242,1554.432478,-12435.459826,536.266849
2928.414569,1628.453072,-11325.150913,1915.238745
2928.414897,2590.720797,-7846.182985,1455.581446
2928.415225,3182.885551,-9252.574275,76.609550
2928.415552,2072.576638,-12657.521608,-306.438199
2928.415880,592.164754,-12065.356855,0.000000
2928.416207,0.000000,-7846.182985,-536.266849
2928.416535,-296.082377,-7254.018232,-1455.581446
2928.416863,-296.082377,-10362.883188,-383.047749
2928.417190,-1110.308913,-10732.986159,995.924147
2928.417518,-296.082377,-8364.327145,2451.505594
2928.417845,74.020594,-7105.977043,-1225.752797
2928.418173,0.000000,-8882.471304,-1838.629195
2928.418501,-592.164754,-10066.800811,-306.438199
2928.418828,-1036.288319,-7328.038826,1378.971896
2928.419155,592.164754,-5921.647536,919.314598
2928.419483,1702.473667,-8734.430116,306.438199
2928.419810,1924.535449,-12213.398043,1532.190996
2928.420138,2072.576638,-11473.192101,306.438199
2928.420465,2072.576638,-9400.615463,-1225.752797
2928.420793,1036.288319,-12287.418637,-2068.457845
2928.421120,0.000000,-14508.036463,-2145.067394
2928.421448,-1554.432478,-11177.109724,-1455.581446
2928.421775,-1110.308913,-7624.121203,-1225.752797
2928.422103,-444.123565,-8660.409521,-689.485948
2928.422430,-74.020594,-12509.480420,-995.924147
2928.422757,-888.247130,-10658.965565,459.657299
2928.423085,-370.102971,-6661.853478,-383.047749
2928.423412,-666.185348,-6439.791695,-689.485948
2928.423740,-740.205942,-11177.109724,229.828649
2928.424067,-1184.329507,-9918.759623,766.095498
2928.424395,-444.123565,-7994.224174,-536.266849
2928.424722,148.041188,-8734.430116,-1225.752797
2928.425050,1480.411884,-12805.562797,-1225.752797
2928.425377,1850.514855,-13545.768739,76.609550
2928.425705,1036.288319,-9992.780217,1149.143247
2928.426032,962.267725,-8882.471304,0.000000
2928.426359,1036.288319,-11843.295072,-612.876398
2928.426687,-518.144159,-11399.171507,612.876398
2928.427014,-1998.556043,-7254.018232,1225.752797
2928.427342,-1702.473667,-4737.318029,383.047749
2928.427669,-740.205942,-7550.100608,76.609550
2928.427997,0.000000,-10140.821405,383.047749
2928.428324,592.164754,-8438.347739,1149.143247
2928.428652,1776.494261,-7105.977043,919.314598
2928.428979,1924.535449,-9844.739029,536.266849
2928.429307,592.164754,-12361.439231,0.000000
2928.429634,-148.041188,-11177.109724,0.000000
2928.429962,444.123565,-8586.388927,-383.047749
2928.430289,1702.473667,-8882.471304,-995.924147
2928.430616,1480.411884,-11843.295072,-229.828649
2928.430944,1110.308913,-11251.130318,1225.752797
2928.431271,1332.370696,-7846.182985,306.438199
2928.431599,1332.370696,-8438.347739,-842.705048
2928.431926,518.144159,-11251.130318,-1532.190996
2928.432254,-444.123565,-10658.965565,-383.047749
2928.432581,0.000000,-8364.327145,153.219100
2928.432909,888.247130,-7846.182985,-766.095498
2928.433236,1998.556043,-11695.253884,-612.876398
2928.433564,2072.576638,-13841.851115,919.314598
2928.433891,1628.453072,-10214.842000,1072.533697
2928.434218,962.267725,-7550.100608,-612.876398
2928.434546,-444.123565,-9622.677246,-2374.896044
2928.434873,-2368.659014,-12361.439231,-1608.800546
2928.435201,-2368.659014,-9474.636058,-842.705048
2928.435528,-148.041188,-6809.894666,-1608.800546
2928.435856,1110.308913,-8364.327145,-1149.143247
2928.436183,1702.473667,-12583.501014,1455.581446
2928.436511,962.267725,-10807.006753,2374.896044
2928.436838,1406.391290,-7624.121203,919.314598
2928.437166,2664.741391,-8882.471304,-1149.143247
2928.437493,1480.411884,-11917.315666,-459.657299
2928.437821,-370.102971,-10584.944971,1302.362347
2928.438148,-296.082377,-7698.141797,1225.752797
2928.438475,0.000000,-8956.491898,-1072.533697
2928.438803,-814.226536,-11621.233289,-536.266849
2928.439130,-1850.514855,-11325.150913,0.000000
2928.439458,-1702.473667,-7402.059420,-1225.752797
2928.439785,-1110.308913,-7476.080014,-2528.115143
2928.440113,-1110.308913,-10732.986159,-2374.896044
2928.440440,-1628.453072,-10584.944971,0.000000
2928.440768,-592.164754,-7254.018232,766.095498
2928.441095,1406.391290,-6587.832884,536.266849
2928.441423,2220.617826,-10881.027347,919.314598
2928.441750,1480.411884,-13101.645173,2145.067394
2928.442077,1036.288319,-10140.821405,919.314598
2928.442405,1480.411884,-8142.265362,-1455.581446
2928.442732,888.247130,-10436.903782,-2068.457845
2928.443060,-888.247130,-12287.418637,-689.485948
2928.443387,-1406.391290,-9400.615463,459.657299
2928.443715,-888.247130,-7624.121203,-995.924147
2928.444042,666.185348,-9918.759623,-2221.676944
2928.444370,148.041188,-11399.171507,-229.828649
2928.444697,740.205942,-9844.739029,1455.581446
2928.445025,-296.082377,-7328.038826,995.924147
2928.445352,0.000000,-8364.327145,-689.485948
2928.445680,-444.123565,-10436.903782,-1762.019645
2928.446007,-962.267725,-11029.068536,-383.047749
2928.446334,-518.144159,-8882.471304,153.219100
2928.446662,592.164754,-8956.491898,-919.314598
2928.446989,0.000000,-11547.212695,0.000000
2928.447317,0.000000,-12065.356855,-536.266849
2928.447644,222.061783,-8956.491898,-766.095498
2928.447972,1258.350101,-8364.327145,-1302.362347
2928.448299,592.164754,-10584.944971,-229.828649
2928.448627,814.226536,-10881.027347,459.657299
2928.448954,1406.391290,-8068.244768,1225.752797
2928.449282,1258.350101,-7179.997637,689.485948
2928.449609,1184.329507,-9770.718434,689.485948
2928.449936,962.267725,-10214.842000,612.876398
2928.450264,0.000000,-8808.450710,76.609550
2928.450591,74.020594,-8956.491898,-1685.410096
2928.450919,0.000000,-10584.944971,-2221.676944
2928.451246,-518.144159,-12361.439231,-1378.971896
2928.451574,-888.247130,-10362.883188,0.000000
2928.451901,-222.061783,-7920.203579,-459.657299
2928.452229,962.267725,-8734.430116,-612.876398
2928.452556,1258.350101,-11029.068536,612.876398
2928.452884,1184.329507,-9992.780217,1225.752797
2928.453211,1628.453072,-6735.874072,1149.143247
2928.453538,2738.761985,-7698.141797,0.000000
2928.453866,3182.885551,-11177.109724,0.000000
2928.454193,2294.638420,-11547.212695,536.266849
2928.454521,1332.370696,-9400.615463,536.266849
2928.454848,1406.391290,-9992.780217,-1225.752797
2928.455176,2072.576638,-12879.583391,-1685.410096
2928.455503,518.144159,-11843.295072,0.000000
2928.455831,-888.247130,-8438.347739,1532.190996
2928.456158,-814.226536,-7402.059420,-229.828649
2928.456486,-814.226536,-10362.883188,-1378.971896
2928.456813,-2294.638420,-10436.903782,0.000000
2928.457141,-2738.761985,-6439.791695,306.438199
2928.457468,-1776.494261,-5255.462188,-306.438199
2928.457795,-740.205942,-9326.594869,-229.828649
2928.458123,296.082377,-11991.336260,0.000000
2928.458450,888.247130,-10658.965565,536.266849
2928.458778,1628.453072,-8882.471304,-383.047749
2928.459105,1850.514855,-10214.842000,-1302.362347
2928.459433,814.226536,-12805.562797,-689.485948
2928.459760,-296.082377,-10955.047942,229.828649
2928.460088,-370.102971,-8438.347739,383.047749
2928.460415,74.020594,-9252.574275,-383.047749
2928.460743,0.000000,-10807.006753,229.828649
2928.461070,-296.082377,-9252.574275,995.924147
2928.461397,-1258.350101,-6069.688724,459.657299
2928.461725,-592.164754,-7328.038826,-842.705048
2928.462052,-1258.350101,-9844.739029,-919.314598
2928.462380,-1776.494261,-10807.006753,76.609550
2928.462707,-1184.329507,-8438.347739,459.657299
2928.463035,-222.061783,-7254.018232,-383.047749
2928.463362,0.000000,-11399.171507,-995.924147
2928.463690,-888.247130,-14137.933492,-459.657299
2928.464017,-592.164754,-10955.047942,-383.047749
2928.464345,888.247130,-8586.388927,-2221.676944
2928.464672,1628.453072,-10658.965565,-2451.505594
2928.465000,592.164754,-12287.418637,0.000000
2928.465327,888.247130,-9400.615463,919.314598
2928.465654,1332.370696,-7846.182985,229.828649
2928.465982,1554.432478,-9474.636058,0.000000
2928.466309,1480.411884,-10214.842000,612.876398
2928.466637,1036.288319,-8142.265362,1378.971896
2928.466964,814.226536,-6957.935855,919.314598
2928.467292,1332.370696,-9104.533087,-612.876398
2928.467619,1110.308913,-11991.336260,-459.657299
2928.467947,1036.288319,-10732.986159,842.705048
2928.468274,1184.329507,-7031.956449,536.266849
2928.468602,1332.370696,-7476.080014,-766.095498
2928.468929,592.164754,-12287.418637,-1225.752797
2928.469256,0.000000,-12879.583391,-689.485948
2928.469584,1702.473667,-8956.491898,-1149.143247
2928.469911,3775.050304,-8290.306550,-1072.533697
2928.470239,3256.906145,-11695.253884,689.485948
2928.470566,1850.514855,-11177.109724,1378.971896
2928.470894,518.144159,-7476.080014,1378.971896
2928.471221,962.267725,-6735.874072,-689.485948
2928.471549,592.164754,-9252.574275,-689.485948
2928.471876,-814.226536,-8956.491898,1302.362347
2928.472204,-740.205942,-6217.729913,1072.533697
2928.472531,-296.082377,-7550.100608,-1225.752797
2928.472859,-592.164754,-11695.253884,-1149.143247
2928.473186,-814.226536,-13545.768739,-995.924147
2928.473513,0.000000,-11251.130318,-689.485948
2928.473841,740.205942,-8956.491898,-1685.410096
2928.474168,1480.411884,-11177.109724,-2145.067394
2928.474496,888.247130,-13915.871710,-689.485948
2928.474823,-296.082377,-11251.130318,229.828649
2928.475151,74.020594,-7179.997637,0.000000
2928.475478,-518.144159,-8290.306550,-919.314598
2928.475806,-2442.679609,-11251.130318,-842.705048
2928.476133,-3701.029710,-10140.821405,0.000000
2928.476461,-3330.926739,-7550.100608,-1225.752797
2928.476788,-2220.617826,-7179.997637,-2068.457845
2928.477115,-1258.350101,-10214.842000,-1225.752797
2928.477443,0.000000,-9918.759623,459.657299
2928.477770,370.102971,-9178.553681,1838.629195
2928.478098,1184.329507,-9474.636058,1149.143247
2928.478425,592.164754,-11029.068536,76.609550
2928.478753,-1110.308913,-11399.171507,536.266849
2928.479080,-1332.370696,-8808.450710,459.657299
2928.479408,-666.185348,-6735.874072,-306.438199
2928.479735,-370.102971,-9770.718434,-689.485948
2928.480063,-666.185348,-12287.418637,153.219100
2928.480390,-370.102971,-10288.862594,383.047749
2928.480717,740.205942,-7328.038826,-229.828649
2928.481045,740.205942,-8734.430116,-383.047749
2928.481372,0.000000,-10510.924376,612.876398
2928.481700,-296.082377,-9326.594869,1225.752797
2928.482027,962.267725,-7698.141797,76.609550
2928.482355,1998.556043,-8660.409521,0.000000
2928.482682,2812.782580,-10362.883188,766.095498
2928.483010,2146.597232,-10288.862594,1685.410096
2928.483337,1332.370696,-8734.430116,612.876398
2928.483665,1628.453072,-9548.656652,-1378.971896
2928.483992,1406.391290,-12879.583391,-2528.115143
2928.484320,1110.308913,-12509.480420,-1302.362347
2928.484647,814.226536,-8882.471304,-919.314598
2928.484974,1036.288319,-7920.203579,-612.876398
2928.485302,1184.329507,-11251.130318,229.828649
2928.485629,888.247130,-12509.480420,842.705048
2928.485957,1332.370696,-9400.615463,919.314598
2928.486284,1850.514855,-7624.121203,-1072.533697
2928.486612,1850.514855,-10362.883188,-1685.410096
2928.486939,0.000000,-11769.274478,0.000000
2928.487267,-1110.308913,-9622.677246,766.095498
2928.487594,-296.082377,-7624.121203,-1072.533697
2928.487922,666.185348,-9474.636058,-2298.286494
2928.488249,1480.411884,-11547.212695,-1072.533697
2928.488576,1184.329507,-9770.718434,229.828649
2928.488904,1554.432478,-8586.388927,995.924147
2928.489231,2664.741391,-9400.615463,536.266849
2928.489559,1036.288319,-11473.192101,459.657299
2928.489886,-1258.350101,-8882.471304,2068.457845
2928.490214,-1776.494261,-5477.523971,1225.752797
2928.490541,-740.205942,-7846.182985,-1072.533697
2928.490869,-1110.308913,-11769.274478,-1455.581446
2928.491196,-1480.411884,-11325.150913,0.000000
2928.491524,-666.185348,-8364.327145,612.876398
2928.491851,444.123565,-9178.553681,-306.438199
2928.492179,814.226536,-12509.480420,-1149.143247
2928.492506,-814.226536,-12287.418637,-306.438199
2928.492833,-1480.411884,-8438.347739,-459.657299
2928.493161,296.082377,-6661.853478,-1608.800546
2928.493488,1036.288319,-9326.594869,383.047749
2928.493816,444.123565,-9844.739029,1991.848295
2928.494143,148.041188,-7698.141797,2528.115143
2928.494471,740.205942,-7772.162391,842.705048
2928.494798,222.061783,-10955.047942,-1072.533697
2928.495126,-1258.350101,-11473.192101,-459.657299
2928.495453,-2220.617826,-7994.224174,-536.266849
2928.495781,-148.041188,-7105.977043,-1915.238745
2928.496108,888.247130,-10955.047942,-766.095498
2928.496435,1110.308913,-13619.789333,842.705048
2928.496763,814.226536,-11621.233289,1378.971896
2928.497090,1480.411884,-8438.347739,0.000000
2928.497418,592.164754,-9252.574275,-2068.457845
2928.497745,-1258.350101,-12435.459826,-1302.362347
2928.498073,-1850.514855,-11399.171507,-306.438199
2928.498400,-1184.329507,-6809.894666,-842.705048
2928.498728,-222.061783,-7179.997637,-2145.067394
2928.499055,962.267725,-10066.800811,-1225.752797
2928.499383,1406.391290,-10140.821405,536.266849
2928.499710,1332.370696,-8586.388927,1072.533697
2928.500037,1998.556043,-9474.636058,459.657299
2928.500365,1480.411884,-10807.006753,-1302.362347
2928.500692,814.226536,-10510.924376,-153.219100
2928.501020,1110.308913,-7846.182985,995.924147
2928.501347,1776.494261,-7254.018232,536.266849
2928.501675,2590.720797,-11325.150913,0.000000
2928.502002,2516.700203,-13397.727550,842.705048
2928.502330,2146.597232,-9474.636058,919.314598
2928.502657,1480.411884,-7698.141797,-612.876398
2928.502985,222.061783,-10214.842000,-2528.115143
2928.503312,-1332.370696,-12139.377449,-2068.457845
2928.503640,-814.226536,-10140.821405,-1608.800546
2928.503967,1110.308913,-8512.368333,-766.095498
2928.504294,1998.556043,-9104.533087,689.485948
2928.504622,2368.659014,-10066.800811,2451.505594
2928.504949,1702.473667,-9252.574275,1532.190996
2928.505277,0.000000,-7328.038826,612.876398
2928.505604,-740.205942,-7994.224174,-1149.143247
2928.505932,-1332.370696,-9252.574275,-1149.143247
2928.506259,-1480.411884,-9400.615463,459.657299
2928.506587,-518.144159,-8364.327145,689.485948
2928.506914,222.061783,-9400.615463,76.609550
2928.507242,1258.350101,-13471.748144,383.047749
2928.507569,1776.494261,-13989.892304,229.828649
2928.507896,1776.494261,-10658.965565,-459.657299
2928.508224,1628.453072,-9178.553681,-919.314598
2928.508551,666.185348,-10732.986159,-1302.362347
2928.508879,-962.267725,-11399.171507,0.000000
2928.509206,-2442.679609,-7994.224174,1149.143247
2928.509534,-2146.597232,-5921.647536,383.047749
2928.509861,-1480.411884,-8808.450710,-1378.971896
2928.510189,-1776.494261,-10214.842000,-919.314598
2928.510516,-2294.638420,-8882.471304,-612.876398
2928.510844,-1776.494261,-6809.894666,-766.095498
2928.511171,-962.267725,-8660.409521,-1532.190996
2928.511499,-148.041188,-10584.944971,229.828649
2928.511826,0.000000,-10140.821405,1915.238745
2928.512153,666.185348,-8142.265362,1455.581446
2928.512481,1702.473667,-8808.450710,-306.438199
2928.512808,1184.329507,-12583.501014,-536.266849
2928.513136,0.000000,-12509.480420,1149.143247
2928.513463,-148.041188,-8512.368333,0.000000
2928.513791,0.000000,-8142.265362,-2221.676944
2928.514118,0.000000,-12139.377449,-2834.553343
2928.514446,-814.226536,-12139.377449,-1302.362347
2928.514773,-518.144159,-8956.491898,-306.438199
2928.515101,962.267725,-7846.182985,0.000000
2928.515428,962.267725,-9622.677246,0.000000
2928.515755,148.041188,-9696.697840,536.266849
2928.516083,-814.226536,-6883.915261,1149.143247
2928.516410,962.267725,-7105.977043,-842.705048
2928.516738,1850.514855,-9770.718434,-1685.410096
2928.517065,1184.329507,-11177.109724,306.438199
2928.517393,740.205942,-9474.636058,1072.533697
2928.517720,1110.308913,-8586.388927,-306.438199
2928.518048,2294.638420,-11695.253884,-2221.676944
2928.518375,2146.597232,-14508.036463,-1302.362347
2928.518703,1184.329507,-12509.480420,-536.266849
2928.519030,2146.597232,-8216.285956,-536.266849
2928.519357,2368.659014,-9400.615463,0.000000
2928.519685,1184.329507,-12435.459826,1225.752797
2928.520012,-296.082377,-10510.924376,1991.848295
2928.520340,-370.102971,-6069.688724,766.095498
2928.520667,592.164754,-6735.874072,-1072.533697
2928.520995,370.102971,-9844.739029,-612.876398
2928.521322,-1258.350101,-8956.491898,1455.581446
2928.521650,-740.205942,-6957.935855,995.924147
2928.521977,518.144159,-7994.224174,-995.924147
2928.522305,962.267725,-10807.006753,-1685.410096
2928.522632,814.226536,-11029.068536,0.000000
2928.522959,1258.350101,-9104.533087,1072.533697
2928.523287,2368.659014,-7698.141797,1149.143247
2928.523614,2146.597232,-11177.109724,76.609550
2928.523942,518.144159,-13101.645173,2068.457845
2928.524269,-444.123565,-9622.677246,1762.019645
2928.524597,0.000000,-7105.977043,-919.314598
2928.524924,-222.061783,-10436.903782,-2451.505594
2928.525252,-1332.370696,-13175.665768,-1608.800546
2928.525579,-1850.514855,-10658.965565,229.828649
2928.525907,-370.102971,-7031.956449,-612.876398
2928.526234,0.000000,-8438.347739,-612.876398
2928.526561,-296.082377,-11029.068536,-689.485948
2928.526889,-888.247130,-9770.718434,0.000000
2928.527216,-518.144159,-7105.977043,-919.314598
2928.527544,148.041188,-7920.203579,-1608.800546
2928.527871,-222.061783,-10658.965565,-919.314598
2928.528199,-740.205942,-9992.780217,536.266849
2928.528526,0.000000,-8956.491898,0.000000
2928.528854,666.185348,-9992.780217,-1302.362347
2928.529181,666.185348,-13397.727550,-1378.971896
2928.529509,0.000000,-12879.583391,-306.438199
2928.529836,518.144159,-8956.491898,-536.266849
2928.530163,1480.411884,-7328.038826,-612.876398
2928.530491,1406.391290,-11399.171507,76.609550
2928.530818,0.000000,-11991.336260,1455.581446
2928.531146,-296.082377,-8438.347739,1685.410096
2928.531473,0.000000,-6143.709319,-229.828649
2928.531801,-666.185348,-8438.347739,-306.438199
2928.532128,-1702.473667,-10066.800811,689.485948
2928.532456,-2146.597232,-7254.018232,536.266849
2928.532783,-1332.370696,-6513.812290,-1991.848295
2928.533111,-370.102971,-9770.718434,-2221.676944
2928.533438,296.082377,-11399.171507,-1072.533697
2928.533765,518.144159,-9474.636058,995.924147
2928.534093,1554.432478,-7698.141797,1302.362347
2928.534420,2294.638420,-9252.574275,383.047749
2928.534748,2664.741391,-12731.542202,1149.143247
2928.535075,2664.741391,-11103.089130,1302.362347
2928.535403,3256.906145,-7254.018232,383.047749
2928.535730,3404.947333,-8364.327145,-536.266849
2928.536058,2072.576638,-12657.521608,536.266849
2928.536385,814.226536,-12213.398043,1302.362347
2928.536713,814.226536,-7772.162391,0.000000
2928.537040,444.123565,-7846.182985,-2068.457845
2928.537367,148.041188,-11695.253884,-1378.971896
2928.537695,-444.123565,-11029.068536,-689.485948
2928.538022,0.000000,-8660.409521,-306.438199
2928.538350,814.226536,-8512.368333,-1149.143247
2928.538677,1628.453072,-11029.068536,-1149.143247
2928.539005,666.185348,-11547.212695,0.000000
2928.539332,148.041188,-8882.471304,1378.971896
2928.539660,-518.144159,-7105.977043,-919.314598
2928.539987,0.000000,-9474.636058,-1838.629195
2928.540315,-666.185348,-12139.377449,-689.485948
2928.540642,296.082377,-10732.986159,306.438199
2928.540969,1924.535449,-8512.368333,536.266849
2928.541297,2294.638420,-11547.212695,306.438199
2928.541624,1924.535449,-14137.933492,306.438199
2928.541952,0.000000,-11621.233289,0.000000
2928.542279,0.000000,-7846.182985,-766.095498
2928.542607,222.061783,-8216.285956,-1302.362347
2928.542934,-814.226536,-10584.944971,0.000000
2928.543262,-1480.411884,-9104.533087,1302.362347
2928.543589,-1776.494261,-5995.668130,766.095498
2928.543917,-2516.700203,-7254.018232,-612.876398
2928.544244,-2220.617826,-10362.883188,-1072.533697
2928.544571,-2590.720797,-9992.780217,76.609550
2928.544899,-2146.597232,-6809.894666,-306.438199
2928.545226,-888.247130,-6513.812290,-842.705048
2928.545554,370.102971,-10288.862594,153.219100
2928.545881,1258.350101,-11843.295072,1838.629195
2928.546209,1924.535449,-9696.697840,1838.629195
2928.546536,2146.597232,-7772.162391,766.095498
2928.546864,1850.514855,-10955.047942,-995.924147
2928.547191,0.000000,-13841.851115,-383.047749
2928.547519,-740.205942,-11251.130318,0.000000
2928.547846,-222.061783,-7105.977043,-1762.019645
2928.548173,370.102971,-10066.800811,-1838.629195
2928.548501,-296.082377,-11991.336260,0.000000
2928.548828,-296.082377,-9400.615463,919.314598
2928.549156,0.000000,-6883.915261,229.828649
2928.549483,-518.144159,-9030.512492,-995.924147
2928.549811,-666.185348,-10955.047942,-766.095498
2928.550138,-1258.350101,-8882.471304,0.000000
2928.550466,-1110.308913,-6661.853478,-306.438199
2928.550793,518.144159,-8808.450710,-1149.143247
2928.551121,2368.659014,-13323.706956,-612.876398
2928.551448,2812.782580,-12509.480420,689.485948
2928.551775,3627.009116,-10510.924376,153.219100
2928.552103,4293.194464,-10510.924376,-1225.752797
2928.552430,2442.679609,-12731.542202,-689.485948
2928.552758,740.205942,-13175.665768,153.219100
2928.553085,666.185348,-9696.697840,-229.828649
2928.553413,592.164754,-5699.585753,-1302.362347
2928.553740,296.082377,-8808.450710,0.000000
2928.554068,-148.041188,-10955.047942,1302.362347
2928.554395,-1184.329507,-8068.244768,1762.019645
2928.554723,-444.123565,-5403.503377,-383.047749
2928.555050,148.041188,-7994.224174,-1915.238745
2928.555377,-296.082377,-10881.027347,-153.219100
2928.555705,-370.102971,-9770.718434,1685.410096
2928.556032,666.185348,-6439.791695,76.609550
2928.556360,1628.453072,-9104.533087,-612.876398
2928.556687,2886.803174,-13397.727550,0.000000
2928.557015,2664.741391,-11917.315666,1455.581446
2928.557342,2960.823768,-8808.450710,995.924147
2928.557670,2442.679609,-9252.574275,-1072.533697
2928.557997,518.144159,-12213.398043,-383.047749
2928.558325,-2738.761985,-10807.006753,1532.190996
2928.558652,-2368.659014,-6661.853478,383.047749
2928.558979,-1184.329507,-7105.977043,-1762.019645
2928.559307,-222.061783,-11695.253884,-842.705048
2928.559634,-814.226536,-11325.150913,766.095498
2928.559962,-370.102971,-8586.388927,1532.190996
2928.560289,74.020594,-8142.265362,0.000000
2928.560617,-370.102971,-10066.800811,-1532.190996
2928.560944,-1850.514855,-10807.006753,-689.485948
2928.561272,-1776.494261,-8808.450710,-76.609550
2928.561599,0.000000,-7179.997637,-1302.362347
2928.561927,1406.391290,-10807.006753,-1915.238745
2928.562254,888.247130,-13175.665768,-153.219100
2928.562581,444.123565,-10881.027347,0.000000
2928.562909,1554.432478,-8438.347739,-459.657299
2928.563236,888.247130,-10214.842000,-1762.019645
2928.563564,-444.123565,-12805.562797,-842.705048
2928.563891,-222.061783,-10510.924376,0.000000
2928.564219,444.123565,-6883.915261,0.000000
2928.564546,370.102971,-7624.121203,689.485948
2928.564874,0.000000,-10807.006753,1455.581446
2928.565201,-1184.329507,-10362.883188,2068.457845
2928.565529,-888.247130,-7698.141797,0.000000
2928.565856,-592.164754,-7772.162391,-2757.943793
2928.566183,-1258.350101,-10807.006753,-2374.896044
2928.566511,-2072.576638,-10584.944971,0.000000
2928.566838,-1776.494261,-7846.182985,612.876398
2928.567166,370.102971,-7994.224174,-842.705048
2928.567493,888.247130,-11029.068536,-1378.971896
2928.567821,592.164754,-12139.377449,153.219100
2928.568148,1258.350101,-8882.471304,689.485948
2928.568476,2294.638420,-7254.018232,-306.438199
2928.568803,2072.576638,-10510.924376,-383.047749
2928.569131,1036.288319,-11917.315666,995.924147
2928.569458,1554.432478,-9622.677246,1762.019645
2928.569785,2664.741391,-7846.182985,-459.657299
2928.570113,2442.679609,-10732.986159,-383.047749
2928.570440,1480.411884,-12805.562797,842.705048
2928.570768,0.000000,-9844.739029,1302.362347
2928.571095,0.000000,-6809.894666,-306.438199
2928.571423,-370.102971,-8586.388927,-1532.190996
2928.571750,-1110.308913,-11843.295072,-1378.971896
2928.572078,0.000000,-10288.862594,0.000000
2928.572405,518.144159,-6957.935855,-306.438199
2928.572733,1628.453072,-8216.285956,-612.876398
2928.573060,1776.494261,-12509.480420,0.000000
2928.573387,1110.308913,-12139.377449,1072.533697
2928.573715,1406.391290,-8512.368333,153.219100
2928.574042,1406.391290,-7994.224174,-1685.410096
2928.574370,1110.308913,-11621.233289,-1225.752797
2928.574697,-518.144159,-11917.315666,995.924147
2928.575025,296.082377,-9252.574275,1072.533697
2928.575352,1036.288319,-8068.244768,459.657299
2928.575680,666.185348,-10658.965565,0.000000
2928.576007,0.000000,-10658.965565,153.219100
2928.576335,-962.267725,-7402.059420,0.000000
2928.576662,0.000000,-7698.141797,-1072.533697
2928.576989,222.061783,-10807.006753,-2221.676944
2928.577317,-888.247130,-11029.068536,-766.095498
2928.577644,-1554.432478,-7476.080014,76.609550
2928.577972,-444.123565,-7254.018232,-842.705048
2928.578299,0.000000,-11251.130318,-1149.143247
2928.578627,-222.061783,-12657.521608,-919.314598
2928.578954,74.020594,-9844.739029,-1608.800546
2928.579282,888.247130,-8068.244768,-1532.190996
2928.579609,888.247130,-8660.409521,-1072.533697
2928.579937,148.041188,-11325.150913,536.266849
2928.580264,-666.185348,-10955.047942,1225.752797
2928.580591,296.082377,-8142.265362,306.438199
2928.580919,1036.288319,-8068.244768,-1608.800546
2928.581246,222.061783,-10955.047942,-919.314598
2928.581574,-370.102971,-11325.150913,995.924147
2928.581901,-518.144159,-8660.409521,689.485948
2928.582229,296.082377,-9030.512492,-995.924147
2928.582556,-370.102971,-11325.150913,-1149.143247
2928.582884,-814.226536,-10362.883188,0.000000
2928.583211,-1184.329507,-7698.141797,995.924147
2928.583539,74.020594,-8586.388927,76.609550
2928.583866,-592.164754,-11177.109724,-229.828649
2928.584193,-962.267725,-11917.315666,536.266849
2928.584521,148.041188,-8438.347739,229.828649
2928.584848,1554.432478,-7550.100608,-842.705048
2928.585176,1332.370696,-10658.965565,0.000000
2928.585503,1406.391290,-11991.336260,1225.752797
2928.585831,1776.494261,-9474.636058,1072.533697
2928.586158,1998.556043,-7698.141797,459.657299
2928.586486,2368.659014,-9252.574275,0.000000
2928.586813,1332.370696,-11473.192101,1149.143247
2928.587141,-296.082377,-9696.697840,1455.581446
2928.587468,-740.205942,-7920.203579,-766.095498
2928.587795,370.102971,-9474.636058,-2681.334243
2928.588123,222.061783,-11029.068536,-2068.457845
2928.588450,-1776.494261,-9992.780217,1072.533697
2928.588778,-1036.288319,-7698.141797,306.438199
2928.589105,518.144159,-8364.327145,-1532.190996
2928.589433,1110.308913,-11325.150913,-1838.629195
2928.589760,814.226536,-11177.109724,-229.828649
2928.590088,1776.494261,-8290.306550,1072.533697
2928.590415,3256.906145,-7624.121203,-306.438199
2928.590743,3478.967927,-12435.459826,-1149.143247
2928.591070,2220.617826,-13619.789333,0.000000
2928.591397,592.164754,-9252.574275,306.438199
2928.591725,1332.370696,-7846.182985,-1378.971896
2928.592052,1184.329507,-10658.965565,-1762.019645
2928.592380,-370.102971,-11621.233289,76.609550
2928.592707,-1480.411884,-8808.450710,536.266849
2928.593035,-1628.453072,-7994.224174,-689.485948
2928.593362,-1110.308913,-10066.800811,-1149.143247
2928.593690,-814.226536,-10807.006753,-536.266849
2928.594017,-1850.514855,-8586.388927,1149.143247
2928.594345,-1776.494261,-7105.977043,1378.971896
2928.594672,296.082377,-9252.574275,-459.657299
2928.594999,1036.288319,-11843.295072,-1225.752797
2928.595327,222.061783,-11251.130318,459.657299
2928.595654,296.082377,-7476.080014,0.000000
2928.595982,1480.411884,-7846.182985,-1838.629195
2928.596309,1036.288319,-12361.439231,-919.314598
2928.596637,0.000000,-11695.253884,1302.362347
2928.596964,370.102971,-7920.203579,1608.800546
2928.597292,1998.556043,-7624.121203,153.219100
2928.597619,1332.370696,-10658.965565,612.876398
2928.597947,-296.082377,-9696.697840,1838.629195
2928.598274,-1332.370696,-6661.853478,1838.629195
2928.598601,-1110.308913,-6217.729913,-306.438199
2928.598929,-888.247130,-9548.656652,-1991.848295
2928.599256,-1628.453072,-11621.233289,229.828649
2928.599584,-1924.535449,-9326.594869,1149.143247
2928.599911,0.000000,-7772.162391,-766.095498
2928.600239,962.267725,-11769.274478,-2145.067394
2928.600566,888.247130,-14211.954086,-1302.362347
2928.600894,1628.453072,-11251.130318,-306.438199
2928.601221,3108.864956,-7846.182985,-306.438199
2928.601549,2664.741391,-9178.553681,-1225.752797
2928.601876,888.247130,-11917.315666,306.438199
2928.602203,-296.082377,-11325.150913,1149.143247
2928.602531,-1184.329507,-7254.018232,0.000000
2928.602858,-222.061783,-7550.100608,-1762.019645
2928.603186,-370.102971,-10658.965565,-1991.848295
2928.603513,-592.164754,-9474.636058,-153.219100
2928.603841,222.061783,-8068.244768,-229.828649
2928.604168,1480.411884,-9844.739029,-612.876398
2928.604496,2146.597232,-12509.480420,-76.609550
2928.604823,1406.391290,-11991.336260,842.705048
2928.605151,74.020594,-7772.162391,612.876398
2928.605478,0.000000,-7105.977043,-919.314598
2928.605805,0.000000,-11251.130318,-1455.581446
2928.606133,0.000000,-12657.521608,-383.047749
2928.606460,592.164754,-9400.615463,76.609550
2928.606788,2442.679609,-7254.018232,-459.657299
2928.607115,1776.494261,-9992.780217,-459.657299
2928.607443,370.102971,-12213.398043,536.266849
2928.607770,-592.164754,-8808.450710,766.095498
2928.608098,-888.247130,-5625.565159,-612.876398
2928.608425,0.000000,-8290.306550,-306.438199
2928.608753,592.164754,-10436.903782,689.485948
2928.609080,74.020594,-9030.512492,2298.286494
2928.609408,0.000000,-8364.327145,1608.800546
2928.609735,0.000000,-9918.759623,-383.047749
2928.610062,-592.164754,-12065.356855,-1532.190996
2928.610390,-1628.453072,-10066.800811,-766.095498
2928.610717,-888.247130,-8142.265362,-1532.190996
2928.611045,0.000000,-8512.368333,-1532.190996
2928.611372,814.226536,-11621.233289,-1225.752797
2928.611700,1036.288319,-11843.295072,689.485948
2928.612027,1998.556043,-9252.574275,1149.143247
2928.612355,2664.741391,-8438.347739,306.438199
2928.612682,1480.411884,-11251.130318,-536.266849
2928.613010,0.000000,-12435.459826,-1072.533697
2928.613337,-1480.411884,-8956.491898,-306.438199
2928.613664,-814.226536,-6513.812290,-612.876398
2928.613992,0.000000,-9178.553681,-689.485948
2928.614319,0.000000,-11177.109724,-306.438199
2928.614647,-592.164754,-9622.677246,459.657299
2928.614974,-296.082377,-8956.491898,-1378.971896
2928.615302,0.000000,-10436.903782,-1762.019645
2928.615629,-666.185348,-11843.295072,-1991.848295
2928.615957,-1702.473667,-9104.533087,0.000000
2928.616284,-962.267725,-7402.059420,0.000000
2928.616612,1258.350101,-9400.615463,-995.924147
2928.616939,1850.514855,-12805.562797,-153.219100
2928.617266,888.247130,-11251.130318,1455.581446
2928.617594,1332.370696,-8142.265362,459.657299
2928.617921,1184.329507,-8438.347739,-689.485948
2928.618249,-592.164754,-10732.986159,-842.705048
2928.618576,-1702.473667,-10955.047942,-459.657299
2928.618904,0.000000,-7772.162391,-536.266849
2928.619231,1480.411884,-7698.141797,-459.657299
2928.619559,2072.576638,-10140.821405,383.047749
2928.619886,1406.391290,-10955.047942,1762.019645
2928.620213,148.041188,-8142.265362,1378.971896
2928.620541,740.205942,-8438.347739,-842.705048
2928.620868,518.144159,-10881.027347,-1915.238745
2928.621196,-814.226536,-11029.068536,-229.828649
2928.621523,-1036.288319,-8216.285956,612.876398
2928.621851,-444.123565,-7624.121203,0.000000
2928.622178,518.144159,-11621.233289,-766.095498
2928.622506,444.123565,-13915.871710,76.609550
2928.622833,222.061783,-10510.924376,536.266849
2928.623160,1258.350101,-7105.977043,-842.705048
2928.623488,1850.514855,-9400.615463,-995.924147
2928.623815,962.267725,-12435.459826,766.095498
2928.624143,-592.164754,-9844.739029,2451.505594
2928.624470,666.185348,-6143.709319,1762.019645
2928.624798,2072.576638,-7698.141797,-1378.971896
2928.625125,2072.576638,-11325.150913,-766.095498
2928.625453,0.000000,-10362.883188,1149.143247
2928.625780,666.185348,-8512.368333,612.876398
2928.626107,296.082377,-9474.636058,-995.924147
2928.626435,-296.082377,-12509.480420,-1302.362347
2928.626762,-2664.741391,-10066.800811,0.000000
2928.627090,-3552.988522,-7105.977043,0.000000
2928.627417,-1554.432478,-7846.182985,-1991.848295
2928.627745,74.020594,-11769.274478,-1762.019645
2928.628072,-296.082377,-12435.459826,383.047749
2928.628400,74.020594,-8438.347739,1608.800546
2928.628727,2072.576638,-7254.018232,0.000000
2928.629054,1628.453072,-11103.089130,-842.705048
2928.629382,296.082377,-12879.583391,-1915.238745
2928.629709,-888.247130,-9622.677246,-1378.971896
2928.630037,592.164754,-7179.997637,-1838.629195
2928.630364,2442.679609,-9474.636058,-1762.019645
2928.630692,1702.473667,-11621.233289,612.876398
2928.631019,0.000000,-9622.677246,2987.772442
2928.631347,74.020594,-7328.038826,1072.533697
2928.631674,444.123565,-9474.636058,-2374.896044
2928.632001,0.000000,-11177.109724,-1915.238745
2928.632329,-1628.453072,-8216.285956,229.828649
2928.632656,-1258.350101,-5921.647536,766.095498
2928.632984,296.082377,-8586.388927,229.828649
2928.633311,1110.308913,-13249.686362,-919.314598
2928.633639,444.123565,-13027.624579,76.609550
2928.633966,1184.329507,-9104.533087,-612.876398
2928.634294,2368.659014,-9474.636058,-1838.629195
2928.634621,1850.514855,-13101.645173,-1608.800546
2928.634948,814.226536,-13101.645173,536.266849
2928.635276,740.205942,-7994.224174,1149.143247
2928.635603,1554.432478,-5699.585753,383.047749
2928.635931,2146.597232,-8956.491898,536.266849
2928.636258,888.247130,-10140.821405,1225.752797
2928.636586,-1110.308913,-7476.080014,1149.143247
2928.636913,-1406.391290,-6587.832884,0.000000
2928.637241,-518.144159,-9474.636058,-1762.019645
2928.637568,-1110.308913,-10807.006753,-995.924147
2928.637895,-1406.391290,-8808.450710,995.924147
2928.638223,296.082377,-7254.018232,1302.362347
2928.638550,3108.864956,-11621.233289,-1608.800546
2928.638878,2590.720797,-14285.974681,612.876398
2928.639205,1628.453072,-12065.356855,1685.410096
2928.639533,2294.638420,-7105.977043,383.047749
2928.639860,1628.453072,-7994.224174,-1302.362347
2928.640188,-1110.308913,-13175.665768,-612.876398
2928.640515,-1924.535449,-11103.089130,0.000000
2928.640842,296.082377,-6883.915261,-2298.286494
2928.641170,1702.473667,-7031.956449,-1685.410096
2928.641497,2220.617826,-11325.150913,-306.438199
2928.641825,370.102971,-11177.109724,2374.896044
2928.642152,-444.123565,-7328.038826,2145.067394
2928.642480,-296.082377,-7179.997637,-1685.410096
2928.642807,-1184.329507,-10436.903782,-2528.115143
2928.643135,-2738.761985,-10881.027347,-689.485948
2928.643462,-2294.638420,-8364.327145,383.047749
2928.643790,-592.164754,-9326.594869,0.000000
2928.644117,444.123565,-13471.748144,-1149.143247
2928.644444,814.226536,-15026.180623,-1302.362347
2928.644772,888.247130,-10658.965565,-1149.143247
2928.645099,1776.494261,-7772.162391,-1762.019645
2928.645427,1850.514855,-10362.883188,-1532.190996
2928.645754,0.000000,-11695.253884,383.047749
2928.646082,0.000000,-9474.636058,1072.533697
2928.646409,1110.308913,-5847.626942,919.314598
2928.646737,1924.535449,-7920.203579,612.876398
2928.647064,1184.329507,-11399.171507,1149.143247
2928.647391,222.061783,-9622.677246,459.657299
2928.647719,-370.102971,-6291.750507,0.000000
2928.648046,-740.205942,-7772.162391,-1302.362347
2928.648374,-1036.288319,-10510.924376,-766.095498
2928.648701,-1850.514855,-9622.677246,1149.143247
2928.649029,-1628.453072,-6809.894666,1455.581446
2928.649356,222.061783,-8512.368333,-383.047749
2928.649684,1480.411884,-12731.542202,-612.876398
2928.650011,814.226536,-12213.398043,229.828649
2928.650338,1110.308913,-8290.306550,612.876398
2928.650666,1776.494261,-8216.285956,0.000000
2928.650993,2072.576638,-11399.171507,-536.266849
2928.651321,814.226536,-11917.315666,76.609550
2928.651648,0.000000,-9178.553681,995.924147
2928.651976,1036.288319,-7031.956449,-383.047749
2928.652303,1998.556043,-9178.553681,-383.047749
2928.652631,518.144159,-11103.089130,459.657299
2928.652958,-740.205942,-9252.574275,1378.971896
2928.653285,0.000000,-7105.977043,-229.828649
2928.653613,444.123565,-8882.471304,-1762.019645
2928.653940,444.123565,-11177.109724,-1685.410096
2928.654268,-370.102971,-9548.656652,306.438199
2928.654595,-222.061783,-7402.059420,536.266849
2928.654923,222.061783,-10436.903782,-766.095498
2928.655250,1924.535449,-14730.098246,-1915.238745
2928.655578,1110.308913,-13397.727550,-995.924147
2928.655905,888.247130,-9178.553681,-1072.533697
2928.656232,666.185348,-9474.636058,-1378.971896
2928.656560,1332.370696,-13027.624579,-1225.752797
2928.656887,-518.144159,-11991.336260,842.705048
2928.657215,-518.144159,-7772.162391,689.485948
2928.657542,518.144159,-6365.771101,229.828649
2928.657870,1110.308913,-9030.512492,153.219100
2928.658197,-666.185348,-10140.821405,919.314598
2928.658525,-1998.556043,-6957.935855,842.705048
2928.658852,-592.164754,-6291.750507,-1302.362347
2928.659179,1036.288319,-9770.718434,-2374.896044
2928.659507,222.061783,-10881.027347,-766.095498
2928.659834,-444.123565,-9770.718434,1225.752797
2928.660162,518.144159,-8956.491898,919.314598
2928.660489,2146.597232,-11991.336260,-766.095498
2928.660817,1110.308913,-14137.933492,-536.266849
2928.661144,-1480.411884,-9770.718434,1072.533697
2928.661472,-1110.308913,-6217.729913,153.219100
2928.661799,370.102971,-9030.512492,-1915.238745
2928.662126,-518.144159,-12657.521608,-1072.533697
2928.662454,-1554.432478,-11177.109724,995.924147
2928.662781,-740.205942,-6217.729913,1685.410096
2928.663109,1258.350101,-6587.832884,-153.219100
2928.663436,1850.514855,-11399.171507,-306.438199
2928.663764,370.102971,-10881.027347,0.000000
2928.664091,-814.226536,-6513.812290,229.828649
2928.664419,1184.329507,-7402.059420,-1302.362347
2928.664746,1628.453072,-10510.924376,-1685.410096
2928.665073,296.082377,-11251.130318,919.314598
2928.665401,0.000000,-9104.533087,2451.505594
2928.665728,888.247130,-8660.409521,536.266849
2928.666056,1702.473667,-12657.521608,-1685.410096
2928.666383,296.082377,-13101.645173,-1378.971896
2928.666711,-296.082377,-8290.306550,-995.924147
2928.667038,444.123565,-6883.915261,-1072.533697
2928.667366,1184.329507,-11843.295072,-459.657299
2928.667693,814.226536,-13397.727550,306.438199
2928.668020,518.144159,-9474.636058,919.314598
2928.668348,962.267725,-7920.203579,536.266849
2928.668675,962.267725,-9030.512492,-689.485948
2928.669003,1184.329507,-11769.274478,-766.095498
2928.669330,-296.082377,-9622.677246,153.219100
2928.669658,-814.226536,-7254.018232,-612.876398
2928.669985,1036.288319,-8660.409521,-1762.019645
2928.670313,1036.288319,-10436.903782,-1532.190996
2928.670640,-740.205942,-9474.636058,2068.457845
2928.670967,-1036.288319,-7550.100608,1762.019645
2928.671295,-370.102971,-8660.409521,-612.876398
2928.671622,0.000000,-11251.130318,-1532.190996
2928.671950,-444.123565,-10658.965565,-383.047749
2928.672277,-148.041188,-7179.997637,766.095498
2928.672605,2442.679609,-8068.244768,153.219100
2928.672932,3775.050304,-12509.480420,0.000000
2928.673260,1776.494261,-13693.809927,919.314598
2928.673587,444.123565,-9844.739029,1608.800546
2928.673914,518.144159,-7105.977043,-306.438199
2928.674242,444.123565,-10658.965565,-2221.676944
2928.674569,-740.205942,-12361.439231,-1149.143247
2928.674897,-1110.308913,-8808.450710,383.047749
2928.675224,888.247130,-5847.626942,0.000000
2928.675552,2294.638420,-8512.368333,153.219100
2928.675879,1332.370696,-10881.027347,1302.362347
2928.676207,-1110.308913,-8216.285956,2757.943793
2928.676534,-2146.597232,-5921.647536,766.095498
2928.676861,-1184.329507,-8586.388927,-2145.067394
2928.677189,-1480.411884,-11621.233289,-1838.629195
2928.677516,-1776.494261,-11251.130318,-995.924147
2928.677844,370.102971,-9474.636058,459.657299
2928.678171,2072.576638,-11103.089130,-459.657299
2928.678499,2146.597232,-15100.201217,-919.314598
2928.678826,74.020594,-13397.727550,-536.266849
2928.679154,148.041188,-8438.347739,-1378.971896
2928.679481,962.267725,-6809.894666,-1302.362347
2928.679808,962.267725,-8586.388927,-229.828649
2928.680136,0.000000,-9844.739029,2068.457845
2928.680463,-296.082377,-6957.935855,2145.067394
2928.680791,0.000000,-5847.626942,0.000000
2928.681118,592.164754,-9992.780217,-1225.752797
2928.681446,-148.041188,-11843.295072,-919.314598
2928.681773,-1480.411884,-8734.430116,0.000000
2928.682101,-740.205942,-7105.977043,-229.828649
2928.682428,1110.308913,-10140.821405,-1072.533697
2928.682755,1036.288319,-12879.583391,0.000000
2928.683083,0.000000,-10436.903782,2068.457845
2928.683410,370.102971,-7476.080014,766.095498
2928.683738,1924.535449,-10881.027347,-1991.848295
2928.684065,296.082377,-13989.892304,-1762.019645
2928.684393,-888.247130,-11029.068536,-383.047749
2928.684720,-444.123565,-6883.915261,0.000000
2928.685048,1110.308913,-8216.285956,-383.047749
2928.685375,1628.453072,-11769.274478,-689.485948
2928.685703,370.102971,-10955.047942,536.266849
2928.686030,370.102971,-7402.059420,612.876398
2928.686357,962.267725,-7920.203579,-536.266849
2928.686685,666.185348,-11251.130318,0.000000
2928.687012,-1776.494261,-9844.739029,1838.629195
2928.687340,-2220.617826,-6069.688724,1838.629195
2928.687667,-222.061783,-6735.874072,-459.657299
2928.687995,1332.370696,-11177.109724,-1455.581446
2928.688322,1702.473667,-12731.542202,0.000000
2928.688650,1998.556043,-9844.739029,536.266849
2928.688977,1480.411884,-8216.285956,-383.047749
2928.689304,2072.576638,-11843.295072,-919.314598
2928.689632,592.164754,-13767.830521,-306.438199
2928.689959,-518.144159,-9770.718434,153.219100
2928.690287,518.144159,-6809.894666,-459.657299
2928.690614,1998.556043,-10288.862594,-306.438199
2928.690942,888.247130,-11621.233289,1225.752797
2928.691269,-666.185348,-9326.594869,2221.676944
2928.691597,-1332.370696,-4811.338623,1378.971896
2928.691924,-370.102971,-6957.935855,-1762.019645
2928.692251,-444.123565,-11177.109724,-1685.410096
2928.692579,-2294.638420,-9474.636058,229.828649
2928.692906,-1406.391290,-6439.791695,229.828649
2928.693234,1036.288319,-8512.368333,-1455.581446
2928.693561,2516.700203,-12805.562797,-1532.190996
2928.693889,1258.350101,-11917.315666,995.924147
2928.694216,1554.432478,-8808.450710,842.705048
2928.694544,2146.597232,-9770.718434,-1302.362347
2928.694871,2442.679609,-14285.974681,-1838.629195
2928.695198,-148.041188,-12805.562797,-306.438199
2928.695526,-2442.679609,-7328.038826,1685.410096
2928.695853,-2220.617826,-6291.750507,459.657299
2928.696181,-1554.432478,-10436.903782,-1378.971896
2928.696508,-1702.473667,-12139.377449,-2221.676944
2928.696836,-2072.576638,-8956.491898,-995.924147
2928.697163,-1110.308913,-6217.729913,-459.657299
2928.697491,1332.370696,-9992.780217,0.000000
2928.697818,1184.329507,-12065.356855,842.705048
2928.698145,222.061783,-9622.677246,2298.286494
2928.698473,518.144159,-6883.915261,689.485948
2928.698800,1924.535449,-9474.636058,-1302.362347
2928.699128,1924.535449,-13101.645173,-1225.752797
2928.699455,296.082377,-10881.027347,383.047749
2928.699783,-296.082377,-7254.018232,459.657299
2928.700110,592.164754,-9622.677246,-459.657299
2928.700438,1850.514855,-13471.748144,-306.438199
2928.700765,592.164754,-10584.944971,153.219100
2928.701092,0.000000,-6069.688724,612.876398
2928.701420,1406.391290,-7179.997637,-229.828649
2928.701747,1924.535449,-10584.944971,-229.828649
2928.702075,0.000000,-10140.821405,1149.143247
2928.702402,0.000000,-7179.997637,1915.238745
2928.702730,222.061783,-7254.018232,689.485948
2928.703057,222.061783,-11251.130318,-1225.752797
2928.703385,-444.123565,-12287.418637,-1149.143247
2928.703712,-1036.288319,-9400.615463,-383.047749
2928.704039,740.205942,-8512.368333,-1532.190996
2928.704367,1998.556043,-11473.192101,-1915.238745
2928.704694,666.185348,-11843.295072,153.219100
2928.705022,222.061783,-8290.306550,306.438199
2928.705349,666.185348,-7476.080014,766.095498
2928.705677,962.267725,-10066.800811,-536.266849
2928.706004,222.061783,-11621.233289,-229.828649
2928.706332,-740.205942,-8808.450710,536.266849
2928.706659,-370.102971,-7328.038826,0.000000
2928.706986,888.247130,-10436.903782,-1302.362347
2928.707314,1998.556043,-12953.603985,-1072.533697
2928.707641,888.247130,-11251.130318,-229.828649
2928.707969,296.082377,-8808.450710,0.000000
2928.708296,1406.391290,-9770.718434,-612.876398
2928.708624,740.205942,-11103.089130,-612.876398
2928.708951,-1776.494261,-9770.718434,1072.533697
2928.709279,-2220.617826,-7105.977043,842.705048
2928.709606,-296.082377,-7105.977043,-1149.143247
2928.709933,1924.535449,-10732.986159,-1608.800546
2928.710261,740.205942,-11621.233289,842.705048
2928.710588,-444.123565,-8364.327145,1838.629195
2928.710916,666.185348,-8068.244768,306.438199
2928.711243,962.267725,-11177.109724,-1685.410096
2928.711571,-666.185348,-11843.295072,-689.485948
2928.711898,-1776.494261,-8364.327145,153.219100
2928.712226,-814.226536,-7179.997637,-306.438199
2928.712553,666.185348,-10955.047942,-766.095498
2928.712880,1036.288319,-12213.398043,0.000000
2928.713208,0.000000,-9474.636058,1455.581446
2928.713535,296.082377,-7179.997637,459.657299
2928.713863,1332.370696,-8882.471304,-995.924147
2928.714190,444.123565,-10436.903782,-1072.533697
2928.714518,-1924.535449,-8734.430116,383.047749
2928.714845,-1554.432478,-5699.585753,76.609550
2928.715173,518.144159,-8660.409521,-1225.752797
2928.715500,1332.370696,-12879.583391,-689.485948
2928.715827,1036.288319,-12361.439231,612.876398
2928.716155,740.205942,-9696.697840,229.828649
2928.716482,1776.494261,-10510.924376,-1302.362347
2928.716810,2072.576638,-12139.377449,-2221.676944
2928.717137,-740.205942,-10510.924376,0.000000
2928.717465,-2146.597232,-7105.977043,1072.533697
2928.717792,-296.082377,-7772.162391,0.000000
2928.718120,814.226536,-11103.089130,-1149.143247
2928.718447,0.000000,-10658.965565,-612.876398
2928.718774,-518.144159,-8290.306550,-536.266849
2928.719102,-296.082377,-7624.121203,0.000000
2928.719429,1406.391290,-10881.027347,-1532.190996
2928.719757,962.267725,-12287.418637,-766.095498
2928.720084,0.000000,-9622.677246,689.485948
2928.720412,666.185348,-7772.162391,459.657299
2928.720740,1554.432478,-9474.636058,842.705048
2928.721067,1776.494261,-12287.418637,689.485948
2928.721395,-222.061783,-9400.615463,1838.629195
2928.721722,-222.061783,-6883.915261,0.000000
2928.722050,1332.370696,-9548.656652,-1608.800546
2928.722377,1110.308913,-11695.253884,-766.095498
2928.722705,0.000000,-9992.780217,919.314598
2928.723033,0.000000,-6957.935855,612.876398
2928.723360,962.267725,-8734.430116,-229.828649
2928.723688,2220.617826,-11991.336260,-1225.752797
2928.724015,666.185348,-11177.109724,306.438199
2928.724343,0.000000,-7402.059420,536.266849
2928.724671,740.205942,-7698.141797,0.000000
2928.724998,1036.288319,-11621.233289,-612.876398
2928.725326,-1258.350101,-11621.233289,766.095498
2928.725653,-3034.844362,-7105.977043,459.657299
2928.725981,-1110.308913,-6735.874072,-1762.019645
2928.726308,518.144159,-11177.109724,-2068.457845
2928.726636,74.020594,-12361.439231,-306.438199
2928.726964,-592.164754,-8956.491898,842.705048
2928.727291,888.247130,-8438.347739,0.000000
2928.727619,2812.782580,-11843.295072,-1072.533697
2928.727946,2146.597232,-12879.583391,-1378.971896
2928.728274,296.082377,-9326.594869,76.609550
2928.728602,518.144159,-8142.265362,0.000000
2928.728929,1258.350101,-10807.006753,-1225.752797
2928.729257,666.185348,-12731.542202,-766.095498
2928.729584,-666.185348,-8956.491898,0.000000
2928.729912,-1702.473667,-5477.523971,383.047749
2928.730239,-1628.453072,-8660.409521,76.609550
2928.730567,-1924.535449,-12731.542202,-842.705048
2928.730895,-2960.823768,-10584.944971,-842.705048
2928.731222,-2664.741391,-5921.647536,-1072.533697
2928.731550,-444.123565,-7031.956449,-689.485948
2928.731877,1406.391290,-11991.336260,459.657299
2928.732205,888.247130,-12509.480420,2374.896044
2928.732532,1702.473667,-8882.471304,1149.143247
2928.732860,2368.659014,-7846.182985,-1455.581446
2928.733188,2368.659014,-11843.295072,-2145.067394
2928.733515,0.000000,-12213.398043,76.609550
2928.733843,-1332.370696,-8068.244768,1149.143247
2928.734170,0.000000,-6587.832884,0.000000
2928.734498,1258.350101,-9844.739029,-995.924147
2928.734826,1628.453072,-11399.171507,842.705048
2928.735153,0.000000,-7550.100608,2528.115143
2928.735481,0.000000,-5625.565159,1608.800546
2928.735808,666.185348,-8586.388927,-689.485948
2928.736136,0.000000,-11325.150913,-1149.143247
2928.736463,-1332.370696,-8956.491898,612.876398
2928.736791,-740.205942,-6439.791695,459.657299
2928.737119,962.267725,-10584.944971,-612.876398
2928.737446,2072.576638,-15026.180623,-1302.362347
2928.737774,962.267725,-13397.727550,0.000000
2928.738101,1258.350101,-9326.594869,-995.924147
2928.738429,2960.823768,-9992.780217,-2451.505594
2928.738757,2590.720797,-12805.562797,-1685.410096
2928.739084,-296.082377,-10807.006753,229.828649
2928.739412,-1628.453072,-6661.853478,1762.019645
2928.739739,-296.082377,-6365.771101,306.438199
2928.740067,666.185348,-9474.636058,-1072.533697
2928.740394,-592.164754,-9400.615463,76.609550
2928.740722,-2220.617826,-7105.977043,842.705048
2928.741050,148.041188,-8068.244768,-1072.533697
2928.741377,2368.659014,-11843.295072,-2451.505594
2928.741705,1258.350101,-14359.995275,-1149.143247
2928.742032,0.000000,-9770.718434,1762.019645
2928.742360,1776.494261,-8142.265362,995.924147
2928.742687,3478.967927,-11843.295072,0.000000
2928.743015,2516.700203,-13323.706956,383.047749
2928.743343,222.061783,-8808.450710,995.924147
2928.743670,-888.247130,-5995.668130,536.266849
2928.743998,148.041188,-8882.471304,-1149.143247
2928.744325,148.041188,-11917.315666,-995.924147
2928.744653,-1036.288319,-9252.574275,919.314598
2928.744981,-666.185348,-6291.750507,1302.362347
2928.745308,518.144159,-8364.327145,306.438199
2928.745636,1184.329507,-10881.027347,0.000000
2928.745963,-370.102971,-9622.677246,612.876398
2928.746291,-1184.329507,-7105.977043,1149.143247
2928.746618,-1036.288319,-7698.141797,-766.095498
2928.746946,222.061783,-11473.192101,-1608.800546
2928.747274,-518.144159,-11917.315666,536.266849
2928.747601,-814.226536,-8364.327145,1149.143247
2928.747929,814.226536,-8586.388927,-689.485948
2928.748256,1036.288319,-11843.295072,-2068.457845
2928.748584,148.041188,-13397.727550,-919.314598
2928.748912,-518.144159,-9844.739029,-459.657299
2928.749239,1184.329507,-7772.162391,-1225.752797
2928.749567,1554.432478,-10362.883188,-1532.190996
2928.749894,518.144159,-12879.583391,1072.533697
2928.750222,-814.226536,-10288.862594,2528.115143
2928.750549,74.020594,-7550.100608,689.485948
2928.750877,888.247130,-8956.491898,-1991.848295
2928.751205,0.000000,-10955.047942,-1762.019645
2928.751532,-1850.514855,-9548.656652,0.000000
2928.751860,-1332.370696,-6661.853478,0.000000
2928.752187,-444.123565,-8808.450710,-1608.800546
2928.752515,222.061783,-12213.398043,-2068.457845
2928.752843,-888.247130,-9474.636058,153.219100
2928.753170,518.144159,-7402.059420,459.657299
2928.753498,1702.473667,-9474.636058,229.828649
2928.753825,2516.700203,-12953.603985,459.657299
2928.754153,1554.432478,-11695.253884,536.266849
2928.754480,1184.329507,-8216.285956,0.000000
2928.754808,1850.514855,-7772.162391,-383.047749
2928.755136,1628.453072,-10732.986159,0.000000
2928.755463,-888.247130,-11251.130318,1532.190996
2928.755791,-962.267725,-8586.388927,1685.410096
2928.756118,-444.123565,-5477.523971,-1149.143247
2928.756446,1110.308913,-9474.636058,-1915.238745
2928.756773,888.247130,-11621.233289,153.219100
2928.757101,-370.102971,-7846.182985,1608.800546
2928.757429,740.205942,-6217.729913,-153.219100
2928.757756,1850.514855,-9770.718434,-995.924147
2928.758084,1036.288319,-12879.583391,0.000000
2928.758411,222.061783,-9770.718434,1149.143247
2928.758739,-740.205942,-6587.832884,536.266849
2928.759067,0.000000,-11029.068536,-1378.971896
2928.759394,148.041188,-14582.057057,-1149.143247
2928.759722,-1110.308913,-10807.006753,153.219100
2928.760049,-296.082377,-7254.018232,-689.485948
2928.760377,1702.473667,-9622.677246,-1378.971896
2928.760704,666.185348,-12509.480420,0.000000
2928.761032,-962.267725,-11029.068536,1149.143247
2928.761360,-666.185348,-7179.997637,536.266849
2928.761687,222.061783,-7031.956449,-1149.143247
2928.762015,1850.514855,-9992.780217,-459.657299
2928.762342,518.144159,-10362.883188,995.924147
2928.762670,296.082377,-8290.306550,1838.629195
2928.762998,740.205942,-8956.491898,-612.876398
2928.763325,814.226536,-12213.398043,-1991.848295
2928.763653,-1554.432478,-12213.398043,-995.924147
2928.763980,-2368.659014,-7846.182985,383.047749
2928.764308,-1110.308913,-6217.729913,-383.047749
2928.764635,444.123565,-10584.944971,-995.924147
2928.764963,888.247130,-13841.851115,536.266849
2928.765291,222.061783,-8808.450710,1378.971896
2928.765618,444.123565,-6439.791695,459.657299
2928.765946,740.205942,-9548.656652,-459.657299
2928.766273,-444.123565,-11769.274478,-766.095498
2928.766601,-1628.453072,-9918.759623,229.828649
2928.766929,-814.226536,-6735.874072,229.828649
2928.767256,1702.473667,-8882.471304,-1838.629195
2928.767584,1998.556043,-12953.603985,-689.485948
2928.767911,-888.247130,-10807.006753,1991.848295
2928.768239,-1776.494261,-7624.121203,1302.362347
2928.768566,-740.205942,-8882.471304,-1915.238745
2928.768894,-592.164754,-11399.171507,-2757.943793
2928.769222,-1332.370696,-9992.780217,-383.047749
2928.769549,-888.247130,-6735.874072,1378.971896
2928.769877,740.205942,-7328.038826,1378.971896
2928.770204,2368.659014,-12361.439231,306.438199
2928.770532,1776.494261,-13323.706956,76.609550
2928.770859,518.144159,-9992.780217,-306.438199
2928.771187,1406.391290,-9252.574275,-1685.410096
2928.771515,2072.576638,-12065.356855,-2451.505594
2928.771842,370.102971,-12879.583391,-842.705048
2928.772170,-296.082377,-9474.636058,1302.362347
2928.772497,1332.370696,-7328.038826,842.705048
2928.772825,3034.844362,-10066.800811,0.000000
2928.773153,2294.638420,-11399.171507,76.609550
2928.773480,-666.185348,-8290.306550,995.924147
2928.773808,-1850.514855,-5551.544565,-536.266849
2928.774135,-1258.350101,-7105.977043,-2374.896044
2928.774463,-148.041188,-9844.739029,-1915.238745
2928.774790,-1406.391290,-9178.553681,1532.190996
2928.775118,222.061783,-7698.141797,1762.019645
2928.775446,3108.864956,-10881.027347,-229.828649
2928.775773,3627.009116,-14582.057057,-1072.533697
2928.776101,814.226536,-12953.603985,0.000000
2928.776428,370.102971,-8882.471304,306.438199
2928.776756,1036.288319,-8142.265362,-2068.457845
2928.777084,666.185348,-11843.295072,-1455.581446
2928.777411,-1480.411884,-11621.233289,919.314598
2928.777739,-1554.432478,-7105.977043,1149.143247
2928.778066,-148.041188,-6513.812290,-536.266849
2928.778394,814.226536,-10140.821405,-2451.505594
2928.778721,-1332.370696,-10214.842000,-383.047749
2928.779049,-2664.741391,-7698.141797,536.266849
2928.779377,-1258.350101,-6291.750507,-1072.533697
2928.779704,518.144159,-9622.677246,-2221.676944
2928.780032,814.226536,-12287.418637,0.000000
2928.780359,518.144159,-9992.780217,3140.991542
2928.780687,1702.473667,-8142.265362,1762.019645
2928.781015,3182.885551,-11399.171507,-459.657299
2928.781342,1036.288319,-13545.768739,-1378.971896
2928.781670,-814.226536,-11251.130318,-1149.143247
2928.781997,296.082377,-7254.018232,-1991.848295
2928.782325,2664.741391,-9474.636058,-2221.676944
2928.782652,2516.700203,-13841.851115,0.000000
2928.782980,2146.597232,-12657.521608,2298.286494
2928.783308,1924.535449,-7105.977043,1685.410096
2928.783635,3034.844362,-7105.977043,-229.828649
2928.783963,2220.617826,-11103.089130,-919.314598
2928.784290,-1110.308913,-10066.800811,842.705048
2928.784618,-2664.741391,-6217.729913,1072.533697
2928.784945,-1036.288319,-6661.853478,-1302.362347
2928.785273,370.102971,-11251.130318,-2221.676944
2928.785601,-1332.370696,-12139.377449,1072.533697
2928.785928,-2072.576638,-8364.327145,1532.190996
2928.786256,-296.082377,-7994.224174,-1378.971896
2928.786583,1036.288319,-11991.336260,-2911.162892
2928.786911,0.000000,-12435.459826,-1685.410096
2928.787239,-370.102971,-8364.327145,536.266849
2928.787566,1850.514855,-7402.059420,0.000000
2928.787894,2368.659014,-10955.047942,459.657299
2928.788221,1036.288319,-13989.892304,1149.143247
2928.788549,-370.102971,-11177.109724,1072.533697
2928.788876,518.144159,-7402.059420,-1378.971896
2928.789204,296.082377,-8512.368333,-2451.505594
2928.789532,-962.267725,-10584.944971,-536.266849
2928.789859,-2590.720797,-7476.080014,536.266849
2928.790187,-2664.741391,-5551.544565,995.924147
2928.790514,518.144159,-8512.368333,-1149.143247
2928.790842,740.205942,-11547.212695,-766.095498
2928.791170,-370.102971,-10436.903782,1149.143247
2928.791497,0.000000,-7328.038826,1685.410096
2928.791825,740.205942,-8660.409521,-459.657299
2928.792152,1776.494261,-13471.748144,-1915.238745
2928.792480,666.185348,-13397.727550,-1685.410096
2928.792807,1036.288319,-9400.615463,-1225.752797
2928.793135,2368.659014,-9326.594869,-1532.190996
2928.793463,1702.473667,-13471.748144,-689.485948
2928.793790,-888.247130,-13471.748144,842.705048
2928.794118,-814.226536,-8882.471304,1225.752797
2928.794445,222.061783,-5921.647536,-919.314598
2928.794773,592.164754,-9252.574275,-1762.019645
2928.795100,74.020594,-10362.883188,383.047749
2928.795428,-962.267725,-7105.977043,1838.629195
2928.795756,0.000000,-5921.647536,229.828649
2928.796083,888.247130,-8808.450710,-995.924147
2928.796411,1036.288319,-11251.130318,-995.924147
2928.796738,0.000000,-9770.718434,842.705048
2928.797066,-148.041188,-8068.244768,0.000000
2928.797394,1554.432478,-11325.150913,-2451.505594
2928.797721,2368.659014,-15100.201217,-2145.067394
2928.798049,814.226536,-12065.356855,383.047749
2928.798376,1110.308913,-7846.182985,1072.533697
2928.798704,1850.514855,-9326.594869,306.438199
2928.799031,1184.329507,-11843.295072,766.095498
2928.799359,-148.041188,-10140.821405,1532.190996
2928.799687,-1332.370696,-5551.544565,766.095498
2928.800014,-148.041188,-6143.709319,-536.266849
2928.800342,444.123565,-9400.615463,-536.266849
2928.800669,-666.185348,-10362.883188,536.266849
2928.800997,-814.226536,-7105.977043,-306.438199
2928.801325,962.267725,-7105.977043,-1762.019645
2928.801652,3182.885551,-10955.047942,-1685.410096
2928.801980,1406.391290,-12657.521608,153.219100
2928.802307,-518.144159,-9992.780217,2298.286494
2928.802635,0.000000,-8216.285956,536.266849
2928.802962,592.164754,-11991.336260,-1762.019645
2928.803290,74.020594,-12953.603985,-1685.410096
2928.803618,0.000000,-9178.553681,-689.485948
2928.803945,1258.350101,-7476.080014,-153.219100
2928.804273,1776.494261,-11029.068536,0.000000
2928.804600,962.267725,-13619.789333,383.047749
2928.804928,-518.144159,-10510.924376,1302.362347
2928.805256,-1554.432478,-6957.935855,0.000000
2928.805583,0.000000,-8438.347739,-2068.457845
2928.805911,222.061783,-10584.944971,-1915.238745
2928.806238,-1554.432478,-9400.615463,229.828649
2928.806566,-666.185348,-7328.038826,1685.410096
2928.806893,888.247130,-8438.347739,-612.876398
2928.807221,814.226536,-11325.150913,-689.485948
2928.807549,-1850.514855,-10436.903782,612.876398
2928.807876,-2812.782580,-7179.997637,766.095498
2928.808204,-1628.453072,-7328.038826,-1838.629195
2928.808531,-518.144159,-9400.615463,-2604.724693
2928.808859,0.000000,-11621.233289,0.000000
2928.809186,592.164754,-9844.739029,2068.457845
2928.809514,3256.906145,-9252.574275,1378.971896
2928.809842,3256.906145,-11917.315666,0.000000
2928.810169,740.205942,-12879.583391,306.438199
2928.810497,-666.185348,-9622.677246,-229.828649
2928.810824,148.041188,-6217.729913,-1532.190996
2928.811152,370.102971,-8438.347739,-1455.581446
2928.811480,0.000000,-11251.130318,0.000000
2928.811807,-592.164754,-9104.533087,1302.362347
2928.812135,0.000000,-6957.935855,0.000000
2928.812462,1554.432478,-9326.594869,-1608.800546
2928.812790,370.102971,-11621.233289,-1149.143247
2928.813117,-1184.329507,-9474.636058,842.705048
2928.813445,-740.205942,-6069.688724,229.828649
2928.813773,1036.288319,-7476.080014,-459.657299
2928.814100,2072.576638,-12139.377449,612.876398
2928.814428,1776.494261,-11843.295072,2145.067394
2928.814755,1776.494261,-7994.224174,612.876398
2928.815083,1850.514855,-8882.471304,-1149.143247
2928.815411,962.267725,-14063.912898,-2145.067394
2928.815738,-592.164754,-13545.768739,-612.876398
2928.816066,-444.123565,-8586.388927,0.000000
2928.816393,1184.329507,-7328.038826,-919.314598
2928.816721,2146.597232,-11621.233289,-229.828649
2928.817048,740.205942,-11399.171507,1225.752797
2928.817376,0.000000,-7772.162391,1608.800546
2928.817704,370.102971,-5551.544565,-842.705048
2928.818031,740.205942,-8512.368333,-1762.019645
2928.818359,-1332.370696,-10362.883188,153.219100
2928.818686,-2590.720797,-8364.327145,1762.019645
2928.819014,-1258.350101,-6735.874072,-153.219100
2928.819342,222.061783,-10066.800811,-1455.581446
2928.819669,1554.432478,-14137.933492,-842.705048
2928.819997,888.247130,-11843.295072,0.000000
2928.820324,1406.391290,-8660.409521,76.609550
2928.820652,2368.659014,-10362.883188,-1149.143247
2928.820979,1332.370696,-12583.501014,-766.095498
2928.821307,-740.205942,-11251.130318,689.485948
2928.821635,-1184.329507,-7698.141797,612.876398
2928.821962,0.000000,-7846.182985,-842.705048
2928.822290,1332.370696,-11177.109724,-1149.143247
2928.822618,-296.082377,-11621.233289,0.000000
2928.822945,-2220.617826,-7179.997637,612.876398
2928.823273,-1110.308913,-5995.668130,-995.924147
2928.823601,-148.041188,-9992.780217,-1991.848295
2928.823928,-1480.411884,-10510.924376,76.609550
2928.824256,-2072.576638,-7698.141797,1378.971896
2928.824584,-518.144159,-6735.874072,229.828649
2928.824911,1776.494261,-10584.944971,-1149.143247
2928.825239,2072.576638,-12583.501014,383.047749
2928.825567,1110.308913,-9696.697840,1225.752797
2928.825894,1110.308913,-8068.244768,0.000000
2928.826222,2516.700203,-11843.295072,-1838.629195
2928.826550,888.247130,-13619.789333,-1455.581446
2928.826877,-518.144159,-10955.047942,612.876398
2928.827205,0.000000,-6809.894666,919.314598
2928.827533,888.247130,-8290.306550,-306.438199
2928.827860,0.000000,-11399.171507,153.219100
2928.828188,-962.267725,-10436.903782,1302.362347
2928.828515,-1184.329507,-6513.812290,536.266849
2928.828843,148.041188,-6587.832884,-919.314598
2928.829171,-370.102971,-9178.553681,-919.314598
2928.829498,-2072.576638,-9474.636058,536.266849
2928.829826,-1406.391290,-7179.997637,842.705048
2928.830154,888.247130,-7994.224174,-995.924147
2928.830481,2590.720797,-12287.418637,-2145.067394
2928.830809,1480.411884,-14211.954086,-766.095498
2928.831137,1406.391290,-9992.780217,0.000000
2928.831464,2368.659014,-8734.430116,-689.485948
2928.831792,2590.720797,-12065.356855,-1378.971896
2928.832120,222.061783,-13619.789333,766.095498
2928.832447,-444.123565,-8956.491898,1149.143247
2928.832775,370.102971,-6439.791695,0.000000
2928.833103,1258.350101,-9400.615463,-766.095498
2928.833430,222.061783,-11399.171507,229.828649
2928.833758,-1406.391290,-9400.615463,1532.190996
2928.834086,-1554.432478,-5477.523971,-229.828649
2928.834413,74.020594,-7994.224174,-2987.772442
2928.834741,0.000000,-12065.356855,-1762.019645
2928.835069,-1110.308913,-10510.924376,536.266849
2928.835396,0.000000,-6957.935855,612.876398
2928.835724,2812.782580,-9252.574275,-1532.190996
2928.836052,3330.926739,-13693.809927,-153.219100
2928.836379,814.226536,-11769.274478,1455.581446
2928.836707,148.041188,-7550.100608,1072.533697
2928.837035,1036.288319,-8512.368333,-1455.581446
2928.837362,666.185348,-12583.501014,-1915.238745
2928.837690,-666.185348,-11991.336260,-229.828649
2928.838018,-888.247130,-7476.080014,1455.581446
2928.838345,1184.329507,-7476.080014,383.047749
2928.838673,2442.679609,-10955.047942,1072.533697
2928.839001,740.205942,-11621.233289,1685.410096
2928.839328,-1480.411884,-7550.100608,1838.629195
2928.839656,-666.185348,-5921.647536,-1225.752797
2928.839984,0.000000,-9178.553681,-2528.115143
2928.840311,-592.164754,-10658.965565,-1455.581446
2928.840639,-1998.556043,-8068.244768,1608.800546
2928.840967,-666.185348,-7254.018232,1532.190996
2928.841294,962.267725,-10658.965565,-842.705048
2928.841622,888.247130,-13249.686362,-1762.019645
2928.841949,-666.185348,-10436.903782,-459.657299
2928.842277,0.000000,-7105.977043,-995.924147
2928.842605,1554.432478,-8808.450710,-1149.143247
2928.842932,1258.350101,-12213.398043,-536.266849
2928.843260,-370.102971,-10584.944971,2374.896044
2928.843588,592.164754,-7550.100608,2298.286494
2928.843915,2146.597232,-9474.636058,76.609550
2928.844243,1406.391290,-13027.624579,-766.095498
2928.844571,-296.082377,-11621.233289,-383.047749
2928.844898,-1628.453072,-7476.080014,-842.705048
2928.845226,-518.144159,-8956.491898,-2451.505594
2928.845554,296.082377,-10732.986159,-2068.457845
2928.845881,-592.164754,-11621.233289,229.828649
2928.846209,-1184.329507,-8660.409521,1225.752797
2928.846537,962.267725,-7476.080014,-536.266849
2928.846864,2072.576638,-11251.130318,-1378.971896
2928.847192,666.185348,-12213.398043,153.219100
2928.847520,-592.164754,-8734.430116,1608.800546
2928.847847,1184.329507,-6957.935855,76.609550
2928.848175,1850.514855,-10140.821405,-1532.190996
2928.848503,444.123565,-12879.583391,-229.828649
2928.848830,-888.247130,-10510.924376,1302.362347
2928.849158,-296.082377,-7994.224174,306.438199
2928.849486,1110.308913,-9770.718434,-1455.581446
2928.849813,1258.350101,-11547.212695,-1072.533697
2928.850141,-666.185348,-9844.739029,459.657299
2928.850469,-666.185348,-6809.894666,919.314598
2928.850796,962.267725,-7179.997637,-842.705048
2928.851124,1036.288319,-10510.924376,-1225.752797
2928.851452,-1184.329507,-9918.759623,842.705048
2928.851779,-1406.391290,-6069.688724,1302.362347
2928.852107,740.205942,-7254.018232,-1532.190996
2928.852435,2590.720797,-12287.418637,-1302.362347
2928.852762,888.247130,-13249.686362,76.609550
2928.853090,74.020594,-9178.553681,153.219100
2928.853418,1332.370696,-8142.265362,-1149.143247
2928.853745,2294.638420,-12139.377449,-1762.019645
2928.854073,1406.391290,-12805.562797,229.828649
2928.854401,-666.185348,-8956.491898,1608.800546
2928.854728,296.082377,-7105.977043,153.219100
2928.855056,1998.556043,-10066.800811,-1608.800546
2928.855383,370.102971,-12287.418637,-459.657299
2928.855711,-1998.556043,-9548.656652,1149.143247
2928.856039,-1036.288319,-6957.935855,-612.876398
2928.856366,1036.288319,-9622.677246,-2604.724693
2928.856694,222.061783,-11843.295072,-842.705048
2928.857022,-1406.391290,-9252.574275,1685.410096
2928.857349,-814.226536,-6809.894666,766.095498
2928.857677,1258.350101,-9474.636058,-919.314598
2928.858005,1184.329507,-13323.706956,-919.314598
2928.858332,-296.082377,-10955.047942,1072.533697
2928.858660,296.082377,-6439.791695,1302.362347
2928.858988,1850.514855,-7772.162391,-459.657299
2928.859315,1184.329507,-11917.315666,-306.438199
2928.859643,-592.164754,-10436.903782,919.314598
2928.859971,-666.185348,-7254.018232,536.266849
2928.860298,740.205942,-8216.285956,-1072.533697
2928.860626,1332.370696,-11843.295072,-1608.800546
2928.860954,74.020594,-11103.089130,383.047749
2928.861281,-1184.329507,-7402.059420,1302.362347
2928.861609,74.020594,-6957.935855,0.000000
2928.861937,1184.329507,-10140.821405,-842.705048
2928.862264,-666.185348,-11325.150913,306.438199
2928.862592,-2368.659014,-8290.306550,1225.752797
2928.862920,-888.247130,-6587.832884,-536.266849
2928.863247,962.267725,-9622.677246,-1915.238745
2928.863575,518.144159,-12361.439231,-536.266849
2928.863903,-740.205942,-9326.594869,459.657299
2928.864230,592.164754,-7846.182985,-919.314598
2928.864558,3182.885551,-11177.109724,-2145.067394
2928.864886,2368.659014,-13397.727550,-1608.800546
2928.865213,592.164754,-11621.233289,383.047749
2928.865541,518.144159,-8216.285956,612.876398
2928.865869,1776.494261,-9474.636058,-612.876398
2928.866196,1702.473667,-12213.398043,-612.876398
2928.866524,-370.102971,-10066.800811,1072.533697
2928.866852,-1554.432478,-7476.080014,612.876398
2928.867179,0.000000,-8216.285956,-766.095498
2928.867507,222.061783,-11177.109724,-1455.581446
2928.867835,-1702.473667,-10066.800811,842.705048
2928.868162,-1924.535449,-6957.935855,995.924147
2928.868490,-296.082377,-6735.874072,-766.095498
2928.868817,1036.288319,-11547.212695,-1455.581446
2928.869145,1036.288319,-12361.439231,536.266849
2928.869473,1406.391290,-8660.409521,995.924147
2928.869800,1924.535449,-7105.977043,383.047749
2928.870128,1924.535449,-11029.068536,0.000000
2928.870456,0.000000,-12213.398043,1225.752797
2928.870783,-1850.514855,-9474.636058,612.876398
2928.871111,-444.123565,-6883.915261,-1991.848295
2928.871439,1406.391290,-9622.677246,-2757.943793
2928.871766,1036.288319,-11917.315666,76.609550
2928.872094,-222.061783,-9622.677246,3294.210641
2928.872422,444.123565,-6513.812290,1762.019645
2928.872749,2146.597232,-8438.347739,-689.485948
2928.873077,592.164754,-11473.192101,-536.266849
2928.873405,-2220.617826,-9474.636058,689.485948
2928.873732,-2220.617826,-5995.668130,-383.047749
2928.874060,0.000000,-7994.224174,-2221.676944
2928.874388,518.144159,-12287.418637,-1838.629195
2928.874715,222.061783,-12953.603985,995.924147
2928.875043,1776.494261,-10066.800811,995.924147
2928.875371,3552.988522,-9178.553681,-2145.067394
2928.875698,3108.864956,-12583.501014,-3217.601092
2928.876026,0.000000,-13027.624579,-459.657299
2928.876354,-962.267725,-8290.306550,229.828649
2928.876681,0.000000,-6291.750507,0.000000
2928.877009,666.185348,-9326.594869,0.000000
2928.877337,444.123565,-11843.295072,1302.362347
2928.877664,-740.205942,-8882.471304,1685.410096
2928.877992,-222.061783,-7179.997637,0.000000
2928.878320,1184.329507,-10362.883188,-2757.943793
2928.878647,74.020594,-12583.501014,-1608.800546
2928.878975,-1776.494261,-9252.574275,919.314598
2928.879303,-666.185348,-6513.812290,76.609550
2928.879630,2738.761985,-10288.862594,-1149.143247
2928.879958,2590.720797,-13915.871710,-689.485948
2928.880286,1184.329507,-11917.315666,1378.971896
2928.880613,1776.494261,-7031.956449,383.047749
2928.880941,2220.617826,-7772.162391,-842.705048
2928.881269,1628.453072,-11917.315666,153.219100
2928.881596,-1110.308913,-9178.553681,1685.410096
2928.881924,-1628.453072,-4515.256246,1838.629195
2928.882251,74.020594,-5181.441594,-612.876398
2928.882579,592.164754,-11399.171507,-1072.533697
2928.882907,-1406.391290,-12065.356855,612.876398
2928.883234,-1110.308913,-8512.368333,766.095498
2928.883562,962.267725,-7920.203579,-919.314598
2928.883890,2072.576638,-11399.171507,-2221.676944
2928.884217,444.123565,-12731.542202,306.438199
2928.884545,-1628.453072,-8068.244768,1915.238745
2928.884873,-148.041188,-6069.688724,-229.828649
2928.885200,962.267725,-11177.109724,-1991.848295
2928.885528,74.020594,-13027.624579,-1302.362347
2928.885856,-148.041188,-9918.759623,0.000000
2928.886183,1184.329507,-7402.059420,-459.657299
2928.886511,1776.494261,-10732.986159,-1991.848295
2928.886839,148.041188,-13471.748144,-842.705048
2928.887166,-1258.350101,-12139.377449,0.000000
2928.887494,-296.082377,-7920.203579,-842.705048
2928.887822,666.185348,-7994.224174,-1685.410096
2928.888149,1184.329507,-11177.109724,-306.438199
2928.888477,-814.226536,-9992.780217,2221.676944
2928.888805,-1554.432478,-7402.059420,1072.533697
2928.889132,0.000000,-8290.306550,-1302.362347
2928.889460,888.247130,-12731.542202,-2834.553343
2928.889788,-1258.350101,-12139.377449,-842.705048
2928.890115,-1702.473667,-7402.059420,842.705048
2928.890443,518.144159,-7698.141797,-536.266849
2928.890771,2590.720797,-12805.562797,-995.924147
2928.891098,1850.514855,-12435.459826,842.705048
2928.891426,1480.411884,-7624.121203,1532.190996
2928.891754,1480.411884,-6883.915261,1072.533697
2928.892081,1776.494261,-10288.862594,229.828649
2928.892409,-592.164754,-11769.274478,1072.533697
2928.892737,-1554.432478,-7698.141797,1378.971896
2928.893064,-370.102971,-5329.482782,153.219100
2928.893392,1628.453072,-9030.512492,-995.924147
2928.893720,296.082377,-12065.356855,0.000000
2928.894047,-592.164754,-9178.553681,1455.581446
2928.894375,0.000000,-6365.771101,-612.876398
2928.894703,1036.288319,-9548.656652,-1608.800546
2928.895030,962.267725,-12139.377449,-919.314598
2928.895358,-888.247130,-9844.739029,1915.238745
2928.895686,-666.185348,-6957.935855,2374.896044
2928.896013,2072.576638,-9548.656652,-766.095498
2928.896341,1702.473667,-13027.624579,-1302.362347
2928.896668,222.061783,-11769.274478,306.438199
2928.896996,0.000000,-7254.018232,229.828649
2928.897324,1406.391290,-8660.409521,-1149.143247
2928.897651,1184.329507,-11991.336260,-1685.410096
2928.897979,-222.061783,-13027.624579,229.828649
2928.898307,-1110.308913,-8216.285956,612.876398
2928.898634,1036.288319,-7846.182985,-1532.190996
2928.898962,3256.906145,-11991.336260,-1685.410096
2928.899290,1850.514855,-11473.192101,-612.876398
2928.899617,-148.041188,-8660.409521,1149.143247
2928.899945,0.000000,-7772.162391,76.609550
2928.900273,1554.432478,-10288.862594,-1225.752797
2928.900600,-148.041188,-10955.047942,-766.095498
2928.900928,-2960.823768,-8438.347739,1072.533697
2928.901256,-2516.700203,-7179.997637,229.828649
2928.901583,296.082377,-11029.068536,-1532.190996
2928.901911,518.144159,-13471.748144,-1149.143247
2928.902239,-666.185348,-9992.780217,689.485948
2928.902566,0.000000,-5995.668130,1455.581446
2928.902894,2072.576638,-8808.450710,-306.438199
2928.903222,1480.411884,-11917.315666,-383.047749
2928.903549,-444.123565,-10658.965565,919.314598
2928.903877,-1110.308913,-6069.688724,1072.533697
2928.904205,74.020594,-6661.853478,-536.266849
2928.904532,888.247130,-11843.295072,-1302.362347
2928.904860,-518.144159,-11473.192101,-153.219100
2928.905188,-1776.494261,-7179.997637,76.609550
2928.905515,666.185348,-7550.100608,-2451.505594
2928.905843,1850.514855,-12065.356855,-1915.238745
2928.906171,74.020594,-11621.233289,1149.143247
2928.906498,-1258.350101,-7179.997637,2987.772442
2928.906826,148.041188,-7105.977043,1225.752797
2928.907154,2738.761985,-12361.439231,-1455.581446
2928.907481,1480.411884,-12435.459826,-995.924147
2928.907809,-1036.288319,-8660.409521,153.219100
2928.908137,0.000000,-7698.141797,-383.047749
2928.908464,2146.597232,-11399.171507,-1608.800546
2928.908792,1258.350101,-14137.933492,-766.095498
2928.909120,-888.247130,-11251.130318,612.876398
2928.909447,0.000000,-7105.977043,-689.485948
2928.909775,2072.576638,-9696.697840,-2374.896044
2928.910102,1628.453072,-11843.295072,-1838.629195
2928.910430,-444.123565,-8956.491898,842.705048
2928.910758,-592.164754,-5995.668130,1838.629195
2928.911085,1628.453072,-7698.141797,153.219100
2928.911413,1628.453072,-11103.089130,76.609550
2928.911741,-1110.308913,-9770.718434,1762.019645
2928.912068,-2220.617826,-6735.874072,1302.362347
2928.912396,-296.082377,-8364.327145,-459.657299
2928.912724,1406.391290,-12953.603985,-2374.896044
2928.913051,74.020594,-12879.583391,-612.876398
2928.913379,0.000000,-8734.430116,536.266849
2928.913707,2220.617826,-8808.450710,0.000000
2928.914034,3034.844362,-12509.480420,-1455.581446
2928.914362,666.185348,-12731.542202,919.314598
2928.914690,-1332.370696,-7698.141797,1915.238745
2928.915017,-148.041188,-4737.318029,689.485948
2928.915345,1850.514855,-8586.388927,-1455.581446
2928.915673,1406.391290,-11473.192101,-459.657299
2928.916000,-1702.473667,-8808.450710,1685.410096
2928.916328,-1776.494261,-5921.647536,383.047749
2928.916656,1258.350101,-7994.224174,-1685.410096
2928.916983,962.267725,-11695.253884,-2451.505594
2928.917311,-1776.494261,-10140.821405,1302.362347
2928.917639,-2516.700203,-7920.203579,1838.629195
2928.917966,370.102971,-10288.862594,-995.924147
2928.918294,2664.741391,-14063.912898,-2451.505594
2928.918622,1110.308913,-13545.768739,-689.485948
2928.918949,962.267725,-9178.553681,842.705048
2928.919277,1776.494261,-8512.368333,0.000000
2928.919605,2368.659014,-12805.562797,-1302.362347
2928.919932,-296.082377,-12213.398043,-766.095498
2928.920260,-2294.638420,-7328.038826,76.609550
2928.920587,-1332.370696,-6217.729913,-612.876398
2928.920915,666.185348,-9992.780217,-995.924147
2928.921242,0.000000,-12287.418637,-766.095498
2928.921570,-1110.308913,-8216.285956,1225.752797
2928.921898,-518.144159,-5551.544565,766.095498
2928.922225,1924.535449,-9474.636058,-1455.581446
2928.922553,1036.288319,-12657.521608,0.000000
2928.922880,-2368.659014,-9252.574275,1762.019645
2928.923208,-1480.411884,-6291.750507,-383.047749
2928.923535,1258.350101,-10140.821405,-2298.286494
2928.923863,1184.329507,-14063.912898,-1378.971896
2928.924190,-666.185348,-11177.109724,766.095498
2928.924518,-370.102971,-7624.121203,383.047749
2928.924846,1924.535449,-10140.821405,-1302.362347
2928.925173,2294.638420,-13027.624579,-1685.410096
2928.925501,-296.082377,-9770.718434,689.485948
2928.925828,-814.226536,-5033.400406,1991.848295
2928.926156,1776.494261,-6809.894666,1225.752797
2928.926483,1480.411884,-9992.780217,0.000000
2928.926811,-888.247130,-10436.903782,1225.752797
2928.927138,-2368.659014,-6587.832884,1455.581446
2928.927466,0.000000,-6217.729913,-1532.190996
2928.927794,2072.576638,-11103.089130,-2221.676944
2928.928121,962.267725,-12583.501014,-689.485948
2928.928449,-888.247130,-8660.409521,1149.143247
2928.928776,888.247130,-8216.285956,0.000000
2928.929104,2590.720797,-13027.624579,-1991.848295
2928.929431,1480.411884,-13767.830521,-1685.410096
2928.929759,-296.082377,-8660.409521,306.438199
2928.930087,814.226536,-6883.915261,229.828649
2928.930414,2590.720797,-11029.068536,-1991.848295
2928.930742,1258.350101,-13471.748144,0.000000
2928.931069,-962.267725,-10214.842000,1455.581446
2928.931397,-1258.350101,-5995.668130,536.266849
2928.931724,1184.329507,-8290.306550,-1762.019645
2928.932052,1184.329507,-11917.315666,-1378.971896
2928.932379,-1332.370696,-10066.800811,766.095498
2928.932707,-740.205942,-6735.874072,536.266849
2928.933035,1332.370696,-7476.080014,-1225.752797
2928.933362,1998.556043,-11325.150913,-1225.752797
2928.933690,-370.102971,-10732.986159,995.924147
2928.934017,-1850.514855,-7698.141797,1225.752797
2928.934345,814.226536,-9104.533087,-1608.800546
2928.934672,2442.679609,-12953.603985,-2374.896044
2928.935000,666.185348,-12213.398043,0.000000
2928.935328,-518.144159,-7994.224174,2451.505594
2928.935655,1332.370696,-9252.574275,1149.143247
2928.935983,1258.350101,-11769.274478,-842.705048
2928.936310,-962.267725,-12287.418637,-766.095498
2928.936638,-2590.720797,-7698.141797,536.266849
2928.936965,-962.267725,-5033.400406,76.609550
2928.937293,814.226536,-8660.409521,-612.876398
2928.937620,444.123565,-11177.109724,383.047749
2928.937948,-1776.494261,-7846.182985,1532.190996
2928.938276,-1406.391290,-6217.729913,0.000000
2928.938603,0.000000,-9178.553681,-2528.115143
2928.938931,-814.226536,-12361.439231,-2528.115143
2928.939258,-2294.638420,-9992.780217,-153.219100
2928.939586,-296.082377,-8882.471304,-995.924147
2928.939913,2368.659014,-10881.027347,-1225.752797
2928.940241,3701.029710,-14211.954086,-766.095498
2928.940568,1702.473667,-12361.439231,1991.848295
2928.940896,1036.288319,-8068.244768,1532.190996
2928.941224,1850.514855,-9030.512492,-919.314598
2928.941551,1184.329507,-12805.562797,-1762.019645
2928.941879,-1850.514855,-11103.089130,-842.705048
2928.942206,-1628.453072,-6217.729913,612.876398
2928.942534,0.000000,-6883.915261,0.000000
2928.942861,1776.494261,-11843.295072,76.609550
2928.943189,1406.391290,-12509.480420,766.095498
2928.943517,-296.082377,-8734.430116,766.095498
2928.943844,962.267725,-6735.874072,-1455.581446
2928.944172,1998.556043,-9400.615463,-2681.334243
2928.944499,148.041188,-10510.924376,-229.828649
2928.944827,-1998.556043,-7624.121203,1915.238745
2928.945154,-740.205942,-6661.853478,1072.533697
2928.945482,1998.556043,-10807.006753,-383.047749
2928.945809,2368.659014,-13545.768739,0.000000
2928.946137,444.123565,-10066.800811,995.924147
2928.946465,814.226536,-7105.977043,76.609550
2928.946792,1406.391290,-9844.739029,-1225.752797
2928.947120,1036.288319,-12879.583391,-919.314598
2928.947447,-592.164754,-10140.821405,536.266849
2928.947775,-296.082377,-6587.832884,1302.362347
2928.948102,1998.556043,-8216.285956,-306.438199
2928.948430,2516.700203,-12213.398043,-1072.533697
2928.948758,74.020594,-11103.089130,995.924147
2928.949085,-1258.350101,-7179.997637,229.828649
2928.949413,74.020594,-6069.688724,-2145.067394
2928.949740,1776.494261,-9844.739029,-2911.162892
2928.950068,-888.247130,-10881.027347,459.657299
2928.950395,-2220.617826,-7550.100608,2911.162892
2928.950723,148.041188,-6957.935855,766.095498
2928.951050,2590.720797,-11991.336260,-1378.971896
2928.951378,1110.308913,-13027.624579,-919.314598
2928.951706,-814.226536,-9770.718434,689.485948
2928.952033,666.185348,-8660.409521,-306.438199
2928.952361,2294.638420,-12287.418637,-1762.019645
2928.952688,1184.329507,-13915.871710,-1455.581446
2928.953016,-962.267725,-10362.883188,1225.752797
2928.953343,0.000000,-7624.121203,766.095498
2928.953671,2072.576638,-9474.636058,-1072.533697
2928.953998,740.205942,-11843.295072,-1072.533697
2928.954326,-1998.556043,-9252.574275,76.609550
2928.954654,-2146.597232,-5107.421000,0.000000
2928.954981,74.020594,-6809.894666,-1378.971896
2928.955309,148.041188,-10658.965565,0.000000
2928.955636,-1628.453072,-10658.965565,2528.115143
2928.955964,-2368.659014,-5995.668130,1762.019645
2928.956291,296.082377,-8068.244768,-842.705048
2928.956619,1702.473667,-12657.521608,-1455.581446
2928.956947,222.061783,-11843.295072,0.000000
2928.957274,-1110.308913,-8734.430116,612.876398
2928.957602,444.123565,-9622.677246,-612.876398
2928.957929,1998.556043,-12065.356855,-2298.286494
2928.958257,296.082377,-12731.542202,-1455.581446
2928.958584,-1332.370696,-9326.594869,229.828649
2928.958912,148.041188,-7328.038826,0.000000
2928.959239,2294.638420,-9918.759623,-1149.143247
2928.959567,370.102971,-11325.150913,-153.219100
2928.959895,-1480.411884,-8216.285956,1378.971896
2928.960222,-666.185348,-5181.441594,229.828649
2928.960550,1406.391290,-7846.182985,-1762.019645
2928.960877,-592.164754,-11103.089130,-612.876398
2928.961205,-2146.597232,-9770.718434,1455.581446
2928.961532,-1110.308913,-7105.977043,229.828649
2928.961860,2220.617826,-10436.903782,-1915.238745
2928.962188,2886.803174,-13693.809927,-1072.533697
2928.962515,1776.494261,-11991.336260,919.314598
2928.962843,1628.453072,-7550.100608,919.314598
2928.963170,3034.844362,-9326.594869,-842.705048
2928.963498,2368.659014,-13915.871710,-1455.581446
2928.963825,370.102971,-12657.521608,229.828649
2928.964153,-1036.288319,-7031.956449,842.705048
2928.964480,518.144159,-6735.874072,-766.095498
2928.964808,1480.411884,-11695.253884,-842.705048
2928.965136,-296.082377,-11399.171507,766.095498
2928.965463,-1924.535449,-5921.647536,1838.629195
2928.965791,296.082377,-5403.503377,-306.438199
2928.966118,2368.659014,-9918.759623,-1302.362347
2928.966446,518.144159,-11473.192101,306.438199
2928.966773,-1702.473667,-8438.347739,2374.896044
2928.967101,0.000000,-6957.935855,383.047749
2928.967428,3256.906145,-10955.047942,-2451.505594
2928.967756,2516.700203,-13249.686362,-1149.143247
2928.968084,0.000000,-9918.759623,995.924147
2928.968411,814.226536,-8290.306550,0.000000
2928.968739,2590.720797,-11917.315666,-1838.629195
2928.969066,444.123565,-13471.748144,-1225.752797
2928.969394,-1258.350101,-9696.697840,459.657299
2928.969721,-518.144159,-5699.585753,995.924147
2928.970049,1480.411884,-8956.491898,612.876398
2928.970377,1036.288319,-12287.418637,306.438199
2928.970704,-1480.411884,-9178.553681,1072.533697
2928.971032,-2516.700203,-5403.503377,0.000000
2928.971359,-518.144159,-6957.935855,-1685.410096
2928.971687,518.144159,-11177.109724,-1915.238745
2928.972014,-2220.617826,-11547.212695,919.314598
2928.972342,-3701.029710,-7920.203579,1225.752797
2928.972669,-740.205942,-8068.244768,-2298.286494
2928.972997,1406.391290,-13027.624579,-3370.820191
2928.973325,1036.288319,-13915.871710,-1302.362347
2928.973652,-296.082377,-10214.842000,1378.971896
2928.973980,1480.411884,-8512.368333,689.485948
2928.974307,3404.947333,-12139.377449,-1225.752797
2928.974635,1628.453072,-11621.233289,612.876398
2928.974962,-1406.391290,-7698.141797,2068.457845
2928.975290,-814.226536,-6439.791695,1302.362347
2928.975618,444.123565,-9622.677246,-1378.971896
2928.975945,-444.123565,-10288.862594,-2145.067394
2928.976273,-1850.514855,-8142.265362,0.000000
2928.976600,-888.247130,-6587.832884,612.876398
2928.976928,2220.617826,-8956.491898,0.000000
2928.977255,1480.411884,-12435.459826,383.047749
2928.977583,-740.205942,-10140.821405,1532.190996
2928.977910,-592.164754,-5995.668130,306.438199
2928.978238,2368.659014,-7550.100608,-1455.581446
2928.978566,2220.617826,-11917.315666,-612.876398
2928.978893,444.123565,-12065.356855,1302.362347
2928.979221,0.000000,-7698.141797,1455.581446
2928.979548,2072.576638,-9030.512492,-1302.362347
2928.979876,2220.617826,-13027.624579,-1915.238745
2928.980203,888.247130,-12213.398043,306.438199
2928.980531,74.020594,-7846.182985,1149.143247
2928.980858,370.102971,-7105.977043,229.828649
2928.981186,2368.659014,-11325.150913,-1072.533697
2928.981514,1036.288319,-12213.398043,459.657299
2928.981841,-1184.329507,-7550.100608,1302.362347
2928.982169,-296.082377,-6587.832884,-536.266849
2928.982496,1258.350101,-10066.800811,-2068.457845
2928.982824,0.000000,-11547.212695,-1149.143247
2928.983151,-962.267725,-9104.533087,1378.971896
2928.983479,0.000000,-7476.080014,-306.438199
2928.983807,3182.885551,-10658.965565,-1685.410096
2928.984134,3256.906145,-13249.686362,-689.485948
2928.984462,444.123565,-10436.903782,1455.581446
2928.984789,222.061783,-7105.977043,1149.143247
2928.985117,1850.514855,-8438.347739,-689.485948
2928.985444,814.226536,-12657.521608,-689.485948
2928.985772,-888.247130,-11103.089130,383.047749
2928.986099,-814.226536,-7698.141797,689.485948
2928.986427,1554.432478,-9548.656652,-842.705048
2928.986755,1332.370696,-12583.501014,-459.657299
2928.987082,-1184.329507,-11251.130318,306.438199
2928.987410,-1998.556043,-6809.894666,-229.828649
2928.987737,-222.061783,-6957.935855,-2221.676944
2928.988065,0.000000,-9918.759623,-1685.410096
2928.988392,-1480.411884,-10658.965565,383.047749
2928.988720,-2294.638420,-8364.327145,1838.629195
2928.989048,370.102971,-7328.038826,-306.438199
2928.989375,2442.679609,-11177.109724,-1225.752797
2928.989703,888.247130,-12361.439231,229.828649
2928.990030,-1036.288319,-8882.471304,2528.115143
2928.990358,74.020594,-7698.141797,-229.828649
2928.990685,740.205942,-9622.677246,-1991.848295
2928.991013,592.164754,-12805.562797,-919.314598
2928.991340,-1332.370696,-10214.842000,1532.190996
2928.991668,-888.247130,-7698.141797,919.314598
2928.991996,1850.514855,-11251.130318,-919.314598
2928.992323,2368.659014,-12953.603985,-2298.286494
2928.992651,-1036.288319,-9252.574275,306.438199
2928.992978,-1480.411884,-6217.729913,689.485948
2928.993306,0.000000,-7254.018232,-919.314598
2928.993633,518.144159,-11473.192101,-995.924147
2928.993961,-1332.370696,-11325.150913,842.705048
2928.994288,-2812.782580,-6883.915261,1302.362347
2928.994616,148.041188,-7105.977043,-1225.752797
2928.994944,2368.659014,-12583.501014,-1762.019645
2928.995271,296.082377,-12213.398043,689.485948
2928.995599,-296.082377,-8290.306550,1455.581446
2928.995926,2072.576638,-7698.141797,0.000000
2928.996254,3478.967927,-11399.171507,-1225.752797
2928.996581,2146.597232,-12731.542202,536.266849
2928.996909,296.082377,-8364.327145,1149.143247
2928.997237,0.000000,-5403.503377,-459.657299
2928.997564,2294.638420,-10658.965565,-1762.019645
2928.997892,1332.370696,-12731.542202,-1302.362347
2928.998219,-1258.350101,-8512.368333,0.000000
2928.998547,-1036.288319,-6661.853478,0.000000
2928.998874,1480.411884,-9326.594869,-1915.238745
2928.999202,666.185348,-12361.439231,-459.657299
2928.999529,-2368.659014,-8956.491898,1072.533697
2928.999857,-1702.473667,-5329.482782,689.485948
2929.000185,1702.473667,-8586.388927,-766.095498
2929.000512,2738.761985,-12953.603985,0.000000
2929.000840,222.061783,-11325.150913,1608.800546
2929.001167,0.000000,-7550.100608,766.095498
2929.001495,2590.720797,-9326.594869,-2145.067394
2929.001822,2886.803174,-12805.562797,-2221.676944
2929.002150,962.267725,-12065.356855,229.828649
2929.002478,-296.082377,-8808.450710,689.485948
2929.002805,1110.308913,-9030.512492,-842.705048
2929.003133,2738.761985,-13101.645173,-1838.629195
2929.003460,296.082377,-12213.398043,612.876398
2929.003788,-2442.679609,-6365.771101,2145.067394
2929.004115,-1110.308913,-5847.626942,229.828649
2929.004443,1258.350101,-10140.821405,-1149.143247
2929.004770,-1036.288319,-11843.295072,0.000000
2929.005098,-3034.844362,-7920.203579,1455.581446
2929.005426,-1702.473667,-4959.379811,536.266849
2929.005753,666.185348,-9548.656652,-1378.971896
2929.006081,0.000000,-13767.830521,0.000000
2929.006408,-1924.535449,-10658.965565,306.438199
2929.006736,-888.247130,-6957.935855,-995.924147
2929.007063,2812.782580,-10955.047942,-2911.162892
2929.007391,2368.659014,-14656.077652,-1455.581446
2929.007718,0.000000,-11473.192101,1838.629195
2929.008046,-296.082377,-6291.750507,2068.457845
2929.008374,1184.329507,-7328.038826,229.828649
2929.008701,962.267725,-11325.150913,-1378.971896
2929.009029,-1332.370696,-9474.636058,612.876398
2929.009356,-3034.844362,-4737.318029,919.314598
2929.009684,-814.226536,-6069.688724,-1072.533697
2929.010011,370.102971,-11325.150913,-1685.410096
2929.010339,-1036.288319,-12509.480420,383.047749
2929.010667,-1702.473667,-8216.285956,1532.190996
2929.010994,1702.473667,-8660.409521,-536.266849
2929.011322,3923.091493,-13027.624579,-1762.019645
2929.011649,1480.411884,-13175.665768,0.000000
2929.011977,-666.185348,-8882.471304,842.705048
2929.012304,888.247130,-6957.935855,-919.314598
2929.012632,2960.823768,-10955.047942,-2221.676944
2929.012959,1036.288319,-13471.748144,0.000000
2929.013287,-2072.576638,-9622.677246,1608.800546
2929.013615,-592.164754,-6439.791695,-306.438199
2929.013942,1184.329507,-9252.574275,-2374.896044
2929.014270,1776.494261,-12361.439231,-1378.971896
2929.014597,-222.061783,-9770.718434,1608.800546
2929.014925,148.041188,-4959.379811,1762.019645
2929.015252,2738.761985,-7920.203579,-229.828649
2929.015580,2960.823768,-13989.892304,-612.876398
2929.015908,0.000000,-11917.315666,1762.019645
2929.016235,-1702.473667,-7105.977043,919.314598
2929.016563,370.102971,-8808.450710,-1532.190996
2929.016890,1480.411884,-13323.706956,-2757.943793
2929.017218,74.020594,-12287.418637,-919.314598
2929.017545,296.082377,-7698.141797,0.000000
2929.017873,2368.659014,-7328.038826,-995.924147
2929.018200,3923.091493,-11473.192101,0.000000
2929.018528,740.205942,-11251.130318,1991.848295
2929.018856,-3034.844362,-7328.038826,2757.943793
2929.019183,-740.205942,-5995.668130,-459.657299
2929.019511,1924.535449,-9622.677246,-2757.943793
2929.019838,1036.288319,-11473.192101,-229.828649
2929.020166,-370.102971,-8586.388927,1915.238745
2929.020493,592.164754,-7105.977043,1455.581446
2929.020821,1628.453072,-9622.677246,-1915.238745
2929.021149,-666.185348,-12953.603985,-1608.800546
2929.021475,-3182.885551,-9696.697840,-229.828649
2929.021803,-2368.659014,-6587.832884,-766.095498
2929.022130,222.061783,-10807.006753,-1838.629195
2929.022458,1110.308913,-13693.809927,-1072.533697
2929.022785,0.000000,-11325.150913,1378.971896
2929.023113,1036.288319,-8512.368333,919.314598
2929.023441,2294.638420,-9474.636058,-1072.533697
2929.023768,814.226536,-12139.377449,-1915.238745
2929.024096,-2442.679609,-9918.759623,-153.219100
2929.024423,-2812.782580,-6439.791695,76.609550
2929.024751,-740.205942,-7476.080014,-1149.143247
2929.025079,1258.350101,-11695.253884,-995.924147
2929.025406,-222.061783,-12139.377449,919.314598
2929.025734,-592.164754,-9400.615463,383.047749
2929.026061,592.164754,-7920.203579,-1991.848295
2929.026389,962.267725,-10955.047942,-2757.943793
2929.026716,-962.267725,-11399.171507,-536.266849
2929.027044,-1480.411884,-7328.038826,1149.143247
2929.027372,0.000000,-6513.812290,919.314598
2929.027699,1480.411884,-12065.356855,-536.266849
2929.028027,444.123565,-14211.954086,0.000000
2929.028354,-370.102971,-10140.821405,306.438199
2929.028682,814.226536,-7328.038826,-1302.362347
2929.029010,2442.679609,-10066.800811,-2374.896044
2929.029337,814.226536,-12361.439231,459.657299
2929.029665,-1184.329507,-10288.862594,2528.115143
2929.029992,-296.082377,-6439.791695,1225.752797
2929.030320,2072.576638,-7476.080014,-383.047749
2929.030647,1998.556043,-10288.862594,0.000000
2929.030975,-296.082377,-9474.636058,1915.238745
2929.031303,-518.144159,-5847.626942,919.314598
2929.031630,2146.597232,-7698.141797,-1915.238745
2929.031958,1406.391290,-12139.377449,-2145.067394
2929.032285,-370.102971,-11843.295072,229.828649
2929.032613,-1258.350101,-7624.121203,1608.800546
2929.032940,1110.308913,-8438.347739,-383.047749
2929.033268,2294.638420,-13693.809927,-1378.971896
2929.033596,962.267725,-12213.398043,0.000000
2929.033923,592.164754,-7254.018232,153.219100
2929.034251,2072.576638,-7550.100608,-153.219100
2929.034578,1998.556043,-12213.398043,-995.924147
2929.034906,-592.164754,-11917.315666,612.876398
2929.035234,-2738.761985,-7254.018232,1455.581446
2929.035561,-1554.432478,-6143.709319,-383.047749
2929.035889,2146.597232,-10436.903782,-2451.505594
2929.036216,1998.556043,-13323.706956,-1225.752797
2929.036544,-222.061783,-10140.821405,1072.533697
2929.036871,0.000000,-7179.997637,-229.828649
2929.037199,1702.473667,-10140.821405,-2528.115143
2929.037527,74.020594,-12213.398043,-1532.190996
2929.037854,-2664.741391,-9400.615463,1149.143247
2929.038182,-1998.556043,-6291.750507,1302.362347
2929.038509,1184.329507,-9030.512492,-536.266849
2929.038837,1702.473667,-13323.706956,-766.095498
2929.039164,0.000000,-11473.192101,842.705048
2929.039492,-592.164754,-6587.832884,1072.533697
2929.039820,592.164754,-8290.306550,-842.705048
2929.040147,740.205942,-12805.562797,-1532.190996
2929.040475,-1258.350101,-12213.398043,0.000000
2929.040802,-1480.411884,-7698.141797,766.095498
2929.041130,740.205942,-7031.956449,-229.828649
2929.041458,2960.823768,-11843.295072,-536.266849
2929.041785,1110.308913,-11695.253884,1302.362347
2929.042113,-1924.535449,-6957.935855,2451.505594
2929.042440,-1258.350101,-5477.523971,-306.438199
2929.042768,0.000000,-9030.512492,-2987.772442
2929.043095,-1554.432478,-11251.130318,-1072.533697
2929.043423,-2664.741391,-7254.018232,1685.410096
2929.043751,-1036.288319,-6069.688724,919.314598
2929.044078,1406.391290,-11251.130318,-536.266849
2929.044406,2294.638420,-14582.057057,-306.438199
2929.044733,1184.329507,-11103.089130,536.266849
2929.045061,1850.514855,-7550.100608,0.000000
2929.045388,2960.823768,-9252.574275,-766.095498
2929.045716,1554.432478,-12953.603985,-306.438199
2929.046044,-888.247130,-10584.944971,383.047749
2929.046371,-962.267725,-7105.977043,229.828649
2929.046699,740.205942,-8216.285956,-1378.971896
2929.047026,1924.535449,-12509.480420,-1915.238745
2929.047354,-370.102971,-11177.109724,383.047749
2929.047682,-1998.556043,-6661.853478,306.438199
2929.048009,222.061783,-5551.544565,-2068.457845
2929.048337,2072.576638,-9770.718434,-2451.505594
2929.048664,0.000000,-11251.130318,766.095498
2929.048992,-962.267725,-8660.409521,3064.381992
2929.049319,1036.288319,-7698.141797,1072.533697
2929.049647,2886.803174,-11917.315666,-1455.581446
2929.049975,2146.597232,-14285.974681,-766.095498
2929.050302,888.247130,-10732.986159,306.438199
2929.050630,1776.494261,-8586.388927,-153.219100
2929.050957,3256.906145,-10807.006753,-1608.800546
2929.051285,1998.556043,-13175.665768,0.000000
2929.051613,-592.164754,-9474.636058,2145.067394
2929.051940,-444.123565,-5921.647536,1991.848295
2929.052268,888.247130,-7179.997637,-383.047749
2929.052595,-666.185348,-10288.862594,-842.705048
2929.052923,-4219.173869,-8956.491898,536.266849
2929.053250,-3775.050304,-5773.606348,-229.828649
2929.053578,148.041188,-6069.688724,-2834.553343
2929.053906,2812.782580,-11769.274478,-2145.067394
2929.054233,222.061783,-12731.542202,2604.724693
2929.054561,-592.164754,-9104.533087,2681.334243
2929.054888,1702.473667,-8512.368333,-306.438199
2929.055216,2146.597232,-11843.295072,-3217.601092
2929.055543,-1036.288319,-12731.542202,-689.485948
2929.055871,-1184.329507,-8438.347739,1149.143247
2929.056199,962.267725,-8290.306550,-229.828649
2929.056526,2294.638420,-12583.501014,-766.095498
2929.056854,814.226536,-13841.851115,-1072.533697
2929.057181,-1332.370696,-9178.553681,153.219100
2929.057509,-222.061783,-6883.915261,-1685.410096
2929.057837,518.144159,-9400.615463,-3294.210641
2929.058164,-444.123565,-11843.295072,-1302.362347
2929.058492,-2664.741391,-9252.574275,1685.410096
2929.058819,-1036.288319,-6439.791695,153.219100
2929.059147,2442.679609,-9474.636058,-1608.800546
