#time,accel_x,accel_y,accel_z
2608.154877,-370.102971,-9770.718434,-536.266849
2608.155205,444.123565,-9992.780217,0.000000
2608.155532,666.185348,-9474.636058,536.266849
2608.155860,444.123565,-9474.636058,0.000000
2608.156187,370.102971,-9326.594869,153.219100
2608.156515,444.123565,-9252.574275,0.000000
2608.156842,0.000000,-9178.553681,76.609550
2608.157169,0.000000,-8512.368333,-459.657299
2608.157497,74.020594,-8956.491898,76.609550
2608.157824,-296.082377,-9400.615463,-612.876398
2608.158152,0.000000,-9696.697840,-459.657299
2608.158479,0.000000,-10140.821405,-842.705048
2608.158807,444.123565,-10288.862594,-459.657299
2608.159134,666.185348,-10214.842000,-229.828649
2608.159462,888.247130,-10066.800811,0.000000
2608.159789,888.247130,-9770.718434,0.000000
2608.160117,592.164754,-9474.636058,-306.438199
2608.160444,518.144159,-9400.615463,-689.485948
2608.160772,148.041188,-9548.656652,-459.657299
2608.161099,148.041188,-9474.636058,-459.657299
2608.161426,148.041188,-9696.697840,-689.485948
2608.161754,370.102971,-9474.636058,-459.657299
2608.162081,592.164754,-9844.739029,-766.095498
2608.162409,740.205942,-10066.800811,-536.266849
2608.162736,518.144159,-9992.780217,-306.438199
2608.163064,592.164754,-10362.883188,0.000000
2608.163391,666.185348,-10066.800811,229.828649
2608.163719,592.164754,-9622.677246,229.828649
2608.164046,296.082377,-9400.615463,0.000000
2608.164374,0.000000,-9252.574275,612.876398
2608.164701,0.000000,-9326.594869,0.000000
2608.165028,-592.164754,-9326.594869,0.000000
2608.165356,-296.082377,-9474.636058,-383.047749
2608.165683,0.000000,-9474.636058,-306.438199
2608.166011,0.000000,-9474.636058,76.609550
2608.166338,222.061783,-9696.697840,689.485948
2608.166666,444.123565,-9548.656652,612.876398
2608.166993,518.144159,-9548.656652,153.219100
2608.167321,296.082377,-9178.553681,536.266849
2608.167648,296.082377,-9474.636058,306.438199
2608.167976,222.061783,-9104.533087,0.000000
2608.168303,0.000000,-9030.512492,0.000000
2608.168630,0.000000,-9030.512492,0.000000
2608.168958,0.000000,-9696.697840,612.876398
2608.169285,0.000000,-9326.594869,-842.705048
2608.169613,740.205942,-9844.739029,-766.095498
2608.169940,1554.432478,-9770.718434,-383.047749
2608.170268,2516.700203,-9992.780217,0.000000
2608.170595,3404.947333,-9844.739029,-306.438199
2608.170923,4515.256246,-9400.615463,-306.438199
2608.171250,4885.359217,-9696.697840,-229.828649
2608.171578,5181.441594,-9548.656652,0.000000
2608.171905,5847.626942,-9178.553681,-919.314598
2608.172233,6513.812290,-9918.759623,-689.485948
2608.172560,7105.977043,-10510.924376,-919.314598
2608.172887,7698.141797,-10807.006753,-689.485948
2608.173215,7994.224174,-11177.109724,0.000000
2608.173542,9104.533087,-9622.677246,229.828649
2608.173870,9992.780217,-9622.677246,0.000000
2608.174197,10288.862594,-9770.718434,0.000000
2608.174525,11029.068536,-9030.512492,459.657299
2608.174852,12287.418637,-8808.450710,229.828649
2608.175180,11991.336260,-9400.615463,842.705048
2608.175507,11325.150913,-9844.739029,689.485948
2608.175835,10955.047942,-8290.306550,383.047749
2608.176162,11399.171507,-9104.533087,-689.485948
2608.176489,11769.274478,-10214.842000,-536.266849
2608.176817,12509.480420,-10881.027347,-383.047749
2608.177144,12731.542202,-10732.986159,766.095498
2608.177472,12953.603985,-9992.780217,1225.752797
2608.177799,12361.439231,-8882.471304,1072.533697
2608.178127,11177.109724,-8734.430116,1532.190996
2608.178454,10362.883188,-8660.409521,1302.362347
2608.178782,9770.718434,-8142.265362,1072.533697
2608.179109,8660.409521,-9252.574275,689.485948
2608.179437,7698.141797,-10214.842000,536.266849
2608.179764,6513.812290,-9622.677246,766.095498
2608.180091,4737.318029,-8734.430116,766.095498
2608.180419,3627.009116,-9474.636058,0.000000
2608.180746,3034.844362,-9770.718434,-306.438199
2608.181074,2812.782580,-9252.574275,-612.876398
2608.181401,3404.947333,-9030.512492,-536.266849
2608.181729,3849.070898,-9104.533087,229.828649
2608.182056,3330.926739,-9992.780217,383.047749
2608.182384,2442.679609,-9474.636058,76.609550
2608.182711,2072.576638,-9770.718434,-459.657299
2608.183039,1998.556043,-9696.697840,-1225.752797
2608.183366,2368.659014,-11103.089130,-1762.019645
2608.183694,1702.473667,-11473.192101,-536.266849
2608.184021,518.144159,-11325.150913,229.828649
2608.184348,-1332.370696,-11991.336260,995.924147
2608.184676,-3034.844362,-10658.965565,-229.828649
2608.185003,-4885.359217,-9252.574275,-1532.190996
2608.185331,-6661.853478,-7550.100608,-1378.971896
2608.185658,-5625.565159,-7179.997637,-1072.533697
2608.185986,-4441.235652,-7994.224174,-1072.533697
2608.186313,-2960.823768,-9252.574275,-383.047749
2608.186641,-2442.679609,-9770.718434,0.000000
2608.186968,-2590.720797,-10362.883188,-766.095498
2608.187296,-3256.906145,-10881.027347,-1532.190996
2608.187623,-3997.112087,-10066.800811,-2068.457845
2608.187950,-2960.823768,-9918.759623,-2451.505594
2608.188278,0.000000,-10658.965565,-1302.362347
2608.188605,2294.638420,-11251.130318,76.609550
2608.188933,1998.556043,-11029.068536,1149.143247
2608.189260,370.102971,-10510.924376,2374.896044
2608.189588,-1184.329507,-8216.285956,0.000000
2608.189915,-2146.597232,-6217.729913,-1685.410096
2608.190243,-2516.700203,-5255.462188,-919.314598
2608.190570,74.020594,-5995.668130,-536.266849
2608.190898,3775.050304,-8586.388927,459.657299
2608.191225,4737.318029,-10584.944971,2221.676944
2608.191552,3330.926739,-10658.965565,2374.896044
2608.191880,1406.391290,-10955.047942,229.828649
2608.192207,-370.102971,-10066.800811,-153.219100
2608.192535,0.000000,-10214.842000,-2604.724693
2608.192862,2294.638420,-11399.171507,-2987.772442
2608.193190,4293.194464,-10881.027347,-459.657299
2608.193517,4145.153275,-10510.924376,1608.800546
2608.193845,2516.700203,-9474.636058,2451.505594
2608.194172,148.041188,-7846.182985,1532.190996
2608.194500,-740.205942,-6809.894666,-1378.971896
2608.194827,518.144159,-7698.141797,-3064.381992
2608.195155,3627.009116,-8586.388927,-2681.334243
2608.195482,6809.894666,-10214.842000,383.047749
2608.195809,7105.977043,-11991.336260,3677.258390
2608.196137,5181.441594,-13175.665768,3677.258390
2608.196464,2886.803174,-12213.398043,1149.143247
2608.196792,814.226536,-11177.109724,-2221.676944
2608.197119,1110.308913,-10881.027347,-4136.915689
2608.197447,2220.617826,-11103.089130,-3064.381992
2608.197774,2368.659014,-11399.171507,0.000000
2608.198102,1554.432478,-11029.068536,1838.629195
2608.198429,-148.041188,-9548.656652,1762.019645
2608.198757,-2664.741391,-7179.997637,612.876398
2608.199084,-1850.514855,-6661.853478,-2068.457845
2608.199411,740.205942,-7328.038826,-1455.581446
2608.199739,2960.823768,-8882.471304,612.876398
2608.200066,4219.173869,-10955.047942,3524.039291
2608.200394,2590.720797,-12065.356855,4979.620737
2608.200721,-592.164754,-10732.986159,2528.115143
2608.201049,-3034.844362,-9622.677246,-1072.533697
2608.201376,-4367.215058,-10288.862594,-2911.162892
2608.201704,-3849.070898,-10066.800811,-3370.820191
2608.202031,-2146.597232,-9844.739029,-1302.362347
2608.202359,-2220.617826,-9844.739029,1608.800546
2608.202686,-3404.947333,-9030.512492,2298.286494
2608.203013,-4959.379811,-7402.059420,612.876398
2608.203341,-6217.729913,-5625.565159,-766.095498
2608.203668,-4737.318029,-5699.585753,-2298.286494
2608.203996,0.000000,-7328.038826,-1838.629195
2608.204323,2442.679609,-9400.615463,1149.143247
2608.204651,2368.659014,-11621.233289,4060.306139
2608.204978,296.082377,-11843.295072,3600.648841
2608.205306,-3034.844362,-10955.047942,459.657299
2608.205633,-4959.379811,-9844.739029,-2757.943793
2608.205961,-3627.009116,-10436.903782,-5898.935335
2608.206288,-1406.391290,-10510.924376,-4979.620737
2608.206615,740.205942,-10807.006753,-1991.848295
2608.206943,1036.288319,-11029.068536,1225.752797
2608.207270,0.000000,-9400.615463,1762.019645
2608.207598,-1332.370696,-7476.080014,306.438199
2608.207925,-1332.370696,-6661.853478,-1532.190996
2608.208253,1628.453072,-7476.080014,-3447.429741
2608.208580,5403.503377,-9474.636058,-2298.286494
2608.208908,6069.688724,-11029.068536,1685.410096
2608.209235,4367.215058,-12657.521608,3600.648841
2608.209563,1184.329507,-12731.542202,1915.238745
2608.209890,-1480.411884,-12065.356855,-1608.800546
2608.210218,-1628.453072,-11769.274478,-4903.011187
2608.210545,0.000000,-10881.027347,-5209.449386
2608.210872,3108.864956,-9844.739029,-2451.505594
2608.211200,4145.153275,-9474.636058,1225.752797
2608.211527,2960.823768,-9104.533087,3830.477490
2608.211855,1036.288319,-7105.977043,3447.429741
2608.212182,0.000000,-5699.585753,536.266849
2608.212510,2146.597232,-6735.874072,-1455.581446
2608.212837,3775.050304,-7105.977043,-383.047749
2608.213165,6291.750507,-9178.553681,1302.362347
2608.213492,5699.585753,-11769.274478,3600.648841
2608.213820,1850.514855,-12657.521608,3447.429741
2608.214147,-1036.288319,-12657.521608,459.657299
2608.214474,-2886.803174,-11251.130318,-2221.676944
2608.214802,-2072.576638,-10066.800811,-3907.087040
2608.215129,814.226536,-9474.636058,-3447.429741
2608.215457,2590.720797,-8808.450710,766.095498
2608.215784,2368.659014,-8364.327145,3983.696590
2608.216112,1184.329507,-8068.244768,3753.867940
2608.216439,-1036.288319,-6735.874072,2528.115143
2608.216767,-1184.329507,-6069.688724,-689.485948
2608.217094,1184.329507,-7476.080014,-2145.067394
2608.217422,2146.597232,-8734.430116,-766.095498
2608.217749,3256.906145,-11547.212695,1685.410096
2608.218076,1998.556043,-13175.665768,2987.772442
2608.218404,-2590.720797,-12213.398043,1302.362347
2608.218732,-5477.523971,-11843.295072,-1991.848295
2608.219059,-5255.462188,-10807.006753,-4903.011187
2608.219387,-4071.132681,-9474.636058,-5515.887586
2608.219715,-1332.370696,-9474.636058,-3447.429741
2608.220042,0.000000,-8956.491898,229.828649
2608.220370,-888.247130,-7698.141797,2834.553343
2608.220698,-2294.638420,-7179.997637,2145.067394
2608.221025,-3256.906145,-6957.935855,-383.047749
2608.221353,-2516.700203,-7476.080014,-2834.553343
2608.221681,740.205942,-9252.574275,-4060.306139
2608.222008,2590.720797,-11103.089130,-1532.190996
2608.222336,2146.597232,-12065.356855,1608.800546
2608.222663,370.102971,-12879.583391,2145.067394
2608.222991,-3034.844362,-11991.336260,536.266849
2608.223319,-4811.338623,-10807.006753,-2451.505594
2608.223646,-3701.029710,-9844.739029,-4903.011187
2608.223974,-2146.597232,-8660.409521,-4903.011187
2608.224302,-296.082377,-9030.512492,-2145.067394
2608.224629,1036.288319,-9030.512492,1225.752797
2608.224957,518.144159,-7920.203579,2987.772442
2608.225285,0.000000,-7772.162391,1991.848295
2608.225612,74.020594,-7328.038826,76.609550
2608.225940,2072.576638,-7476.080014,-1915.238745
2608.226268,4811.338623,-9770.718434,-2451.505594
2608.226595,5551.544565,-11843.295072,842.705048
2608.226923,4589.276840,-12805.562797,2911.162892
2608.227250,2146.597232,-11843.295072,3294.210641
2608.227578,-962.267725,-11177.109724,1378.971896
2608.227906,-1850.514855,-10510.924376,-2221.676944
2608.228233,-814.226536,-9178.553681,-4519.963438
2608.228561,1036.288319,-8512.368333,-2528.115143
2608.228889,2294.638420,-8734.430116,842.705048
2608.229216,2146.597232,-8660.409521,2911.162892
2608.229544,1110.308913,-7328.038826,3370.820191
2608.229872,0.000000,-7179.997637,1455.581446
2608.230199,1184.329507,-8216.285956,-766.095498
2608.230527,2664.741391,-8512.368333,-1991.848295
2608.230855,5255.462188,-9548.656652,-1149.143247
2608.231182,4441.235652,-12139.377449,1838.629195
2608.231510,2146.597232,-13175.665768,2681.334243
2608.231837,-888.247130,-11695.253884,1455.581446
2608.232165,-3330.926739,-10510.924376,-2145.067394
2608.232493,-2590.720797,-11177.109724,-4136.915689
2608.232820,-592.164754,-9770.718434,-4673.182538
2608.233148,1628.453072,-9400.615463,-1762.019645
2608.233476,2072.576638,-9252.574275,2604.724693
2608.233803,2146.597232,-8734.430116,3983.696590
2608.234131,888.247130,-7920.203579,2451.505594
2608.234459,-1036.288319,-6883.915261,229.828649
2608.234786,518.144159,-7476.080014,-2145.067394
2608.235114,3256.906145,-9326.594869,-2757.943793
2608.235442,4441.235652,-11325.150913,-612.876398
2608.235769,2368.659014,-12435.459826,2834.553343
2608.236097,-592.164754,-12139.377449,2145.067394
2608.236424,-4219.173869,-11029.068536,-842.705048
2608.236752,-5329.482782,-11103.089130,-3983.696590
2608.237080,-3849.070898,-10066.800811,-5362.668486
2608.237407,-2072.576638,-9178.553681,-3447.429741
2608.237735,-222.061783,-9622.677246,0.000000
2608.238063,0.000000,-8808.450710,2987.772442
2608.238390,-2220.617826,-5847.626942,3753.867940
2608.238718,-3108.864956,-5847.626942,1991.848295
2608.239046,-2886.803174,-6957.935855,-995.924147
2608.239373,-1184.329507,-7624.121203,-2604.724693
2608.239701,1406.391290,-9400.615463,-2221.676944
2608.240029,1702.473667,-12435.459826,919.314598
2608.240356,370.102971,-13545.768739,2145.067394
2608.240684,-2442.679609,-11325.150913,1532.190996
2608.241011,-4959.379811,-10510.924376,-1225.752797
2608.241339,-4367.215058,-10881.027347,-3830.477490
2608.241667,-1628.453072,-9696.697840,-4673.182538
2608.241994,370.102971,-9548.656652,-1915.238745
2608.242322,1110.308913,-9178.553681,1762.019645
2608.242650,1258.350101,-8068.244768,3907.087040
2608.242977,-888.247130,-7254.018232,2068.457845
2608.243305,-2072.576638,-6143.709319,0.000000
2608.243633,148.041188,-6217.729913,-2145.067394
2608.243960,3775.050304,-8586.388927,-2451.505594
2608.244288,6365.771101,-11547.212695,-383.047749
2608.244616,6439.791695,-13471.748144,2604.724693
2608.244943,3552.988522,-12879.583391,3983.696590
2608.245271,0.000000,-11843.295072,2374.896044
2608.245598,-1406.391290,-10510.924376,-2068.457845
2608.245926,-518.144159,-9696.697840,-4749.792088
2608.246254,962.267725,-9844.739029,-4060.306139
2608.246581,2442.679609,-10066.800811,-612.876398
2608.246909,2590.720797,-8808.450710,2681.334243
2608.247237,148.041188,-7105.977043,4290.134789
2608.247564,-1258.350101,-7846.182985,1302.362347
2608.247892,-444.123565,-7920.203579,-2068.457845
2608.248220,1332.370696,-7772.162391,-3524.039291
2608.248547,3627.009116,-10362.883188,-2451.505594
2608.248875,6809.894666,-13175.665768,842.705048
2608.249203,5107.421000,-12805.562797,4443.353888
2608.249530,296.082377,-11621.233289,4443.353888
2608.249858,-2220.617826,-11325.150913,0.000000
2608.250185,-2368.659014,-11621.233289,-3753.867940
2608.250513,-1480.411884,-9474.636058,-5056.230287
2608.250841,0.000000,-9770.718434,-3370.820191
2608.251168,1406.391290,-9400.615463,1149.143247
2608.251496,1480.411884,-8882.471304,3830.477490
2608.251824,0.000000,-7994.224174,3294.210641
2608.252151,-1850.514855,-6069.688724,766.095498
2608.252479,-518.144159,-6365.771101,-1455.581446
2608.252807,2072.576638,-8068.244768,-2681.334243
2608.253134,3701.029710,-9548.656652,-995.924147
2608.253462,3775.050304,-11399.171507,2374.896044
2608.253790,1554.432478,-11621.233289,4519.963438
2608.254117,-2368.659014,-11473.192101,1685.410096
2608.254445,-3997.112087,-12361.439231,-2374.896044
2608.254772,-3775.050304,-10584.944971,-4826.401637
2608.255100,-1850.514855,-10140.821405,-5515.887586
2608.255428,-296.082377,-11177.109724,-1991.848295
2608.255755,148.041188,-9474.636058,2145.067394
2608.256083,-592.164754,-7624.121203,3983.696590
2608.256411,-2368.659014,-6883.915261,1915.238745
2608.256738,-3330.926739,-6439.791695,-1378.971896
2608.257066,-1184.329507,-6957.935855,-2987.772442
2608.257394,1332.370696,-8512.368333,-2911.162892
2608.257721,2146.597232,-10436.903782,0.000000
2608.258049,2146.597232,-12509.480420,2757.943793
2608.258377,-814.226536,-12287.418637,2298.286494
2608.258704,-3330.926739,-12287.418637,0.000000
2608.259032,-3330.926739,-12879.583391,-3524.039291
2608.259359,-2072.576638,-11621.233289,-4979.620737
2608.259687,0.000000,-11325.150913,-3677.258390
2608.260015,1110.308913,-10807.006753,76.609550
2608.260342,1628.453072,-9326.594869,2451.505594
2608.260670,148.041188,-6957.935855,3447.429741
2608.260998,-1406.391290,-5847.626942,1532.190996
2608.261325,0.000000,-4811.338623,-459.657299
2608.261653,2146.597232,-5773.606348,-1838.629195
2608.261981,4441.235652,-9474.636058,-1225.752797
2608.262308,4811.338623,-11843.295072,1915.238745
2608.262636,3701.029710,-12657.521608,3830.477490
2608.262964,1332.370696,-12435.459826,2451.505594
2608.263291,-740.205942,-12213.398043,-229.828649
2608.263619,-1184.329507,-11843.295072,-3447.429741
2608.263946,666.185348,-10881.027347,-4826.401637
2608.264274,1110.308913,-10362.883188,-2374.896044
2608.264602,814.226536,-9400.615463,995.924147
2608.264929,-370.102971,-6661.853478,2911.162892
2608.265257,-1628.453072,-5477.523971,1838.629195
2608.265585,-2146.597232,-5773.606348,153.219100
2608.265912,0.000000,-5625.565159,-1991.848295
2608.266240,3775.050304,-7179.997637,-2145.067394
2608.266568,6069.688724,-10436.903782,919.314598
2608.266895,5699.585753,-11991.336260,3370.820191
2608.267223,2368.659014,-13545.768739,3370.820191
2608.267551,-518.144159,-13323.706956,1455.581446
2608.267878,-2368.659014,-11843.295072,-2987.772442
2608.268206,-1998.556043,-11843.295072,-5056.230287
2608.268533,-592.164754,-11843.295072,-3677.258390
2608.268861,444.123565,-10807.006753,-1225.752797
2608.269189,1110.308913,-9696.697840,1532.190996
2608.269516,-740.205942,-7698.141797,1072.533697
2608.269844,-1628.453072,-5995.668130,76.609550
2608.270172,-1406.391290,-5255.462188,-1532.190996
2608.270499,1332.370696,-6069.688724,-1149.143247
2608.270827,3775.050304,-8364.327145,-536.266849
2608.271155,5847.626942,-11843.295072,2757.943793
2608.271482,3997.112087,-12361.439231,5209.449386
2608.271810,518.144159,-12139.377449,3447.429741
2608.272138,-2368.659014,-12509.480420,0.000000
2608.272465,-4071.132681,-12583.501014,-3140.991542
2608.272793,-3775.050304,-11843.295072,-5669.106685
2608.273120,-3108.864956,-10732.986159,-4596.572988
2608.273448,-2442.679609,-9696.697840,-995.924147
2608.273776,-2590.720797,-7105.977043,1685.410096
2608.274103,-3552.988522,-5255.462188,2298.286494
2608.274431,-3330.926739,-5181.441594,1225.752797
2608.274759,-740.205942,-5625.565159,-1685.410096
2608.275086,2590.720797,-6587.832884,-1149.143247
2608.275414,5107.421000,-9474.636058,1302.362347
2608.275742,5403.503377,-11843.295072,4213.525239
2608.276069,2368.659014,-12139.377449,4826.401637
2608.276397,-666.185348,-12583.501014,1608.800546
2608.276725,-2516.700203,-12583.501014,-2221.676944
2608.277052,-2738.761985,-12805.562797,-5592.497135
2608.277380,-1332.370696,-10955.047942,-4749.792088
2608.277707,-444.123565,-10510.924376,-2374.896044
2608.278035,814.226536,-9474.636058,612.876398
2608.278363,0.000000,-7105.977043,1991.848295
2608.278690,-1184.329507,-5699.585753,1225.752797
2608.279018,-370.102971,-4885.359217,-689.485948
2608.279346,2368.659014,-5477.523971,-919.314598
2608.279673,5107.421000,-8142.265362,0.000000
2608.280001,6883.915261,-12065.356855,2528.115143
2608.280329,5107.421000,-13027.624579,4060.306139
2608.280656,1110.308913,-13175.665768,2068.457845
2608.280984,-1776.494261,-14508.036463,-2298.286494
2608.281312,-2664.741391,-14730.098246,-5209.449386
2608.281639,-2368.659014,-11695.253884,-5669.106685
2608.281967,0.000000,-11177.109724,-2987.772442
2608.282294,1776.494261,-10732.986159,-306.438199
2608.282622,1406.391290,-7476.080014,2374.896044
2608.282950,-444.123565,-5255.462188,2834.553343
2608.283277,-1184.329507,-5033.400406,1762.019645
2608.283605,0.000000,-4663.297435,-306.438199
2608.283933,2442.679609,-6069.688724,-2068.457845
2608.284260,5033.400406,-9400.615463,612.876398
2608.284588,4811.338623,-11917.315666,2987.772442
2608.284916,2368.659014,-13693.809927,3907.087040
2608.285243,-592.164754,-13989.892304,1685.410096
2608.285571,-3256.906145,-12731.542202,-2145.067394
2608.285899,-3849.070898,-11843.295072,-4749.792088
2608.286226,-2960.823768,-11843.295072,-4136.915689
2608.286554,-296.082377,-10436.903782,-2374.896044
2608.286881,888.247130,-7550.100608,1455.581446
2608.287209,-814.226536,-5403.503377,2757.943793
2608.287537,-1776.494261,-5329.482782,2221.676944
2608.287864,-962.267725,-4737.318029,383.047749
2608.288192,444.123565,-5255.462188,-995.924147
2608.288520,3330.926739,-7254.018232,-766.095498
2608.288847,6439.791695,-10881.027347,1762.019645
2608.289175,5181.441594,-13989.892304,3600.648841
2608.289503,1332.370696,-14137.933492,3677.258390
2608.289830,-1998.556043,-13471.748144,-229.828649
2608.290158,-2960.823768,-14359.995275,-4136.915689
2608.290486,-2960.823768,-12139.377449,-4903.011187
2608.290813,-1258.350101,-11029.068536,-5056.230287
2608.291141,-814.226536,-10362.883188,-1302.362347
2608.291468,-740.205942,-7698.141797,1072.533697
2608.291796,-1924.535449,-4959.379811,1225.752797
2608.292124,-3182.885551,-4811.338623,306.438199
2608.292451,-1850.514855,-5403.503377,-689.485948
2608.292779,2072.576638,-6809.894666,-1455.581446
2608.293107,5255.462188,-9696.697840,-229.828649
2608.293434,5773.606348,-12583.501014,3217.601092
2608.293762,2664.741391,-12953.603985,4903.011187
2608.294090,-370.102971,-13027.624579,2528.115143
2608.294417,-3108.864956,-12731.542202,-1378.971896
2608.294745,-4145.153275,-12287.418637,-4366.744339
2608.295073,-3108.864956,-10807.006753,-5286.058936
2608.295400,-1480.411884,-10214.842000,-2528.115143
2608.295728,-888.247130,-7994.224174,229.828649
2608.296055,-666.185348,-5699.585753,1991.848295
2608.296383,-1776.494261,-5181.441594,2145.067394
2608.296711,-370.102971,-4737.318029,766.095498
2608.297038,2220.617826,-4737.318029,-459.657299
2608.297366,4885.359217,-7179.997637,-306.438199
2608.297694,7254.018232,-11325.150913,2451.505594
2608.298021,6069.688724,-13989.892304,4519.963438
2608.298349,2368.659014,-13619.789333,3370.820191
2608.298677,-1850.514855,-12805.562797,153.219100
2608.299004,-3627.009116,-13767.830521,-3753.867940
2608.299332,-3701.029710,-11917.315666,-6052.154434
2608.299660,-1998.556043,-10436.903782,-6205.373534
2608.299987,370.102971,-9622.677246,-2298.286494
2608.300315,1184.329507,-7105.977043,1991.848295
2608.300642,1480.411884,-6143.709319,2604.724693
2608.300970,222.061783,-5033.400406,2451.505594
2608.301298,962.267725,-5255.462188,536.266849
2608.301625,3108.864956,-6291.750507,-1225.752797
2608.301953,6143.709319,-9622.677246,-766.095498
2608.302281,5699.585753,-12731.542202,2221.676944
2608.302608,3182.885551,-15100.201217,3370.820191
2608.302936,518.144159,-14730.098246,1762.019645
2608.303264,-3775.050304,-13915.871710,-2145.067394
2608.303591,-5921.647536,-12657.521608,-5209.449386
2608.303919,-4219.173869,-11917.315666,-6588.421283
2608.304247,-1480.411884,-10510.924376,-3983.696590
2608.304574,74.020594,-8290.306550,-306.438199
2608.304902,1110.308913,-6143.709319,2451.505594
2608.305229,148.041188,-5033.400406,3524.039291
2608.305557,74.020594,-4885.359217,2911.162892
2608.305885,1776.494261,-3849.070898,689.485948
2608.306212,3923.091493,-5921.647536,-536.266849
2608.306540,5107.421000,-11177.109724,766.095498
2608.306868,4811.338623,-14211.954086,3830.477490
2608.307195,814.226536,-13323.706956,3524.039291
2608.307523,-3552.988522,-12731.542202,689.485948
2608.307851,-4959.379811,-13693.809927,-2911.162892
2608.308178,-4885.359217,-12287.418637,-4596.572988
2608.308506,-3256.906145,-9696.697840,-4366.744339
2608.308834,-1998.556043,-8438.347739,-2298.286494
2608.309161,0.000000,-7031.956449,306.438199
2608.309489,-1110.308913,-4589.276840,2298.286494
2608.309816,-1480.411884,-5255.462188,2681.334243
2608.310144,-1036.288319,-5477.523971,1149.143247
2608.310472,2294.638420,-7031.956449,-1532.190996
2608.310799,5625.565159,-10732.986159,-1915.238745
2608.311127,5329.482782,-13619.789333,995.924147
2608.311455,3404.947333,-15026.180623,4060.306139
2608.311782,0.000000,-14137.933492,2068.457845
2608.312110,-4737.318029,-12731.542202,-1378.971896
2608.312438,-6439.791695,-12583.501014,-4673.182538
2608.312765,-4293.194464,-10658.965565,-6052.154434
2608.313093,-2368.659014,-9178.553681,-4366.744339
2608.313421,74.020594,-8142.265362,0.000000
2608.313748,1924.535449,-7031.956449,1915.238745
2608.314076,518.144159,-6439.791695,1762.019645
2608.314403,1184.329507,-5921.647536,1455.581446
2608.314731,2664.741391,-5921.647536,153.219100
2608.315059,5625.565159,-7846.182985,-766.095498
2608.315386,7846.182985,-12139.377449,0.000000
2608.315714,6957.935855,-15174.221811,2528.115143
2608.316042,2886.803174,-14137.933492,4749.792088
2608.316369,0.000000,-11991.336260,2068.457845
2608.316697,-3552.988522,-11621.233289,-1608.800546
2608.317025,-5625.565159,-10140.821405,-4443.353888
2608.317352,-3552.988522,-9474.636058,-5286.058936
2608.317680,-1554.432478,-8290.306550,-3370.820191
2608.318008,444.123565,-6365.771101,1225.752797
2608.318335,1184.329507,-5625.565159,2987.772442
2608.318663,740.205942,-6069.688724,3907.087040
2608.318990,1036.288319,-6143.709319,2451.505594
2608.319318,3108.864956,-6883.915261,-689.485948
2608.319646,5477.523971,-10066.800811,-2221.676944
2608.319973,5477.523971,-13693.809927,76.609550
2608.320301,3034.844362,-14211.954086,3064.381992
2608.320629,0.000000,-12953.603985,2451.505594
2608.320956,-3478.967927,-13397.727550,76.609550
2608.321284,-5773.606348,-11991.336260,-3140.991542
2608.321612,-4293.194464,-10881.027347,-6358.592633
2608.321939,-2294.638420,-9326.594869,-5362.668486
2608.322267,-518.144159,-7920.203579,-1608.800546
2608.322594,1628.453072,-7402.059420,1225.752797
2608.322922,1184.329507,-6069.688724,3064.381992
2608.323250,1258.350101,-5847.626942,2451.505594
2608.323577,3108.864956,-6365.771101,229.828649
2608.323905,4811.338623,-7994.224174,-766.095498
2608.324233,6291.750507,-13101.645173,-689.485948
2608.324560,5625.565159,-15618.345376,1838.629195
2608.324888,666.185348,-14211.954086,2834.553343
2608.325216,-3775.050304,-12509.480420,536.266849
2608.325543,-5699.585753,-12361.439231,-3447.429741
2608.325871,-5329.482782,-11399.171507,-5439.278036
2608.326198,-3627.009116,-9252.574275,-4213.525239
2608.326526,-1184.329507,-8364.327145,-1378.971896
2608.326854,1406.391290,-7328.038826,1838.629195
2608.327181,962.267725,-5403.503377,2451.505594
2608.327509,-666.185348,-4145.153275,3600.648841
2608.327837,-1998.556043,-4737.318029,2911.162892
2608.328164,296.082377,-5107.421000,-1072.533697
2608.328492,3701.029710,-9252.574275,-2604.724693
2608.328820,3701.029710,-12657.521608,0.000000
2608.329147,2294.638420,-14434.015869,2298.286494
2608.329475,-740.205942,-14063.912898,2451.505594
2608.329803,-4219.173869,-13101.645173,-306.438199
2608.330130,-5773.606348,-11769.274478,-3677.258390
2608.330458,-3552.988522,-10066.800811,-5209.449386
2608.330785,-1702.473667,-8364.327145,-3447.429741
2608.331113,1110.308913,-7994.224174,229.828649
2608.331441,3108.864956,-6735.874072,2681.334243
2608.331768,2590.720797,-6143.709319,3677.258390
2608.332096,1406.391290,-5699.585753,2757.943793
2608.332424,2368.659014,-6365.771101,0.000000
2608.332751,3849.070898,-8068.244768,-2604.724693
2608.333079,5625.565159,-12287.418637,-2604.724693
2608.333407,5551.544565,-15248.242405,76.609550
2608.333734,2294.638420,-14952.160028,2451.505594
2608.334062,-1702.473667,-13249.686362,1378.971896
2608.334389,-3997.112087,-13101.645173,-1532.190996
2608.334717,-4219.173869,-11547.212695,-4213.525239
2608.335045,-2590.720797,-8808.450710,-4903.011187
2608.335372,-888.247130,-8290.306550,-2451.505594
2608.335700,888.247130,-7476.080014,536.266849
2608.336028,1406.391290,-5699.585753,2221.676944
2608.336355,148.041188,-5995.668130,2451.505594
2608.336683,-370.102971,-6217.729913,2068.457845
2608.337011,2072.576638,-7179.997637,-306.438199
2608.337338,5033.400406,-9548.656652,-2451.505594
2608.337666,5699.585753,-13027.624579,0.000000
2608.337993,4515.256246,-14804.118840,3064.381992
2608.338321,1406.391290,-13323.706956,3524.039291
2608.338649,-3108.864956,-11843.295072,1149.143247
2608.338976,-4737.318029,-11251.130318,-2451.505594
2608.339304,-3923.091493,-8808.450710,-5286.058936
2608.339632,-3330.926739,-7179.997637,-3907.087040
2608.339959,-518.144159,-8068.244768,-1455.581446
2608.340287,1036.288319,-7402.059420,1685.410096
2608.340615,222.061783,-6587.832884,2911.162892
2608.340942,444.123565,-7031.956449,1762.019645
2608.341270,1258.350101,-6883.915261,-229.828649
2608.341597,2590.720797,-7402.059420,-1378.971896
2608.341925,5181.441594,-10510.924376,-1532.190996
2608.342253,5477.523971,-14434.015869,1072.533697
2608.342580,2590.720797,-14211.954086,3830.477490
2608.342908,-1406.391290,-12065.356855,2911.162892
2608.343236,-4811.338623,-10881.027347,-1149.143247
2608.343563,-5847.626942,-12065.356855,-4826.401637
2608.343891,-4071.132681,-9622.677246,-5592.497135
2608.344219,-2368.659014,-8068.244768,-2987.772442
2608.344546,-518.144159,-8364.327145,0.000000
2608.344874,1554.432478,-7846.182985,1915.238745
2608.345201,444.123565,-6587.832884,2298.286494
2608.345529,222.061783,-7105.977043,1302.362347
2608.345857,1480.411884,-7476.080014,0.000000
2608.346184,4959.379811,-9474.636058,-2298.286494
2608.346512,6291.750507,-12361.439231,-383.047749
2608.346840,4071.132681,-13693.809927,2757.943793
2608.347167,370.102971,-13175.665768,3140.991542
2608.347495,-3256.906145,-12213.398043,306.438199
2608.347823,-5921.647536,-11325.150913,-3140.991542
2608.348150,-5551.544565,-10140.821405,-4673.182538
2608.348478,-2368.659014,-9326.594869,-4903.011187
2608.348805,-962.267725,-7920.203579,-842.705048
2608.349133,2220.617826,-7846.182985,1915.238745
2608.349461,1998.556043,-6809.894666,3140.991542
2608.349788,370.102971,-6365.771101,3600.648841
2608.350116,1998.556043,-5921.647536,1149.143247
2608.350444,3478.967927,-6291.750507,-995.924147
2608.350771,4663.297435,-10584.944971,-536.266849
2608.351099,5033.400406,-13397.727550,2374.896044
2608.351427,2664.741391,-13619.789333,3217.601092
2608.351754,-1998.556043,-12065.356855,1915.238745
2608.352082,-4145.153275,-12509.480420,-1608.800546
2608.352409,-4367.215058,-12657.521608,-4443.353888
2608.352737,-3552.988522,-10658.965565,-4060.306139
2608.353065,-222.061783,-9030.512492,-2681.334243
2608.353392,1480.411884,-8438.347739,76.609550
2608.353720,1924.535449,-7105.977043,3140.991542
2608.354048,962.267725,-6217.729913,3294.210641
2608.354375,-370.102971,-5625.565159,2145.067394
2608.354703,148.041188,-6513.812290,-1302.362347
2608.355031,3478.967927,-9104.533087,-3753.867940
2608.355358,4811.338623,-10584.944971,-2374.896044
2608.355686,4071.132681,-13323.706956,2068.457845
2608.356013,2220.617826,-15026.180623,3830.477490
2608.356341,-740.205942,-13471.748144,1225.752797
2608.356669,-2960.823768,-12213.398043,-2451.505594
2608.356996,-3552.988522,-11103.089130,-4060.306139
2608.357324,-2368.659014,-9326.594869,-3753.867940
2608.357652,0.000000,-8882.471304,-1838.629195
2608.357979,1184.329507,-7624.121203,1149.143247
2608.358307,666.185348,-6883.915261,2528.115143
2608.358635,-370.102971,-6439.791695,2221.676944
2608.358962,-518.144159,-6217.729913,536.266849
2608.359290,592.164754,-6809.894666,-1762.019645
2608.359617,3478.967927,-9548.656652,-2834.553343
2608.359945,4959.379811,-12139.377449,-459.657299
2608.360273,2812.782580,-13989.892304,2987.772442
2608.360600,1184.329507,-13397.727550,3677.258390
2608.360928,-1924.535449,-11325.150913,1149.143247
2608.361256,-4441.235652,-11029.068536,-1608.800546
2608.361583,-3478.967927,-11473.192101,-3830.477490
2608.361911,-1998.556043,-9474.636058,-3524.039291
2608.362239,-1776.494261,-7772.162391,-995.924147
2608.362566,-740.205942,-7254.018232,1762.019645
2608.362894,-592.164754,-6661.853478,2068.457845
2608.363221,-1332.370696,-6217.729913,1532.190996
2608.363549,-518.144159,-5921.647536,-383.047749
2608.363877,1924.535449,-7476.080014,-2298.286494
2608.364204,4663.297435,-10658.965565,-1532.190996
2608.364532,5107.421000,-12583.501014,1225.752797
2608.364860,2368.659014,-13693.809927,3983.696590
2608.365187,-962.267725,-12361.439231,2451.505594
2608.365515,-3701.029710,-11251.130318,-1455.581446
2608.365843,-4293.194464,-12287.418637,-4060.306139
2608.366170,-2368.659014,-11325.150913,-4979.620737
2608.366498,74.020594,-10214.842000,-3294.210641
2608.366825,1258.350101,-9400.615463,76.609550
2608.367153,1258.350101,-8438.347739,1608.800546
2608.367481,444.123565,-7105.977043,1685.410096
2608.367808,-592.164754,-4885.359217,1072.533697
2608.368136,518.144159,-5181.441594,-842.705048
2608.368464,3701.029710,-7994.224174,-1838.629195
2608.368791,5847.626942,-11029.068536,689.485948
2608.369119,4663.297435,-12139.377449,3983.696590
2608.369447,2442.679609,-13693.809927,3830.477490
2608.369774,-1554.432478,-12139.377449,1532.190996
2608.370102,-3701.029710,-11547.212695,-2145.067394
2608.370430,-2812.782580,-12213.398043,-4903.011187
2608.370757,-592.164754,-11695.253884,-4443.353888
2608.371085,888.247130,-9178.553681,-1225.752797
2608.371412,2516.700203,-8068.244768,612.876398
2608.371740,444.123565,-6291.750507,4136.915689
2608.372068,-1036.288319,-5625.565159,3370.820191
2608.372395,-1702.473667,-4515.256246,689.485948
2608.372723,296.082377,-5107.421000,-2451.505594
2608.373051,3478.967927,-8290.306550,-2451.505594
2608.373378,5107.421000,-12065.356855,536.266849
2608.373706,3108.864956,-13323.706956,4443.353888
2608.374034,222.061783,-13471.748144,4290.134789
2608.374361,-2886.803174,-12435.459826,-229.828649
2608.374689,-3627.009116,-13693.809927,-4290.134789
2608.375016,-3108.864956,-12583.501014,-5592.497135
2608.375344,-1406.391290,-10436.903782,-4903.011187
2608.375672,-444.123565,-9252.574275,-459.657299
2608.375999,148.041188,-7994.224174,2451.505594
2608.376327,222.061783,-6587.832884,2681.334243
2608.376655,-1184.329507,-4737.318029,2298.286494
2608.376982,-592.164754,-4811.338623,-842.705048
2608.377310,2664.741391,-7772.162391,-3753.867940
2608.377638,4071.132681,-10732.986159,-1608.800546
2608.377965,3256.906145,-11843.295072,2145.067394
2608.378293,2368.659014,-13619.789333,3907.087040
2608.378620,-666.185348,-13841.851115,2604.724693
2608.378948,-2516.700203,-12879.583391,-842.705048
2608.379276,-1924.535449,-13471.748144,-3983.696590
2608.379603,-592.164754,-12731.542202,-4749.792088
2608.379931,-222.061783,-10214.842000,-2834.553343
2608.380259,0.000000,-7772.162391,-383.047749
2608.380586,-1036.288319,-5921.647536,1072.533697
2608.380914,-2442.679609,-4737.318029,3064.381992
2608.381242,-1184.329507,-3627.009116,612.876398
2608.381569,740.205942,-4959.379811,-1302.362347
2608.381897,3404.947333,-8216.285956,-1455.581446
2608.382224,6291.750507,-11917.315666,612.876398
2608.382552,3923.091493,-12435.459826,4366.744339
2608.382880,74.020594,-12287.418637,4903.011187
2608.383207,-1184.329507,-12879.583391,536.266849
2608.383535,-2294.638420,-13323.706956,-3294.210641
2608.383863,-2960.823768,-12065.356855,-4443.353888
2608.384190,-1258.350101,-11177.109724,-4366.744339
2608.384518,-444.123565,-9770.718434,-1072.533697
2608.384846,-592.164754,-7698.141797,1685.410096
2608.385173,-962.267725,-6587.832884,1532.190996
2608.385501,-2516.700203,-3997.112087,689.485948
2608.385828,-740.205942,-3701.029710,-919.314598
2608.386156,3256.906145,-6069.688724,-2834.553343
2608.386484,5403.503377,-9770.718434,-153.219100
2608.386811,6365.771101,-12509.480420,3524.039291
2608.387139,5773.606348,-14063.912898,5362.668486
2608.387467,1554.432478,-14285.974681,2834.553343
2608.387794,-1184.329507,-14359.995275,-1302.362347
2608.388122,-2220.617826,-13175.665768,-4749.792088
2608.388450,-2368.659014,-12509.480420,-6052.154434
2608.388777,-888.247130,-11547.212695,-4213.525239
2608.389105,0.000000,-8882.471304,-919.314598
2608.389432,0.000000,-6735.874072,1532.190996
2608.389760,-814.226536,-5403.503377,2451.505594
2608.390088,-740.205942,-4737.318029,919.314598
2608.390415,1332.370696,-4219.173869,-919.314598
2608.390743,3034.844362,-6735.874072,-1608.800546
2608.391071,5403.503377,-10658.965565,842.705048
2608.391398,4737.318029,-12583.501014,3907.087040
2608.391726,1628.453072,-12435.459826,5975.544884
2608.392054,-2220.617826,-12657.521608,1991.848295
2608.392381,-3404.947333,-13989.892304,-3064.381992
2608.392709,-4145.153275,-14137.933492,-6128.763984
2608.393036,-3404.947333,-11695.253884,-6511.811733
2608.393364,-1332.370696,-9548.656652,-3447.429741
2608.393692,-370.102971,-7550.100608,766.095498
2608.394019,-518.144159,-5181.441594,2528.115143
2608.394347,74.020594,-3997.112087,3524.039291
2608.394675,0.000000,-2442.679609,2451.505594
2608.395002,2886.803174,-4515.256246,-229.828649
2608.395330,5181.441594,-9622.677246,-919.314598
2608.395658,5403.503377,-12435.459826,2451.505594
2608.395985,2442.679609,-13323.706956,4290.134789
2608.396313,-296.082377,-13397.727550,2911.162892
2608.396640,-4071.132681,-13101.645173,-1532.190996
2608.396968,-4959.379811,-13989.892304,-4366.744339
2608.397296,-3108.864956,-13989.892304,-6665.030833
2608.397623,-2146.597232,-11917.315666,-5209.449386
2608.397951,-1036.288319,-9178.553681,-1991.848295
2608.398279,-592.164754,-5699.585753,1072.533697
2608.398606,-1036.288319,-4959.379811,2374.896044
2608.398934,-1628.453072,-3997.112087,1455.581446
2608.399262,1036.288319,-3775.050304,-536.266849
2608.399589,3775.050304,-6587.832884,-2298.286494
2608.399917,5107.421000,-11399.171507,76.609550
2608.400244,5107.421000,-13841.851115,3217.601092
2608.400572,1924.535449,-14211.954086,4903.011187
2608.400900,-1924.535449,-13175.665768,1991.848295
2608.401227,-2664.741391,-14508.036463,-2681.334243
2608.401555,-2516.700203,-14359.995275,-5439.278036
2608.401883,-1184.329507,-10658.965565,-5209.449386
2608.402210,74.020594,-9252.574275,-2451.505594
2608.402538,888.247130,-7550.100608,919.314598
2608.402866,888.247130,-5477.523971,2451.505594
2608.403193,0.000000,-4589.276840,2374.896044
2608.403521,296.082377,-2960.823768,306.438199
2608.403848,2812.782580,-4737.318029,-1991.848295
2608.404176,5403.503377,-9474.636058,-1149.143247
2608.404504,6069.688724,-12879.583391,1838.629195
2608.404831,3775.050304,-13767.830521,4519.963438
2608.405159,148.041188,-13989.892304,3677.258390
2608.405487,-1924.535449,-12731.542202,-536.266849
2608.405814,-3627.009116,-12583.501014,-3830.477490
2608.406142,-4293.194464,-11547.212695,-4366.744339
2608.406470,-2664.741391,-10436.903782,-4136.915689
2608.406797,-740.205942,-9030.512492,-2145.067394
2608.407125,-370.102971,-6069.688724,766.095498
2608.407452,-962.267725,-5033.400406,2068.457845
2608.407780,-666.185348,-5625.565159,2528.115143
2608.408108,1258.350101,-5847.626942,0.000000
2608.408435,4219.173869,-7846.182985,-1762.019645
2608.408763,5847.626942,-10881.027347,-459.657299
2608.409091,5255.462188,-13619.789333,3370.820191
2608.409418,2072.576638,-14804.118840,5056.230287
2608.409746,-1924.535449,-12953.603985,2451.505594
2608.410074,-4885.359217,-11843.295072,-1991.848295
2608.410401,-5699.585753,-11769.274478,-5745.716235
2608.410729,-3997.112087,-10658.965565,-6205.373534
2608.411056,-1776.494261,-9474.636058,-3753.867940
2608.411384,148.041188,-7624.121203,-229.828649
2608.411712,740.205942,-6291.750507,2528.115143
2608.412039,888.247130,-6143.709319,2757.943793
2608.412367,1554.432478,-4219.173869,1455.581446
2608.412695,3701.029710,-5107.421000,-536.266849
2608.413022,5699.585753,-9030.512492,-459.657299
2608.413350,7105.977043,-12805.562797,1455.581446
2608.413678,4441.235652,-13619.789333,4673.182538
2608.414005,-592.164754,-12879.583391,4213.525239
2608.414333,-3330.926739,-12805.562797,383.047749
2608.414661,-5255.462188,-13249.686362,-3983.696590
2608.414988,-5181.441594,-11251.130318,-6052.154434
2608.415316,-3552.988522,-9548.656652,-5439.278036
2608.415643,-1850.514855,-7920.203579,-2834.553343
2608.415971,222.061783,-6809.894666,689.485948
2608.416299,518.144159,-5403.503377,2681.334243
2608.416626,444.123565,-4885.359217,3447.429741
2608.416954,1406.391290,-4589.276840,1072.533697
2608.417282,4737.318029,-6587.832884,-1149.143247
2608.417609,6291.750507,-11325.150913,-1072.533697
2608.417937,4219.173869,-14285.974681,2681.334243
2608.418265,2220.617826,-15248.242405,4060.306139
2608.418592,-2368.659014,-13323.706956,2298.286494
2608.418920,-5477.523971,-11991.336260,-1915.238745
2608.419247,-5107.421000,-12435.459826,-4979.620737
2608.419575,-3330.926739,-11621.233289,-5822.325785
2608.419903,-1480.411884,-9252.574275,-3370.820191
2608.420230,888.247130,-7402.059420,-536.266849
2608.420558,1480.411884,-5773.606348,2068.457845
2608.420886,814.226536,-5255.462188,2757.943793
2608.421213,1776.494261,-4959.379811,1685.410096
2608.421541,2442.679609,-5773.606348,76.609550
2608.421868,5403.503377,-10214.842000,-919.314598
2608.422196,6661.853478,-14730.098246,459.657299
2608.422523,3775.050304,-14582.057057,3600.648841
2608.422851,-888.247130,-13101.645173,3370.820191
2608.423179,-3478.967927,-13027.624579,766.095498
2608.423506,-6365.771101,-11917.315666,-2834.553343
2608.423834,-5773.606348,-10807.006753,-4749.792088
2608.424161,-3330.926739,-8882.471304,-4673.182538
2608.424489,-1480.411884,-6365.771101,-1685.410096
2608.424816,370.102971,-4737.318029,1455.581446
2608.425144,0.000000,-4959.379811,3217.601092
2608.425471,-444.123565,-5033.400406,2834.553343
2608.425799,1184.329507,-5107.421000,689.485948
2608.426127,5033.400406,-7328.038826,-2145.067394
2608.426454,7550.100608,-11917.315666,-1225.752797
2608.426782,7550.100608,-15100.201217,2145.067394
2608.427109,4663.297435,-15766.386565,4443.353888
2608.427437,-444.123565,-13249.686362,3294.210641
2608.427764,-3997.112087,-11621.233289,-919.314598
2608.428092,-5181.441594,-12287.418637,-4443.353888
2608.428419,-4515.256246,-10436.903782,-5362.668486
2608.428747,-1628.453072,-7772.162391,-4519.963438
2608.429075,148.041188,-6365.771101,-536.266849
2608.429402,1480.411884,-6143.709319,2374.896044
2608.429730,1702.473667,-5847.626942,2911.162892
2608.430057,1628.453072,-4885.359217,1608.800546
2608.430385,2960.823768,-6661.853478,-1149.143247
2608.430712,5107.421000,-10807.006753,-2528.115143
2608.431040,6661.853478,-13915.871710,-919.314598
2608.431367,5329.482782,-15544.324782,2834.553343
2608.431695,1628.453072,-14878.139434,4213.525239
2608.432022,-2368.659014,-12953.603985,1762.019645
2608.432350,-5181.441594,-12583.501014,-2604.724693
2608.432678,-5847.626942,-11325.150913,-5592.497135
2608.433005,-4811.338623,-8734.430116,-5898.935335
2608.433333,-2590.720797,-6661.853478,-3370.820191
2608.433660,-222.061783,-5625.565159,459.657299
2608.433988,296.082377,-5107.421000,2987.772442
2608.434315,666.185348,-4959.379811,3907.087040
2608.434643,1850.514855,-5329.482782,2374.896044
2608.434970,4811.338623,-8512.368333,-612.876398
2608.435298,6883.915261,-12657.521608,-1455.581446
2608.435626,5403.503377,-14508.036463,1072.533697
2608.435953,2738.761985,-14582.057057,3753.867940
2608.436281,-1998.556043,-12879.583391,3447.429741
2608.436608,-5773.606348,-10288.862594,-459.657299
2608.436936,-6957.935855,-11177.109724,-4060.306139
2608.437263,-5107.421000,-10732.986159,-5132.839837
2608.437591,-3108.864956,-8142.265362,-4213.525239
2608.437918,-1036.288319,-6883.915261,-536.266849
2608.438246,1036.288319,-6365.771101,2374.896044
2608.438574,1258.350101,-5551.544565,3140.991542
2608.438901,1332.370696,-4885.359217,2834.553343
2608.439229,2664.741391,-6365.771101,229.828649
2608.439556,5403.503377,-10510.924376,-1225.752797
2608.439884,6217.729913,-14285.974681,-536.266849
2608.440211,4663.297435,-14804.118840,1991.848295
2608.440539,-592.164754,-14211.954086,3524.039291
2608.440866,-4885.359217,-12213.398043,383.047749
2608.441194,-6809.894666,-12287.418637,-4673.182538
2608.441522,-6365.771101,-12065.356855,-6435.202183
2608.441849,-3627.009116,-9326.594869,-5515.887586
2608.442177,-444.123565,-7254.018232,-2604.724693
2608.442504,1850.514855,-7105.977043,1762.019645
2608.442832,1998.556043,-5773.606348,3677.258390
2608.443159,1998.556043,-5847.626942,3370.820191
2608.443487,888.247130,-6069.688724,1685.410096
2608.443814,3775.050304,-7846.182985,-1838.629195
2608.444142,6069.688724,-11547.212695,-2451.505594
2608.444469,5107.421000,-13915.871710,0.000000
2608.444797,3108.864956,-15248.242405,3064.381992
2608.445125,-222.061783,-14804.118840,3064.381992
2608.445452,-4515.256246,-11399.171507,-383.047749
2608.445780,-5625.565159,-10955.047942,-3907.087040
2608.446107,-3404.947333,-10510.924376,-5209.449386
2608.446435,-2146.597232,-7476.080014,-3600.648841
2608.446762,740.205942,-6883.915261,-306.438199
2608.447090,1998.556043,-6143.709319,2757.943793
2608.447417,1776.494261,-5995.668130,3907.087040
2608.447745,1036.288319,-5551.544565,2987.772442
2608.448073,2294.638420,-6291.750507,-153.219100
2608.448400,4663.297435,-9992.780217,-2757.943793
2608.448728,6217.729913,-13471.748144,-2068.457845
2608.449055,4885.359217,-14952.160028,1378.971896
2608.449383,962.267725,-13915.871710,3983.696590
2608.449710,-2294.638420,-11843.295072,3524.039291
2608.450038,-4145.153275,-11621.233289,-1225.752797
2608.450365,-4515.256246,-11473.192101,-3830.477490
2608.450693,-2590.720797,-9400.615463,-4749.792088
2608.451021,-592.164754,-7772.162391,-2528.115143
2608.451348,740.205942,-7105.977043,995.924147
2608.451676,888.247130,-6513.812290,2298.286494
2608.452003,0.000000,-6217.729913,1838.629195
2608.452331,-888.247130,-6365.771101,1072.533697
2608.452658,2294.638420,-8364.327145,-2604.724693
2608.452986,4885.359217,-12213.398043,-2987.772442
2608.453313,4811.338623,-14285.974681,-153.219100
2608.453641,3034.844362,-14878.139434,3447.429741
2608.453969,-296.082377,-13619.789333,4060.306139
2608.454296,-4737.318029,-10214.842000,306.438199
2608.454624,-5551.544565,-11029.068536,-3064.381992
2608.454951,-4515.256246,-10288.862594,-4979.620737
2608.455279,-2738.761985,-7698.141797,-3907.087040
2608.455606,-296.082377,-7105.977043,-1149.143247
2608.455934,888.247130,-7328.038826,1838.629195
2608.456261,962.267725,-6735.874072,2834.553343
2608.456589,1258.350101,-6069.688724,1685.410096
2608.456916,1406.391290,-6069.688724,0.000000
2608.457244,4589.276840,-8586.388927,-2068.457845
2608.457572,7105.977043,-11991.336260,-1838.629195
2608.457899,6439.791695,-13767.830521,1838.629195
2608.458227,2812.782580,-13693.809927,5132.839837
2608.458554,-592.164754,-12213.398043,2757.943793
2608.458882,-3478.967927,-11695.253884,-766.095498
2608.459209,-4515.256246,-11843.295072,-4673.182538
2608.459537,-3923.091493,-9844.739029,-5745.716235
2608.459864,-2368.659014,-7846.182985,-3830.477490
2608.460192,-740.205942,-7105.977043,-153.219100
2608.460520,148.041188,-6143.709319,2298.286494
2608.460847,-962.267725,-5329.482782,2834.553343
2608.461175,-962.267725,-5625.565159,2374.896044
2608.461502,814.226536,-6957.935855,-1378.971896
2608.461830,3404.947333,-9844.739029,-3447.429741
2608.462157,4367.215058,-12287.418637,-1225.752797
2608.462485,3182.885551,-14656.077652,2374.896044
2608.462812,518.144159,-14582.057057,3830.477490
2608.463140,-2664.741391,-11991.336260,1149.143247
2608.463468,-4145.153275,-10955.047942,-1685.410096
2608.463795,-3627.009116,-11991.336260,-4826.401637
2608.464123,-1998.556043,-10288.862594,-3983.696590
2608.464450,-296.082377,-8068.244768,-1302.362347
2608.464778,518.144159,-6587.832884,2145.067394
2608.465105,518.144159,-5699.585753,3294.210641
2608.465433,740.205942,-5181.441594,2757.943793
2608.465760,666.185348,-5403.503377,689.485948
2608.466088,2590.720797,-7698.141797,-1532.190996
2608.466416,5847.626942,-11547.212695,-2374.896044
2608.466743,5773.606348,-12953.603985,1225.752797
2608.467071,1776.494261,-13027.624579,4060.306139
2608.467398,-1332.370696,-13101.645173,2757.943793
2608.467726,-2442.679609,-12509.480420,-1072.533697
2608.468053,-3701.029710,-11399.171507,-4290.134789
2608.468381,-1924.535449,-10881.027347,-4826.401637
2608.468708,-222.061783,-9252.574275,-2681.334243
2608.469036,148.041188,-7624.121203,536.266849
2608.469363,1332.370696,-6809.894666,2145.067394
2608.469691,-222.061783,-5625.565159,2298.286494
2608.470019,-1258.350101,-5033.400406,1149.143247
2608.470346,888.247130,-5847.626942,-1838.629195
2608.470674,2960.823768,-8956.491898,-2987.772442
2608.471001,4367.215058,-12139.377449,-842.705048
2608.471329,4589.276840,-13915.871710,2374.896044
2608.471656,1184.329507,-13841.851115,3600.648841
2608.471984,-2368.659014,-13175.665768,1685.410096
2608.472311,-3404.947333,-12731.542202,-2145.067394
2608.472639,-2664.741391,-11917.315666,-4366.744339
2608.472967,-1480.411884,-10362.883188,-4366.744339
2608.473294,-222.061783,-9326.594869,-1991.848295
2608.473622,740.205942,-7550.100608,1302.362347
2608.473949,296.082377,-6513.812290,2911.162892
2608.474277,0.000000,-5699.585753,2221.676944
2608.474604,0.000000,-5921.647536,0.000000
2608.474932,2072.576638,-6883.915261,-1762.019645
2608.475259,4663.297435,-9178.553681,-1991.848295
2608.475587,5107.421000,-11695.253884,1378.971896
2608.475915,3404.947333,-12435.459826,5056.230287
2608.476242,740.205942,-12879.583391,4290.134789
2608.476570,-1554.432478,-13101.645173,536.266849
2608.476897,-3034.844362,-11695.253884,-2757.943793
2608.477225,-2294.638420,-10362.883188,-5515.887586
2608.477552,-1628.453072,-10140.821405,-3524.039291
2608.477880,-888.247130,-8438.347739,-766.095498
2608.478207,222.061783,-6439.791695,1455.581446
2608.478535,-1258.350101,-5995.668130,2221.676944
2608.478863,-1776.494261,-5625.565159,1225.752797
2608.479190,518.144159,-5699.585753,-1378.971896
2608.479518,2368.659014,-7254.018232,-2221.676944
2608.479845,4441.235652,-10584.944971,-1072.533697
2608.480173,5107.421000,-12509.480420,2604.724693
2608.480500,2516.700203,-13027.624579,4366.744339
2608.480828,-888.247130,-12583.501014,2528.115143
2608.481155,-2442.679609,-12065.356855,-1532.190996
2608.481483,-2960.823768,-12213.398043,-4290.134789
2608.481810,-2294.638420,-11843.295072,-4903.011187
2608.482138,-148.041188,-10362.883188,-3524.039291
2608.482466,592.164754,-8956.491898,0.000000
2608.482793,444.123565,-7550.100608,2298.286494
2608.483121,-148.041188,-7105.977043,1685.410096
2608.483448,148.041188,-6217.729913,0.000000
2608.483776,2220.617826,-5181.441594,-1762.019645
2608.484103,4293.194464,-8216.285956,-2911.162892
2608.484431,5625.565159,-11399.171507,1685.410096
2608.484758,3923.091493,-12731.542202,5286.058936
2608.485086,0.000000,-11547.212695,4903.011187
2608.485414,-2590.720797,-12657.521608,229.828649
2608.485741,-3923.091493,-13323.706956,-3524.039291
2608.486069,-4145.153275,-11547.212695,-5439.278036
2608.486396,-2220.617826,-11177.109724,-4443.353888
2608.486724,0.000000,-9918.759623,-1762.019645
2608.487051,740.205942,-7846.182985,1302.362347
2608.487379,-518.144159,-6069.688724,2757.943793
2608.487706,-1776.494261,-4885.359217,2221.676944
2608.488034,-888.247130,-3997.112087,-766.095498
2608.488362,1554.432478,-6069.688724,-3064.381992
2608.488689,2960.823768,-9252.574275,-919.314598
2608.489017,3849.070898,-11621.233289,2604.724693
2608.489344,2220.617826,-12435.459826,4596.572988
2608.489672,-962.267725,-12657.521608,2834.553343
2608.489999,-2664.741391,-13249.686362,-1532.190996
2608.490327,-3034.844362,-13397.727550,-4596.572988
2608.490654,-2294.638420,-11843.295072,-5056.230287
2608.490982,-222.061783,-10807.006753,-3370.820191
2608.491310,962.267725,-9326.594869,-229.828649
2608.491637,1036.288319,-7105.977043,1915.238745
2608.491965,-444.123565,-5625.565159,2145.067394
2608.492292,-740.205942,-4885.359217,306.438199
2608.492620,814.226536,-5699.585753,-1532.190996
2608.492947,3108.864956,-7550.100608,-2221.676944
2608.493275,5033.400406,-10807.006753,-612.876398
2608.493602,3552.988522,-13249.686362,3064.381992
2608.493930,888.247130,-13693.809927,4060.306139
2608.494257,-814.226536,-14063.912898,1072.533697
2608.494585,-2368.659014,-13915.871710,-1915.238745
2608.494913,-2368.659014,-12139.377449,-4596.572988
2608.495240,-1184.329507,-11399.171507,-4596.572988
2608.495568,-666.185348,-10436.903782,-1072.533697
2608.495895,-814.226536,-6661.853478,1302.362347
2608.496223,-1184.329507,-5551.544565,2221.676944
2608.496550,-2738.761985,-4663.297435,1762.019645
2608.496878,-1480.411884,-3923.091493,-689.485948
2608.497205,1702.473667,-5551.544565,-2145.067394
2608.497533,4145.153275,-9548.656652,-306.438199
2608.497861,5477.523971,-12509.480420,2757.943793
2608.498188,4515.256246,-13323.706956,5286.058936
2608.498516,1406.391290,-13323.706956,3907.087040
2608.498843,-1184.329507,-12213.398043,306.438199
2608.499171,-2220.617826,-11917.315666,-3294.210641
2608.499498,-1776.494261,-12065.356855,-4366.744339
2608.499826,-148.041188,-11251.130318,-3447.429741
2608.500153,666.185348,-8586.388927,-766.095498
2608.500481,518.144159,-6735.874072,995.924147
2608.500809,0.000000,-6291.750507,1532.190996
2608.501136,-592.164754,-4885.359217,306.438199
2608.501464,1480.411884,-5033.400406,-1915.238745
2608.501791,3775.050304,-7698.141797,-1762.019645
2608.502119,5403.503377,-11473.192101,536.266849
2608.502446,6069.688724,-13693.809927,4060.306139
2608.502774,2664.741391,-13397.727550,5362.668486
2608.503101,-1332.370696,-13175.665768,2757.943793
2608.503429,-2738.761985,-14508.036463,-2451.505594
2608.503756,-3404.947333,-14063.912898,-5745.716235
2608.504084,-3182.885551,-11547.212695,-6128.763984
2608.504412,-1258.350101,-10881.027347,-3830.477490
2608.504739,-666.185348,-8734.430116,0.000000
2608.505067,-814.226536,-5995.668130,2451.505594
2608.505394,-1184.329507,-4885.359217,2145.067394
2608.505722,-962.267725,-3997.112087,766.095498
2608.506049,2294.638420,-5255.462188,-1302.362347
2608.506377,4737.318029,-9252.574275,-842.705048
2608.506704,5625.565159,-11547.212695,2757.943793
2608.507032,3775.050304,-12953.603985,4443.353888
2608.507360,74.020594,-13175.665768,3753.867940
2608.507687,-3849.070898,-11843.295072,153.219100
2608.508015,-5403.503377,-12139.377449,-3677.258390
2608.508342,-4663.297435,-13175.665768,-5515.887586
2608.508670,-2886.803174,-11843.295072,-4826.401637
2608.508997,-1110.308913,-9252.574275,-2221.676944
2608.509325,0.000000,-6661.853478,1302.362347
2608.509652,-740.205942,-5329.482782,2451.505594
2608.509980,-592.164754,-3997.112087,2298.286494
2608.510308,1110.308913,-3849.070898,-153.219100
2608.510635,3775.050304,-6291.750507,-1302.362347
2608.510963,6513.812290,-10362.883188,0.000000
2608.511290,6069.688724,-13619.789333,3753.867940
2608.511618,2368.659014,-13989.892304,6052.154434
2608.511945,-296.082377,-13841.851115,2451.505594
2608.512273,-2886.803174,-13397.727550,-2374.896044
2608.512600,-3849.070898,-13027.624579,-5592.497135
2608.512928,-1850.514855,-11695.253884,-5898.935335
2608.513256,0.000000,-10362.883188,-3447.429741
2608.513583,592.164754,-8068.244768,383.047749
2608.513911,1258.350101,-6217.729913,2528.115143
2608.514238,-740.205942,-4441.235652,1685.410096
2608.514566,-592.164754,-3478.967927,766.095498
2608.514893,1850.514855,-5477.523971,-2068.457845
2608.515221,4219.173869,-9474.636058,-2221.676944
2608.515548,5107.421000,-12509.480420,766.095498
2608.515876,3997.112087,-13989.892304,4366.744339
2608.516203,222.061783,-14137.933492,4290.134789
2608.516531,-3849.070898,-11917.315666,1149.143247
2608.516859,-5329.482782,-12361.439231,-3830.477490
2608.517186,-4219.173869,-12805.562797,-5975.544884
2608.517514,-2590.720797,-10140.821405,-4443.353888
2608.517841,0.000000,-8586.388927,-1225.752797
2608.518169,1036.288319,-6587.832884,2068.457845
2608.518496,518.144159,-5921.647536,2757.943793
2608.518824,0.000000,-4441.235652,2068.457845
2608.519151,370.102971,-3923.091493,-612.876398
2608.519479,2812.782580,-6883.915261,-1608.800546
2608.519807,5551.544565,-10510.924376,-995.924147
2608.520134,5033.400406,-12509.480420,2757.943793
2608.520462,2442.679609,-14211.954086,4903.011187
2608.520790,-444.123565,-13101.645173,4519.963438
2608.521117,-3552.988522,-12287.418637,229.828649
2608.521445,-4367.215058,-11695.253884,-3447.429741
2608.521772,-2664.741391,-11769.274478,-5822.325785
2608.522100,-1850.514855,-9400.615463,-4060.306139
2608.522428,-740.205942,-7328.038826,-383.047749
2608.522755,-222.061783,-5921.647536,1991.848295
2608.523083,-370.102971,-4811.338623,2604.724693
2608.523411,222.061783,-4663.297435,766.095498
2608.523738,2442.679609,-6957.935855,-2221.676944
2608.524066,5329.482782,-10140.821405,-2451.505594
2608.524394,7105.977043,-13545.768739,0.000000
2608.524721,5995.668130,-15248.242405,3524.039291
2608.525049,1332.370696,-13989.892304,4826.401637
2608.525376,-2220.617826,-11325.150913,1302.362347
2608.525704,-4515.256246,-11991.336260,-3600.648841
2608.526032,-4515.256246,-12435.459826,-4979.620737
2608.526359,-2664.741391,-11029.068536,-4903.011187
2608.526687,-1332.370696,-8956.491898,-2451.505594
2608.527015,222.061783,-6809.894666,536.266849
2608.527342,592.164754,-6291.750507,1455.581446
2608.527670,-222.061783,-4885.359217,919.314598
2608.527998,1258.350101,-5255.462188,306.438199
2608.528325,4663.297435,-7179.997637,-1072.533697
2608.528653,6661.853478,-10658.965565,-536.266849
2608.528980,6365.771101,-12731.542202,3064.381992
2608.529308,3478.967927,-13989.892304,5745.716235
2608.529636,-666.185348,-12805.562797,4213.525239
2608.529963,-4219.173869,-11325.150913,-229.828649
2608.530291,-5329.482782,-10288.862594,-4903.011187
2608.530619,-3923.091493,-10436.903782,-6128.763984
2608.530946,-2368.659014,-9474.636058,-3753.867940
2608.531274,-740.205942,-7179.997637,-383.047749
2608.531602,222.061783,-5773.606348,2681.334243
2608.531929,296.082377,-5107.421000,3217.601092
2608.532257,444.123565,-4071.132681,1838.629195
2608.532584,2368.659014,-5773.606348,-383.047749
2608.532912,4145.153275,-9474.636058,-1302.362347
2608.533240,6735.874072,-12953.603985,-766.095498
2608.533567,4589.276840,-14878.139434,2681.334243
2608.533895,666.185348,-14582.057057,4290.134789
2608.534223,-2368.659014,-12953.603985,1378.971896
2608.534550,-4663.297435,-12435.459826,-3064.381992
2608.534878,-5329.482782,-12435.459826,-5286.058936
2608.535206,-3404.947333,-10658.965565,-4903.011187
2608.535533,-666.185348,-8512.368333,-2604.724693
2608.535861,666.185348,-6439.791695,842.705048
2608.536188,1036.288319,-5773.606348,2451.505594
2608.536516,888.247130,-5329.482782,1991.848295
2608.536844,1110.308913,-4885.359217,383.047749
2608.537171,3849.070898,-6883.915261,-1685.410096
2608.537499,5921.647536,-11325.150913,-1991.848295
2608.537827,5403.503377,-14582.057057,1455.581446
2608.538154,3923.091493,-15544.324782,3907.087040
2608.538482,0.000000,-14211.954086,3600.648841
2608.538810,-3997.112087,-12657.521608,153.219100
2608.539137,-4367.215058,-12139.377449,-3907.087040
2608.539465,-3849.070898,-10955.047942,-4749.792088
2608.539792,-2812.782580,-7698.141797,-3064.381992
2608.540120,-1110.308913,-6217.729913,-229.828649
2608.540448,-888.247130,-4737.318029,2681.334243
2608.540775,-2220.617826,-3478.967927,3294.210641
2608.541103,-740.205942,-3552.988522,1532.190996
2608.541431,1110.308913,-4959.379811,-306.438199
2608.541758,4367.215058,-9622.677246,-2911.162892
2608.542086,6143.709319,-13101.645173,-1225.752797
2608.542414,5551.544565,-15248.242405,1838.629195
2608.542741,1554.432478,-14952.160028,4136.915689
2608.543069,-2590.720797,-12435.459826,2451.505594
2608.543396,-4737.318029,-11917.315666,-1455.581446
2608.543724,-4145.153275,-11991.336260,-4290.134789
2608.544052,-3034.844362,-10066.800811,-4979.620737
2608.544379,-2220.617826,-8216.285956,-1991.848295
2608.544707,592.164754,-6735.874072,995.924147
2608.545035,1036.288319,-5699.585753,1838.629195
2608.545362,74.020594,-5403.503377,1149.143247
2608.545690,74.020594,-4959.379811,459.657299
2608.546018,3627.009116,-7698.141797,-2068.457845
2608.546345,6735.874072,-12065.356855,-2068.457845
2608.546673,7105.977043,-13989.892304,1378.971896
2608.547000,4811.338623,-15618.345376,4749.792088
2608.547328,740.205942,-14730.098246,4213.525239
2608.547656,-2960.823768,-12213.398043,0.000000
2608.547983,-4515.256246,-11769.274478,-4596.572988
2608.548311,-4367.215058,-11251.130318,-6052.154434
2608.548639,-2664.741391,-9770.718434,-3753.867940
2608.548966,-1110.308913,-7476.080014,-459.657299
2608.549294,222.061783,-5551.544565,1838.629195
2608.549622,-370.102971,-5107.421000,3524.039291
2608.549949,-888.247130,-4737.318029,2681.334243
2608.550277,888.247130,-5181.441594,0.000000
2608.550604,3552.988522,-8290.306550,-1608.800546
2608.550932,7031.956449,-11621.233289,-383.047749
2608.551260,6069.688724,-13471.748144,2604.724693
2608.551587,2072.576638,-13989.892304,6588.421283
2608.551915,-2368.659014,-11103.089130,4290.134789
2608.552243,-5329.482782,-10436.903782,-1532.190996
2608.552570,-5773.606348,-11769.274478,-5286.058936
2608.552898,-4219.173869,-9474.636058,-5822.325785
2608.553226,-1924.535449,-7550.100608,-3064.381992
2608.553553,296.082377,-7402.059420,995.924147
2608.553881,1776.494261,-6661.853478,2911.162892
2608.554208,1776.494261,-5625.565159,2757.943793
2608.554536,1406.391290,-4959.379811,1685.410096
2608.554864,2516.700203,-7179.997637,-1225.752797
2608.555191,5255.462188,-10288.862594,-2374.896044
2608.555519,6513.812290,-13619.789333,-459.657299
2608.555847,3849.070898,-14063.912898,3600.648841
2608.556174,444.123565,-13249.686362,3753.867940
2608.556502,-2812.782580,-13175.665768,153.219100
2608.556830,-4515.256246,-13545.768739,-4290.134789
2608.557157,-4219.173869,-11769.274478,-6511.811733
2608.557485,-2664.741391,-10214.842000,-5669.106685
2608.557812,-888.247130,-9178.553681,-1225.752797
2608.558140,814.226536,-7254.018232,1915.238745
2608.558468,666.185348,-5921.647536,2834.553343
2608.558795,-1184.329507,-4959.379811,1991.848295
2608.559123,-592.164754,-5255.462188,0.000000
2608.559451,2738.761985,-8364.327145,-2911.162892
2608.559778,5033.400406,-11473.192101,-2221.676944
2608.560106,4071.132681,-13101.645173,995.924147
2608.560433,3182.885551,-14211.954086,3983.696590
2608.560761,-1036.288319,-12731.542202,3370.820191
2608.561089,-3701.029710,-11695.253884,383.047749
2608.561416,-3478.967927,-10288.862594,-3447.429741
2608.561744,-2738.761985,-9844.739029,-4596.572988
2608.562072,-1036.288319,-9104.533087,-2451.505594
2608.562399,1036.288319,-7031.956449,1149.143247
2608.562727,1480.411884,-5403.503377,3907.087040
2608.563055,444.123565,-5033.400406,3677.258390
2608.563382,0.000000,-5255.462188,1762.019645
2608.563710,1036.288319,-6291.750507,-1302.362347
2608.564037,2960.823768,-8290.306550,-2374.896044
2608.564365,4441.235652,-11325.150913,-1378.971896
2608.564693,3775.050304,-13471.748144,2757.943793
2608.565020,962.267725,-13767.830521,3830.477490
2608.565348,-1184.329507,-12731.542202,1685.410096
2608.565676,-2812.782580,-11843.295072,-1608.800546
2608.566003,-3108.864956,-11103.089130,-4213.525239
2608.566331,-1702.473667,-10658.965565,-4443.353888
2608.566659,-222.061783,-9326.594869,-2451.505594
2608.566986,1036.288319,-7254.018232,1225.752797
2608.567314,0.000000,-5921.647536,1915.238745
2608.567641,-814.226536,-6291.750507,919.314598
2608.567969,0.000000,-7031.956449,-1149.143247
2608.568297,2516.700203,-8364.327145,-3064.381992
2608.568624,4737.318029,-11029.068536,-2528.115143
2608.568952,5847.626942,-13545.768739,459.657299
2608.569280,4441.235652,-14434.015869,3753.867940
2608.569607,518.144159,-12953.603985,3447.429741
2608.569935,-2368.659014,-12213.398043,766.095498
2608.570263,-2960.823768,-11177.109724,-3294.210641
2608.570590,-2960.823768,-10066.800811,-4903.011187
2608.570918,-2220.617826,-9844.739029,-3370.820191
2608.571245,-592.164754,-8586.388927,-612.876398
2608.571573,0.000000,-7031.956449,1302.362347
2608.571901,-740.205942,-6291.750507,1378.971896
2608.572228,-1554.432478,-5921.647536,306.438199
2608.572556,370.102971,-5921.647536,-1072.533697
2608.572884,3552.988522,-7698.141797,-1225.752797
2608.573211,5255.462188,-11399.171507,383.047749
2608.573539,6069.688724,-13545.768739,4213.525239
2608.573867,2738.761985,-13175.665768,5822.325785
2608.574194,-1776.494261,-10955.047942,3830.477490
2608.574522,-3627.009116,-10288.862594,-1608.800546
2608.574849,-4441.235652,-10955.047942,-4826.401637
2608.575177,-4219.173869,-9992.780217,-5132.839837
2608.575505,-1998.556043,-9622.677246,-2834.553343
2608.575832,-148.041188,-7772.162391,689.485948
2608.576160,74.020594,-6809.894666,2911.162892
2608.576488,-148.041188,-5921.647536,2451.505594
2608.576815,-1332.370696,-5773.606348,689.485948
2608.577143,1036.288319,-6587.832884,-2221.676944
2608.577471,4145.153275,-9992.780217,-2987.772442
2608.577798,4737.318029,-11843.295072,0.000000
2608.578126,3478.967927,-13767.830521,4060.306139
2608.578453,1036.288319,-13471.748144,4136.915689
2608.578781,-1850.514855,-12805.562797,229.828649
2608.579109,-3552.988522,-12731.542202,-4366.744339
2608.579436,-2442.679609,-12583.501014,-5822.325785
2608.579764,-888.247130,-11695.253884,-4903.011187
2608.580092,1184.329507,-10955.047942,-1608.800546
2608.580419,1850.514855,-8512.368333,1532.190996
2608.580747,666.185348,-6217.729913,2681.334243
2608.581075,-370.102971,-5329.482782,1762.019645
2608.581402,592.164754,-5033.400406,0.000000
2608.581730,1924.535449,-6957.935855,-1838.629195
2608.582057,4515.256246,-10807.006753,-1302.362347
2608.582385,4441.235652,-12583.501014,1378.971896
2608.582713,1184.329507,-12657.521608,3370.820191
2608.583040,-1110.308913,-12509.480420,2145.067394
2608.583368,-2664.741391,-12361.439231,-919.314598
2608.583696,-2664.741391,-11695.253884,-2681.334243
2608.584023,-1258.350101,-11177.109724,-3983.696590
2608.584351,222.061783,-10214.842000,-2221.676944
2608.584679,740.205942,-8216.285956,1149.143247
2608.585006,370.102971,-5847.626942,3064.381992
2608.585334,-2220.617826,-3849.070898,3600.648841
2608.585661,-2368.659014,-4515.256246,459.657299
2608.585989,0.000000,-4885.359217,-1915.238745
2608.586317,2812.782580,-7402.059420,-2757.943793
2608.586644,4737.318029,-11473.192101,229.828649
2608.586972,4071.132681,-13471.748144,3907.087040
2608.587300,1184.329507,-12879.583391,3907.087040
2608.587627,-1184.329507,-12509.480420,1838.629195
2608.587955,-2442.679609,-12361.439231,-2911.162892
2608.588283,-1998.556043,-11695.253884,-4596.572988
2608.588610,-666.185348,-11325.150913,-3983.696590
2608.588938,962.267725,-10881.027347,-1378.971896
2608.589265,1036.288319,-9474.636058,1225.752797
2608.589593,-444.123565,-7179.997637,2681.334243
2608.589921,-1850.514855,-5477.523971,76.609550
2608.590248,-1332.370696,-5551.544565,-2221.676944
2608.590576,962.267725,-6735.874072,-3217.601092
2608.590904,4071.132681,-9770.718434,-1302.362347
2608.591231,4885.359217,-11621.233289,2528.115143
2608.591559,3923.091493,-13175.665768,5056.230287
2608.591887,1406.391290,-13767.830521,3753.867940
2608.592214,-1184.329507,-11843.295072,612.876398
2608.592542,-1998.556043,-11177.109724,-2834.553343
2608.592869,-1998.556043,-11103.089130,-4903.011187
2608.593197,-1850.514855,-11843.295072,-3600.648841
2608.593525,-444.123565,-10436.903782,-689.485948
2608.593852,-370.102971,-7476.080014,1225.752797
2608.594180,-1924.535449,-5995.668130,2145.067394
2608.594508,-2368.659014,-5551.544565,459.657299
2608.594835,-740.205942,-4811.338623,-1455.581446
2608.595163,2368.659014,-6365.771101,-2681.334243
2608.595491,4145.153275,-8956.491898,306.438199
2608.595818,4071.132681,-11029.068536,4213.525239
2608.596146,1258.350101,-11621.233289,5975.544884
2608.596473,-888.247130,-11621.233289,3830.477490
2608.596801,-1924.535449,-11473.192101,-919.314598
2608.597129,-1924.535449,-12583.501014,-4749.792088
2608.597456,-1702.473667,-12583.501014,-5286.058936
2608.597784,-296.082377,-11769.274478,-3370.820191
2608.598112,444.123565,-10066.800811,-689.485948
2608.598439,-592.164754,-7624.121203,1072.533697
2608.598767,-1924.535449,-5033.400406,1378.971896
2608.599095,-1850.514855,-4367.215058,-229.828649
2608.599422,814.226536,-5403.503377,-1838.629195
2608.599750,3923.091493,-8364.327145,-1762.019645
2608.600077,5403.503377,-11473.192101,1532.190996
2608.600405,4293.194464,-12509.480420,4519.963438
2608.600733,1332.370696,-12361.439231,3524.039291
2608.601060,-740.205942,-13027.624579,-459.657299
2608.601388,-1332.370696,-13693.809927,-3447.429741
2608.601716,-962.267725,-13027.624579,-5286.058936
2608.602043,-222.061783,-12435.459826,-3677.258390
2608.602371,148.041188,-11029.068536,-1072.533697
2608.602699,518.144159,-8586.388927,1225.752797
2608.603026,-1406.391290,-5995.668130,1762.019645
2608.603354,-3108.864956,-4515.256246,1378.971896
2608.603681,-740.205942,-4071.132681,-1149.143247
2608.604009,1924.535449,-5107.421000,-1991.848295
2608.604337,3330.926739,-8956.491898,0.000000
2608.604664,4071.132681,-11547.212695,3830.477490
2608.604992,2294.638420,-11843.295072,5209.449386
2608.605320,-1110.308913,-11917.315666,3524.039291
2608.605647,-2294.638420,-13101.645173,-995.924147
2608.605975,-1998.556043,-12879.583391,-3830.477490
2608.606303,-592.164754,-12139.377449,-3907.087040
2608.606630,1036.288319,-11251.130318,-2451.505594
2608.606958,1110.308913,-9622.677246,536.266849
2608.607285,-592.164754,-6587.832884,2451.505594
2608.607613,-2590.720797,-4441.235652,1915.238745
2608.607941,-2960.823768,-3256.906145,-229.828649
2608.608268,-740.205942,-4219.173869,-2451.505594
2608.608596,2812.782580,-7698.141797,-1915.238745
2608.608924,4737.318029,-11251.130318,1225.752797
2608.609251,4885.359217,-13027.624579,3983.696590
2608.609579,2886.803174,-13767.830521,4673.182538
2608.609906,0.000000,-13101.645173,1302.362347
2608.610234,-1406.391290,-12953.603985,-2757.943793
2608.610562,-962.267725,-13693.809927,-4366.744339
2608.610889,-592.164754,-11843.295072,-3907.087040
2608.611217,1036.288319,-11473.192101,-1608.800546
2608.611545,0.000000,-8438.347739,1225.752797
2608.611872,-1702.473667,-5995.668130,1532.190996
2608.612200,-3552.988522,-4737.318029,0.000000
2608.612528,-2368.659014,-4219.173869,-2681.334243
2608.612855,666.185348,-5181.441594,-3677.258390
2608.613183,4071.132681,-10362.883188,-1149.143247
2608.613510,6069.688724,-13101.645173,2911.162892
2608.613838,3701.029710,-13027.624579,6052.154434
2608.614166,1036.288319,-12287.418637,4826.401637
2608.614493,-1258.350101,-12509.480420,-229.828649
2608.614821,-2220.617826,-12509.480420,-3217.601092
2608.615149,-1924.535449,-11991.336260,-5515.887586
2608.615476,-666.185348,-10584.944971,-4443.353888
2608.615804,0.000000,-9178.553681,-842.705048
2608.616132,-592.164754,-6883.915261,1302.362347
2608.616459,-2368.659014,-4737.318029,2068.457845
2608.616787,-2368.659014,-3701.029710,919.314598
2608.617114,1036.288319,-4145.153275,-1991.848295
2608.617442,3997.112087,-7328.038826,-1072.533697
2608.617770,6143.709319,-11325.150913,1762.019645
2608.618097,5551.544565,-12361.439231,5362.668486
2608.618425,2516.700203,-13545.768739,6358.592633
2608.618753,0.000000,-13101.645173,3140.991542
2608.619080,-2146.597232,-12287.418637,-1991.848295
2608.619408,-3478.967927,-12139.377449,-5209.449386
2608.619736,-3034.844362,-12731.542202,-5822.325785
2608.620063,-1998.556043,-11473.192101,-4213.525239
2608.620391,-1332.370696,-8586.388927,-1149.143247
2608.620718,-2368.659014,-6069.688724,1225.752797
2608.621046,-2960.823768,-4959.379811,1302.362347
2608.621374,-1924.535449,-4515.256246,-842.705048
2608.621701,2146.597232,-6217.729913,-2298.286494
2608.622029,4737.318029,-7846.182985,-995.924147
2608.622356,6291.750507,-11251.130318,2911.162892
2608.622684,4811.338623,-13841.851115,5822.325785
2608.623011,1110.308913,-13323.706956,4903.011187
2608.623339,-1776.494261,-13101.645173,0.000000
2608.623666,-3034.844362,-12731.542202,-4673.182538
2608.623994,-2664.741391,-13101.645173,-6435.202183
2608.624321,-518.144159,-12287.418637,-4443.353888
2608.624649,148.041188,-10584.944971,-995.924147
2608.624976,814.226536,-7920.203579,2145.067394
2608.625304,-296.082377,-5995.668130,2528.115143
2608.625631,-1110.308913,-4367.215058,1225.752797
2608.625959,740.205942,-2960.823768,-1072.533697
2608.626286,3108.864956,-5847.626942,-1532.190996
2608.626614,4959.379811,-9992.780217,919.314598
2608.626941,5255.462188,-11843.295072,3983.696590
2608.627269,2368.659014,-12583.501014,4979.620737
2608.627596,-1184.329507,-13175.665768,2681.334243
2608.627924,-3330.926739,-12731.542202,-2068.457845
2608.628252,-4589.276840,-11843.295072,-4979.620737
2608.628579,-3404.947333,-12139.377449,-5822.325785
2608.628907,-296.082377,-11177.109724,-3370.820191
2608.629234,370.102971,-8882.471304,459.657299
2608.629562,-222.061783,-6291.750507,3600.648841
2608.629889,-1332.370696,-4663.297435,3447.429741
2608.630217,-1184.329507,-4219.173869,76.609550
2608.630544,814.226536,-5699.585753,-2451.505594
2608.630872,3034.844362,-8956.491898,-2221.676944
2608.631199,4737.318029,-11843.295072,0.000000
2608.631527,3034.844362,-13027.624579,4673.182538
2608.631854,370.102971,-13397.727550,4903.011187
2608.632182,-1776.494261,-12805.562797,459.657299
2608.632509,-2886.803174,-12435.459826,-3294.210641
2608.632837,-2886.803174,-12287.418637,-4979.620737
2608.633164,-296.082377,-11769.274478,-4519.963438
2608.633492,444.123565,-9474.636058,-2145.067394
2608.633819,1036.288319,-6809.894666,1762.019645
2608.634147,370.102971,-5477.523971,995.924147
2608.634474,-814.226536,-4663.297435,1302.362347
2608.634802,814.226536,-5033.400406,-612.876398
2608.635129,4071.132681,-7846.182985,-2145.067394
2608.635457,5773.606348,-11917.315666,-536.266849
2608.635784,5551.544565,-13397.727550,2834.553343
2608.636112,2886.803174,-13619.789333,4826.401637
2608.636439,-518.144159,-12731.542202,3677.258390
2608.636767,-2886.803174,-11177.109724,-536.266849
2608.637095,-3552.988522,-11029.068536,-3830.477490
2608.637422,-2220.617826,-11547.212695,-4596.572988
2608.637750,-666.185348,-10214.842000,-2604.724693
2608.638077,0.000000,-7476.080014,612.876398
2608.638405,-1332.370696,-6143.709319,2221.676944
2608.638732,-2442.679609,-5033.400406,1378.971896
2608.639060,-2294.638420,-4071.132681,-842.705048
2608.639387,296.082377,-5403.503377,-2528.115143
2608.639715,3775.050304,-9400.615463,-2374.896044
2608.640042,6291.750507,-13027.624579,995.924147
2608.640370,4663.297435,-13767.830521,6128.763984
2608.640697,814.226536,-13323.706956,5362.668486
2608.641025,-1924.535449,-11991.336260,1915.238745
2608.641352,-3627.009116,-10807.006753,-3217.601092
2608.641680,-3701.029710,-11251.130318,-5515.887586
2608.642007,-1850.514855,-11103.089130,-4366.744339
2608.642335,-888.247130,-9400.615463,-1532.190996
2608.642662,518.144159,-7846.182985,766.095498
2608.642990,74.020594,-7179.997637,459.657299
2608.643317,-888.247130,-5699.585753,536.266849
2608.643645,444.123565,-5107.421000,-919.314598
2608.643972,3330.926739,-7920.203579,-2221.676944
2608.644300,5551.544565,-11843.295072,-1225.752797
2608.644627,5477.523971,-13323.706956,2451.505594
2608.644955,3108.864956,-13027.624579,5056.230287
2608.645282,0.000000,-12435.459826,4673.182538
2608.645610,-2960.823768,-12139.377449,-536.266849
2608.645938,-4219.173869,-11325.150913,-4060.306139
2608.646265,-3034.844362,-10955.047942,-5515.887586
2608.646593,-1258.350101,-10066.800811,-3830.477490
2608.646920,296.082377,-8216.285956,-459.657299
2608.647248,0.000000,-6809.894666,2834.553343
2608.647575,-740.205942,-6217.729913,2451.505594
2608.647903,-962.267725,-4145.153275,1149.143247
2608.648230,962.267725,-5033.400406,-1378.971896
2608.648558,3775.050304,-8808.450710,-1915.238745
2608.648885,4959.379811,-12583.501014,919.314598
2608.649213,2886.803174,-14063.912898,3600.648841
2608.649540,1184.329507,-14730.098246,3983.696590
2608.649868,-2220.617826,-12435.459826,1149.143247
2608.650195,-4219.173869,-10140.821405,-2451.505594
2608.650523,-3627.009116,-11621.233289,-4673.182538
2608.650850,-1406.391290,-11251.130318,-4290.134789
2608.651178,-370.102971,-8660.409521,-1455.581446
2608.651505,0.000000,-6587.832884,995.924147
2608.651833,0.000000,-5329.482782,2298.286494
2608.652160,-518.144159,-4811.338623,1991.848295
2608.652488,0.000000,-5033.400406,-383.047749
2608.652815,2294.638420,-7698.141797,-2145.067394
2608.653143,5551.544565,-11695.253884,-1915.238745
2608.653470,6069.688724,-14285.974681,919.314598
2608.653798,3182.885551,-14804.118840,3753.867940
2608.654125,-888.247130,-13767.830521,3064.381992
2608.654453,-2368.659014,-12213.398043,-995.924147
2608.654781,-3997.112087,-11325.150913,-4519.963438
2608.655108,-2442.679609,-11029.068536,-4749.792088
2608.655436,-296.082377,-10140.821405,-3217.601092
2608.655763,518.144159,-7920.203579,229.828649
2608.656091,444.123565,-6439.791695,2451.505594
2608.656418,-592.164754,-5921.647536,1838.629195
2608.656746,-1258.350101,-4737.318029,459.657299
2608.657073,296.082377,-5255.462188,-1302.362347
2608.657401,2664.741391,-8956.491898,-2528.115143
2608.657728,5033.400406,-12435.459826,-459.657299
2608.658056,4589.276840,-14359.995275,2911.162892
2608.658383,1998.556043,-14285.974681,4903.011187
2608.658711,-2072.576638,-11547.212695,2834.553343
2608.659038,-3034.844362,-11325.150913,-383.047749
2608.659366,-2960.823768,-11325.150913,-3294.210641
2608.659693,-1850.514855,-9992.780217,-4443.353888
2608.660021,-296.082377,-8290.306550,-1762.019645
2608.660348,592.164754,-7031.956449,1608.800546
2608.660676,0.000000,-6069.688724,2681.334243
2608.661003,-740.205942,-5403.503377,1302.362347
2608.661331,-222.061783,-4737.318029,-1225.752797
2608.661658,2590.720797,-7402.059420,-2757.943793
2608.661986,5625.565159,-12361.439231,-2298.286494
2608.662313,5921.647536,-13767.830521,1302.362347
2608.662641,3627.009116,-13841.851115,4749.792088
2608.662968,222.061783,-12731.542202,3983.696590
2608.663296,-2368.659014,-12065.356855,0.000000
2608.663624,-3256.906145,-12583.501014,-3447.429741
2608.663951,-2812.782580,-10658.965565,-4979.620737
2608.664279,-1258.350101,-10362.883188,-4136.915689
2608.664606,296.082377,-9474.636058,-383.047749
2608.664934,148.041188,-6661.853478,1838.629195
2608.665261,-1332.370696,-5477.523971,2221.676944
2608.665589,-2738.761985,-5255.462188,536.266849
2608.665916,-370.102971,-6217.729913,-2298.286494
2608.666244,2368.659014,-8956.491898,-3064.381992
2608.666571,4589.276840,-11547.212695,-1225.752797
2608.666899,3997.112087,-12805.562797,2911.162892
2608.667226,1406.391290,-14137.933492,4979.620737
2608.667554,-1628.453072,-13101.645173,2834.553343
2608.667881,-3478.967927,-11103.089130,-1455.581446
2608.668209,-3775.050304,-10436.903782,-4903.011187
2608.668536,-1776.494261,-10510.924376,-4903.011187
2608.668864,296.082377,-9696.697840,-2911.162892
2608.669191,1628.453072,-8290.306550,1072.533697
2608.669519,962.267725,-6735.874072,3064.381992
2608.669846,0.000000,-5847.626942,2145.067394
2608.670174,370.102971,-5329.482782,229.828649
2608.670501,2146.597232,-6587.832884,-1608.800546
2608.670829,4515.256246,-9178.553681,-2374.896044
2608.671156,4811.338623,-12435.459826,612.876398
2608.671484,3775.050304,-13249.686362,4060.306139
2608.671811,592.164754,-11843.295072,3983.696590
2608.672139,-2664.741391,-10807.006753,612.876398
2608.672466,-3404.947333,-11621.233289,-2757.943793
2608.672794,-2146.597232,-11473.192101,-4903.011187
2608.673122,-740.205942,-9992.780217,-3753.867940
2608.673449,0.000000,-9252.574275,-536.266849
2608.673777,888.247130,-7920.203579,2374.896044
2608.674104,-148.041188,-6143.709319,2451.505594
2608.674432,-1702.473667,-5699.585753,1455.581446
2608.674759,0.000000,-6069.688724,-995.924147
2608.675087,2368.659014,-7920.203579,-3447.429741
2608.675414,3478.967927,-10288.862594,-1378.971896
2608.675742,3552.988522,-12953.603985,2451.505594
2608.676069,1258.350101,-13471.748144,4290.134789
2608.676397,-1998.556043,-12731.542202,2528.115143
2608.676724,-3627.009116,-11251.130318,-1072.533697
2608.677052,-2664.741391,-10732.986159,-4749.792088
2608.677379,-1480.411884,-9918.759623,-3753.867940
2608.677707,666.185348,-10584.944971,-1455.581446
2608.678034,2072.576638,-8660.409521,1685.410096
2608.678362,888.247130,-6957.935855,2374.896044
2608.678689,-518.144159,-6513.812290,1685.410096
2608.679017,-888.247130,-5625.565159,-612.876398
2608.679344,518.144159,-5995.668130,-2757.943793
2608.679672,2442.679609,-8290.306550,-2145.067394
2608.679999,3775.050304,-12065.356855,0.000000
2608.680327,4589.276840,-13767.830521,3677.258390
2608.680654,1480.411884,-12583.501014,5132.839837
2608.680982,-962.267725,-10807.006753,1838.629195
2608.681309,-1332.370696,-11843.295072,-1915.238745
2608.681637,-888.247130,-11251.130318,-3753.867940
2608.681965,-222.061783,-10140.821405,-2374.896044
2608.682292,518.144159,-9696.697840,-612.876398
2608.682620,592.164754,-8068.244768,2068.457845
2608.682947,-1184.329507,-6587.832884,2068.457845
2608.683275,-3923.091493,-6365.771101,306.438199
2608.683602,-3256.906145,-5921.647536,-2604.724693
2608.683930,0.000000,-7105.977043,-5286.058936
2608.684257,2960.823768,-10436.903782,-2757.943793
2608.684585,3775.050304,-12805.562797,2068.457845
2608.684912,2590.720797,-12583.501014,5592.497135
2608.685240,148.041188,-11769.274478,4903.011187
2608.685567,-2146.597232,-11029.068536,1072.533697
2608.685895,-2442.679609,-10436.903782,-3140.991542
2608.686222,-1110.308913,-10510.924376,-4749.792088
2608.686550,-148.041188,-10436.903782,-2374.896044
2608.686877,1702.473667,-10066.800811,-229.828649
2608.687205,592.164754,-8142.265362,1225.752797
2608.687532,-1628.453072,-6883.915261,1302.362347
2608.687860,-1924.535449,-6365.771101,-689.485948
2608.688187,666.185348,-6439.791695,-3064.381992
2608.688515,3034.844362,-7994.224174,-2681.334243
2608.688842,5033.400406,-11251.130318,-383.047749
2608.689170,5181.441594,-11917.315666,4366.744339
2608.689497,1776.494261,-11547.212695,5975.544884
2608.689825,-592.164754,-10658.965565,2987.772442
2608.690152,-1258.350101,-11399.171507,-1762.019645
2608.690480,-1702.473667,-11843.295072,-4673.182538
2608.690808,0.000000,-11843.295072,-4519.963438
2608.691135,1110.308913,-11917.315666,-2451.505594
2608.691463,1036.288319,-9770.718434,459.657299
2608.691790,-370.102971,-7402.059420,1608.800546
2608.692118,-2960.823768,-5995.668130,1225.752797
2608.692445,-2368.659014,-5329.482782,-1378.971896
2608.692773,518.144159,-6661.853478,-3370.820191
2608.693100,3034.844362,-9400.615463,-2451.505594
2608.693428,4441.235652,-11399.171507,2068.457845
2608.693755,3552.988522,-12805.562797,4903.011187
2608.694083,-222.061783,-12213.398043,4290.134789
2608.694410,-2442.679609,-11399.171507,0.000000
2608.694738,-2738.761985,-11029.068536,-4596.572988
2608.695065,-2294.638420,-12435.459826,-5286.058936
2608.695393,-296.082377,-11621.233289,-2681.334243
2608.695720,1998.556043,-10732.986159,-153.219100
2608.696048,814.226536,-9326.594869,1838.629195
2608.696375,-740.205942,-7328.038826,2451.505594
2608.696703,-1702.473667,-4959.379811,306.438199
2608.697030,-666.185348,-4515.256246,-1991.848295
2608.697358,1110.308913,-6513.812290,-2528.115143
2608.697685,4145.153275,-9030.512492,-612.876398
2608.698013,4441.235652,-11251.130318,3753.867940
2608.698340,2516.700203,-12213.398043,6588.421283
2608.698668,0.000000,-11547.212695,3447.429741
2608.698995,-1406.391290,-12435.459826,-1685.410096
2608.699323,-1850.514855,-13027.624579,-4443.353888
2608.699651,-1036.288319,-11251.130318,-4903.011187
2608.699978,1036.288319,-11103.089130,-2374.896044
2608.700306,814.226536,-9992.780217,1685.410096
2608.700633,-370.102971,-7031.956449,2528.115143
2608.700961,-2664.741391,-4885.359217,1838.629195
2608.701288,-3775.050304,-3775.050304,-766.095498
2608.701616,-1554.432478,-5181.441594,-3524.039291
2608.701943,1850.514855,-8660.409521,-3447.429741
2608.702271,4367.215058,-10807.006753,153.219100
2608.702598,4145.153275,-11917.315666,4519.963438
2608.702926,2368.659014,-12583.501014,4519.963438
2608.703253,-148.041188,-11843.295072,2681.334243
2608.703581,-814.226536,-11917.315666,-2221.676944
2608.703908,-444.123565,-12287.418637,-4673.182538
2608.704236,-518.144159,-12213.398043,-3983.696590
2608.704563,1184.329507,-11769.274478,-1685.410096
2608.704891,740.205942,-9104.533087,1225.752797
2608.705218,-2072.576638,-6883.915261,1378.971896
2608.705546,-2516.700203,-5995.668130,153.219100
2608.705873,-1332.370696,-5255.462188,-2451.505594
2608.706201,888.247130,-5921.647536,-3370.820191
2608.706528,3923.091493,-9104.533087,-1915.238745
2608.706856,5403.503377,-11843.295072,2374.896044
2608.707183,3256.906145,-11843.295072,6205.373534
2608.707511,888.247130,-12213.398043,4673.182538
2608.707838,-888.247130,-12509.480420,229.828649
2608.708166,-1184.329507,-12805.562797,-3370.820191
2608.708494,-444.123565,-12509.480420,-4443.353888
2608.708821,0.000000,-11769.274478,-3447.429741
2608.709149,-148.041188,-10436.903782,-995.924147
2608.709476,-1332.370696,-7772.162391,689.485948
2608.709804,-3997.112087,-5699.585753,842.705048
2608.710131,-4589.276840,-4589.276840,-1072.533697
2608.710459,-1628.453072,-5033.400406,-2911.162892
2608.710786,1998.556043,-7179.997637,-2681.334243
2608.711114,4219.173869,-10732.986159,1302.362347
2608.711441,5033.400406,-11991.336260,5132.839837
2608.711769,3034.844362,-11695.253884,5515.887586
2608.712096,148.041188,-11843.295072,3140.991542
2608.712424,-518.144159,-12509.480420,-2451.505594
2608.712751,-1332.370696,-12435.459826,-5056.230287
2608.713079,-888.247130,-12065.356855,-4826.401637
2608.713406,-296.082377,-11399.171507,-2681.334243
2608.713734,148.041188,-10140.821405,-919.314598
2608.714061,-1406.391290,-7550.100608,1685.410096
2608.714389,-2294.638420,-4959.379811,689.485948
2608.714716,-592.164754,-4737.318029,-2298.286494
2608.715044,1850.514855,-5847.626942,-2451.505594
2608.715371,4219.173869,-8142.265362,-995.924147
2608.715699,6143.709319,-11029.068536,2757.943793
2608.716026,4145.153275,-11843.295072,6128.763984
2608.716354,1406.391290,-11325.150913,5515.887586
2608.716681,-1406.391290,-12583.501014,0.000000
2608.717009,-1702.473667,-14730.098246,-3753.867940
2608.717337,-1702.473667,-13027.624579,-5515.887586
2608.717664,-962.267725,-12361.439231,-5056.230287
2608.717992,-1110.308913,-11251.130318,-1378.971896
2608.718319,-1332.370696,-7846.182985,1225.752797
2608.718647,-1776.494261,-5477.523971,1762.019645
2608.718974,-3478.967927,-4219.173869,1838.629195
2608.719302,-1036.288319,-4293.194464,-1532.190996
2608.719629,2664.741391,-6661.853478,-2374.896044
2608.719957,3997.112087,-9326.594869,919.314598
2608.720284,4145.153275,-11029.068536,4443.353888
2608.720612,2590.720797,-12509.480420,5209.449386
2608.720939,-296.082377,-12583.501014,3524.039291
2608.721267,-1036.288319,-12731.542202,-1225.752797
2608.721594,-1036.288319,-13101.645173,-3907.087040
2608.721922,-1406.391290,-12509.480420,-3907.087040
2608.722249,0.000000,-11769.274478,-2451.505594
2608.722577,222.061783,-9622.677246,-536.266849
2608.722903,-1480.411884,-6883.915261,536.266849
2608.723231,-2442.679609,-4663.297435,1378.971896
2608.723558,-1332.370696,-3330.926739,0.000000
2608.723886,518.144159,-4367.215058,-2145.067394
2608.724213,3404.947333,-7254.018232,-766.095498
2608.724541,5477.523971,-10658.965565,1915.238745
2608.724868,4663.297435,-12953.603985,5056.230287
2608.725196,2368.659014,-13397.727550,4826.401637
2608.725524,0.000000,-12657.521608,766.095498
2608.725851,-1406.391290,-14063.912898,-2528.115143
2608.726179,-1332.370696,-13989.892304,-4673.182538
2608.726506,-1332.370696,-11547.212695,-4366.744339
2608.726834,-1258.350101,-10658.965565,-2374.896044
2608.727161,-1776.494261,-8216.285956,0.000000
2608.727489,-3034.844362,-4885.359217,536.266849
2608.727816,-3182.885551,-4293.194464,0.000000
2608.728144,-1702.473667,-4219.173869,-1532.190996
2608.728471,2368.659014,-6217.729913,-2451.505594
2608.728799,5181.441594,-10066.800811,-383.047749
2608.729126,5477.523971,-12731.542202,3447.429741
2608.729454,3478.967927,-13323.706956,5515.887586
2608.729781,1258.350101,-13767.830521,4060.306139
2608.730109,-1480.411884,-12953.603985,0.000000
2608.730436,-2146.597232,-12435.459826,-2911.162892
2608.730764,-1406.391290,-12213.398043,-5286.058936
2608.731091,-814.226536,-10807.006753,-3677.258390
2608.731419,-296.082377,-9178.553681,-1225.752797
2608.731746,-1924.535449,-6069.688724,383.047749
2608.732074,-3478.967927,-5107.421000,612.876398
2608.732401,-2368.659014,-3627.009116,-842.705048
2608.732729,740.205942,-4071.132681,-1378.971896
2608.733056,4367.215058,-7698.141797,-842.705048
2608.733384,6957.935855,-11769.274478,1915.238745
2608.733712,6291.750507,-13027.624579,5056.230287
2608.734039,2886.803174,-13471.748144,5898.935335
2608.734367,370.102971,-13175.665768,2757.943793
2608.734694,-1776.494261,-12213.398043,-2068.457845
2608.735022,-2664.741391,-12435.459826,-4443.353888
2608.735349,-2368.659014,-10214.842000,-5362.668486
2608.735677,-962.267725,-9992.780217,-3600.648841
2608.736004,-1480.411884,-8586.388927,0.000000
2608.736332,-2072.576638,-5773.606348,1532.190996
2608.736659,-2072.576638,-4441.235652,919.314598
2608.736987,-1110.308913,-4441.235652,-766.095498
2608.737314,2368.659014,-7105.977043,-2221.676944
2608.737642,5773.606348,-10362.883188,-1608.800546
2608.737969,5255.462188,-11917.315666,3217.601092
2608.738297,3404.947333,-13619.789333,6128.763984
2608.738624,0.000000,-14211.954086,4213.525239
2608.738952,-3330.926739,-12953.603985,0.000000
2608.739279,-4589.276840,-11769.274478,-4673.182538
2608.739607,-4071.132681,-11399.171507,-7354.516781
2608.739934,-2812.782580,-11473.192101,-5209.449386
2608.740262,-1036.288319,-9548.656652,-1762.019645
2608.740589,0.000000,-6587.832884,689.485948
2608.740917,-1110.308913,-5773.606348,2068.457845
2608.741245,-222.061783,-5181.441594,1225.752797
2608.741572,2442.679609,-4663.297435,-919.314598
2608.741900,4219.173869,-6661.853478,-842.705048
2608.742227,5847.626942,-10510.924376,1838.629195
2608.742555,5477.523971,-13027.624579,4290.134789
2608.742882,2886.803174,-13471.748144,5362.668486
2608.743210,-740.205942,-12509.480420,2681.334243
2608.743537,-2294.638420,-12509.480420,-1532.190996
2608.743865,-2220.617826,-12065.356855,-4060.306139
2608.744192,-1850.514855,-10510.924376,-4903.011187
2608.744520,-666.185348,-9474.636058,-3140.991542
2608.744847,-370.102971,-7550.100608,-383.047749
2608.745175,-962.267725,-5107.421000,2221.676944
2608.745502,-1332.370696,-4145.153275,2374.896044
2608.745830,0.000000,-4145.153275,-229.828649
2608.746157,2072.576638,-6661.853478,-2221.676944
2608.746485,4589.276840,-10288.862594,-1532.190996
2608.746812,5847.626942,-14137.933492,1302.362347
2608.747140,3775.050304,-13693.809927,3907.087040
2608.747467,1110.308913,-13767.830521,3217.601092
2608.747795,-1702.473667,-13397.727550,536.266849
2608.748122,-3404.947333,-12065.356855,-2451.505594
2608.748450,-2146.597232,-11399.171507,-4290.134789
2608.748778,-592.164754,-11177.109724,-3907.087040
2608.749105,-962.267725,-8586.388927,-689.485948
2608.749433,-296.082377,-6365.771101,1225.752797
2608.749760,-1332.370696,-5773.606348,995.924147
2608.750088,-1702.473667,-5329.482782,0.000000
2608.750415,814.226536,-5033.400406,-1608.800546
2608.750743,3034.844362,-7846.182985,-1762.019645
2608.751070,5403.503377,-11917.315666,0.000000
2608.751398,5181.441594,-14211.954086,3447.429741
2608.751725,2368.659014,-14359.995275,4673.182538
2608.752053,-1184.329507,-12731.542202,2604.724693
2608.752380,-2738.761985,-11843.295072,-1072.533697
2608.752708,-3034.844362,-10658.965565,-2987.772442
2608.753035,-2220.617826,-10288.862594,-2987.772442
2608.753363,-1184.329507,-8956.491898,-995.924147
2608.753690,-592.164754,-7031.956449,-689.485948
2608.754018,-1258.350101,-5329.482782,536.266849
2608.754345,-2516.700203,-4737.318029,995.924147
2608.754673,-1776.494261,-4737.318029,-383.047749
2608.755000,1258.350101,-6883.915261,-2374.896044
2608.755328,4663.297435,-10881.027347,-2145.067394
2608.755655,5995.668130,-13915.871710,919.314598
2608.755983,4293.194464,-14063.912898,4213.525239
2608.756311,1554.432478,-13249.686362,4903.011187
2608.756638,-1850.514855,-12065.356855,1838.629195
2608.756966,-3775.050304,-11621.233289,-1762.019645
2608.757293,-3701.029710,-10881.027347,-4290.134789
2608.757621,-1850.514855,-9178.553681,-4826.401637
2608.757948,-370.102971,-8216.285956,-2911.162892
2608.758276,-444.123565,-7105.977043,842.705048
2608.758603,-740.205942,-6587.832884,1302.362347
2608.758931,0.000000,-5477.523971,536.266849
2608.759258,1702.473667,-5033.400406,-766.095498
2608.759586,4219.173869,-8068.244768,-1532.190996
2608.759913,6809.894666,-11251.130318,-229.828649
2608.760241,5699.585753,-13989.892304,3217.601092
2608.760568,2886.803174,-14359.995275,4673.182538
2608.760896,-296.082377,-13249.686362,2068.457845
2608.761223,-2886.803174,-11251.130318,-306.438199
2608.761551,-4071.132681,-10362.883188,-2604.724693
2608.761878,-2664.741391,-10658.965565,-4596.572988
2608.762206,-1776.494261,-10288.862594,-3140.991542
2608.762533,-1480.411884,-7846.182985,-1608.800546
2608.762861,-1184.329507,-6291.750507,459.657299
2608.763188,-2442.679609,-5107.421000,1072.533697
2608.763516,-1036.288319,-4293.194464,689.485948
2608.763844,2072.576638,-6217.729913,-1225.752797
2608.764171,4885.359217,-10214.842000,-995.924147
2608.764499,6513.812290,-13249.686362,1378.971896
2608.764826,4663.297435,-14211.954086,3600.648841
2608.765154,1258.350101,-13619.789333,3677.258390
2608.765481,-2590.720797,-12657.521608,1685.410096
2608.765809,-4589.276840,-11399.171507,-2221.676944
2608.766136,-4441.235652,-10584.944971,-4903.011187
2608.766464,-2146.597232,-10658.965565,-4903.011187
2608.766791,-518.144159,-8586.388927,-1685.410096
2608.767119,740.205942,-7402.059420,919.314598
2608.767446,74.020594,-7254.018232,2221.676944
2608.767774,0.000000,-5181.441594,1838.629195
2608.768101,1110.308913,-4737.318029,-383.047749
2608.768429,3775.050304,-7550.100608,-2068.457845
2608.768756,5477.523971,-11843.295072,-229.828649
2608.769084,5329.482782,-13397.727550,2604.724693
2608.769411,4071.132681,-14211.954086,3983.696590
2608.769739,0.000000,-13027.624579,2528.115143
2608.770066,-3108.864956,-11991.336260,0.000000
2608.770394,-3775.050304,-11473.192101,-2987.772442
2608.770721,-2368.659014,-11325.150913,-4749.792088
2608.771049,-1628.453072,-9844.739029,-3600.648841
2608.771376,0.000000,-7476.080014,-1685.410096
2608.771704,-370.102971,-5403.503377,1762.019645
2608.772032,-1702.473667,-5847.626942,2604.724693
2608.772359,-518.144159,-5477.523971,919.314598
2608.772687,74.020594,-5921.647536,-1302.362347
2608.773014,2886.803174,-9474.636058,-2834.553343
2608.773342,4737.318029,-12435.459826,-689.485948
2608.773669,3256.906145,-13249.686362,2451.505594
2608.773997,740.205942,-12805.562797,4060.306139
2608.774324,-1776.494261,-11547.212695,2221.676944
2608.774652,-3256.906145,-11103.089130,-995.924147
2608.774979,-2516.700203,-11621.233289,-3447.429741
2608.775307,-1332.370696,-9992.780217,-3907.087040
2608.775634,-444.123565,-8216.285956,-2068.457845
2608.775962,444.123565,-7476.080014,612.876398
2608.776289,-518.144159,-6809.894666,1915.238745
2608.776617,-518.144159,-5403.503377,1225.752797
2608.776944,-592.164754,-4885.359217,-153.219100
2608.777272,2368.659014,-7698.141797,-2451.505594
2608.777599,4811.338623,-12435.459826,-2451.505594
2608.777927,5181.441594,-13693.809927,1302.362347
2608.778254,2886.803174,-13767.830521,4136.915689
2608.778582,740.205942,-13249.686362,3217.601092
2608.778909,-1332.370696,-11991.336260,1225.752797
2608.779237,-2368.659014,-10584.944971,-2757.943793
2608.779565,-1702.473667,-10584.944971,-3753.867940
2608.779892,-740.205942,-10066.800811,-2681.334243
2608.780220,370.102971,-8882.471304,-1072.533697
2608.780547,-74.020594,-7402.059420,1072.533697
2608.780875,-2072.576638,-5403.503377,2298.286494
2608.781202,-1406.391290,-5181.441594,306.438199
2608.781530,962.267725,-6513.812290,-1915.238745
2608.781857,2812.782580,-9474.636058,-2451.505594
2608.782185,4515.256246,-11769.274478,-383.047749
2608.782512,4441.235652,-12731.542202,2987.772442
2608.782840,1332.370696,-13027.624579,4903.011187
2608.783167,-1776.494261,-11621.233289,2681.334243
2608.783495,-2664.741391,-10436.903782,-383.047749
2608.783822,-2812.782580,-10732.986159,-3830.477490
2608.784150,-1258.350101,-10807.006753,-4673.182538
2608.784477,444.123565,-9548.656652,-3140.991542
2608.784805,518.144159,-8808.450710,0.000000
2608.785132,0.000000,-8068.244768,1915.238745
2608.785460,-148.041188,-6143.709319,536.266849
2608.785787,518.144159,-5551.544565,-383.047749
2608.786115,2442.679609,-7105.977043,-1532.190996
2608.786442,4441.235652,-10288.862594,-1455.581446
2608.786770,5403.503377,-12657.521608,1378.971896
2608.787098,3552.988522,-12583.501014,4596.572988
2608.787425,0.000000,-11177.109724,4060.306139
2608.787753,-2368.659014,-11769.274478,459.657299
2608.788080,-2960.823768,-12139.377449,-2681.334243
2608.788408,-2072.576638,-10955.047942,-4826.401637
2608.788735,-962.267725,-11103.089130,-4366.744339
2608.789063,148.041188,-9844.739029,-1225.752797
2608.789390,74.020594,-7846.182985,842.705048
2608.789718,-1258.350101,-6735.874072,1149.143247
2608.790045,-1998.556043,-5773.606348,459.657299
2608.790373,0.000000,-5107.421000,-2145.067394
2608.790700,2960.823768,-8290.306550,-3217.601092
2608.791028,3997.112087,-10732.986159,-153.219100
2608.791355,3923.091493,-12065.356855,2834.553343
2608.791683,1998.556043,-13397.727550,4519.963438
2608.792010,-1554.432478,-12213.398043,2911.162892
2608.792338,-2664.741391,-11325.150913,-383.047749
2608.792665,-2516.700203,-11843.295072,-3983.696590
2608.792993,-2368.659014,-11547.212695,-3524.039291
2608.793320,-740.205942,-10436.903782,-1915.238745
2608.793648,0.000000,-8808.450710,306.438199
2608.793975,-1258.350101,-7328.038826,1608.800546
2608.794303,-2442.679609,-6587.832884,1225.752797
2608.794631,-1480.411884,-5773.606348,-612.876398
2608.794958,-222.061783,-5551.544565,-1915.238745
2608.795286,2146.597232,-8438.347739,-1915.238745
2608.795613,4145.153275,-12213.398043,536.266849
2608.795941,3034.844362,-12213.398043,4290.134789
2608.796268,962.267725,-11103.089130,4060.306139
2608.796596,-592.164754,-11843.295072,766.095498
2608.796923,-1480.411884,-12435.459826,-1225.752797
2608.797251,-1554.432478,-10436.903782,-2068.457845
2608.797578,0.000000,-10214.842000,-2604.724693
2608.797906,814.226536,-9696.697840,-612.876398
2608.798233,370.102971,-7994.224174,1378.971896
2608.798561,-1110.308913,-5995.668130,1915.238745
2608.798888,-2516.700203,-5329.482782,536.266849
2608.799216,-592.164754,-6217.729913,-2834.553343
2608.799543,2220.617826,-7328.038826,-3830.477490
2608.799871,4367.215058,-10214.842000,-1838.629195
2608.800198,5181.441594,-12509.480420,2068.457845
2608.800526,3701.029710,-13471.748144,4060.306139
2608.800853,592.164754,-12953.603985,3140.991542
2608.801181,-1258.350101,-12287.418637,-153.219100
2608.801508,-1332.370696,-11325.150913,-2911.162892
2608.801836,74.020594,-10955.047942,-3294.210641
2608.802163,1258.350101,-10436.903782,-1991.848295
2608.802491,1480.411884,-9696.697840,-306.438199
2608.802819,370.102971,-8660.409521,919.314598
2608.803146,-1480.411884,-6957.935855,1149.143247
2608.803474,-1332.370696,-5033.400406,-612.876398
2608.803801,518.144159,-5329.482782,-1991.848295
2608.804129,3034.844362,-7476.080014,-2374.896044
2608.804456,4811.338623,-10436.903782,1072.533697
2608.804784,4811.338623,-12361.439231,4060.306139
2608.805111,2294.638420,-11917.315666,4903.011187
2608.805439,-518.144159,-11695.253884,2451.505594
2608.805766,-1998.556043,-12213.398043,-689.485948
2608.806094,-1998.556043,-11325.150913,-3064.381992
2608.806421,-1776.494261,-10807.006753,-3524.039291
2608.806749,-814.226536,-10436.903782,-2451.505594
2608.807076,-1110.308913,-8734.430116,76.609550
2608.807404,-2368.659014,-6661.853478,1072.533697
2608.807731,-3701.029710,-5477.523971,612.876398
2608.808059,-2368.659014,-4811.338623,-1378.971896
2608.808386,740.205942,-6217.729913,-2451.505594
2608.808714,1850.514855,-8216.285956,-612.876398
2608.809041,4145.153275,-10955.047942,2681.334243
2608.809369,3034.844362,-11991.336260,4596.572988
2608.809696,0.000000,-12213.398043,4213.525239
2608.810024,-2220.617826,-12139.377449,229.828649
2608.810352,-2368.659014,-12065.356855,-3600.648841
2608.810679,-1480.411884,-12509.480420,-4903.011187
2608.811007,-518.144159,-12287.418637,-4290.134789
2608.811334,296.082377,-11473.192101,-1378.971896
2608.811662,-962.267725,-9474.636058,229.828649
2608.811989,-2516.700203,-6809.894666,919.314598
2608.812317,-2590.720797,-4737.318029,-612.876398
2608.812644,-666.185348,-4737.318029,-1608.800546
2608.812972,1776.494261,-7031.956449,-1378.971896
2608.813299,4885.359217,-9400.615463,459.657299
2608.813627,5255.462188,-10881.027347,3600.648841
2608.813954,2664.741391,-11621.233289,5515.887586
2608.814282,444.123565,-12657.521608,2528.115143
2608.814609,-1036.288319,-12805.562797,-459.657299
2608.814937,-1702.473667,-12509.480420,-3064.381992
2608.815264,0.000000,-12065.356855,-4749.792088
2608.815592,222.061783,-11843.295072,-2145.067394
2608.815919,518.144159,-9844.739029,0.000000
2608.816247,-962.267725,-6587.832884,1762.019645
2608.816574,-2220.617826,-5403.503377,2145.067394
2608.816902,-2146.597232,-4885.359217,0.000000
2608.817229,0.000000,-4145.153275,-2451.505594
2608.817557,2072.576638,-5699.585753,-1685.410096
2608.817885,4663.297435,-9918.759623,1532.190996
2608.818212,3478.967927,-11621.233289,4826.401637
2608.818540,814.226536,-12435.459826,4749.792088
2608.818867,0.000000,-13249.686362,1302.362347
2608.819195,0.000000,-13693.809927,-2604.724693
2608.819522,0.000000,-13323.706956,-4060.306139
2608.819850,814.226536,-12139.377449,-3677.258390
2608.820177,740.205942,-9622.677246,-2145.067394
2608.820505,296.082377,-9104.533087,0.000000
2608.820832,-1924.535449,-7105.977043,1608.800546
2608.821160,-2516.700203,-3775.050304,306.438199
2608.821487,-1776.494261,-3997.112087,-1685.410096
2608.821815,888.247130,-6957.935855,-2451.505594
2608.822142,3849.070898,-9770.718434,-995.924147
2608.822470,5033.400406,-11547.212695,2451.505594
2608.822797,3775.050304,-12065.356855,4596.572988
2608.823125,2220.617826,-13767.830521,2757.943793
2608.823452,1036.288319,-14063.912898,0.000000
2608.823780,0.000000,-13175.665768,-1762.019645
2608.824107,0.000000,-12509.480420,-2834.553343
2608.824435,148.041188,-11843.295072,-2757.943793
2608.824762,-1110.308913,-9474.636058,-1378.971896
2608.825090,-2368.659014,-7254.018232,76.609550
2608.825417,-4145.153275,-5329.482782,76.609550
2608.825745,-3775.050304,-4663.297435,-995.924147
2608.826072,-1480.411884,-4663.297435,-2145.067394
2608.826400,1776.494261,-6661.853478,-1915.238745
2608.826727,4441.235652,-9548.656652,919.314598
2608.827055,4145.153275,-11917.315666,4826.401637
2608.827382,2146.597232,-11991.336260,5439.278036
2608.827709,0.000000,-12065.356855,2681.334243
2608.828037,-1110.308913,-12509.480420,-1149.143247
2608.828364,-1480.411884,-13101.645173,-3447.429741
2608.828692,-1258.350101,-12139.377449,-4290.134789
2608.829019,-814.226536,-11103.089130,-3140.991542
2608.829347,-1480.411884,-8734.430116,-689.485948
2608.829674,-3330.926739,-6217.729913,0.000000
2608.830002,-3404.947333,-5699.585753,-229.828649
2608.830329,-1776.494261,-4071.132681,-1149.143247
2608.830657,1776.494261,-4441.235652,-1991.848295
2608.830984,3849.070898,-8068.244768,-153.219100
2608.831312,5995.668130,-11325.150913,3677.258390
2608.831639,4811.338623,-11843.295072,4903.011187
2608.831966,2442.679609,-11695.253884,3907.087040
2608.832294,518.144159,-12879.583391,459.657299
2608.832621,-592.164754,-14285.974681,-3217.601092
2608.832949,-666.185348,-14063.912898,-4596.572988
2608.833276,-1110.308913,-12287.418637,-4060.306139
2608.833604,-1554.432478,-10510.924376,-2681.334243
2608.833931,-1702.473667,-8808.450710,-536.266849
2608.834259,-2960.823768,-6513.812290,-383.047749
2608.834586,-3182.885551,-4737.318029,-383.047749
2608.834914,74.020594,-5107.421000,-1378.971896
2608.835241,3108.864956,-6365.771101,-766.095498
2608.835568,4737.318029,-9178.553681,1991.848295
2608.835896,5329.482782,-11621.233289,4903.011187
2608.836223,2738.761985,-12287.418637,5439.278036
2608.836551,148.041188,-12139.377449,3217.601092
2608.836878,-740.205942,-13323.706956,-1149.143247
2608.837206,-1554.432478,-14063.912898,-3677.258390
2608.837533,-1332.370696,-13101.645173,-4060.306139
2608.837861,-666.185348,-11621.233289,-2681.334243
2608.838188,-1036.288319,-9030.512492,-1302.362347
2608.838516,-2368.659014,-6291.750507,-153.219100
2608.838843,-3256.906145,-3552.988522,689.485948
2608.839171,-1998.556043,-2738.761985,-153.219100
2608.839498,1702.473667,-4441.235652,-1072.533697
2608.839825,4811.338623,-8142.265362,306.438199
2608.840153,6217.729913,-11399.171507,3524.039291
2608.840480,5403.503377,-12953.603985,5515.887586
2608.840808,2442.679609,-13101.645173,4519.963438
2608.841135,-444.123565,-12509.480420,1149.143247
2608.841463,-1628.453072,-14211.954086,-3064.381992
2608.841790,-1702.473667,-13471.748144,-4673.182538
2608.842118,-1258.350101,-11103.089130,-4290.134789
2608.842445,-518.144159,-10584.944971,-2911.162892
2608.842773,-1998.556043,-7624.121203,0.000000
2608.843100,-3404.947333,-5477.523971,1072.533697
2608.843427,-4219.173869,-3478.967927,536.266849
2608.843755,-2220.617826,-3627.009116,-2374.896044
2608.844082,1850.514855,-6143.709319,-2528.115143
2608.844410,4811.338623,-10066.800811,459.657299
2608.844737,5477.523971,-12805.562797,4290.134789
2608.845065,3478.967927,-13915.871710,5209.449386
2608.845392,1184.329507,-14952.160028,2681.334243
2608.845720,-666.185348,-14211.954086,-1532.190996
2608.846047,-2368.659014,-13101.645173,-4136.915689
2608.846375,-1850.514855,-11621.233289,-4213.525239
2608.846702,-814.226536,-9918.759623,-3447.429741
2608.847030,-592.164754,-8956.491898,-1149.143247
2608.847357,-1480.411884,-6735.874072,0.000000
2608.847684,-2590.720797,-4589.276840,1072.533697
2608.848012,-1998.556043,-3478.967927,-306.438199
2608.848339,370.102971,-4959.379811,-2068.457845
2608.848667,3849.070898,-9326.594869,-1302.362347
2608.848994,6365.771101,-12435.459826,1915.238745
2608.849322,4737.318029,-12509.480420,4673.182538
2608.849649,2516.700203,-13397.727550,5745.716235
2608.849977,-444.123565,-13619.789333,2987.772442
2608.850304,-2738.761985,-11991.336260,-995.924147
2608.850632,-3997.112087,-11325.150913,-4749.792088
2608.850959,-2886.803174,-10658.965565,-5592.497135
2608.851286,-2294.638420,-9474.636058,-4366.744339
2608.851614,-2294.638420,-7846.182985,-766.095498
2608.851941,-2886.803174,-5699.585753,919.314598
2608.852269,-2220.617826,-4885.359217,995.924147
2608.852596,592.164754,-6365.771101,-1225.752797
2608.852924,2886.803174,-7328.038826,-1378.971896
2608.853251,5699.585753,-10288.862594,-383.047749
2608.853579,6883.915261,-12287.418637,2987.772442
2608.853906,4441.235652,-13397.727550,5898.935335
2608.854234,1702.473667,-13249.686362,4979.620737
2608.854561,0.000000,-12435.459826,1378.971896
2608.854889,-1998.556043,-11843.295072,-2374.896044
2608.855216,-2220.617826,-11769.274478,-4826.401637
2608.855543,-962.267725,-10732.986159,-4903.011187
2608.855871,-1110.308913,-9104.533087,-2911.162892
2608.856198,-1110.308913,-7105.977043,-919.314598
2608.856526,-1480.411884,-5255.462188,0.000000
2608.856853,-740.205942,-4441.235652,306.438199
2608.857181,2072.576638,-5403.503377,-1378.971896
2608.857508,5329.482782,-8882.471304,0.000000
2608.857836,6809.894666,-12065.356855,2068.457845
2608.858163,5403.503377,-12879.583391,4596.572988
2608.858491,2368.659014,-13027.624579,4136.915689
2608.858818,-222.061783,-11991.336260,842.705048
2608.859145,-2368.659014,-11695.253884,-995.924147
2608.859473,-2886.803174,-11251.130318,-2987.772442
2608.859800,-2220.617826,-11103.089130,-4060.306139
2608.860128,-1480.411884,-9770.718434,-3217.601092
2608.860455,-1332.370696,-8068.244768,-1378.971896
2608.860783,-2886.803174,-6291.750507,689.485948
2608.861110,-3478.967927,-4589.276840,1685.410096
2608.861438,-1480.411884,-3849.070898,-306.438199
2608.861765,1924.535449,-6809.894666,-1838.629195
2608.862093,4515.256246,-10214.842000,0.000000
2608.862420,4737.318029,-12731.542202,3217.601092
2608.862748,2368.659014,-13989.892304,5286.058936
2608.863075,-370.102971,-13619.789333,3064.381992
2608.863402,-2442.679609,-12435.459826,-1225.752797
2608.863730,-4737.318029,-11029.068536,-3600.648841
2608.864057,-2960.823768,-10732.986159,-4596.572988
2608.864385,-814.226536,-10807.006753,-3140.991542
2608.864712,-592.164754,-8512.368333,-919.314598
2608.865040,-518.144159,-6661.853478,306.438199
2608.865367,-666.185348,-6069.688724,153.219100
2608.865695,-962.267725,-4367.215058,-306.438199
2608.866022,444.123565,-5181.441594,-1225.752797
2608.866350,3552.988522,-9104.533087,-995.924147
2608.866677,5551.544565,-12213.398043,383.047749
2608.867004,5181.441594,-13619.789333,2987.772442
2608.867332,1998.556043,-13841.851115,4136.915689
2608.867659,-296.082377,-13175.665768,2451.505594
2608.867987,-1998.556043,-11843.295072,-229.828649
2608.868314,-2738.761985,-11917.315666,-2834.553343
2608.868642,-1332.370696,-10732.986159,-4213.525239
2608.868969,296.082377,-8956.491898,-3524.039291
2608.869297,222.061783,-7031.956449,-383.047749
2608.869624,-1332.370696,-5847.626942,1685.410096
2608.869952,-1554.432478,-5329.482782,1225.752797
2608.870279,-740.205942,-4441.235652,-995.924147
2608.870607,1406.391290,-6291.750507,-2757.943793
2608.870934,4589.276840,-9622.677246,-995.924147
2608.871261,5329.482782,-13841.851115,1685.410096
2608.871589,4515.256246,-15100.201217,4826.401637
2608.871916,1406.391290,-13323.706956,3907.087040
2608.872244,-2220.617826,-11399.171507,1225.752797
2608.872571,-3256.906145,-11325.150913,-1608.800546
2608.872899,-2072.576638,-9844.739029,-3447.429741
2608.873226,-1554.432478,-8882.471304,-4366.744339
2608.873554,-1924.535449,-8142.265362,-995.924147
2608.873881,-814.226536,-7031.956449,-229.828649
2608.874209,-1406.391290,-5329.482782,0.000000
2608.874536,-1332.370696,-5477.523971,-766.095498
2608.874863,888.247130,-6883.915261,-1378.971896
2608.875191,4885.359217,-10658.965565,-1991.848295
2608.875518,7254.018232,-13101.645173,0.000000
2608.875846,5773.606348,-13915.871710,3370.820191
2608.876173,3108.864956,-13471.748144,4596.572988
2608.876501,-444.123565,-12583.501014,3140.991542
2608.876828,-3330.926739,-10807.006753,0.000000
2608.877156,-3404.947333,-10140.821405,-2987.772442
2608.877483,-2442.679609,-10510.924376,-3983.696590
2608.877811,-1850.514855,-9252.574275,-2528.115143
2608.878138,-814.226536,-7624.121203,-1149.143247
2608.878465,-1554.432478,-6587.832884,76.609550
2608.878793,-2294.638420,-6143.709319,306.438199
2608.879120,-888.247130,-5477.523971,-536.266849
2608.879448,2146.597232,-7328.038826,-1838.629195
2608.879775,5181.441594,-10732.986159,0.000000
2608.880103,6809.894666,-12953.603985,1915.238745
2608.880430,3997.112087,-13545.768739,4826.401637
2608.880758,-148.041188,-12879.583391,4443.353888
2608.881085,-3034.844362,-10807.006753,919.314598
2608.881413,-4367.215058,-9770.718434,-2757.943793
2608.881740,-3552.988522,-10140.821405,-4366.744339
2608.882068,-1924.535449,-10214.842000,-4060.306139
2608.882395,-740.205942,-8734.430116,-1532.190996
2608.882722,-444.123565,-7031.956449,919.314598
2608.883050,-370.102971,-6291.750507,1072.533697
2608.883377,-518.144159,-5625.565159,383.047749
2608.883705,592.164754,-5847.626942,-383.047749
2608.884032,4367.215058,-9104.533087,-1072.533697
2608.884360,6217.729913,-12509.480420,76.609550
2608.884687,5329.482782,-12805.562797,4060.306139
2608.885015,2368.659014,-12361.439231,4136.915689
2608.885342,-962.267725,-12435.459826,2374.896044
2608.885670,-3256.906145,-11399.171507,-842.705048
2608.885997,-3330.926739,-10881.027347,-4060.306139
2608.886324,-1702.473667,-11621.233289,-4673.182538
2608.886652,-518.144159,-9252.574275,-2451.505594
2608.886979,370.102971,-7550.100608,229.828649
2608.887307,-296.082377,-7105.977043,1915.238745
2608.887634,-1332.370696,-6069.688724,1149.143247
2608.887962,-148.041188,-5551.544565,-306.438199
2608.888289,962.267725,-6291.750507,-1991.848295
2608.888617,3701.029710,-10362.883188,-1608.800546
2608.888944,4959.379811,-13619.789333,842.705048
2608.889272,4219.173869,-14063.912898,3294.210641
2608.889599,-296.082377,-12435.459826,3907.087040
2608.889927,-2516.700203,-11473.192101,689.485948
2608.890254,-2812.782580,-11843.295072,-2298.286494
2608.890581,-2146.597232,-10955.047942,-3677.258390
2608.890909,0.000000,-9844.739029,-3217.601092
2608.891236,296.082377,-8512.368333,-1225.752797
2608.891564,814.226536,-6735.874072,1455.581446
2608.891891,296.082377,-5699.585753,1149.143247
2608.892219,-1480.411884,-5403.503377,766.095498
2608.892546,-370.102971,-5477.523971,-1225.752797
2608.892874,2442.679609,-8512.368333,-2757.943793
2608.893201,4367.215058,-12583.501014,-1378.971896
2608.893529,4811.338623,-13915.871710,1455.581446
2608.893856,2590.720797,-12805.562797,4136.915689
2608.894183,-740.205942,-11991.336260,2528.115143
2608.894511,-2146.597232,-12139.377449,229.828649
2608.894838,-1628.453072,-11103.089130,-2374.896044
2608.895166,-1036.288319,-9696.697840,-3064.381992
2608.895493,-666.185348,-8882.471304,-1685.410096
2608.895821,888.247130,-7476.080014,-306.438199
2608.896148,-296.082377,-6883.915261,1149.143247
2608.896476,-1924.535449,-6661.853478,995.924147
2608.896803,-1554.432478,-6143.709319,-383.047749
2608.897131,740.205942,-7994.224174,-2528.115143
2608.897458,3404.947333,-10881.027347,-2451.505594
2608.897786,4885.359217,-12805.562797,153.219100
2608.898113,3256.906145,-13249.686362,3677.258390
2608.898440,518.144159,-12657.521608,4673.182538
2608.898768,-1850.514855,-11177.109724,1838.629195
2608.899095,-3108.864956,-10510.924376,-995.924147
2608.899423,-2664.741391,-10362.883188,-2834.553343
2608.899750,-1184.329507,-9844.739029,-2911.162892
2608.900078,-444.123565,-9178.553681,-1685.410096
2608.900405,-370.102971,-7772.162391,229.828649
2608.900733,-666.185348,-7698.141797,-766.095498
2608.901060,-1480.411884,-7105.977043,-689.485948
2608.901388,-370.102971,-6291.750507,-1608.800546
2608.901715,2886.803174,-8290.306550,-1915.238745
2608.902042,4885.359217,-10955.047942,-229.828649
2608.902370,5107.421000,-12657.521608,3370.820191
2608.902697,3849.070898,-12657.521608,4903.011187
2608.903025,0.000000,-11769.274478,4290.134789
2608.903352,-2738.761985,-10510.924376,612.876398
2608.903680,-2294.638420,-10732.986159,-2681.334243
2608.904007,-1628.453072,-10732.986159,-3983.696590
2608.904335,-1184.329507,-10066.800811,-2604.724693
2608.904662,-666.185348,-9252.574275,-306.438199
2608.904990,-740.205942,-7920.203579,459.657299
2608.905317,-2368.659014,-7105.977043,0.000000
2608.905645,-1776.494261,-6291.750507,-1685.410096
2608.905972,-888.247130,-6513.812290,-2604.724693
2608.906299,2368.659014,-9030.512492,-2145.067394
2608.906627,5181.441594,-11917.315666,306.438199
2608.906954,4737.318029,-12509.480420,4136.915689
2608.907282,2294.638420,-11991.336260,5056.230287
2608.907609,-370.102971,-11769.274478,2145.067394
2608.907937,-2368.659014,-11103.089130,-1378.971896
2608.908264,-2146.597232,-10955.047942,-3677.258390
2608.908592,-962.267725,-10807.006753,-3447.429741
2608.908919,0.000000,-9696.697840,-1072.533697
2608.909247,814.226536,-8512.368333,766.095498
2608.909574,740.205942,-7328.038826,1149.143247
2608.909901,-888.247130,-5921.647536,76.609550
2608.910229,0.000000,-5403.503377,-1685.410096
2608.910556,1850.514855,-7698.141797,-2451.505594
2608.910884,3997.112087,-10288.862594,-1072.533697
2608.911211,4959.379811,-11473.192101,1455.581446
2608.911539,3552.988522,-11917.315666,4519.963438
2608.911866,-296.082377,-11399.171507,4136.915689
2608.912194,-1924.535449,-11251.130318,459.657299
2608.912521,-1110.308913,-11695.253884,-2911.162892
2608.912849,-666.185348,-11251.130318,-3753.867940
2608.913176,1110.308913,-11029.068536,-2987.772442
2608.913504,1554.432478,-9844.739029,0.000000
2608.913831,148.041188,-7698.141797,1225.752797
2608.914158,-814.226536,-6809.894666,1302.362347
2608.914486,-2664.741391,-4959.379811,0.000000
2608.914813,-1850.514855,-5847.626942,-2374.896044
2608.915141,1850.514855,-8808.450710,-2987.772442
2608.915468,3701.029710,-10955.047942,-1378.971896
2608.915796,3108.864956,-12805.562797,1915.238745
2608.916123,1702.473667,-13693.809927,4290.134789
2608.916451,-1258.350101,-12139.377449,2757.943793
2608.916778,-3034.844362,-10436.903782,-459.657299
2608.917106,-1480.411884,-11547.212695,-2987.772442
2608.917433,-814.226536,-11473.192101,-2757.943793
2608.917760,74.020594,-10288.862594,-842.705048
2608.918088,74.020594,-8882.471304,612.876398
2608.918415,-1332.370696,-7698.141797,229.828649
2608.918743,-2590.720797,-6365.771101,-383.047749
2608.919070,-2368.659014,-5699.585753,-2221.676944
2608.919398,-518.144159,-5995.668130,-2681.334243
2608.919725,2812.782580,-9474.636058,-1762.019645
2608.920053,5107.421000,-12065.356855,1532.190996
2608.920380,3404.947333,-11325.150913,4826.401637
2608.920708,1110.308913,-11769.274478,4443.353888
2608.921035,0.000000,-11325.150913,1685.410096
2608.921363,-1406.391290,-10955.047942,-1302.362347
2608.921690,-1702.473667,-11029.068536,-2528.115143
2608.922017,-296.082377,-10658.965565,-2757.943793
2608.922345,0.000000,-9844.739029,-1685.410096
2608.922672,-518.144159,-9030.512492,-306.438199
2608.923000,-2812.782580,-7402.059420,536.266849
2608.923327,-3256.906145,-5773.606348,-689.485948
2608.923655,-2072.576638,-5255.462188,-2681.334243
2608.923982,444.123565,-6513.812290,-3064.381992
2608.924310,4071.132681,-10140.821405,-536.266849
2608.924637,6143.709319,-11695.253884,3217.601092
2608.924965,3997.112087,-11991.336260,5515.887586
2608.925292,1628.453072,-11917.315666,4673.182538
2608.925619,444.123565,-11103.089130,689.485948
2608.925947,-814.226536,-10658.965565,-2604.724693
2608.926274,-740.205942,-11177.109724,-2757.943793
2608.926602,814.226536,-11251.130318,-2681.334243
2608.926929,592.164754,-10214.842000,-1302.362347
2608.927257,-1480.411884,-9104.533087,-229.828649
2608.927584,-2220.617826,-7994.224174,-612.876398
2608.927912,-1036.288319,-5477.523971,-1225.752797
2608.928239,-222.061783,-5329.482782,-1991.848295
2608.928567,2812.782580,-7550.100608,-1225.752797
2608.928894,4737.318029,-10881.027347,1378.971896
2608.929221,4959.379811,-11325.150913,4749.792088
2608.929549,1924.535449,-11251.130318,5362.668486
2608.929876,-962.267725,-11547.212695,2145.067394
2608.930204,-1554.432478,-12435.459826,-1685.410096
2608.930531,-1036.288319,-12065.356855,-3753.867940
2608.930859,0.000000,-11843.295072,-3907.087040
2608.931186,74.020594,-11547.212695,-1608.800546
2608.931514,148.041188,-9548.656652,229.828649
2608.931841,-1998.556043,-6883.915261,306.438199
2608.932169,-3923.091493,-4959.379811,-306.438199
2608.932496,-3182.885551,-4071.132681,-1762.019645
2608.932823,-370.102971,-5477.523971,-2757.943793
2608.933151,2220.617826,-8734.430116,-536.266849
2608.933478,3775.050304,-10881.027347,2374.896044
2608.933806,2738.761985,-12065.356855,4366.744339
2608.934133,592.164754,-12583.501014,3677.258390
2608.934461,-666.185348,-12879.583391,0.000000
2608.934788,-814.226536,-12731.542202,-2757.943793
2608.935116,-296.082377,-12731.542202,-3907.087040
2608.935443,444.123565,-11399.171507,-2604.724693
2608.935771,1110.308913,-10658.965565,-689.485948
2608.936098,-592.164754,-7550.100608,153.219100
2608.936426,-2368.659014,-5921.647536,76.609550
2608.936753,-2368.659014,-4663.297435,-1302.362347
2608.937080,-1184.329507,-4959.379811,-1991.848295
2608.937408,1406.391290,-7328.038826,-1225.752797
2608.937735,3849.070898,-9770.718434,306.438199
2608.938063,4145.153275,-11399.171507,3753.867940
2608.938390,1924.535449,-11621.233289,4979.620737
2608.938718,-370.102971,-12953.603985,2451.505594
2608.939045,-592.164754,-13175.665768,-1532.190996
2608.939373,-222.061783,-12583.501014,-2834.553343
2608.939700,0.000000,-12583.501014,-3370.820191
2608.940028,-666.185348,-11399.171507,-1149.143247
2608.940355,-814.226536,-8734.430116,-229.828649
2608.940682,-2072.576638,-5921.647536,-766.095498
2608.941010,-4145.153275,-5181.441594,-383.047749
2608.941337,-2812.782580,-4071.132681,-1608.800546
2608.941665,518.144159,-5033.400406,-2451.505594
2608.941992,3701.029710,-8438.347739,459.657299
2608.942320,5625.565159,-11991.336260,2987.772442
2608.942647,4589.276840,-12509.480420,5286.058936
2608.942975,2146.597232,-11843.295072,4673.182538
2608.943302,0.000000,-11843.295072,919.314598
2608.943630,-444.123565,-12287.418637,-1608.800546
2608.943957,-370.102971,-12583.501014,-2604.724693
2608.944284,296.082377,-11843.295072,-2451.505594
