#time,accel_x,accel_y,accel_z
2999.093498,518.144159,-9918.759623,153.219100
2999.093825,148.041188,-9696.697840,-536.266849
2999.094153,0.000000,-9844.739029,-306.438199
2999.094480,-888.247130,-9474.636058,-536.266849
2999.094807,74.020594,-9696.697840,-689.485948
2999.095135,0.000000,-9770.718434,-689.485948
2999.095462,74.020594,-9992.780217,-459.657299
2999.095789,296.082377,-10066.800811,-229.828649
2999.096117,1036.288319,-9770.718434,-306.438199
2999.096444,814.226536,-10140.821405,612.876398
2999.096771,296.082377,-9400.615463,229.828649
2999.097099,814.226536,-9474.636058,383.047749
2999.097426,296.082377,-9252.574275,229.828649
2999.097753,0.000000,-8956.491898,306.438199
2999.098081,0.000000,-8882.471304,0.000000
2999.098408,-222.061783,-9252.574275,0.000000
2999.098736,-444.123565,-9474.636058,-766.095498
2999.099063,-148.041188,-9030.512492,229.828649
2999.099390,222.061783,-9696.697840,-459.657299
2999.099718,518.144159,-10140.821405,0.000000
2999.100045,444.123565,-9770.718434,0.000000
2999.100372,666.185348,-9548.656652,153.219100
2999.100700,444.123565,-9474.636058,536.266849
2999.101027,444.123565,-9326.594869,689.485948
2999.101354,518.144159,-9474.636058,153.219100
2999.101682,-370.102971,-9252.574275,-536.266849
2999.102009,0.000000,-9474.636058,-536.266849
2999.102336,0.000000,-9622.677246,-842.705048
2999.102664,0.000000,-9918.759623,-919.314598
2999.102991,296.082377,-10510.924376,-612.876398
2999.103318,444.123565,-10510.924376,-383.047749
2999.103646,74.020594,-10140.821405,-536.266849
2999.103973,666.185348,-10510.924376,-383.047749
2999.104301,740.205942,-10288.862594,0.000000
2999.104628,592.164754,-9918.759623,0.000000
2999.104955,444.123565,-9918.759623,-153.219100
2999.105283,0.000000,-9622.677246,-306.438199
2999.105610,0.000000,-9622.677246,-306.438199
2999.105937,0.000000,-9696.697840,-842.705048
2999.106265,74.020594,-9844.739029,-1072.533697
2999.106592,0.000000,-9992.780217,-612.876398
2999.106919,74.020594,-9992.780217,-383.047749
2999.107247,296.082377,-10140.821405,0.000000
2999.107574,814.226536,-9474.636058,76.609550
2999.107901,888.247130,-9474.636058,153.219100
2999.108229,740.205942,-9104.533087,459.657299
2999.108556,740.205942,-8882.471304,689.485948
2999.108883,296.082377,-8734.430116,536.266849
2999.109211,296.082377,-8586.388927,0.000000
2999.109538,0.000000,-9104.533087,0.000000
2999.109866,296.082377,-9696.697840,-383.047749
2999.110193,444.123565,-9252.574275,-1532.190996
2999.110520,296.082377,-9474.636058,76.609550
2999.110848,370.102971,-9992.780217,0.000000
2999.111175,592.164754,-9696.697840,-306.438199
2999.111502,1184.329507,-9474.636058,0.000000
2999.111830,1480.411884,-9400.615463,153.219100
2999.112157,2072.576638,-9252.574275,229.828649
2999.112484,2664.741391,-9252.574275,153.219100
2999.112812,2960.823768,-8512.368333,153.219100
2999.113139,3627.009116,-8956.491898,-689.485948
2999.113466,4589.276840,-9696.697840,-842.705048
2999.113794,5551.544565,-9918.759623,-689.485948
2999.114121,6735.874072,-10214.842000,-842.705048
2999.114448,7402.059420,-11251.130318,-536.266849
2999.114776,8290.306550,-11325.150913,-306.438199
2999.115103,8882.471304,-11547.212695,-459.657299
2999.115431,8290.306550,-10955.047942,229.828649
2999.115758,8956.491898,-9696.697840,0.000000
2999.116085,9326.594869,-9252.574275,-229.828649
2999.116413,9474.636058,-8956.491898,153.219100
2999.116740,9844.739029,-8438.347739,689.485948
2999.117067,10881.027347,-8660.409521,0.000000
2999.117395,11103.089130,-9696.697840,0.000000
2999.117722,10881.027347,-9992.780217,0.000000
2999.118049,10807.006753,-9474.636058,-153.219100
2999.118377,11103.089130,-9548.656652,0.000000
2999.118704,12435.459826,-9844.739029,76.609550
2999.119031,13323.706956,-9400.615463,383.047749
2999.119359,14285.974681,-9622.677246,2681.334243
2999.119686,14656.077652,-9548.656652,2221.676944
2999.120013,14285.974681,-8216.285956,1455.581446
2999.120341,13323.706956,-7624.121203,306.438199
2999.120668,12435.459826,-8364.327145,612.876398
2999.120996,12731.542202,-9474.636058,306.438199
2999.121323,12805.562797,-9992.780217,76.609550
2999.121650,12657.521608,-9918.759623,612.876398
2999.121978,12435.459826,-8734.430116,995.924147
2999.122305,12509.480420,-9326.594869,1302.362347
2999.122632,11695.253884,-9696.697840,1762.019645
2999.122960,10955.047942,-9474.636058,995.924147
2999.123287,10732.986159,-9474.636058,0.000000
2999.123614,9992.780217,-9696.697840,0.000000
2999.123942,8512.368333,-9030.512492,306.438199
2999.124269,7179.997637,-8956.491898,229.828649
2999.124596,7254.018232,-8290.306550,-383.047749
2999.124924,8734.430116,-9252.574275,-1991.848295
2999.125251,9992.780217,-11547.212695,-2298.286494
2999.125578,9770.718434,-13397.727550,-459.657299
2999.125906,9474.636058,-12139.377449,383.047749
2999.126233,8734.430116,-9696.697840,1072.533697
2999.126561,7994.224174,-9548.656652,0.000000
2999.126888,7105.977043,-10140.821405,459.657299
2999.127215,7031.956449,-10658.965565,612.876398
2999.127543,4885.359217,-10584.944971,842.705048
2999.127870,3627.009116,-9252.574275,0.000000
2999.128197,2294.638420,-7105.977043,-1072.533697
2999.128525,0.000000,-8290.306550,-919.314598
2999.128852,0.000000,-10140.821405,0.000000
2999.129179,1258.350101,-10436.903782,-1302.362347
2999.129507,2590.720797,-9178.553681,-1685.410096
2999.129834,4293.194464,-8734.430116,-919.314598
2999.130161,4145.153275,-9252.574275,689.485948
2999.130489,2442.679609,-9548.656652,3064.381992
2999.130816,1998.556043,-9252.574275,2911.162892
2999.131143,3627.009116,-8438.347739,-229.828649
2999.131471,4959.379811,-8882.471304,-1608.800546
2999.131798,3478.967927,-9844.739029,-306.438199
2999.132126,1702.473667,-9918.759623,1378.971896
2999.132453,888.247130,-8660.409521,766.095498
2999.132780,518.144159,-8956.491898,-842.705048
2999.133108,0.000000,-9696.697840,-1915.238745
2999.133435,-592.164754,-7920.203579,-689.485948
2999.133762,0.000000,-7105.977043,383.047749
2999.134090,2812.782580,-9400.615463,842.705048
2999.134417,2960.823768,-10955.047942,919.314598
2999.134744,740.205942,-9844.739029,689.485948
2999.135072,148.041188,-6957.935855,459.657299
2999.135399,1332.370696,-9030.512492,-1762.019645
2999.135726,1110.308913,-12805.562797,-2221.676944
2999.136054,0.000000,-11769.274478,-1149.143247
2999.136381,1110.308913,-8512.368333,-1455.581446
2999.136708,2072.576638,-10732.986159,-1149.143247
2999.137036,1332.370696,-12657.521608,-153.219100
2999.137363,1332.370696,-11399.171507,0.000000
2999.137691,1776.494261,-8660.409521,-1149.143247
2999.138018,2664.741391,-9030.512492,-2145.067394
2999.138345,2072.576638,-9770.718434,-842.705048
2999.138673,1924.535449,-8956.491898,1455.581446
2999.139000,3108.864956,-7402.059420,1915.238745
2999.139327,4737.318029,-8586.388927,0.000000
2999.139655,3256.906145,-10807.006753,-229.828649
2999.139982,1554.432478,-11769.274478,689.485948
2999.140309,2886.803174,-10881.027347,-229.828649
2999.140637,3552.988522,-11103.089130,-1378.971896
2999.140964,370.102971,-11991.336260,-459.657299
2999.141291,-222.061783,-11399.171507,766.095498
2999.141619,1776.494261,-10066.800811,229.828649
2999.141946,1702.473667,-9178.553681,766.095498
2999.142273,-1184.329507,-8512.368333,995.924147
2999.142601,-2812.782580,-8438.347739,1685.410096
2999.142928,-1776.494261,-8068.244768,383.047749
2999.143256,-1554.432478,-7031.956449,-1149.143247
2999.143583,-3330.926739,-6661.853478,-306.438199
2999.143910,-2664.741391,-8068.244768,919.314598
2999.144238,814.226536,-9474.636058,459.657299
2999.144565,2072.576638,-9844.739029,-612.876398
2999.144892,444.123565,-10140.821405,0.000000
2999.145220,1184.329507,-11621.233289,1072.533697
2999.145547,1332.370696,-11991.336260,76.609550
2999.145874,-1036.288319,-11325.150913,0.000000
2999.146202,-3034.844362,-9622.677246,-536.266849
2999.146529,-1924.535449,-10510.924376,-689.485948
2999.146856,-888.247130,-10066.800811,76.609550
2999.147184,-1924.535449,-8808.450710,306.438199
2999.147511,-2886.803174,-8290.306550,536.266849
2999.147838,-1258.350101,-8660.409521,0.000000
2999.148166,-1110.308913,-8216.285956,-995.924147
2999.148493,-3108.864956,-7476.080014,-612.876398
2999.148821,-2812.782580,-7846.182985,0.000000
2999.149148,444.123565,-9400.615463,-153.219100
2999.149475,1184.329507,-10955.047942,-1225.752797
2999.149803,-444.123565,-11621.233289,-459.657299
2999.150130,444.123565,-11473.192101,0.000000
2999.150457,1924.535449,-12361.439231,-1072.533697
2999.150785,370.102971,-13101.645173,-1608.800546
2999.151112,-370.102971,-11769.274478,-2374.896044
2999.151439,962.267725,-9474.636058,-1838.629195
2999.151767,1406.391290,-10584.944971,-995.924147
2999.152094,-518.144159,-9252.574275,766.095498
2999.152421,-666.185348,-7254.018232,1685.410096
2999.152749,1776.494261,-7031.956449,1302.362347
2999.153076,2442.679609,-7994.224174,-306.438199
2999.153403,-666.185348,-7476.080014,0.000000
2999.153731,-814.226536,-7402.059420,1915.238745
2999.154058,1998.556043,-8956.491898,-536.266849
2999.154386,2368.659014,-11029.068536,-1455.581446
2999.154713,962.267725,-11399.171507,-689.485948
2999.155040,2220.617826,-11325.150913,-383.047749
2999.155368,3701.029710,-12805.562797,-842.705048
2999.155695,2664.741391,-12657.521608,-919.314598
2999.156022,592.164754,-10140.821405,-766.095498
2999.156350,1184.329507,-9400.615463,-229.828649
2999.156677,2368.659014,-9474.636058,76.609550
2999.157004,2072.576638,-6735.874072,383.047749
2999.157332,740.205942,-6587.832884,1762.019645
2999.157659,1850.514855,-7698.141797,2604.724693
2999.157986,2368.659014,-8586.388927,1302.362347
2999.158314,370.102971,-9178.553681,459.657299
2999.158641,-1702.473667,-8882.471304,995.924147
2999.158969,370.102971,-10140.821405,-536.266849
2999.159296,962.267725,-11473.192101,-1685.410096
2999.159623,-666.185348,-11177.109724,-842.705048
2999.159951,444.123565,-11177.109724,-612.876398
2999.160278,2516.700203,-12213.398043,-766.095498
2999.160606,74.020594,-11695.253884,-1225.752797
2999.160933,-2812.782580,-10955.047942,-1225.752797
2999.161261,-2516.700203,-8808.450710,-919.314598
2999.161588,296.082377,-8364.327145,-1838.629195
2999.161916,444.123565,-7179.997637,-2221.676944
2999.162243,-1702.473667,-7698.141797,1149.143247
2999.162571,0.000000,-9622.677246,3753.867940
2999.162898,1628.453072,-9548.656652,2681.334243
2999.163226,-1258.350101,-8734.430116,612.876398
2999.163553,-3404.947333,-8438.347739,-306.438199
2999.163881,-1332.370696,-10066.800811,-1225.752797
2999.164208,-222.061783,-10732.986159,-1991.848295
2999.164535,-1924.535449,-10436.903782,-1072.533697
2999.164863,-1036.288319,-9918.759623,-383.047749
2999.165190,1110.308913,-10807.006753,383.047749
2999.165518,148.041188,-11177.109724,-689.485948
2999.165845,-1850.514855,-9252.574275,-842.705048
2999.166173,-1776.494261,-8438.347739,-1532.190996
2999.166500,444.123565,-9326.594869,-1532.190996
2999.166828,444.123565,-8216.285956,-1149.143247
2999.167155,-592.164754,-6661.853478,919.314598
2999.167483,1110.308913,-8734.430116,4136.915689
2999.167810,1924.535449,-10140.821405,2911.162892
2999.168138,74.020594,-8660.409521,229.828649
2999.168465,-2146.597232,-7920.203579,-1225.752797
2999.168793,-518.144159,-9770.718434,-1838.629195
2999.169120,1110.308913,-12213.398043,-1838.629195
2999.169448,518.144159,-11621.233289,459.657299
2999.169775,1850.514855,-9474.636058,-383.047749
2999.170103,4071.132681,-10214.842000,-1225.752797
2999.170430,3478.967927,-11991.336260,-1991.848295
2999.170758,222.061783,-10955.047942,-536.266849
2999.171085,370.102971,-9548.656652,536.266849
2999.171412,1998.556043,-8438.347739,0.000000
2999.171740,1110.308913,-8142.265362,0.000000
2999.172067,-740.205942,-7328.038826,1302.362347
2999.172395,444.123565,-8956.491898,2451.505594
2999.172722,1850.514855,-10436.903782,536.266849
2999.173050,-592.164754,-9696.697840,-919.314598
2999.173377,-1998.556043,-8586.388927,-1302.362347
2999.173705,444.123565,-9474.636058,-1608.800546
2999.174032,2886.803174,-11695.253884,-1225.752797
2999.174360,1998.556043,-11325.150913,306.438199
2999.174687,2812.782580,-9844.739029,459.657299
2999.175015,4071.132681,-10362.883188,612.876398
2999.175342,2590.720797,-11547.212695,0.000000
2999.175670,-444.123565,-10140.821405,306.438199
2999.175997,-814.226536,-9326.594869,306.438199
2999.176325,1184.329507,-9696.697840,-306.438199
2999.176652,0.000000,-8216.285956,-229.828649
2999.176980,-1776.494261,-7698.141797,229.828649
2999.177307,-2146.597232,-8808.450710,2298.286494
2999.177635,-444.123565,-9474.636058,766.095498
2999.177962,-1406.391290,-8882.471304,-1149.143247
2999.178289,-2220.617826,-8142.265362,-689.485948
2999.178617,444.123565,-9326.594869,0.000000
2999.178944,3478.967927,-12065.356855,229.828649
2999.179272,592.164754,-11325.150913,689.485948
2999.179599,814.226536,-10732.986159,459.657299
2999.179927,1036.288319,-10584.944971,-995.924147
2999.180254,-1110.308913,-10732.986159,-1608.800546
2999.180582,-4441.235652,-9104.533087,-1762.019645
2999.180909,-4219.173869,-8808.450710,-1378.971896
2999.181237,-814.226536,-9400.615463,-1149.143247
2999.181564,444.123565,-9474.636058,-306.438199
2999.181892,-444.123565,-7624.121203,1378.971896
2999.182219,-1184.329507,-9030.512492,2451.505594
2999.182547,0.000000,-10807.006753,1378.971896
2999.182874,-666.185348,-8660.409521,-766.095498
2999.183202,-1480.411884,-6587.832884,-1302.362347
2999.183529,518.144159,-8882.471304,153.219100
2999.183857,2886.803174,-11769.274478,536.266849
2999.184184,1998.556043,-11251.130318,1072.533697
2999.184512,814.226536,-10362.883188,0.000000
2999.184839,1776.494261,-11029.068536,-1608.800546
2999.185167,296.082377,-11399.171507,-2221.676944
2999.185494,-2812.782580,-9178.553681,-1302.362347
2999.185821,-3330.926739,-7698.141797,-1149.143247
2999.186149,740.205942,-8660.409521,-995.924147
2999.186476,1406.391290,-8660.409521,153.219100
2999.186804,-148.041188,-7328.038826,1685.410096
2999.187131,0.000000,-8586.388927,2221.676944
2999.187459,1776.494261,-10362.883188,842.705048
2999.187786,1036.288319,-9400.615463,-1838.629195
2999.188114,-888.247130,-8290.306550,-2221.676944
2999.188441,444.123565,-9696.697840,-229.828649
2999.188769,4663.297435,-12879.583391,306.438199
2999.189096,3775.050304,-13101.645173,536.266849
2999.189424,1998.556043,-11103.089130,766.095498
2999.189751,2146.597232,-10584.944971,-766.095498
2999.190079,888.247130,-10955.047942,-1378.971896
2999.190406,-3034.844362,-9696.697840,-766.095498
2999.190734,-2886.803174,-7105.977043,0.000000
2999.191061,592.164754,-7179.997637,-1072.533697
2999.191389,962.267725,-8512.368333,-536.266849
2999.191716,-296.082377,-9030.512492,919.314598
2999.192044,222.061783,-9696.697840,1072.533697
2999.192371,2072.576638,-10658.965565,-229.828649
2999.192698,2294.638420,-9474.636058,-2451.505594
2999.193026,0.000000,-9474.636058,-459.657299
2999.193353,888.247130,-11029.068536,1838.629195
2999.193681,4441.235652,-12287.418637,1991.848295
2999.194008,3404.947333,-11177.109724,1072.533697
2999.194336,962.267725,-10214.842000,1072.533697
2999.194663,1036.288319,-9400.615463,229.828649
2999.194991,74.020594,-8734.430116,-612.876398
2999.195318,-3478.967927,-8586.388927,-612.876398
2999.195646,-3627.009116,-7105.977043,-229.828649
2999.195973,-370.102971,-7846.182985,-1225.752797
2999.196301,1480.411884,-8512.368333,-766.095498
2999.196628,814.226536,-8956.491898,766.095498
2999.196956,0.000000,-10214.842000,1838.629195
2999.197283,444.123565,-10807.006753,1378.971896
2999.197611,222.061783,-8956.491898,-1608.800546
2999.197938,-1850.514855,-7624.121203,-1838.629195
2999.198266,-1776.494261,-9548.656652,842.705048
2999.198593,888.247130,-11251.130318,1455.581446
2999.198921,1036.288319,-11325.150913,229.828649
2999.199248,-296.082377,-10362.883188,-306.438199
2999.199575,222.061783,-10288.862594,-766.095498
2999.199903,-296.082377,-11547.212695,-842.705048
2999.200230,-1776.494261,-11103.089130,-2068.457845
2999.200558,-1480.411884,-8586.388927,-2145.067394
2999.200885,1110.308913,-9178.553681,-1991.848295
2999.201213,2368.659014,-10510.924376,-612.876398
2999.201540,1184.329507,-9474.636058,842.705048
2999.201868,0.000000,-8808.450710,1455.581446
2999.202195,0.000000,-9104.533087,1991.848295
2999.202523,-740.205942,-9622.677246,-1762.019645
2999.202850,-4071.132681,-7994.224174,-2451.505594
2999.203178,-2146.597232,-9178.553681,-1149.143247
2999.203505,888.247130,-11621.233289,0.000000
2999.203833,1406.391290,-12139.377449,689.485948
2999.204160,1258.350101,-9918.759623,76.609550
2999.204488,2516.700203,-8808.450710,0.000000
2999.204815,2072.576638,-10436.903782,76.609550
2999.205143,74.020594,-10955.047942,-229.828649
2999.205470,-518.144159,-8438.347739,-766.095498
2999.205798,1036.288319,-8512.368333,-1532.190996
2999.206125,2738.761985,-9474.636058,-612.876398
2999.206452,888.247130,-8512.368333,1225.752797
2999.206780,-592.164754,-9252.574275,2451.505594
2999.207107,1036.288319,-9844.739029,1302.362347
2999.207435,1258.350101,-9030.512492,-1378.971896
2999.207762,-1332.370696,-7476.080014,-1608.800546
2999.208090,-1776.494261,-7846.182985,536.266849
2999.208417,888.247130,-9548.656652,919.314598
2999.208745,2368.659014,-11399.171507,1608.800546
2999.209072,2664.741391,-10140.821405,459.657299
2999.209400,3034.844362,-9252.574275,1378.971896
2999.209727,2590.720797,-11029.068536,-153.219100
2999.210055,0.000000,-11843.295072,-689.485948
2999.210382,-2146.597232,-10436.903782,-1915.238745
2999.210710,-1702.473667,-9918.759623,-3140.991542
2999.211037,-962.267725,-9474.636058,-3600.648841
2999.211365,-962.267725,-8956.491898,-1455.581446
2999.211692,-962.267725,-8586.388927,1225.752797
2999.212020,1406.391290,-10732.986159,1915.238745
2999.212347,1850.514855,-9918.759623,919.314598
2999.212675,-444.123565,-7105.977043,0.000000
2999.213002,-1332.370696,-7994.224174,919.314598
2999.213329,370.102971,-10362.883188,1149.143247
2999.213657,1702.473667,-10436.903782,0.000000
2999.213984,888.247130,-9622.677246,-612.876398
2999.214312,2294.638420,-10362.883188,-612.876398
2999.214639,2812.782580,-12361.439231,-1149.143247
2999.214967,0.000000,-13249.686362,-766.095498
2999.215294,-2368.659014,-10955.047942,-995.924147
2999.215622,-1850.514855,-9474.636058,-2528.115143
2999.215949,-592.164754,-9030.512492,-2451.505594
2999.216277,-740.205942,-7624.121203,-919.314598
2999.216604,-1332.370696,-7476.080014,1915.238745
2999.216932,222.061783,-8808.450710,3370.820191
2999.217259,1776.494261,-8956.491898,1455.581446
2999.217587,-666.185348,-6735.874072,0.000000
2999.217914,-1850.514855,-6957.935855,229.828649
2999.218242,740.205942,-9474.636058,-1685.410096
2999.218569,2294.638420,-10732.986159,-995.924147
2999.218897,2664.741391,-11325.150913,-536.266849
2999.219224,3849.070898,-11547.212695,383.047749
2999.219552,5033.400406,-13323.706956,612.876398
2999.219879,2516.700203,-13989.892304,1072.533697
2999.220206,-666.185348,-10881.027347,0.000000
2999.220534,-2590.720797,-7846.182985,-2221.676944
2999.220861,-1998.556043,-7772.162391,-2374.896044
2999.221189,-3108.864956,-7179.997637,-1225.752797
2999.221516,-3478.967927,-6291.750507,383.047749
2999.221844,-1110.308913,-7254.018232,1378.971896
2999.222171,0.000000,-8290.306550,229.828649
2999.222499,-1480.411884,-8808.450710,-1072.533697
2999.222826,-1480.411884,-9474.636058,-766.095498
2999.223154,1924.535449,-11621.233289,-919.314598
2999.223481,4737.318029,-12805.562797,-1838.629195
2999.223809,4441.235652,-13101.645173,-229.828649
2999.224136,3849.070898,-13027.624579,1915.238745
2999.224464,4145.153275,-12435.459826,1762.019645
2999.224791,1628.453072,-12139.377449,459.657299
2999.225119,-2072.576638,-9178.553681,-1302.362347
2999.225446,-2664.741391,-7105.977043,-2451.505594
2999.225774,-2812.782580,-7254.018232,-2374.896044
2999.226101,-1998.556043,-7031.956449,-842.705048
2999.226429,-2442.679609,-6069.688724,1838.629195
2999.226756,0.000000,-7402.059420,2451.505594
2999.227083,2220.617826,-9622.677246,229.828649
2999.227411,2220.617826,-10214.842000,-459.657299
2999.227738,370.102971,-9030.512492,0.000000
2999.228066,2072.576638,-11029.068536,459.657299
2999.228393,3997.112087,-12213.398043,76.609550
2999.228721,3256.906145,-11325.150913,-229.828649
2999.229048,1332.370696,-11103.089130,842.705048
2999.229376,1110.308913,-12139.377449,1072.533697
2999.229703,0.000000,-11473.192101,-1149.143247
2999.230031,-2960.823768,-9178.553681,-2221.676944
2999.230358,-2960.823768,-7550.100608,-1915.238745
2999.230686,-740.205942,-8068.244768,-1532.190996
2999.231013,148.041188,-7624.121203,536.266849
2999.231341,0.000000,-7105.977043,1838.629195
2999.231668,1480.411884,-8364.327145,1378.971896
2999.231996,2294.638420,-9252.574275,306.438199
2999.232323,1628.453072,-8956.491898,-1378.971896
2999.232651,-444.123565,-9844.739029,-383.047749
2999.232978,74.020594,-11325.150913,306.438199
2999.233306,1036.288319,-11917.315666,-766.095498
2999.233633,-222.061783,-11769.274478,-1532.190996
2999.233961,-370.102971,-11695.253884,-919.314598
2999.234288,814.226536,-12509.480420,-766.095498
2999.234615,-148.041188,-11325.150913,612.876398
2999.234943,-1776.494261,-8956.491898,842.705048
2999.235270,-1332.370696,-7031.956449,76.609550
2999.235598,666.185348,-7328.038826,-306.438199
2999.235925,-148.041188,-8216.285956,-229.828649
2999.236253,-518.144159,-7328.038826,0.000000
2999.236580,-370.102971,-7254.018232,459.657299
2999.236908,370.102971,-9400.615463,-306.438199
2999.237235,0.000000,-11029.068536,-1532.190996
2999.237563,-1406.391290,-11547.212695,-459.657299
2999.237890,370.102971,-11103.089130,-306.438199
2999.238218,2664.741391,-11843.295072,-1378.971896
2999.238545,2146.597232,-11325.150913,-536.266849
2999.238873,814.226536,-9104.533087,2298.286494
2999.239200,666.185348,-9252.574275,1608.800546
2999.239528,444.123565,-10214.842000,1685.410096
2999.239855,-1184.329507,-8586.388927,0.000000
2999.240183,-370.102971,-7624.121203,-689.485948
2999.240510,1036.288319,-9030.512492,-842.705048
2999.240838,888.247130,-10807.006753,76.609550
2999.241165,-370.102971,-10362.883188,0.000000
2999.241492,-1110.308913,-9918.759623,-1072.533697
2999.241820,-444.123565,-9548.656652,-1838.629195
2999.242147,-1332.370696,-8660.409521,-1685.410096
2999.242475,-2146.597232,-8660.409521,-383.047749
2999.242802,592.164754,-10140.821405,459.657299
2999.243130,3552.988522,-11399.171507,766.095498
2999.243457,3404.947333,-10066.800811,1455.581446
2999.243785,1924.535449,-9178.553681,2298.286494
2999.244112,1702.473667,-10807.006753,1302.362347
2999.244440,1110.308913,-11621.233289,-1072.533697
2999.244767,-222.061783,-10362.883188,-2604.724693
2999.245095,-370.102971,-9474.636058,-2451.505594
2999.245422,2220.617826,-10510.924376,-1302.362347
2999.245750,2664.741391,-10807.006753,1378.971896
2999.246077,148.041188,-8512.368333,1378.971896
2999.246405,-1480.411884,-9400.615463,689.485948
2999.246732,-666.185348,-9770.718434,-1378.971896
2999.247060,-2220.617826,-6661.853478,-2451.505594
2999.247387,-3775.050304,-5995.668130,-995.924147
2999.247715,-1554.432478,-8660.409521,1455.581446
2999.248042,2072.576638,-10214.842000,995.924147
2999.248369,3330.926739,-10214.842000,1072.533697
2999.248697,1702.473667,-9622.677246,383.047749
2999.249024,1850.514855,-11621.233289,0.000000
2999.249352,1702.473667,-12731.542202,-1532.190996
2999.249679,74.020594,-10288.862594,-2221.676944
2999.250007,-296.082377,-9178.553681,-1685.410096
2999.250334,1776.494261,-10658.965565,0.000000
2999.250662,3182.885551,-11843.295072,612.876398
2999.250989,1924.535449,-9770.718434,1302.362347
2999.251317,-1036.288319,-8586.388927,1149.143247
2999.251644,-2368.659014,-8290.306550,-536.266849
2999.251972,-4219.173869,-6365.771101,-2451.505594
2999.252299,-5033.400406,-5329.482782,-1991.848295
2999.252627,-3182.885551,-7105.977043,0.000000
2999.252954,1110.308913,-10436.903782,76.609550
2999.253282,1554.432478,-10584.944971,1225.752797
2999.253609,1406.391290,-11325.150913,459.657299
2999.253937,2072.576638,-12139.377449,-1225.752797
2999.254264,3034.844362,-13767.830521,-2834.553343
2999.254592,1036.288319,-13619.789333,-1532.190996
2999.254919,0.000000,-10288.862594,-689.485948
2999.255246,1036.288319,-9844.739029,919.314598
2999.255574,1554.432478,-10955.047942,995.924147
2999.255901,-888.247130,-7550.100608,1149.143247
2999.256229,-2146.597232,-6069.688724,1072.533697
2999.256556,-2664.741391,-6587.832884,995.924147
2999.256884,-3478.967927,-6439.791695,-842.705048
2999.257211,-3923.091493,-4663.297435,-306.438199
2999.257539,-962.267725,-6217.729913,612.876398
2999.257866,2960.823768,-10881.027347,1455.581446
2999.258194,4071.132681,-12213.398043,1455.581446
2999.258521,2516.700203,-10807.006753,689.485948
2999.258849,2812.782580,-12509.480420,-689.485948
2999.259176,2960.823768,-14285.974681,-1991.848295
2999.259504,0.000000,-10362.883188,-2451.505594
2999.259831,-1998.556043,-8660.409521,-306.438199
2999.260159,-666.185348,-9622.677246,0.000000
2999.260486,1036.288319,-11177.109724,-306.438199
2999.260814,222.061783,-7994.224174,153.219100
2999.261141,-666.185348,-6217.729913,689.485948
2999.261469,-296.082377,-7328.038826,1685.410096
2999.261796,444.123565,-7698.141797,1149.143247
2999.262124,-444.123565,-7254.018232,306.438199
2999.262451,444.123565,-7105.977043,-536.266849
2999.262779,3627.009116,-9844.739029,-689.485948
2999.263106,4959.379811,-13027.624579,0.000000
2999.263434,3256.906145,-13619.789333,306.438199
2999.263762,2294.638420,-13323.706956,-766.095498
2999.264089,1480.411884,-12805.562797,-2451.505594
2999.264417,-2072.576638,-11769.274478,-2298.286494
2999.264744,-3256.906145,-10658.965565,-2451.505594
2999.265072,-1554.432478,-9326.594869,-842.705048
2999.265399,74.020594,-8808.450710,229.828649
2999.265727,0.000000,-7550.100608,842.705048
2999.266054,-1184.329507,-6069.688724,2451.505594
2999.266382,-592.164754,-6883.915261,1455.581446
2999.266709,-518.144159,-7476.080014,229.828649
2999.267037,-1554.432478,-7031.956449,-1302.362347
2999.267365,-444.123565,-9252.574275,-1225.752797
2999.267692,3034.844362,-11917.315666,-383.047749
2999.268020,3849.070898,-12805.562797,689.485948
2999.268347,1850.514855,-13101.645173,1532.190996
2999.268675,2220.617826,-13249.686362,459.657299
2999.269002,2072.576638,-11843.295072,-1302.362347
2999.269330,-1776.494261,-9844.739029,-1072.533697
2999.269657,-4145.153275,-7105.977043,-689.485948
2999.269985,-3034.844362,-6069.688724,-459.657299
2999.270313,-1850.514855,-7328.038826,459.657299
2999.270640,-962.267725,-7031.956449,1608.800546
2999.270968,0.000000,-6513.812290,2298.286494
2999.271295,1036.288319,-8512.368333,1685.410096
2999.271623,1184.329507,-11103.089130,-766.095498
2999.271950,592.164754,-10881.027347,-2145.067394
2999.272278,592.164754,-10807.006753,-689.485948
2999.272605,2294.638420,-11991.336260,76.609550
2999.272933,1850.514855,-12287.418637,689.485948
2999.273260,-814.226536,-10955.047942,229.828649
2999.273588,-962.267725,-10658.965565,-766.095498
2999.273916,-1406.391290,-11547.212695,-2145.067394
2999.274243,-2960.823768,-9474.636058,-2834.553343
2999.274571,-3256.906145,-7105.977043,-2221.676944
2999.274898,-370.102971,-8216.285956,-612.876398
2999.275226,2146.597232,-9770.718434,536.266849
2999.275553,2516.700203,-8586.388927,689.485948
2999.275881,2442.679609,-7994.224174,1302.362347
2999.276208,3108.864956,-9992.780217,1072.533697
2999.276536,2442.679609,-11917.315666,0.000000
2999.276864,222.061783,-10584.944971,-842.705048
2999.277191,-666.185348,-9474.636058,-1378.971896
2999.277519,814.226536,-11177.109724,-1685.410096
2999.277846,1554.432478,-11917.315666,-1072.533697
2999.278174,444.123565,-9770.718434,-459.657299
2999.278501,74.020594,-8660.409521,229.828649
2999.278829,1480.411884,-10066.800811,-306.438199
2999.279156,518.144159,-9622.677246,-536.266849
2999.279484,-444.123565,-6883.915261,459.657299
2999.279811,888.247130,-7550.100608,1302.362347
2999.280139,2590.720797,-9918.759623,1378.971896
2999.280467,2072.576638,-9326.594869,383.047749
2999.280794,296.082377,-8438.347739,383.047749
2999.281122,962.267725,-10140.821405,0.000000
2999.281449,666.185348,-11473.192101,-229.828649
2999.281777,-296.082377,-10436.903782,-919.314598
2999.282104,-1554.432478,-9030.512492,-689.485948
2999.282432,518.144159,-9696.697840,-306.438199
2999.282759,2368.659014,-10658.965565,0.000000
2999.283087,1554.432478,-9770.718434,1225.752797
2999.283414,962.267725,-9548.656652,1991.848295
2999.283742,1332.370696,-10066.800811,76.609550
2999.284070,-1184.329507,-9696.697840,-1225.752797
2999.284397,-3701.029710,-7846.182985,-2221.676944
2999.284725,-1258.350101,-8734.430116,-2834.553343
2999.285052,0.000000,-10881.027347,-1455.581446
2999.285380,-592.164754,-10881.027347,-612.876398
2999.285707,74.020594,-10214.842000,-995.924147
2999.286035,148.041188,-11695.253884,-229.828649
2999.286362,296.082377,-11917.315666,-306.438199
2999.286690,-888.247130,-9992.780217,-919.314598
2999.287018,-1850.514855,-7698.141797,-306.438199
2999.287345,-1258.350101,-7624.121203,306.438199
2999.287673,740.205942,-9326.594869,766.095498
2999.288000,888.247130,-8808.450710,2374.896044
2999.288328,1036.288319,-8512.368333,2374.896044
2999.288655,1998.556043,-9844.739029,536.266849
2999.288983,0.000000,-9622.677246,-1072.533697
2999.289310,-1850.514855,-8512.368333,-1991.848295
2999.289638,-814.226536,-10436.903782,-2298.286494
2999.289965,666.185348,-11769.274478,-1302.362347
2999.290293,1776.494261,-9474.636058,-229.828649
2999.290621,888.247130,-8808.450710,766.095498
2999.290948,0.000000,-11251.130318,1685.410096
2999.291276,-148.041188,-11399.171507,1455.581446
2999.291603,-296.082377,-8290.306550,-459.657299
2999.291931,-2146.597232,-5995.668130,-306.438199
2999.292258,-222.061783,-7402.059420,612.876398
2999.292586,1406.391290,-8882.471304,766.095498
2999.292913,1850.514855,-9548.656652,1455.581446
2999.293241,3108.864956,-9918.759623,842.705048
2999.293569,5033.400406,-10955.047942,76.609550
2999.293896,3701.029710,-11917.315666,-383.047749
2999.294224,666.185348,-10436.903782,0.000000
2999.294551,-962.267725,-10436.903782,-1455.581446
2999.294879,0.000000,-12139.377449,-1838.629195
2999.295206,1036.288319,-10066.800811,-1685.410096
2999.295534,222.061783,-7698.141797,-689.485948
2999.295861,-592.164754,-9252.574275,1762.019645
2999.296189,-370.102971,-10955.047942,1762.019645
2999.296516,-592.164754,-8882.471304,-1072.533697
2999.296844,-1628.453072,-6291.750507,-1915.238745
2999.297172,-296.082377,-7105.977043,-1072.533697
2999.297499,1036.288319,-10658.965565,0.000000
2999.297827,1036.288319,-11695.253884,919.314598
2999.298154,2590.720797,-11325.150913,919.314598
2999.298482,4737.318029,-11917.315666,-766.095498
2999.298809,2960.823768,-12509.480420,-689.485948
2999.299137,-666.185348,-11399.171507,153.219100
2999.299464,-1332.370696,-10807.006753,-612.876398
2999.299792,-592.164754,-10288.862594,-1915.238745
2999.300120,-962.267725,-7624.121203,-1838.629195
2999.300447,-2664.741391,-5625.565159,229.828649
2999.300775,-3108.864956,-6217.729913,1838.629195
2999.301102,-1406.391290,-8734.430116,1838.629195
2999.301430,-1776.494261,-8660.409521,0.000000
2999.301757,-1628.453072,-7846.182985,-1532.190996
2999.302085,74.020594,-8808.450710,-919.314598
2999.302412,1776.494261,-11843.295072,0.000000
2999.302740,2664.741391,-12953.603985,919.314598
2999.303067,2812.782580,-12361.439231,1532.190996
2999.303395,2812.782580,-10807.006753,-306.438199
2999.303723,1258.350101,-11695.253884,-995.924147
2999.304050,-2664.741391,-10140.821405,-153.219100
2999.304378,-3997.112087,-9474.636058,0.000000
2999.304705,-2220.617826,-8956.491898,-1532.190996
2999.305033,-1554.432478,-6587.832884,-1302.362347
2999.305360,-2590.720797,-4885.359217,229.828649
2999.305688,-1480.411884,-6957.935855,2451.505594
2999.306015,1998.556043,-9474.636058,1225.752797
2999.306343,1776.494261,-9474.636058,0.000000
2999.306670,962.267725,-8956.491898,-842.705048
2999.306998,1998.556043,-10658.965565,0.000000
2999.307326,3701.029710,-13397.727550,689.485948
2999.307653,3404.947333,-13619.789333,229.828649
2999.307981,1998.556043,-12213.398043,-1225.752797
2999.308308,1406.391290,-11843.295072,-2528.115143
2999.308636,592.164754,-12065.356855,-1991.848295
2999.308963,-1998.556043,-9030.512492,-1149.143247
2999.309291,-2516.700203,-7624.121203,0.000000
2999.309618,-370.102971,-8586.388927,0.000000
2999.309946,1480.411884,-7105.977043,-536.266849
2999.310274,518.144159,-5181.441594,995.924147
2999.310601,-222.061783,-6957.935855,2681.334243
2999.310929,1332.370696,-9622.677246,1608.800546
2999.311256,1554.432478,-10510.924376,-995.924147
2999.311584,444.123565,-9992.780217,-1915.238745
2999.311911,1628.453072,-11325.150913,-1225.752797
2999.312239,3182.885551,-14063.912898,-306.438199
2999.312566,3034.844362,-14359.995275,-383.047749
2999.312894,1332.370696,-11177.109724,-612.876398
2999.313221,1184.329507,-10881.027347,-919.314598
2999.313549,444.123565,-10436.903782,-153.219100
2999.313877,-1850.514855,-8364.327145,1072.533697
2999.314204,-3108.864956,-6883.915261,1072.533697
2999.314532,-1406.391290,-7031.956449,-229.828649
2999.314859,-370.102971,-6957.935855,-1762.019645
2999.315187,-740.205942,-6661.853478,-1149.143247
2999.315514,-1184.329507,-8216.285956,766.095498
2999.315842,0.000000,-11103.089130,1455.581446
2999.316169,592.164754,-10140.821405,-689.485948
2999.316497,370.102971,-10658.965565,-2451.505594
2999.316825,888.247130,-11991.336260,-1378.971896
2999.317152,2738.761985,-13619.789333,-306.438199
2999.317480,1850.514855,-11843.295072,1072.533697
2999.317807,222.061783,-9770.718434,1532.190996
2999.318135,0.000000,-8216.285956,612.876398
2999.318462,-888.247130,-9326.594869,612.876398
2999.318790,-2294.638420,-8068.244768,536.266849
2999.319117,-2812.782580,-5921.647536,306.438199
2999.319445,-296.082377,-7476.080014,-536.266849
2999.319772,1110.308913,-8290.306550,-766.095498
2999.320100,-222.061783,-8142.265362,0.000000
2999.320428,-740.205942,-8734.430116,1072.533697
2999.320755,1036.288319,-11399.171507,612.876398
2999.321083,1258.350101,-11399.171507,-919.314598
2999.321410,296.082377,-10066.800811,-1762.019645
2999.321738,0.000000,-10436.903782,-1838.629195
2999.322065,2368.659014,-12583.501014,383.047749
2999.322393,1480.411884,-11991.336260,0.000000
2999.322720,-296.082377,-9104.533087,383.047749
2999.323048,0.000000,-8142.265362,-459.657299
2999.323376,74.020594,-10066.800811,-1378.971896
2999.323703,-1554.432478,-9474.636058,-612.876398
2999.324031,-592.164754,-7550.100608,0.000000
2999.324358,2146.597232,-8956.491898,0.000000
2999.324686,3330.926739,-9178.553681,0.000000
2999.325013,518.144159,-8068.244768,459.657299
2999.325341,-1554.432478,-10436.903782,612.876398
2999.325668,0.000000,-11843.295072,-689.485948
2999.325996,1184.329507,-10584.944971,-3447.429741
2999.326323,-1110.308913,-9400.615463,-1915.238745
2999.326651,-1184.329507,-10214.842000,1455.581446
2999.326979,740.205942,-12065.356855,1685.410096
2999.327306,1776.494261,-11103.089130,76.609550
2999.327634,74.020594,-8364.327145,-612.876398
2999.327961,1184.329507,-8586.388927,-1072.533697
2999.328289,1628.453072,-9770.718434,-689.485948
2999.328616,592.164754,-10140.821405,1378.971896
2999.328944,-370.102971,-9178.553681,1072.533697
2999.329271,1924.535449,-10288.862594,459.657299
2999.329599,2738.761985,-10214.842000,76.609550
2999.329927,1406.391290,-8956.491898,0.000000
2999.330254,-592.164754,-8882.471304,536.266849
2999.330582,74.020594,-10510.924376,153.219100
2999.330909,0.000000,-9326.594869,-995.924147
2999.331237,-1628.453072,-6957.935855,-536.266849
2999.331564,-2368.659014,-6883.915261,1225.752797
2999.331892,74.020594,-10362.883188,1762.019645
2999.332219,1850.514855,-11399.171507,612.876398
2999.332547,740.205942,-9474.636058,-153.219100
2999.332874,1036.288319,-8364.327145,-536.266849
2999.333202,1480.411884,-9252.574275,-153.219100
2999.333530,-370.102971,-11917.315666,0.000000
2999.333857,-1776.494261,-11029.068536,0.000000
2999.334185,0.000000,-9622.677246,-1915.238745
2999.334512,1332.370696,-10362.883188,-2451.505594
2999.334840,814.226536,-10362.883188,-842.705048
2999.335167,74.020594,-9326.594869,1149.143247
2999.335495,-518.144159,-8734.430116,2451.505594
2999.335822,-1184.329507,-8586.388927,1225.752797
2999.336150,-2368.659014,-6217.729913,-1455.581446
2999.336477,-3552.988522,-6661.853478,-1072.533697
2999.336805,-1258.350101,-9326.594869,-536.266849
2999.337133,444.123565,-10584.944971,-689.485948
2999.337460,962.267725,-11029.068536,-766.095498
2999.337788,3034.844362,-11917.315666,-1302.362347
2999.338115,3182.885551,-13323.706956,-1455.581446
2999.338443,1258.350101,-13545.768739,-766.095498
2999.338770,-1184.329507,-11473.192101,-919.314598
2999.339098,-296.082377,-11399.171507,-2221.676944
2999.339425,1406.391290,-10658.965565,-1838.629195
2999.339753,666.185348,-7550.100608,536.266849
2999.340081,-962.267725,-5773.606348,2681.334243
2999.340408,296.082377,-8586.388927,3370.820191
2999.340736,1332.370696,-7698.141797,306.438199
2999.341063,-740.205942,-5403.503377,-766.095498
2999.341391,-2146.597232,-5773.606348,-229.828649
2999.341718,296.082377,-9474.636058,0.000000
2999.342046,3256.906145,-12361.439231,0.000000
2999.342373,3182.885551,-12139.377449,76.609550
2999.342701,3478.967927,-12435.459826,766.095498
2999.343028,3552.988522,-13471.748144,153.219100
2999.343356,1184.329507,-13619.789333,-306.438199
2999.343684,-1554.432478,-10584.944971,-1302.362347
2999.344011,-2220.617826,-7772.162391,-1302.362347
2999.344339,-1554.432478,-7031.956449,-459.657299
2999.344666,-1776.494261,-5699.585753,306.438199
2999.344994,-2294.638420,-5403.503377,1455.581446
2999.345321,-296.082377,-7624.121203,2145.067394
2999.345649,2146.597232,-9474.636058,0.000000
2999.345976,1554.432478,-9326.594869,-1072.533697
2999.346304,148.041188,-8660.409521,-612.876398
2999.346632,2146.597232,-11029.068536,153.219100
2999.346959,3627.009116,-14434.015869,0.000000
2999.347287,2886.803174,-13323.706956,-995.924147
2999.347614,1924.535449,-11547.212695,-766.095498
2999.347942,962.267725,-12583.501014,-1149.143247
2999.348269,-962.267725,-12139.377449,-1378.971896
2999.348597,-4293.194464,-9030.512492,-1762.019645
2999.348924,-3552.988522,-8068.244768,-1991.848295
2999.349252,-1184.329507,-8216.285956,-1225.752797
2999.349579,148.041188,-6883.915261,76.609550
2999.349907,-1036.288319,-5477.523971,1685.410096
2999.350235,74.020594,-7328.038826,2298.286494
2999.350562,2516.700203,-9400.615463,536.266849
2999.350890,1332.370696,-8734.430116,-306.438199
2999.351217,-148.041188,-8364.327145,306.438199
2999.351545,1702.473667,-10362.883188,1455.581446
2999.351872,3552.988522,-13471.748144,-383.047749
2999.352200,2368.659014,-12731.542202,-536.266849
2999.352527,1258.350101,-11769.274478,-536.266849
2999.352855,814.226536,-12805.562797,-536.266849
2999.353183,-1110.308913,-11695.253884,153.219100
2999.353510,-3330.926739,-7550.100608,-995.924147
2999.353838,-3182.885551,-5699.585753,-1685.410096
2999.354165,-666.185348,-7328.038826,-383.047749
2999.354493,222.061783,-6513.812290,1378.971896
2999.354820,222.061783,-5699.585753,2604.724693
2999.355148,1406.391290,-7920.203579,3140.991542
2999.355475,2516.700203,-9030.512492,919.314598
2999.355803,444.123565,-7698.141797,-1685.410096
2999.356130,-1406.391290,-9918.759623,-1915.238745
2999.356458,-74.020594,-12731.542202,-1762.019645
2999.356786,2812.782580,-13545.768739,-1378.971896
2999.357113,2368.659014,-13027.624579,-766.095498
2999.357441,1628.453072,-12361.439231,689.485948
2999.357768,1702.473667,-12065.356855,919.314598
2999.358096,0.000000,-10214.842000,-229.828649
2999.358423,-3256.906145,-7550.100608,-1378.971896
2999.358751,-2812.782580,-6291.750507,-1455.581446
2999.359078,-592.164754,-7179.997637,-1532.190996
2999.359406,0.000000,-7698.141797,383.047749
2999.359733,296.082377,-7846.182985,919.314598
2999.360061,1332.370696,-10140.821405,1072.533697
2999.360389,1776.494261,-12361.439231,-766.095498
2999.360716,888.247130,-11177.109724,-2987.772442
2999.361044,-370.102971,-10955.047942,-3217.601092
2999.361371,222.061783,-11917.315666,-995.924147
2999.361699,2442.679609,-12361.439231,0.000000
2999.362026,2220.617826,-10214.842000,306.438199
2999.362354,962.267725,-9178.553681,1838.629195
2999.362681,1036.288319,-10362.883188,2221.676944
2999.363009,-370.102971,-10732.986159,842.705048
2999.363336,-2516.700203,-7994.224174,-1072.533697
2999.363664,-2590.720797,-6291.750507,-2528.115143
2999.363991,592.164754,-8512.368333,-1838.629195
2999.364319,1406.391290,-9992.780217,459.657299
2999.364646,370.102971,-8586.388927,2451.505594
2999.364974,1036.288319,-8660.409521,1762.019645
2999.365301,2368.659014,-11103.089130,153.219100
2999.365629,1258.350101,-9992.780217,-1302.362347
2999.365956,-148.041188,-7476.080014,-306.438199
2999.366284,0.000000,-8660.409521,1762.019645
2999.366611,1184.329507,-10807.006753,2068.457845
2999.366939,1258.350101,-9696.697840,306.438199
2999.367266,0.000000,-8216.285956,76.609550
2999.367593,0.000000,-8882.471304,-383.047749
2999.367921,-296.082377,-11029.068536,-919.314598
2999.368248,-1702.473667,-10214.842000,-1532.190996
2999.368576,-666.185348,-9474.636058,-1378.971896
2999.368903,2146.597232,-10362.883188,-1149.143247
2999.369231,2072.576638,-11103.089130,0.000000
2999.369558,888.247130,-10955.047942,1455.581446
2999.369886,-370.102971,-9622.677246,1225.752797
2999.370213,222.061783,-9622.677246,-842.705048
2999.370541,0.000000,-9474.636058,-1378.971896
2999.370868,-1554.432478,-8142.265362,-1225.752797
2999.371196,-962.267725,-8734.430116,306.438199
2999.371523,1332.370696,-10807.006753,383.047749
2999.371851,2146.597232,-10140.821405,0.000000
2999.372178,666.185348,-9252.574275,-536.266849
2999.372506,888.247130,-10510.924376,-1608.800546
2999.372833,1036.288319,-12139.377449,-1072.533697
2999.373160,-370.102971,-11473.192101,-766.095498
2999.373488,370.102971,-10584.944971,-612.876398
2999.373815,1184.329507,-10584.944971,-536.266849
2999.374143,962.267725,-10140.821405,0.000000
2999.374470,-370.102971,-8956.491898,306.438199
2999.374798,-1332.370696,-8586.388927,766.095498
2999.375125,-2146.597232,-8808.450710,459.657299
2999.375453,-2442.679609,-6661.853478,-306.438199
2999.375780,-3108.864956,-6143.709319,-689.485948
2999.376108,-518.144159,-8956.491898,76.609550
2999.376435,3108.864956,-11325.150913,383.047749
2999.376763,3775.050304,-10066.800811,229.828649
2999.377090,3330.926739,-9178.553681,1072.533697
2999.377418,2368.659014,-11251.130318,1378.971896
2999.377745,2072.576638,-12583.501014,0.000000
2999.378073,-148.041188,-10584.944971,-1378.971896
2999.378400,-2146.597232,-9992.780217,-1915.238745
2999.378728,-1184.329507,-10436.903782,-1838.629195
2999.379055,-592.164754,-9770.718434,-1685.410096
2999.379382,-2146.597232,-7402.059420,995.924147
2999.379710,-2146.597232,-8808.450710,919.314598
2999.380037,-592.164754,-9474.636058,995.924147
2999.380365,-444.123565,-7179.997637,-306.438199
2999.380692,-1332.370696,-5921.647536,0.000000
2999.381020,1036.288319,-7624.121203,1072.533697
2999.381347,3997.112087,-10066.800811,76.609550
2999.381675,3849.070898,-11695.253884,1685.410096
2999.382002,2368.659014,-10881.027347,689.485948
2999.382330,2368.659014,-11473.192101,-689.485948
2999.382657,1924.535449,-13619.789333,-1915.238745
2999.382985,-444.123565,-12657.521608,-2374.896044
2999.383312,-2368.659014,-10362.883188,-2221.676944
2999.383640,-888.247130,-10436.903782,-1149.143247
2999.383967,518.144159,-9474.636058,0.000000
2999.384295,-814.226536,-7179.997637,612.876398
2999.384622,-1480.411884,-6143.709319,1915.238745
2999.384949,-962.267725,-7179.997637,1762.019645
2999.385277,74.020594,-7328.038826,153.219100
2999.385604,0.000000,-6069.688724,0.000000
2999.385932,1184.329507,-8068.244768,536.266849
2999.386259,4071.132681,-11177.109724,919.314598
2999.386587,3627.009116,-12213.398043,0.000000
2999.386914,1628.453072,-12657.521608,-919.314598
2999.387242,888.247130,-13693.809927,-2068.457845
2999.387569,888.247130,-13471.748144,-1991.848295
2999.387897,-444.123565,-11547.212695,-1149.143247
2999.388224,-1480.411884,-10362.883188,0.000000
2999.388552,-592.164754,-10140.821405,1072.533697
2999.388879,74.020594,-8808.450710,536.266849
2999.389207,-1184.329507,-4885.359217,459.657299
2999.389534,-2738.761985,-4219.173869,1149.143247
2999.389862,-2368.659014,-7105.977043,842.705048
2999.390189,-518.144159,-8142.265362,-689.485948
2999.390517,0.000000,-7846.182985,-1685.410096
2999.390844,1702.473667,-10584.944971,-612.876398
2999.391171,4589.276840,-13989.892304,229.828649
2999.391499,4663.297435,-14137.933492,229.828649
2999.391826,2368.659014,-12361.439231,-306.438199
2999.392154,1110.308913,-12213.398043,-1072.533697
2999.392481,444.123565,-11621.233289,-1225.752797
2999.392809,-962.267725,-9252.574275,-1838.629195
2999.393136,-3552.988522,-6587.832884,306.438199
2999.393464,-2294.638420,-8660.409521,1149.143247
2999.393791,-1258.350101,-9178.553681,995.924147
2999.394119,-1628.453072,-6957.935855,-306.438199
2999.394446,-1702.473667,-6217.729913,-842.705048
2999.394774,0.000000,-8216.285956,0.000000
2999.395101,1110.308913,-10436.903782,-383.047749
2999.395429,444.123565,-9474.636058,-612.876398
2999.395756,1554.432478,-9474.636058,0.000000
2999.396084,3775.050304,-11399.171507,612.876398
2999.396411,4219.173869,-13323.706956,842.705048
2999.396739,2072.576638,-11843.295072,842.705048
2999.397066,814.226536,-9844.739029,0.000000
2999.397393,222.061783,-10436.903782,0.000000
2999.397721,-1924.535449,-9400.615463,-1225.752797
2999.398048,-3701.029710,-7179.997637,-1608.800546
2999.398376,-3034.844362,-7476.080014,-229.828649
2999.398703,-1332.370696,-8956.491898,-153.219100
2999.399031,148.041188,-8290.306550,-766.095498
2999.399358,-444.123565,-7698.141797,229.828649
2999.399686,592.164754,-8956.491898,995.924147
2999.400013,2072.576638,-10140.821405,0.000000
2999.400341,1480.411884,-9770.718434,-766.095498
2999.400668,518.144159,-11103.089130,-383.047749
2999.400996,2072.576638,-12139.377449,0.000000
2999.401323,2812.782580,-12287.418637,-536.266849
2999.401651,592.164754,-10881.027347,-536.266849
2999.401978,296.082377,-9844.739029,76.609550
2999.402306,1036.288319,-10658.965565,-459.657299
2999.402633,0.000000,-9918.759623,-766.095498
2999.402960,-1406.391290,-7476.080014,-536.266849
2999.403288,148.041188,-7476.080014,-612.876398
2999.403615,1110.308913,-9474.636058,612.876398
2999.403943,814.226536,-8808.450710,1072.533697
2999.404270,74.020594,-7254.018232,1455.581446
2999.404598,0.000000,-9400.615463,1532.190996
2999.404925,888.247130,-11399.171507,-459.657299
2999.405253,0.000000,-10436.903782,-1225.752797
2999.405580,-1258.350101,-9548.656652,-842.705048
2999.405908,-1258.350101,-10214.842000,536.266849
2999.406235,-444.123565,-9770.718434,306.438199
2999.406563,-888.247130,-9104.533087,-919.314598
2999.406890,296.082377,-8512.368333,-766.095498
2999.407218,2738.761985,-9696.697840,-1072.533697
2999.407545,3034.844362,-10584.944971,0.000000
2999.407873,1480.411884,-10066.800811,1762.019645
2999.408200,1036.288319,-8808.450710,1302.362347
2999.408528,1554.432478,-9326.594869,-229.828649
2999.408855,370.102971,-9474.636058,-1302.362347
2999.409182,-1184.329507,-9104.533087,-1991.848295
2999.409510,-1110.308913,-9844.739029,-1378.971896
2999.409837,-814.226536,-10881.027347,-536.266849
2999.410165,-2146.597232,-9252.574275,-766.095498
2999.410492,-2072.576638,-9104.533087,-306.438199
2999.410820,-1184.329507,-9992.780217,0.000000
2999.411147,1036.288319,-9992.780217,-689.485948
2999.411475,1184.329507,-8956.491898,-153.219100
2999.411802,1924.535449,-8734.430116,-766.095498
2999.412130,2886.803174,-10510.924376,0.000000
2999.412457,1776.494261,-11177.109724,536.266849
2999.412785,-296.082377,-9474.636058,0.000000
2999.413112,296.082377,-10436.903782,-306.438199
2999.413440,2072.576638,-11029.068536,-1072.533697
2999.413767,1776.494261,-10510.924376,-1532.190996
2999.414095,740.205942,-9548.656652,0.000000
2999.414422,0.000000,-9992.780217,1532.190996
2999.414749,-1332.370696,-8956.491898,1838.629195
2999.415077,-1924.535449,-7179.997637,229.828649
2999.415404,-2220.617826,-6661.853478,153.219100
2999.415732,-592.164754,-7550.100608,842.705048
2999.416059,1406.391290,-9400.615463,536.266849
2999.416387,2664.741391,-9178.553681,1149.143247
2999.416714,3627.009116,-9844.739029,1072.533697
2999.417042,4145.153275,-11547.212695,229.828649
2999.417369,2072.576638,-11769.274478,-536.266849
2999.417697,-1480.411884,-9770.718434,-1225.752797
2999.418024,-1480.411884,-11177.109724,-1532.190996
2999.418352,74.020594,-11103.089130,-1302.362347
2999.418679,888.247130,-9252.574275,306.438199
2999.419007,0.000000,-7994.224174,2298.286494
2999.419334,-1110.308913,-9474.636058,2757.943793
2999.419662,-1258.350101,-9474.636058,995.924147
2999.419989,-1850.514855,-6661.853478,-1838.629195
2999.420317,-3330.926739,-5107.421000,-2221.676944
2999.420644,-1850.514855,-8512.368333,-536.266849
2999.420971,2294.638420,-12065.356855,0.000000
2999.421299,3108.864956,-12361.439231,-229.828649
2999.421626,3775.050304,-13027.624579,76.609550
2999.421954,4737.318029,-14063.912898,-1225.752797
2999.422281,2146.597232,-13323.706956,-1302.362347
2999.422609,-1628.453072,-10955.047942,-2145.067394
2999.422936,-2368.659014,-9770.718434,-2451.505594
2999.423264,-1628.453072,-8734.430116,-842.705048
2999.423591,-370.102971,-7105.977043,0.000000
2999.423919,-666.185348,-6291.750507,1762.019645
2999.424246,-2072.576638,-8364.327145,3294.210641
2999.424574,-2072.576638,-9400.615463,2528.115143
2999.424901,-296.082377,-8586.388927,-1915.238745
2999.425229,-1258.350101,-6587.832884,-3447.429741
2999.425556,74.020594,-8364.327145,-306.438199
2999.425884,3034.844362,-11843.295072,1302.362347
2999.426211,4441.235652,-12805.562797,995.924147
2999.426539,3552.988522,-12065.356855,306.438199
2999.426866,3256.906145,-12139.377449,-612.876398
2999.427193,666.185348,-11399.171507,-536.266849
2999.427521,-1850.514855,-9030.512492,-766.095498
2999.427848,-2146.597232,-7994.224174,-1225.752797
2999.428176,-1184.329507,-8808.450710,-612.876398
2999.428503,0.000000,-7254.018232,459.657299
2999.428831,370.102971,-5847.626942,1838.629195
2999.429158,-592.164754,-6587.832884,2834.553343
2999.429486,222.061783,-8956.491898,1838.629195
2999.429813,666.185348,-8586.388927,-612.876398
2999.430141,74.020594,-8142.265362,-1455.581446
2999.430468,740.205942,-10066.800811,-536.266849
2999.430796,2738.761985,-13101.645173,76.609550
2999.431123,1998.556043,-12805.562797,0.000000
2999.431451,592.164754,-11473.192101,-1532.190996
2999.431778,1406.391290,-12509.480420,-2834.553343
2999.432106,-222.061783,-12361.439231,-2298.286494
2999.432433,-1480.411884,-9770.718434,-1302.362347
2999.432760,-1184.329507,-9030.512492,-459.657299
2999.433088,888.247130,-9474.636058,0.000000
2999.433415,1110.308913,-8586.388927,536.266849
2999.433743,0.000000,-6217.729913,1455.581446
2999.434070,-1110.308913,-7402.059420,2298.286494
2999.434398,0.000000,-9548.656652,459.657299
2999.434725,888.247130,-9474.636058,-1608.800546
2999.435053,0.000000,-9104.533087,-1685.410096
2999.435380,888.247130,-10658.965565,0.000000
2999.435708,2738.761985,-13545.768739,0.000000
2999.436035,2368.659014,-13767.830521,689.485948
2999.436363,1480.411884,-10807.006753,-612.876398
2999.436690,296.082377,-10288.862594,-842.705048
2999.437018,-1406.391290,-10288.862594,-842.705048
2999.437345,-3701.029710,-8660.409521,76.609550
2999.437673,-3627.009116,-7254.018232,-689.485948
2999.438000,-1258.350101,-7328.038826,-1225.752797
2999.438328,666.185348,-7772.162391,-1072.533697
2999.438655,370.102971,-7105.977043,1225.752797
2999.438982,370.102971,-7550.100608,919.314598
2999.439310,1998.556043,-9992.780217,689.485948
2999.439637,2590.720797,-10881.027347,-612.876398
2999.439965,1406.391290,-9844.739029,-842.705048
2999.440292,1184.329507,-10510.924376,229.828649
2999.440620,2368.659014,-12139.377449,612.876398
2999.440947,1554.432478,-11547.212695,459.657299
2999.441275,222.061783,-9992.780217,383.047749
2999.441602,-814.226536,-9548.656652,0.000000
2999.441930,-1110.308913,-10140.821405,-842.705048
2999.442257,-2368.659014,-8734.430116,-842.705048
2999.442585,-2442.679609,-7105.977043,-1072.533697
2999.442912,-518.144159,-8660.409521,-1302.362347
2999.443240,1850.514855,-8660.409521,-995.924147
2999.443567,1332.370696,-8142.265362,536.266849
2999.443895,518.144159,-8586.388927,919.314598
2999.444222,2146.597232,-11177.109724,1072.533697
2999.444549,2294.638420,-11251.130318,-766.095498
2999.444877,592.164754,-9918.759623,-995.924147
2999.445204,0.000000,-10436.903782,-689.485948
2999.445532,740.205942,-11399.171507,536.266849
2999.445859,1406.391290,-10732.986159,-306.438199
2999.446187,740.205942,-9696.697840,-383.047749
2999.446514,0.000000,-9474.636058,0.000000
2999.446842,296.082377,-10732.986159,0.000000
2999.447169,-296.082377,-10436.903782,-306.438199
2999.447497,0.000000,-8882.471304,-383.047749
2999.447824,1406.391290,-8364.327145,-459.657299
2999.448152,2442.679609,-8808.450710,-689.485948
2999.448479,888.247130,-7402.059420,0.000000
2999.448807,-1184.329507,-8068.244768,306.438199
2999.449134,-1924.535449,-9844.739029,229.828649
2999.449462,-1110.308913,-11029.068536,-1072.533697
2999.449789,-296.082377,-9548.656652,-1378.971896
2999.450117,-592.164754,-9474.636058,0.000000
2999.450444,592.164754,-11621.233289,766.095498
2999.450771,1258.350101,-11547.212695,1225.752797
2999.451099,1258.350101,-8438.347739,-612.876398
2999.451426,1332.370696,-9474.636058,-612.876398
2999.451754,518.144159,-10807.006753,0.000000
2999.452081,148.041188,-9918.759623,-153.219100
2999.452409,814.226536,-8956.491898,-153.219100
2999.452736,1406.391290,-10140.821405,-153.219100
2999.453064,1036.288319,-9918.759623,153.219100
2999.453391,740.205942,-9030.512492,-383.047749
2999.453719,-444.123565,-9030.512492,-1302.362347
2999.454046,-1184.329507,-10288.862594,-995.924147
2999.454374,-962.267725,-8956.491898,-766.095498
2999.454701,-1110.308913,-7105.977043,-229.828649
2999.455029,-1258.350101,-8364.327145,1072.533697
2999.455356,-444.123565,-10881.027347,2451.505594
2999.455684,1332.370696,-11473.192101,1149.143247
2999.456011,1406.391290,-9622.677246,-306.438199
2999.456339,1628.453072,-10288.862594,-1378.971896
2999.456666,1776.494261,-10807.006753,-1225.752797
2999.456993,444.123565,-11103.089130,-919.314598
2999.457321,-370.102971,-9918.759623,-612.876398
2999.457648,1110.308913,-10214.842000,-1915.238745
2999.457976,1776.494261,-9622.677246,-995.924147
2999.458303,222.061783,-7772.162391,766.095498
2999.458631,-888.247130,-8068.244768,1762.019645
2999.458958,-370.102971,-9178.553681,1838.629195
2999.459286,-666.185348,-8290.306550,919.314598
2999.459613,-1406.391290,-6513.812290,0.000000
2999.459941,-1924.535449,-6883.915261,612.876398
2999.460268,592.164754,-9918.759623,1225.752797
2999.460596,2812.782580,-11399.171507,383.047749
2999.460923,2368.659014,-11621.233289,0.000000
2999.461251,2886.803174,-11843.295072,-383.047749
2999.461579,2294.638420,-13175.665768,-1685.410096
2999.461906,0.000000,-12805.562797,-1532.190996
2999.462234,-2294.638420,-10288.862594,-2068.457845
2999.462561,-1110.308913,-9622.677246,-3140.991542
2999.462889,222.061783,-9696.697840,-1225.752797
2999.463217,148.041188,-7105.977043,766.095498
2999.463544,74.020594,-6217.729913,2451.505594
2999.463872,148.041188,-8290.306550,2298.286494
2999.464200,74.020594,-9474.636058,1302.362347
2999.464527,-296.082377,-7254.018232,-1532.190996
2999.464855,-888.247130,-7846.182985,-1149.143247
2999.465183,888.247130,-11473.192101,76.609550
2999.465510,3404.947333,-13619.789333,153.219100
2999.465838,3701.029710,-13027.624579,536.266849
2999.466165,3775.050304,-12657.521608,-612.876398
2999.466493,2664.741391,-12435.459826,-1455.581446
2999.466821,0.000000,-11399.171507,-1838.629195
2999.467148,-2664.741391,-8586.388927,-1532.190996
2999.467476,-3182.885551,-7105.977043,-842.705048
2999.467804,-3330.926739,-7105.977043,0.000000
2999.468131,-3552.988522,-5921.647536,383.047749
2999.468459,-3182.885551,-5551.544565,536.266849
2999.468787,-592.164754,-8364.327145,0.000000
2999.469114,814.226536,-9548.656652,0.000000
2999.469442,518.144159,-8512.368333,0.000000
2999.469769,1406.391290,-8734.430116,536.266849
2999.470097,3552.988522,-11547.212695,919.314598
2999.470425,4811.338623,-13101.645173,689.485948
2999.470752,3775.050304,-12879.583391,306.438199
2999.471080,2590.720797,-11769.274478,0.000000
2999.471408,1406.391290,-11251.130318,-1149.143247
2999.471735,-1924.535449,-10584.944971,-1225.752797
2999.472063,-4293.194464,-8956.491898,-995.924147
2999.472391,-2738.761985,-8216.285956,-1149.143247
2999.472718,-888.247130,-8216.285956,-1378.971896
2999.473046,-1110.308913,-6957.935855,-459.657299
2999.473373,-2146.597232,-6143.709319,995.924147
2999.473701,444.123565,-8216.285956,459.657299
2999.474029,1998.556043,-9548.656652,0.000000
2999.474356,1554.432478,-9400.615463,229.828649
2999.474684,962.267725,-9474.636058,766.095498
2999.475012,3108.864956,-12953.603985,383.047749
2999.475339,4219.173869,-14359.995275,-612.876398
2999.475667,2664.741391,-12139.377449,-919.314598
2999.475995,740.205942,-11843.295072,0.000000
2999.476322,-296.082377,-12065.356855,-842.705048
2999.476650,-1480.411884,-10436.903782,-995.924147
2999.476977,-2664.741391,-8068.244768,-995.924147
2999.477305,-1850.514855,-7846.182985,0.000000
2999.477633,0.000000,-8290.306550,1455.581446
2999.477960,1258.350101,-7476.080014,1838.629195
2999.478288,1110.308913,-6291.750507,1762.019645
2999.478616,1480.411884,-8660.409521,1455.581446
2999.478943,1406.391290,-8808.450710,459.657299
2999.479271,0.000000,-8364.327145,-1072.533697
2999.479599,-1628.453072,-9696.697840,-1532.190996
2999.479926,-592.164754,-11547.212695,-306.438199
2999.480254,2368.659014,-13249.686362,0.000000
2999.480581,2960.823768,-11991.336260,153.219100
2999.480909,1110.308913,-11399.171507,1149.143247
2999.481237,296.082377,-11325.150913,995.924147
2999.481564,-814.226536,-9252.574275,-306.438199
2999.481892,-2590.720797,-6439.791695,-612.876398
2999.482220,-2368.659014,-6513.812290,76.609550
2999.482547,-814.226536,-7846.182985,76.609550
2999.482875,814.226536,-8734.430116,0.000000
2999.483203,1184.329507,-9622.677246,0.000000
2999.483530,888.247130,-10807.006753,-689.485948
2999.483858,1258.350101,-11399.171507,-1225.752797
2999.484185,444.123565,-9844.739029,-2374.896044
2999.484513,-740.205942,-9474.636058,-2221.676944
2999.484841,296.082377,-11473.192101,0.000000
2999.485168,2516.700203,-12213.398043,1072.533697
2999.485496,2368.659014,-9474.636058,995.924147
2999.485824,1036.288319,-9326.594869,1685.410096
2999.486151,0.000000,-11399.171507,1149.143247
2999.486479,-518.144159,-10807.006753,-995.924147
2999.486806,-1628.453072,-9104.533087,-2757.943793
2999.487134,-1036.288319,-8290.306550,-1762.019645
2999.487462,666.185348,-10436.903782,-1072.533697
2999.487789,1258.350101,-10510.924376,306.438199
2999.488117,222.061783,-8734.430116,842.705048
2999.488445,0.000000,-9696.697840,0.000000
2999.488772,1036.288319,-11103.089130,229.828649
2999.489100,-444.123565,-8068.244768,-459.657299
2999.489428,-1480.411884,-6291.750507,229.828649
2999.489755,-1702.473667,-7846.182985,1455.581446
2999.490083,222.061783,-9918.759623,2145.067394
2999.490410,1036.288319,-9622.677246,1149.143247
2999.490738,666.185348,-8364.327145,766.095498
2999.491066,1110.308913,-10436.903782,153.219100
2999.491393,1702.473667,-12139.377449,-1072.533697
2999.491721,444.123565,-10288.862594,0.000000
2999.492049,-370.102971,-8512.368333,-766.095498
2999.492376,888.247130,-10288.862594,-689.485948
2999.492704,666.185348,-10362.883188,-536.266849
2999.493032,-518.144159,-9178.553681,76.609550
2999.493359,-592.164754,-8882.471304,-306.438199
2999.493687,-1406.391290,-8660.409521,-76.609550
2999.494014,-1628.453072,-7402.059420,-459.657299
2999.494342,-1702.473667,-7105.977043,-306.438199
2999.494670,-740.205942,-9104.533087,76.609550
2999.494997,1554.432478,-11473.192101,306.438199
2999.495325,2886.803174,-11325.150913,-536.266849
2999.495653,2368.659014,-11473.192101,-229.828649
2999.495980,3182.885551,-12435.459826,-766.095498
2999.496308,2368.659014,-13027.624579,-612.876398
2999.496636,888.247130,-11399.171507,229.828649
2999.496963,666.185348,-10658.965565,-1225.752797
2999.497291,1258.350101,-11103.089130,-1608.800546
2999.497618,296.082377,-9992.780217,-1225.752797
2999.497946,-1554.432478,-8438.347739,-766.095498
2999.498274,-1998.556043,-7920.203579,-383.047749
2999.498601,-2368.659014,-7550.100608,1072.533697
2999.498929,-2664.741391,-6143.709319,919.314598
2999.499257,-3256.906145,-5477.523971,-153.219100
2999.499584,-2072.576638,-9030.512492,153.219100
2999.499912,1776.494261,-11325.150913,306.438199
2999.500240,4145.153275,-10436.903782,-612.876398
2999.500567,3404.947333,-10510.924376,842.705048
2999.500895,3997.112087,-13397.727550,229.828649
2999.501222,3552.988522,-12805.562797,-229.828649
2999.501550,1776.494261,-11399.171507,-1225.752797
2999.501878,0.000000,-10288.862594,-1455.581446
2999.502205,0.000000,-10881.027347,-842.705048
2999.502533,0.000000,-9252.574275,-229.828649
2999.502861,-2146.597232,-5921.647536,459.657299
2999.503188,-2516.700203,-5403.503377,1685.410096
2999.503516,-2442.679609,-7402.059420,1762.019645
2999.503844,-2294.638420,-6217.729913,995.924147
2999.504171,-1332.370696,-5403.503377,153.219100
2999.504499,592.164754,-8068.244768,0.000000
2999.504826,2886.803174,-11547.212695,383.047749
2999.505154,3478.967927,-12139.377449,306.438199
2999.505482,2664.741391,-11843.295072,-383.047749
2999.505809,2812.782580,-13027.624579,-1532.190996
2999.506137,1628.453072,-13619.789333,-1838.629195
2999.506465,-814.226536,-12213.398043,-2221.676944
2999.506792,-1776.494261,-11325.150913,-1838.629195
2999.507120,0.000000,-11621.233289,-1608.800546
2999.507448,222.061783,-9696.697840,-612.876398
2999.507775,-1628.453072,-6809.894666,612.876398
2999.508103,-2220.617826,-5847.626942,1378.971896
2999.508430,-1110.308913,-7105.977043,76.609550
2999.508758,-740.205942,-7920.203579,-76.609550
2999.509086,-148.041188,-7550.100608,0.000000
2999.509413,1406.391290,-9474.636058,919.314598
2999.509741,4441.235652,-12805.562797,766.095498
2999.510069,4663.297435,-12953.603985,-536.266849
2999.510396,2294.638420,-11991.336260,-995.924147
2999.510724,888.247130,-12065.356855,-2068.457845
2999.511052,-444.123565,-13027.624579,-2298.286494
2999.511379,-1998.556043,-10510.924376,-1302.362347
2999.511707,-2146.597232,-7994.224174,0.000000
2999.512034,-370.102971,-8882.471304,1149.143247
2999.512362,222.061783,-8808.450710,1225.752797
2999.512690,-962.267725,-5995.668130,995.924147
2999.513017,-1554.432478,-4293.194464,919.314598
2999.513345,-1702.473667,-7328.038826,0.000000
2999.513673,-1110.308913,-7698.141797,-766.095498
2999.514000,-518.144159,-8068.244768,-1225.752797
2999.514328,1998.556043,-10436.903782,0.000000
2999.514656,5033.400406,-12657.521608,1378.971896
2999.514983,4515.256246,-14063.912898,536.266849
2999.515311,2368.659014,-13767.830521,229.828649
2999.515638,1406.391290,-11843.295072,-1762.019645
2999.515966,666.185348,-10732.986159,-2451.505594
2999.516294,-1924.535449,-7846.182985,-1762.019645
2999.516621,-3404.947333,-7179.997637,-306.438199
2999.516949,-1924.535449,-8882.471304,1302.362347
2999.517277,-1258.350101,-9178.553681,995.924147
2999.517604,-888.247130,-7105.977043,0.000000
2999.517932,-518.144159,-7772.162391,-1149.143247
2999.518259,296.082377,-10436.903782,-1072.533697
2999.518587,1406.391290,-11029.068536,-1225.752797
2999.518915,1702.473667,-9622.677246,-1762.019645
2999.519242,2294.638420,-10584.944971,0.000000
2999.519570,3330.926739,-11843.295072,1455.581446
2999.519898,3330.926739,-12139.377449,689.485948
2999.520225,1702.473667,-10955.047942,0.000000
2999.520553,-148.041188,-10658.965565,-229.828649
2999.520881,-740.205942,-11103.089130,-689.485948
2999.521208,-1332.370696,-8290.306550,-1225.752797
2999.521536,-2368.659014,-6439.791695,-1225.752797
2999.521863,-1406.391290,-7698.141797,306.438199
2999.522191,962.267725,-10214.842000,919.314598
2999.522519,2294.638420,-8364.327145,612.876398
2999.522846,1406.391290,-6809.894666,995.924147
2999.523174,518.144159,-9178.553681,1378.971896
2999.523502,666.185348,-10362.883188,1225.752797
2999.523829,-740.205942,-9104.533087,-842.705048
2999.524157,-1258.350101,-8512.368333,-1149.143247
2999.524485,-370.102971,-10288.862594,-612.876398
2999.524812,370.102971,-10955.047942,-229.828649
2999.525140,888.247130,-10732.986159,-229.828649
2999.525467,814.226536,-10362.883188,229.828649
2999.525795,888.247130,-10584.944971,-383.047749
2999.526123,1036.288319,-9622.677246,-153.219100
2999.526450,-296.082377,-8290.306550,-612.876398
2999.526778,296.082377,-8734.430116,-229.828649
2999.527106,1036.288319,-10140.821405,76.609550
2999.527433,1406.391290,-9548.656652,0.000000
2999.527761,888.247130,-8956.491898,0.000000
2999.528089,0.000000,-9992.780217,383.047749
2999.528416,-296.082377,-12065.356855,-1302.362347
2999.528744,-1332.370696,-10658.965565,-1915.238745
2999.529071,-1184.329507,-10066.800811,-2451.505594
2999.529399,-444.123565,-9696.697840,-919.314598
2999.529727,-296.082377,-9622.677246,612.876398
2999.530054,-1332.370696,-9474.636058,1762.019645
2999.530382,-814.226536,-10214.842000,536.266849
2999.530710,1110.308913,-11103.089130,-2451.505594
2999.531037,740.205942,-9622.677246,-1915.238745
2999.531365,-962.267725,-8068.244768,-689.485948
2999.531693,-222.061783,-9844.739029,612.876398
2999.532020,1480.411884,-11325.150913,229.828649
2999.532348,1924.535449,-9474.636058,-842.705048
2999.532675,888.247130,-8808.450710,-689.485948
2999.533003,962.267725,-10881.027347,0.000000
2999.533331,444.123565,-10881.027347,0.000000
2999.533658,-1110.308913,-6883.915261,459.657299
2999.533986,-2516.700203,-6365.771101,536.266849
2999.534314,-1628.453072,-8956.491898,1532.190996
2999.534641,888.247130,-9326.594869,1149.143247
2999.534969,1110.308913,-8882.471304,919.314598
2999.535297,666.185348,-9474.636058,153.219100
2999.535624,1850.514855,-10436.903782,-766.095498
2999.535952,1850.514855,-10732.986159,-1532.190996
2999.536279,148.041188,-9770.718434,-1302.362347
2999.536607,814.226536,-10510.924376,-689.485948
2999.536935,2146.597232,-11547.212695,0.000000
2999.537262,1924.535449,-9844.739029,-919.314598
2999.537590,814.226536,-9400.615463,-842.705048
2999.537918,666.185348,-10214.842000,536.266849
2999.538245,-592.164754,-9696.697840,689.485948
2999.538573,-888.247130,-7105.977043,-306.438199
2999.538901,-1480.411884,-6587.832884,0.000000
2999.539228,-518.144159,-8808.450710,536.266849
2999.539556,1258.350101,-10510.924376,0.000000
2999.539883,1924.535449,-10807.006753,76.609550
2999.540211,1998.556043,-11769.274478,0.000000
2999.540539,4145.153275,-13027.624579,-1149.143247
2999.540866,2368.659014,-11769.274478,-995.924147
2999.541194,-296.082377,-10066.800811,-1072.533697
2999.541522,-518.144159,-9548.656652,-1532.190996
2999.541849,-740.205942,-9622.677246,-1608.800546
2999.542177,-1998.556043,-9474.636058,0.000000
2999.542505,-1332.370696,-7624.121203,1072.533697
2999.542832,-370.102971,-8290.306550,1149.143247
2999.543160,-740.205942,-9622.677246,1225.752797
2999.543487,-1628.453072,-7179.997637,306.438199
2999.543815,-1332.370696,-5699.585753,0.000000
2999.544143,740.205942,-8216.285956,76.609550
2999.544470,2294.638420,-11621.233289,612.876398
2999.544798,1554.432478,-11029.068536,1149.143247
2999.545126,2220.617826,-10955.047942,536.266849
2999.545453,3775.050304,-13175.665768,-995.924147
2999.545781,1184.329507,-13175.665768,-1225.752797
2999.546109,-2442.679609,-9844.739029,-1149.143247
2999.546436,-1998.556043,-9400.615463,-1991.848295
2999.546764,-370.102971,-10066.800811,-2757.943793
2999.547091,-962.267725,-7772.162391,-995.924147
2999.547419,-2146.597232,-4885.359217,1608.800546
2999.547747,-2220.617826,-6587.832884,2451.505594
2999.548074,-740.205942,-9104.533087,1685.410096
2999.548402,-370.102971,-8586.388927,-229.828649
2999.548730,-444.123565,-7846.182985,-689.485948
2999.549057,1776.494261,-10584.944971,842.705048
2999.549385,3997.112087,-12879.583391,0.000000
2999.549713,3849.070898,-13841.851115,-153.219100
2999.550040,3034.844362,-13175.665768,-383.047749
2999.550368,2368.659014,-12435.459826,-1685.410096
2999.550695,222.061783,-11473.192101,-2221.676944
2999.551023,-2072.576638,-8660.409521,-1991.848295
2999.551351,-2368.659014,-7846.182985,-1225.752797
2999.551678,-1406.391290,-9696.697840,1149.143247
2999.552006,814.226536,-6735.874072,689.485948
2999.552334,0.000000,-4367.215058,1532.190996
2999.552661,0.000000,-7402.059420,1685.410096
2999.552989,222.061783,-9844.739029,1455.581446
2999.553316,1850.514855,-7624.121203,76.609550
2999.553644,814.226536,-7105.977043,-2068.457845
2999.553972,2146.597232,-12139.377449,76.609550
2999.554299,2812.782580,-14137.933492,612.876398
2999.554627,1776.494261,-13027.624579,153.219100
2999.554955,370.102971,-11547.212695,-1302.362347
2999.555282,814.226536,-12361.439231,-3217.601092
2999.555610,-2146.597232,-10436.903782,-1915.238745
2999.555938,-2738.761985,-7105.977043,-1072.533697
2999.556265,-2442.679609,-5921.647536,76.609550
2999.556593,1036.288319,-9326.594869,689.485948
2999.556920,1924.535449,-8438.347739,1685.410096
2999.557248,666.185348,-6069.688724,2145.067394
2999.557576,0.000000,-6883.915261,995.924147
2999.557903,1184.329507,-10658.965565,0.000000
2999.558231,962.267725,-11251.130318,-842.705048
2999.558559,296.082377,-9918.759623,-1149.143247
2999.558886,1850.514855,-11769.274478,-612.876398
2999.559214,2738.761985,-13767.830521,0.000000
2999.559542,1554.432478,-13101.645173,-383.047749
2999.559869,-592.164754,-11177.109724,-306.438199
2999.560197,-1184.329507,-9770.718434,-766.095498
2999.560524,-2294.638420,-8068.244768,-1685.410096
2999.560852,-3775.050304,-7179.997637,-1225.752797
2999.561180,-2960.823768,-7031.956449,-919.314598
2999.561507,0.000000,-7994.224174,229.828649
2999.561835,1776.494261,-8512.368333,995.924147
2999.562163,74.020594,-7698.141797,1302.362347
2999.562490,222.061783,-8586.388927,306.438199
2999.562818,1628.453072,-10955.047942,-383.047749
2999.563146,1924.535449,-11177.109724,-1302.362347
2999.563473,2368.659014,-10807.006753,-1225.752797
2999.563801,2590.720797,-12435.459826,306.438199
2999.564129,3108.864956,-13175.665768,1072.533697
2999.564456,2072.576638,-11325.150913,0.000000
2999.564784,-1406.391290,-8364.327145,153.219100
2999.565112,-2664.741391,-8956.491898,-383.047749
2999.565439,-3478.967927,-8660.409521,-2987.772442
2999.565767,-4441.235652,-6439.791695,-2604.724693
2999.566094,-3182.885551,-6809.894666,-2681.334243
2999.566422,814.226536,-9770.718434,-766.095498
2999.566750,2886.803174,-9548.656652,1378.971896
2999.567077,2960.823768,-8290.306550,1455.581446
2999.567405,2294.638420,-10510.924376,1532.190996
2999.567733,2812.782580,-12139.377449,-229.828649
2999.568060,1702.473667,-10288.862594,-995.924147
2999.568388,0.000000,-8512.368333,-536.266849
2999.568716,518.144159,-9548.656652,153.219100
2999.569043,1184.329507,-11251.130318,919.314598
2999.569371,1332.370696,-10955.047942,536.266849
2999.569699,148.041188,-9992.780217,229.828649
2999.570026,666.185348,-10584.944971,-1149.143247
2999.570354,148.041188,-10362.883188,-1225.752797
2999.570682,-1406.391290,-9030.512492,-1072.533697
2999.571009,-666.185348,-8068.244768,-383.047749
2999.571337,1702.473667,-9104.533087,306.438199
2999.571665,2072.576638,-9992.780217,1149.143247
2999.571992,592.164754,-8438.347739,2298.286494
2999.572320,-518.144159,-8290.306550,-153.219100
2999.572647,-370.102971,-10658.965565,-1149.143247
2999.572975,-1110.308913,-11029.068536,-1378.971896
2999.573303,-2072.576638,-7624.121203,-1302.362347
2999.573630,-1406.391290,-8512.368333,0.000000
2999.573958,740.205942,-10510.924376,1225.752797
2999.574286,2294.638420,-9844.739029,306.438199
2999.574613,1332.370696,-8512.368333,306.438199
2999.574941,1776.494261,-10436.903782,1378.971896
2999.575269,2220.617826,-11843.295072,536.266849
2999.575596,740.205942,-9252.574275,-383.047749
2999.575924,74.020594,-9252.574275,-1149.143247
2999.576252,1702.473667,-11251.130318,-229.828649
2999.576579,592.164754,-9474.636058,-612.876398
2999.576907,-2146.597232,-7772.162391,-459.657299
2999.577235,-2664.741391,-9548.656652,-1608.800546
2999.577562,-1406.391290,-11843.295072,-2068.457845
2999.577890,0.000000,-9548.656652,-842.705048
2999.578218,-592.164754,-7031.956449,383.047749
2999.578545,0.000000,-7476.080014,1455.581446
2999.578873,2072.576638,-9918.759623,1455.581446
2999.579201,2072.576638,-9622.677246,459.657299
2999.579528,518.144159,-8956.491898,459.657299
2999.579856,814.226536,-10214.842000,0.000000
2999.580183,1702.473667,-12435.459826,-919.314598
2999.580511,296.082377,-12435.459826,-919.314598
2999.580839,-592.164754,-11843.295072,-766.095498
2999.581166,888.247130,-12139.377449,-383.047749
2999.581494,814.226536,-11325.150913,-1838.629195
2999.581822,-222.061783,-8364.327145,-1225.752797
2999.582149,-1332.370696,-6439.791695,-612.876398
2999.582477,-1258.350101,-8068.244768,1225.752797
2999.582805,-740.205942,-7402.059420,1685.410096
2999.583132,-1406.391290,-4737.318029,1378.971896
2999.583460,-962.267725,-6143.709319,1608.800546
2999.583788,1332.370696,-10510.924376,1455.581446
2999.584115,3034.844362,-12287.418637,-1149.143247
2999.584443,2072.576638,-12435.459826,-842.705048
2999.584771,1776.494261,-12287.418637,-1302.362347
2999.585098,1998.556043,-13693.809927,-2068.457845
2999.585426,-740.205942,-12139.377449,-1915.238745
2999.585754,-2146.597232,-9104.533087,-306.438199
2999.586081,-518.144159,-9696.697840,-2451.505594
2999.586409,592.164754,-9622.677246,-1302.362347
2999.586736,-740.205942,-6587.832884,0.000000
2999.587064,-1998.556043,-4885.359217,995.924147
2999.587392,-740.205942,-7476.080014,1455.581446
2999.587719,518.144159,-8660.409521,229.828649
2999.588047,74.020594,-6809.894666,-1685.410096
2999.588375,666.185348,-8512.368333,-995.924147
2999.588702,2664.741391,-11991.336260,612.876398
2999.589030,4367.215058,-13915.871710,76.609550
2999.589358,3552.988522,-14359.995275,0.000000
2999.589685,2442.679609,-13841.851115,-306.438199
2999.590013,1554.432478,-12139.377449,-1608.800546
2999.590341,-666.185348,-11251.130318,-1991.848295
2999.590668,-2738.761985,-9474.636058,-229.828649
2999.590996,-2294.638420,-7846.182985,153.219100
2999.591324,-1036.288319,-7402.059420,229.828649
2999.591651,-1924.535449,-6513.812290,306.438199
2999.591979,-1850.514855,-6587.832884,842.705048
2999.592307,0.000000,-7624.121203,459.657299
2999.592634,962.267725,-7772.162391,76.609550
2999.592962,518.144159,-7772.162391,229.828649
2999.593290,2294.638420,-9104.533087,383.047749
2999.593617,3923.091493,-11843.295072,1915.238745
2999.593945,5329.482782,-13767.830521,1762.019645
2999.594272,4811.338623,-14211.954086,536.266849
2999.594600,2590.720797,-12731.542202,0.000000
2999.594928,296.082377,-11843.295072,-1149.143247
2999.595255,-3108.864956,-8956.491898,-1149.143247
2999.595583,-6217.729913,-7550.100608,-1685.410096
2999.595911,-6291.750507,-6957.935855,-1685.410096
2999.596238,-3552.988522,-7846.182985,-1838.629195
2999.596566,-1702.473667,-6439.791695,-1302.362347
2999.596894,-888.247130,-5625.565159,153.219100
2999.597221,888.247130,-8734.430116,2757.943793
2999.597549,2960.823768,-9918.759623,689.485948
2999.597877,2886.803174,-9178.553681,0.000000
2999.598204,1924.535449,-9252.574275,-383.047749
2999.598532,2516.700203,-11991.336260,459.657299
2999.598860,3256.906145,-13915.871710,459.657299
2999.599187,2294.638420,-12509.480420,-919.314598
2999.599515,148.041188,-11399.171507,-1532.190996
2999.599843,-148.041188,-12731.542202,-1685.410096
2999.600170,-2368.659014,-10658.965565,-1225.752797
2999.600498,-3627.009116,-7698.141797,-1762.019645
2999.600825,-2886.803174,-7179.997637,-1149.143247
2999.601153,-888.247130,-8364.327145,-536.266849
2999.601481,296.082377,-7179.997637,689.485948
2999.601808,814.226536,-6883.915261,919.314598
2999.602136,2294.638420,-9474.636058,1225.752797
2999.602464,2590.720797,-11029.068536,536.266849
2999.602791,1184.329507,-9918.759623,-459.657299
2999.603119,0.000000,-9992.780217,-995.924147
2999.603447,1480.411884,-11843.295072,-689.485948
2999.603774,2368.659014,-12731.542202,153.219100
2999.604102,1036.288319,-10955.047942,1149.143247
2999.604430,1184.329507,-10510.924376,842.705048
2999.604757,740.205942,-9992.780217,536.266849
2999.605085,-1406.391290,-8808.450710,383.047749
2999.605413,-3182.885551,-7105.977043,612.876398
2999.605740,-1702.473667,-6809.894666,306.438199
2999.606068,1036.288319,-7254.018232,842.705048
2999.606396,1258.350101,-8068.244768,1532.190996
2999.606723,888.247130,-6735.874072,536.266849
2999.607051,814.226536,-9696.697840,-306.438199
2999.607379,666.185348,-12287.418637,-1685.410096
2999.607706,-148.041188,-10584.944971,-2604.724693
2999.608034,-370.102971,-9622.677246,-1762.019645
2999.608361,2146.597232,-11547.212695,536.266849
2999.608689,3256.906145,-12509.480420,1225.752797
2999.609017,2072.576638,-10066.800811,1378.971896
2999.609344,666.185348,-9326.594869,459.657299
2999.609672,-296.082377,-9844.739029,-536.266849
2999.610000,-1776.494261,-9770.718434,-1608.800546
2999.610327,-3034.844362,-7920.203579,-1991.848295
2999.610655,-2146.597232,-9030.512492,-1072.533697
2999.610983,1036.288319,-11769.274478,-995.924147
2999.611310,2516.700203,-12287.418637,-612.876398
2999.611638,1480.411884,-10658.965565,306.438199
2999.611966,962.267725,-9770.718434,-612.876398
2999.612293,592.164754,-11325.150913,-2068.457845
2999.612621,-888.247130,-9918.759623,-1225.752797
2999.612949,-1554.432478,-6143.709319,-536.266849
2999.613276,222.061783,-8660.409521,383.047749
2999.613604,1184.329507,-10214.842000,2068.457845
2999.613932,888.247130,-9770.718434,995.924147
2999.614259,1702.473667,-9918.759623,0.000000
2999.614587,518.144159,-10955.047942,-536.266849
2999.614914,0.000000,-11547.212695,-1149.143247
2999.615242,0.000000,-8956.491898,-1532.190996
2999.615570,0.000000,-7994.224174,-153.219100
2999.615897,518.144159,-10288.862594,1149.143247
2999.616225,1406.391290,-9696.697840,1225.752797
2999.616553,-962.267725,-7698.141797,1378.971896
2999.616880,-2220.617826,-8068.244768,229.828649
2999.617208,-740.205942,-9252.574275,-842.705048
2999.617536,-1850.514855,-7772.162391,-1378.971896
2999.617863,-2812.782580,-5921.647536,-689.485948
2999.618191,-148.041188,-8438.347739,612.876398
2999.618519,2664.741391,-10436.903782,383.047749
2999.618846,3330.926739,-10362.883188,1378.971896
2999.619174,2664.741391,-10732.986159,1378.971896
2999.619502,2516.700203,-11621.233289,689.485948
2999.619829,2072.576638,-12435.459826,-766.095498
2999.620157,888.247130,-10732.986159,-1455.581446
2999.620485,-1036.288319,-9326.594869,-1072.533697
2999.620812,-1036.288319,-10436.903782,-842.705048
2999.621140,444.123565,-10807.006753,-1149.143247
2999.621467,-1480.411884,-9400.615463,-1072.533697
2999.621795,-2442.679609,-8734.430116,-919.314598
2999.622123,-1258.350101,-9696.697840,-1149.143247
2999.622450,-1702.473667,-8586.388927,-383.047749
2999.622778,-1110.308913,-6883.915261,-459.657299
2999.623106,740.205942,-8216.285956,536.266849
2999.623433,3404.947333,-11251.130318,1225.752797
2999.623761,4811.338623,-11177.109724,689.485948
2999.624089,5033.400406,-11917.315666,383.047749
2999.624416,3849.070898,-13397.727550,0.000000
2999.624744,2220.617826,-13175.665768,-459.657299
2999.625072,370.102971,-11843.295072,-1302.362347
2999.625399,-1702.473667,-9918.759623,-1455.581446
2999.625727,-2442.679609,-9474.636058,-1532.190996
2999.626055,-2294.638420,-8512.368333,-383.047749
2999.626382,-4071.132681,-7254.018232,76.609550
2999.626710,-4145.153275,-7105.977043,229.828649
2999.627038,-1480.411884,-7772.162391,0.000000
2999.627365,-814.226536,-5403.503377,689.485948
2999.627693,-222.061783,-5181.441594,1149.143247
2999.628021,2072.576638,-8216.285956,2374.896044
2999.628348,4367.215058,-11695.253884,2145.067394
2999.628676,4071.132681,-11769.274478,1302.362347
2999.629003,2886.803174,-11695.253884,-459.657299
2999.629331,1406.391290,-12287.418637,-2221.676944
2999.629659,-148.041188,-12287.418637,-2298.286494
2999.629986,-1924.535449,-10140.821405,-1762.019645
2999.630314,-2442.679609,-8586.388927,-536.266849
2999.630642,-962.267725,-9992.780217,459.657299
2999.630969,0.000000,-9474.636058,1149.143247
2999.631297,-1110.308913,-6217.729913,1685.410096
2999.631625,-1480.411884,-6291.750507,689.485948
2999.631952,-296.082377,-7920.203579,-459.657299
2999.632280,-518.144159,-7994.224174,-1225.752797
2999.632608,74.020594,-7550.100608,-919.314598
2999.632935,2368.659014,-10066.800811,306.438199
2999.633263,4145.153275,-13841.851115,76.609550
2999.633591,4071.132681,-14952.160028,-153.219100
2999.633918,2886.803174,-13249.686362,-1072.533697
2999.634246,1776.494261,-12953.603985,-3370.820191
2999.634574,74.020594,-11917.315666,-2298.286494
2999.634901,-1776.494261,-9474.636058,-1225.752797
2999.635229,-2516.700203,-7994.224174,229.828649
2999.635556,-962.267725,-8586.388927,995.924147
2999.635884,0.000000,-8364.327145,1378.971896
2999.636212,-666.185348,-6143.709319,995.924147
2999.636539,-592.164754,-6365.771101,689.485948
2999.636867,-296.082377,-8512.368333,-229.828649
2999.637195,444.123565,-8438.347739,-689.485948
2999.637522,0.000000,-8882.471304,-1225.752797
2999.637850,2146.597232,-11251.130318,-612.876398
2999.638178,4367.215058,-13471.748144,0.000000
2999.638505,4367.215058,-13471.748144,689.485948
2999.638833,2220.617826,-11547.212695,1685.410096
2999.639161,1924.535449,-10807.006753,766.095498
2999.639488,222.061783,-10066.800811,-766.095498
2999.639816,-2812.782580,-7698.141797,-383.047749
2999.640144,-4293.194464,-5995.668130,-153.219100
2999.640471,-3034.844362,-6735.874072,-229.828649
2999.640799,-2072.576638,-7846.182985,229.828649
2999.641127,-1850.514855,-8290.306550,153.219100
2999.641454,-370.102971,-8586.388927,153.219100
2999.641782,2146.597232,-10436.903782,-306.438199
2999.642110,2516.700203,-10955.047942,-1225.752797
2999.642437,1406.391290,-9548.656652,-536.266849
2999.642765,1258.350101,-10658.965565,-153.219100
2999.643092,2738.761985,-12361.439231,0.000000
2999.643420,2294.638420,-11399.171507,229.828649
2999.643748,222.061783,-10584.944971,0.000000
2999.644075,74.020594,-11621.233289,229.828649
2999.644403,-444.123565,-10955.047942,-995.924147
2999.644731,-2072.576638,-9548.656652,-2145.067394
2999.645058,-2442.679609,-8660.409521,-2145.067394
2999.645386,-814.226536,-9104.533087,-1455.581446
2999.645714,1036.288319,-9030.512492,0.000000
2999.646041,1110.308913,-7772.162391,842.705048
2999.646369,1480.411884,-8734.430116,1608.800546
2999.646697,1184.329507,-9770.718434,1149.143247
2999.647024,592.164754,-10658.965565,-459.657299
2999.647352,-740.205942,-10066.800811,-1455.581446
2999.647680,-888.247130,-9474.636058,-2068.457845
2999.648007,0.000000,-11177.109724,-1072.533697
2999.648335,592.164754,-10658.965565,153.219100
2999.648663,222.061783,-9844.739029,459.657299
2999.648990,1406.391290,-9918.759623,229.828649
2999.649318,1480.411884,-10140.821405,-76.609550
2999.649645,444.123565,-9474.636058,0.000000
2999.649973,-222.061783,-7846.182985,229.828649
2999.650301,592.164754,-7846.182985,229.828649
2999.650628,740.205942,-9770.718434,383.047749
2999.650956,1036.288319,-9178.553681,689.485948
2999.651284,222.061783,-8734.430116,76.609550
2999.651611,444.123565,-10584.944971,0.000000
2999.651939,-814.226536,-9992.780217,-536.266849
2999.652267,-1702.473667,-8882.471304,-1378.971896
2999.652594,-1184.329507,-9030.512492,-842.705048
2999.652922,666.185348,-10881.027347,0.000000
2999.653250,888.247130,-10066.800811,306.438199
2999.653577,370.102971,-9030.512492,919.314598
2999.653905,1406.391290,-9474.636058,229.828649
2999.654233,2886.803174,-11103.089130,-842.705048
2999.654560,1332.370696,-9622.677246,0.000000
2999.654888,-518.144159,-9252.574275,0.000000
2999.655216,1924.535449,-10881.027347,-766.095498
2999.655543,2220.617826,-11621.233289,-766.095498
2999.655871,592.164754,-10732.986159,-612.876398
2999.656199,148.041188,-9178.553681,153.219100
2999.656526,-1406.391290,-9474.636058,383.047749
2999.656854,-2960.823768,-10214.842000,0.000000
2999.657181,-3256.906145,-9030.512492,-1455.581446
2999.657509,-2516.700203,-7179.997637,-1455.581446
2999.657837,-444.123565,-7994.224174,0.000000
2999.658164,1184.329507,-9548.656652,995.924147
2999.658492,1628.453072,-9844.739029,1838.629195
2999.658820,1998.556043,-10214.842000,689.485948
2999.659147,3627.009116,-11621.233289,-1608.800546
2999.659475,592.164754,-10584.944971,-1532.190996
2999.659803,-1406.391290,-8734.430116,-1072.533697
2999.660130,-370.102971,-9548.656652,-1991.848295
2999.660458,1110.308913,-10510.924376,-612.876398
2999.660786,74.020594,-9030.512492,1225.752797
2999.661113,0.000000,-8290.306550,1838.629195
2999.661441,0.000000,-9474.636058,766.095498
2999.661769,-888.247130,-8808.450710,842.705048
2999.662096,-1776.494261,-6587.832884,0.000000
2999.662424,-2072.576638,-6143.709319,0.000000
2999.662752,-222.061783,-8808.450710,153.219100
2999.663079,1924.535449,-9844.739029,306.438199
2999.663407,2368.659014,-10436.903782,459.657299
2999.663734,3552.988522,-12879.583391,0.000000
2999.664062,3701.029710,-13841.851115,-1991.848295
2999.664390,814.226536,-11843.295072,-1762.019645
2999.664717,-1776.494261,-9992.780217,-2221.676944
2999.665045,-888.247130,-10140.821405,-2145.067394
2999.665372,444.123565,-9844.739029,-766.095498
2999.665700,0.000000,-8216.285956,1149.143247
2999.666027,-1036.288319,-6291.750507,1915.238745
2999.666355,-1036.288319,-8290.306550,1532.190996
2999.666682,-518.144159,-8956.491898,229.828649
2999.667010,-1332.370696,-6883.915261,-153.219100
2999.667338,-592.164754,-6069.688724,-383.047749
2999.667665,1924.535449,-9474.636058,383.047749
2999.667993,2812.782580,-12657.521608,76.609550
2999.668320,2886.803174,-13989.892304,-383.047749
2999.668648,4367.215058,-12805.562797,-1685.410096
2999.668975,4663.297435,-13027.624579,-2221.676944
2999.669303,1480.411884,-12953.603985,-612.876398
2999.669630,-1480.411884,-10066.800811,306.438199
2999.669958,-1776.494261,-8660.409521,-306.438199
2999.670286,-814.226536,-8660.409521,-919.314598
2999.670613,-1850.514855,-6365.771101,0.000000
2999.670941,-3552.988522,-4145.153275,2451.505594
2999.671268,-2516.700203,-6587.832884,2834.553343
2999.671596,-1406.391290,-9770.718434,689.485948
2999.671923,-740.205942,-9474.636058,-536.266849
2999.672251,518.144159,-8512.368333,-612.876398
2999.672578,2294.638420,-10436.903782,536.266849
2999.672906,4589.276840,-13323.706956,306.438199
2999.673233,3775.050304,-13027.624579,-612.876398
2999.673561,2072.576638,-12139.377449,-1302.362347
2999.673889,1110.308913,-11103.089130,-2068.457845
2999.674216,-814.226536,-10881.027347,-1838.629195
2999.674544,-3034.844362,-8956.491898,-766.095498
2999.674871,-2664.741391,-8956.491898,-229.828649
2999.675199,-1332.370696,-9326.594869,0.000000
2999.675526,-814.226536,-7179.997637,76.609550
2999.675854,-1480.411884,-5107.421000,229.828649
2999.676181,-518.144159,-7476.080014,1378.971896
2999.676509,888.247130,-9474.636058,1225.752797
2999.676837,666.185348,-8956.491898,459.657299
2999.677164,1258.350101,-9030.512492,-459.657299
2999.677492,3108.864956,-11917.315666,-536.266849
2999.677819,3627.009116,-14137.933492,0.000000
2999.678147,2664.741391,-13175.665768,-383.047749
2999.678474,518.144159,-11695.253884,-919.314598
2999.678802,148.041188,-11843.295072,-2757.943793
2999.679129,-1480.411884,-9992.780217,-2911.162892
2999.679457,-3034.844362,-7846.182985,-919.314598
2999.679784,-2220.617826,-7624.121203,842.705048
2999.680112,888.247130,-8808.450710,1149.143247
2999.680440,1924.535449,-8364.327145,1685.410096
2999.680767,592.164754,-7624.121203,1685.410096
2999.681095,-666.185348,-7624.121203,1225.752797
2999.681422,444.123565,-9400.615463,153.219100
2999.681750,666.185348,-9030.512492,-919.314598
2999.682077,296.082377,-8660.409521,-766.095498
2999.682405,2146.597232,-12509.480420,0.000000
2999.682732,3034.844362,-14285.974681,1149.143247
2999.683060,2812.782580,-12287.418637,306.438199
2999.683388,518.144159,-10436.903782,-459.657299
2999.683715,-518.144159,-10732.986159,-1302.362347
2999.684043,-2220.617826,-9992.780217,-1149.143247
2999.684370,-2812.782580,-7772.162391,-995.924147
2999.684698,-1924.535449,-7254.018232,-919.314598
2999.685025,962.267725,-8956.491898,0.000000
2999.685353,1998.556043,-8808.450710,1225.752797
2999.685680,814.226536,-7105.977043,1685.410096
2999.686008,148.041188,-8290.306550,459.657299
2999.686336,1406.391290,-10584.944971,-1072.533697
2999.686663,1554.432478,-10066.800811,-1532.190996
2999.686991,666.185348,-9030.512492,0.000000
2999.687318,2812.782580,-11843.295072,612.876398
2999.687646,2812.782580,-13397.727550,2068.457845
2999.687973,74.020594,-11547.212695,1532.190996
2999.688301,-2516.700203,-9696.697840,0.000000
2999.688628,-2738.761985,-9844.739029,-2451.505594
2999.688956,-2812.782580,-9252.574275,-3064.381992
2999.689283,-2294.638420,-8142.265362,-2451.505594
2999.689611,-1480.411884,-7698.141797,-995.924147
2999.689939,1850.514855,-10066.800811,1532.190996
2999.690266,2738.761985,-10066.800811,1225.752797
2999.690594,1776.494261,-8364.327145,689.485948
2999.690921,222.061783,-8290.306550,0.000000
2999.691249,518.144159,-9400.615463,-995.924147
2999.691576,-296.082377,-8068.244768,0.000000
2999.691904,-888.247130,-7920.203579,842.705048
2999.692231,222.061783,-10288.862594,1608.800546
2999.692559,1406.391290,-12361.439231,2528.115143
2999.692887,592.164754,-11103.089130,1455.581446
2999.693214,222.061783,-9918.759623,-689.485948
2999.693542,296.082377,-10732.986159,-1915.238745
2999.693869,0.000000,-10436.903782,-1838.629195
2999.694197,-962.267725,-8956.491898,-1378.971896
2999.694524,0.000000,-8290.306550,-689.485948
2999.694852,1628.453072,-9104.533087,306.438199
2999.695179,2442.679609,-10881.027347,689.485948
2999.695507,148.041188,-8586.388927,306.438199
2999.695834,-1184.329507,-8364.327145,-995.924147
2999.696162,0.000000,-10510.924376,-2528.115143
2999.696490,-1036.288319,-9400.615463,-1915.238745
2999.696817,-1924.535449,-7402.059420,306.438199
2999.697145,-296.082377,-9400.615463,1455.581446
2999.697472,1110.308913,-12139.377449,1991.848295
2999.697800,1850.514855,-11843.295072,1455.581446
2999.698127,2220.617826,-9992.780217,459.657299
2999.698455,2442.679609,-10066.800811,0.000000
2999.698782,1406.391290,-10658.965565,0.000000
2999.699110,0.000000,-9770.718434,-1302.362347
2999.699438,-444.123565,-9992.780217,-1838.629195
2999.699765,148.041188,-10436.903782,-2145.067394
2999.700093,814.226536,-10214.842000,-1838.629195
2999.700420,148.041188,-9030.512492,-306.438199
2999.700748,-370.102971,-8512.368333,76.609550
2999.701075,0.000000,-9548.656652,1072.533697
2999.701403,-666.185348,-8438.347739,766.095498
2999.701730,-1554.432478,-6217.729913,919.314598
2999.702058,-1110.308913,-7402.059420,1149.143247
2999.702386,-296.082377,-10066.800811,2451.505594
2999.702713,740.205942,-10510.924376,1685.410096
2999.703041,2516.700203,-10214.842000,229.828649
2999.703368,3256.906145,-11843.295072,-689.485948
2999.703696,2886.803174,-13175.665768,-995.924147
2999.704023,740.205942,-11843.295072,-995.924147
2999.704351,-740.205942,-10510.924376,-1915.238745
2999.704678,74.020594,-10658.965565,-3370.820191
2999.705006,444.123565,-9622.677246,-2528.115143
2999.705333,-1332.370696,-6735.874072,0.000000
2999.705661,-1998.556043,-6439.791695,2068.457845
2999.705989,-370.102971,-8512.368333,2068.457845
2999.706316,0.000000,-8216.285956,383.047749
2999.706644,-1406.391290,-7402.059420,0.000000
2999.706971,-1332.370696,-8956.491898,383.047749
2999.707299,888.247130,-10510.924376,383.047749
2999.707626,2368.659014,-11843.295072,0.000000
2999.707954,2590.720797,-11843.295072,-995.924147
2999.708281,3256.906145,-12435.459826,-1149.143247
2999.708609,2886.803174,-13619.789333,-689.485948
2999.708937,592.164754,-12213.398043,-919.314598
2999.709264,-1480.411884,-10584.944971,-1378.971896
2999.709592,-1110.308913,-9326.594869,-1915.238745
2999.709919,-1480.411884,-7179.997637,-1149.143247
2999.710247,-3108.864956,-5033.400406,459.657299
2999.710574,-2664.741391,-5847.626942,1378.971896
2999.710902,0.000000,-8068.244768,766.095498
2999.711229,444.123565,-8882.471304,766.095498
2999.711557,-222.061783,-7846.182985,689.485948
2999.711884,0.000000,-9030.512492,536.266849
2999.712212,2664.741391,-11399.171507,153.219100
2999.712540,4219.173869,-13027.624579,-1685.410096
2999.712867,3256.906145,-11917.315666,76.609550
2999.713195,3330.926739,-11843.295072,306.438199
2999.713522,2516.700203,-13175.665768,-612.876398
2999.713850,-740.205942,-11769.274478,-612.876398
2999.714177,-2664.741391,-8734.430116,-1378.971896
2999.714505,-2516.700203,-7031.956449,-2145.067394
2999.714832,-2146.597232,-7772.162391,-995.924147
2999.715160,-3330.926739,-6513.812290,383.047749
2999.715488,-2442.679609,-6365.771101,306.438199
2999.715815,-222.061783,-7550.100608,0.000000
2999.716143,1628.453072,-9104.533087,-229.828649
2999.716470,1258.350101,-9474.636058,1302.362347
2999.716798,3034.844362,-10362.883188,1455.581446
2999.717125,4219.173869,-11843.295072,842.705048
2999.717453,4663.297435,-13471.748144,0.000000
2999.717780,3552.988522,-12731.542202,153.219100
2999.718108,1480.411884,-11769.274478,459.657299
2999.718436,0.000000,-11843.295072,0.000000
2999.718763,-3478.967927,-11325.150913,-2298.286494
2999.719091,-5107.421000,-8882.471304,-3677.258390
2999.719418,-3108.864956,-7994.224174,-2451.505594
2999.719746,-1554.432478,-7772.162391,-1072.533697
2999.720073,-1036.288319,-7402.059420,1608.800546
2999.720401,-444.123565,-7328.038826,2834.553343
2999.720728,1480.411884,-7402.059420,1608.800546
2999.721056,2368.659014,-8808.450710,0.000000
2999.721383,1776.494261,-8512.368333,-459.657299
2999.721711,666.185348,-8660.409521,536.266849
2999.722039,1998.556043,-10732.986159,612.876398
2999.722366,2812.782580,-12361.439231,0.000000
2999.722694,1850.514855,-11621.233289,153.219100
2999.723021,1110.308913,-11547.212695,0.000000
2999.723349,370.102971,-12361.439231,-536.266849
2999.723676,-1554.432478,-11029.068536,-689.485948
2999.724004,-2146.597232,-8364.327145,-2451.505594
2999.724331,-2442.679609,-6365.771101,-1149.143247
2999.724659,-370.102971,-7476.080014,0.000000
2999.724987,666.185348,-7179.997637,1838.629195
2999.725314,1036.288319,-7550.100608,1532.190996
2999.725642,1850.514855,-9326.594869,0.000000
2999.725969,1480.411884,-10584.944971,-1532.190996
2999.726297,-370.102971,-9474.636058,-1915.238745
2999.726624,-296.082377,-9474.636058,-1532.190996
2999.726952,1332.370696,-11843.295072,-1455.581446
2999.727279,2368.659014,-12065.356855,0.000000
2999.727607,1480.411884,-11029.068536,1149.143247
2999.727935,1258.350101,-11621.233289,1225.752797
2999.728262,888.247130,-11695.253884,612.876398
2999.728590,-370.102971,-9326.594869,153.219100
2999.728917,-1850.514855,-7550.100608,-153.219100
2999.729245,0.000000,-7105.977043,-153.219100
2999.729572,814.226536,-9326.594869,-612.876398
2999.729900,148.041188,-9770.718434,0.000000
2999.730227,-666.185348,-8808.450710,-229.828649
2999.730555,296.082377,-9622.677246,-2221.676944
2999.730882,1110.308913,-11547.212695,-2451.505594
2999.731210,-592.164754,-10214.842000,-153.219100
2999.731538,-888.247130,-9030.512492,919.314598
2999.731865,962.267725,-9992.780217,1225.752797
2999.732193,2294.638420,-9622.677246,1149.143247
2999.732520,444.123565,-8216.285956,1838.629195
2999.732848,-888.247130,-8068.244768,2451.505594
2999.733175,-1110.308913,-9770.718434,459.657299
2999.733503,-370.102971,-10214.842000,-1225.752797
2999.733830,-592.164754,-9548.656652,-2221.676944
2999.734158,444.123565,-9918.759623,-919.314598
2999.734486,2146.597232,-11695.253884,0.000000
2999.734813,1702.473667,-10732.986159,0.000000
2999.735141,666.185348,-9326.594869,-1378.971896
2999.735468,0.000000,-8586.388927,-2145.067394
2999.735796,-666.185348,-9030.512492,-842.705048
2999.736123,-2072.576638,-8068.244768,0.000000
2999.736451,-2072.576638,-8068.244768,919.314598
2999.736778,-370.102971,-9622.677246,306.438199
2999.737106,1036.288319,-10807.006753,0.000000
2999.737433,888.247130,-9992.780217,0.000000
2999.737761,814.226536,-9622.677246,0.000000
2999.738089,1480.411884,-12213.398043,-306.438199
2999.738416,1406.391290,-12509.480420,-1072.533697
2999.738744,0.000000,-9918.759623,-842.705048
2999.739071,1332.370696,-9992.780217,-766.095498
2999.739399,3182.885551,-11843.295072,-612.876398
2999.739726,2220.617826,-11325.150913,76.609550
2999.740054,-592.164754,-8586.388927,0.000000
2999.740381,-1480.411884,-7550.100608,-689.485948
2999.740709,-1924.535449,-7698.141797,-536.266849
2999.741037,-4071.132681,-6513.812290,-383.047749
2999.741364,-4367.215058,-6291.750507,153.219100
2999.741692,-1184.329507,-8512.368333,0.000000
2999.742019,2072.576638,-10288.862594,153.219100
2999.742347,2590.720797,-10658.965565,1225.752797
2999.742674,3034.844362,-11103.089130,1378.971896
2999.743002,4145.153275,-11991.336260,459.657299
2999.743329,3478.967927,-12287.418637,-689.485948
2999.743657,1702.473667,-10881.027347,-536.266849
2999.743985,814.226536,-10658.965565,-766.095498
2999.744312,1850.514855,-11621.233289,-306.438199
2999.744640,-296.082377,-9474.636058,-383.047749
2999.744967,-2738.761985,-6587.832884,-995.924147
2999.745295,-2368.659014,-7328.038826,-1378.971896
2999.745622,-2368.659014,-8438.347739,-766.095498
2999.745950,-3849.070898,-6883.915261,-306.438199
2999.746277,-2664.741391,-6143.709319,76.609550
2999.746605,1776.494261,-8364.327145,-536.266849
2999.746932,3997.112087,-11177.109724,1455.581446
2999.747260,3404.947333,-10807.006753,2221.676944
2999.747588,3849.070898,-11621.233289,1072.533697
2999.747915,4737.318029,-14063.912898,-1455.581446
2999.748243,2886.803174,-13397.727550,-2834.553343
2999.748570,-1776.494261,-10881.027347,-1302.362347
2999.748898,-3034.844362,-9474.636058,-1225.752797
2999.749225,-1554.432478,-11621.233289,-2987.772442
2999.749553,-1776.494261,-10955.047942,-3753.867940
2999.749880,-2664.741391,-7772.162391,-1149.143247
2999.750208,-1702.473667,-7624.121203,842.705048
2999.750536,222.061783,-8438.347739,1455.581446
2999.750863,-518.144159,-7105.977043,1838.629195
2999.751191,-1184.329507,-5995.668130,1838.629195
2999.751518,1406.391290,-8438.347739,612.876398
2999.751846,3330.926739,-9844.739029,383.047749
2999.752173,2886.803174,-10955.047942,536.266849
2999.752501,1702.473667,-11325.150913,229.828649
2999.752828,1628.453072,-12879.583391,-766.095498
2999.753156,1332.370696,-13175.665768,-1455.581446
2999.753483,-296.082377,-10807.006753,-1302.362347
2999.753811,-592.164754,-9178.553681,-383.047749
2999.754139,370.102971,-9696.697840,-306.438199
2999.754466,-370.102971,-7772.162391,919.314598
2999.754794,-2220.617826,-5181.441594,1762.019645
2999.755121,-1480.411884,-5033.400406,1991.848295
2999.755449,-740.205942,-6957.935855,1608.800546
2999.755776,-444.123565,-7994.224174,1225.752797
2999.756104,-814.226536,-7846.182985,306.438199
2999.756431,740.205942,-9844.739029,-1378.971896
2999.756759,3552.988522,-12731.542202,-1532.190996
2999.757087,3034.844362,-13249.686362,-1915.238745
2999.757414,1776.494261,-12435.459826,-1302.362347
2999.757742,1776.494261,-11917.315666,-1225.752797
2999.758069,814.226536,-11769.274478,-1225.752797
2999.758397,-740.205942,-9474.636058,153.219100
2999.758724,-1184.329507,-8586.388927,76.609550
2999.759052,-296.082377,-8956.491898,229.828649
2999.759379,-592.164754,-8142.265362,919.314598
2999.759707,-1554.432478,-6587.832884,689.485948
2999.760035,-1702.473667,-6809.894666,-842.705048
2999.760362,-1332.370696,-9474.636058,-1915.238745
2999.760690,-1184.329507,-11251.130318,-1608.800546
2999.761017,1184.329507,-10510.924376,-1838.629195
2999.761345,3997.112087,-11695.253884,76.609550
2999.761672,5699.585753,-14211.954086,689.485948
2999.762000,3701.029710,-13841.851115,1838.629195
2999.762327,1332.370696,-10140.821405,919.314598
2999.762655,296.082377,-8808.450710,-1072.533697
2999.762982,-740.205942,-9252.574275,-919.314598
2999.763310,-3701.029710,-7550.100608,0.000000
2999.763638,-3182.885551,-7105.977043,536.266849
2999.763965,-1628.453072,-8660.409521,459.657299
2999.764293,0.000000,-9770.718434,0.000000
2999.764620,74.020594,-8660.409521,306.438199
2999.764948,370.102971,-7105.977043,612.876398
2999.765275,666.185348,-8660.409521,229.828649
2999.765603,1332.370696,-10807.006753,-306.438199
2999.765930,148.041188,-8808.450710,306.438199
2999.766258,2072.576638,-9696.697840,229.828649
2999.766585,3552.988522,-11917.315666,842.705048
2999.766913,1776.494261,-12139.377449,1302.362347
2999.767240,-962.267725,-10732.986159,612.876398
2999.767568,-1332.370696,-10362.883188,-2145.067394
2999.767895,-1554.432478,-9918.759623,-3064.381992
2999.768223,-2146.597232,-8364.327145,-2298.286494
2999.768550,-2220.617826,-8068.244768,153.219100
2999.768878,0.000000,-9400.615463,766.095498
2999.769205,2294.638420,-10436.903782,919.314598
2999.769533,1554.432478,-8734.430116,1072.533697
2999.769860,370.102971,-7698.141797,536.266849
2999.770188,1776.494261,-9844.739029,-1532.190996
2999.770515,2072.576638,-11695.253884,-1302.362347
2999.770843,-666.185348,-10140.821405,-612.876398
2999.771170,-518.144159,-10436.903782,-306.438199
2999.771498,962.267725,-11399.171507,-536.266849
2999.771825,148.041188,-11103.089130,-306.438199
2999.772153,-518.144159,-9844.739029,0.000000
2999.772480,-518.144159,-9474.636058,-306.438199
2999.772808,296.082377,-9844.739029,-1915.238745
2999.773135,296.082377,-9104.533087,-1225.752797
2999.773463,-222.061783,-7772.162391,153.219100
2999.773790,1258.350101,-9178.553681,766.095498
2999.774118,2738.761985,-10881.027347,1225.752797
2999.774445,2072.576638,-9252.574275,689.485948
2999.774773,1702.473667,-8882.471304,-229.828649
2999.775100,1184.329507,-10658.965565,76.609550
2999.775427,0.000000,-10140.821405,-459.657299
2999.775755,-1184.329507,-9178.553681,-766.095498
2999.776082,-814.226536,-9030.512492,-306.438199
2999.776410,0.000000,-9030.512492,-153.219100
2999.776737,148.041188,-9548.656652,919.314598
2999.777065,222.061783,-9400.615463,1685.410096
2999.777392,962.267725,-9474.636058,153.219100
2999.777720,1850.514855,-9992.780217,-76.609550
2999.778047,222.061783,-9104.533087,0.000000
2999.778375,74.020594,-9104.533087,-306.438199
2999.778702,1332.370696,-10807.006753,-919.314598
2999.779030,1554.432478,-10955.047942,-1149.143247
2999.779357,-740.205942,-10510.924376,-766.095498
2999.779685,-1702.473667,-9400.615463,-766.095498
2999.780012,74.020594,-10658.965565,-2604.724693
2999.780340,-666.185348,-11177.109724,-1608.800546
2999.780667,-1628.453072,-9474.636058,995.924147
2999.780995,-1110.308913,-8586.388927,1225.752797
2999.781322,1184.329507,-9548.656652,842.705048
2999.781650,1332.370696,-8660.409521,1302.362347
2999.781977,0.000000,-9030.512492,689.485948
2999.782305,148.041188,-10140.821405,0.000000
2999.782632,1776.494261,-10955.047942,-2068.457845
2999.782960,296.082377,-10140.821405,-2374.896044
2999.783287,-518.144159,-9992.780217,-842.705048
2999.783615,666.185348,-11251.130318,-306.438199
2999.783942,2664.741391,-12287.418637,-1225.752797
2999.784270,1036.288319,-9252.574275,-306.438199
2999.784597,-222.061783,-7846.182985,-689.485948
2999.784925,0.000000,-8512.368333,-459.657299
2999.785252,-1036.288319,-7846.182985,76.609550
2999.785580,-2812.782580,-6439.791695,1608.800546
2999.785907,-1480.411884,-6439.791695,2681.334243
2999.786235,1406.391290,-9622.677246,612.876398
2999.786562,1036.288319,-10807.006753,842.705048
2999.786890,1110.308913,-11473.192101,153.219100
2999.787217,2812.782580,-12213.398043,-1685.410096
2999.787545,3256.906145,-13101.645173,-2374.896044
2999.787872,1036.288319,-11843.295072,-2068.457845
2999.788200,-1110.308913,-9030.512492,-612.876398
2999.788527,0.000000,-9400.615463,0.000000
2999.788855,814.226536,-9992.780217,-612.876398
2999.789182,0.000000,-9030.512492,229.828649
2999.789510,-888.247130,-5921.647536,383.047749
2999.789837,-1184.329507,-6883.915261,383.047749
2999.790165,-1184.329507,-8068.244768,153.219100
2999.790492,-2516.700203,-7476.080014,612.876398
2999.790819,-2220.617826,-8808.450710,0.000000
2999.791147,1554.432478,-11177.109724,-306.438199
2999.791474,4293.194464,-14211.954086,-536.266849
2999.791802,4737.318029,-13989.892304,536.266849
2999.792129,4293.194464,-13471.748144,383.047749
2999.792457,3552.988522,-13101.645173,-689.485948
2999.792784,-222.061783,-10362.883188,-1762.019645
2999.793112,-3552.988522,-7550.100608,-2451.505594
2999.793439,-3404.947333,-7550.100608,-1838.629195
2999.793767,-1850.514855,-8512.368333,-1532.190996
2999.794094,-1628.453072,-7328.038826,229.828649
2999.794422,-1702.473667,-7105.977043,1378.971896
2999.794749,-666.185348,-8586.388927,1149.143247
2999.795077,0.000000,-9104.533087,229.828649
2999.795404,74.020594,-7994.224174,306.438199
2999.795732,592.164754,-8142.265362,-306.438199
2999.796059,4219.173869,-10955.047942,-229.828649
2999.796387,4737.318029,-12805.562797,1225.752797
2999.796714,2886.803174,-13027.624579,1915.238745
2999.797042,2590.720797,-12731.542202,0.000000
2999.797369,2442.679609,-12805.562797,-2681.334243
2999.797697,-2072.576638,-10288.862594,-2681.334243
2999.798024,-4663.297435,-8068.244768,-2681.334243
2999.798352,-3552.988522,-7328.038826,-1838.629195
2999.798679,-814.226536,-7698.141797,-766.095498
2999.799007,-296.082377,-6957.935855,1302.362347
2999.799334,-666.185348,-6809.894666,3600.648841
2999.799662,814.226536,-6883.915261,3064.381992
2999.799989,1184.329507,-8512.368333,842.705048
2999.800317,296.082377,-9474.636058,0.000000
2999.800644,592.164754,-9474.636058,-919.314598
2999.800972,2590.720797,-11917.315666,76.609550
2999.801299,3478.967927,-14211.954086,153.219100
2999.801627,2368.659014,-14285.974681,-306.438199
2999.801954,1702.473667,-12731.542202,-689.485948
2999.802282,740.205942,-10807.006753,-2068.457845
2999.802609,-1850.514855,-9770.718434,-1302.362347
2999.802937,-4441.235652,-7031.956449,-536.266849
2999.803264,-3627.009116,-6513.812290,-229.828649
2999.803592,-1036.288319,-7179.997637,0.000000
2999.803919,0.000000,-7031.956449,536.266849
2999.804247,0.000000,-6957.935855,1915.238745
2999.804574,740.205942,-8438.347739,995.924147
2999.804902,1850.514855,-10436.903782,-383.047749
2999.805229,1702.473667,-10955.047942,-766.095498
2999.805556,2368.659014,-10955.047942,-612.876398
2999.805884,3034.844362,-12583.501014,459.657299
2999.806211,2886.803174,-13989.892304,459.657299
2999.806539,1628.453072,-12139.377449,-306.438199
2999.806866,444.123565,-10732.986159,-1838.629195
2999.807194,-1184.329507,-8956.491898,-1762.019645
2999.807521,-3108.864956,-8364.327145,-995.924147
2999.807849,-4737.318029,-6957.935855,0.000000
2999.808176,-2442.679609,-6883.915261,-1072.533697
2999.808504,0.000000,-8364.327145,-766.095498
2999.808831,1036.288319,-8068.244768,229.828649
2999.809159,1036.288319,-7179.997637,1532.190996
2999.809486,518.144159,-8882.471304,1685.410096
2999.809814,888.247130,-11991.336260,-995.924147
2999.810141,888.247130,-12361.439231,-1685.410096
2999.810469,962.267725,-10510.924376,-1685.410096
2999.810796,2146.597232,-11251.130318,-689.485948
2999.811124,2664.741391,-13323.706956,1608.800546
2999.811451,1554.432478,-11473.192101,2221.676944
2999.811779,-296.082377,-8808.450710,919.314598
2999.812106,-296.082377,-9622.677246,-1915.238745
2999.812434,-1184.329507,-9474.636058,-2298.286494
2999.812761,-2516.700203,-8216.285956,-612.876398
2999.813089,-1554.432478,-7550.100608,0.000000
2999.813416,1850.514855,-8734.430116,-1149.143247
2999.813744,888.247130,-8660.409521,1072.533697
2999.814071,814.226536,-7772.162391,383.047749
2999.814399,1998.556043,-9178.553681,0.000000
2999.814726,2516.700203,-11399.171507,-612.876398
2999.815054,666.185348,-9918.759623,-459.657299
2999.815381,-592.164754,-8216.285956,-229.828649
2999.815709,518.144159,-9918.759623,-229.828649
2999.816036,1628.453072,-11103.089130,383.047749
2999.816364,888.247130,-10362.883188,1302.362347
2999.816691,0.000000,-10066.800811,612.876398
2999.817019,1628.453072,-11621.233289,-1302.362347
2999.817346,518.144159,-11177.109724,-1455.581446
2999.817674,-1258.350101,-8882.471304,-306.438199
2999.818001,74.020594,-8142.265362,229.828649
2999.818329,962.267725,-9474.636058,-459.657299
2999.818656,888.247130,-9474.636058,-383.047749
2999.818984,-1480.411884,-7624.121203,459.657299
2999.819311,222.061783,-9474.636058,-306.438199
2999.819639,1036.288319,-10214.842000,-995.924147
2999.819966,0.000000,-10140.821405,-153.219100
2999.820293,-740.205942,-7994.224174,919.314598
2999.820621,814.226536,-9104.533087,-612.876398
2999.820948,1554.432478,-10214.842000,153.219100
2999.821276,0.000000,-10658.965565,766.095498
2999.821603,-592.164754,-10436.903782,459.657299
2999.821931,3182.885551,-10732.986159,-995.924147
2999.822258,2960.823768,-12139.377449,-995.924147
2999.822586,222.061783,-11325.150913,536.266849
2999.822913,74.020594,-10732.986159,0.000000
2999.823241,1480.411884,-10584.944971,-2221.676944
2999.823568,-666.185348,-8512.368333,-2298.286494
2999.823896,-3108.864956,-7179.997637,-766.095498
2999.824223,-2886.803174,-7846.182985,0.000000
2999.824551,-1110.308913,-9622.677246,-383.047749
2999.824878,-1110.308913,-9178.553681,459.657299
2999.825206,-1184.329507,-7698.141797,1072.533697
2999.825533,296.082377,-8438.347739,1608.800546
2999.825861,2368.659014,-10140.821405,1532.190996
2999.826188,740.205942,-9992.780217,689.485948
2999.826516,296.082377,-9770.718434,153.219100
2999.826843,2368.659014,-11029.068536,-1378.971896
2999.827171,2072.576638,-12361.439231,-1378.971896
2999.827498,-148.041188,-11251.130318,0.000000
2999.827826,-1332.370696,-11251.130318,-383.047749
2999.828153,74.020594,-11473.192101,-2145.067394
2999.828481,222.061783,-9622.677246,-3064.381992
2999.828808,-1702.473667,-7105.977043,-919.314598
2999.829136,-1110.308913,-6143.709319,1149.143247
2999.829463,0.000000,-7031.956449,2145.067394
2999.829791,518.144159,-7846.182985,1991.848295
2999.830118,0.000000,-6883.915261,1378.971896
2999.830446,1110.308913,-7550.100608,383.047749
2999.830773,2368.659014,-10436.903782,689.485948
2999.831101,2664.741391,-12139.377449,0.000000
2999.831428,2812.782580,-12805.562797,-1072.533697
2999.831756,2886.803174,-13175.665768,-1838.629195
2999.832083,2368.659014,-13915.871710,-2757.943793
2999.832411,-370.102971,-12435.459826,-1685.410096
2999.832738,-1406.391290,-9770.718434,-1532.190996
2999.833066,-740.205942,-9252.574275,-1762.019645
2999.833393,-888.247130,-9104.533087,-612.876398
2999.833721,-1554.432478,-6809.894666,459.657299
2999.834048,-1332.370696,-6069.688724,536.266849
2999.834376,444.123565,-6661.853478,536.266849
2999.834703,1036.288319,-7624.121203,0.000000
2999.835030,740.205942,-8364.327145,766.095498
2999.835358,2368.659014,-9400.615463,1149.143247
2999.835685,4071.132681,-12065.356855,383.047749
2999.836013,3627.009116,-13175.665768,383.047749
2999.836340,2960.823768,-13175.665768,306.438199
2999.836668,1998.556043,-12805.562797,-612.876398
2999.836995,222.061783,-12805.562797,-1608.800546
2999.837323,-3330.926739,-9992.780217,-1685.410096
2999.837650,-4663.297435,-8142.265362,-1838.629195
2999.837978,-2590.720797,-7698.141797,-1685.410096
2999.838305,-1924.535449,-8216.285956,-459.657299
2999.838633,-2072.576638,-6735.874072,1072.533697
2999.838960,-1406.391290,-6217.729913,1378.971896
2999.839288,444.123565,-7254.018232,536.266849
2999.839615,2072.576638,-8956.491898,0.000000
2999.839943,1702.473667,-8216.285956,536.266849
2999.840270,3256.906145,-8364.327145,1072.533697
2999.840598,5107.421000,-11991.336260,1455.581446
2999.840925,4589.276840,-14285.974681,1532.190996
2999.841253,1110.308913,-12731.542202,612.876398
2999.841580,0.000000,-12139.377449,-1302.362347
2999.841908,-1628.453072,-11917.315666,-3983.696590
2999.842235,-4441.235652,-10362.883188,-4443.353888
2999.842563,-5995.668130,-9030.512492,-2451.505594
2999.842890,-3108.864956,-9104.533087,-1149.143247
2999.843218,-1184.329507,-9104.533087,-612.876398
2999.843545,-666.185348,-7846.182985,-306.438199
2999.843873,444.123565,-6587.832884,536.266849
2999.844200,1184.329507,-7402.059420,0.000000
2999.844528,1554.432478,-7920.203579,76.609550
2999.844855,1628.453072,-8068.244768,612.876398
2999.845183,2812.782580,-10066.800811,1149.143247
2999.845510,5773.606348,-13175.665768,1608.800546
2999.845838,5107.421000,-14137.933492,1685.410096
2999.846165,2886.803174,-13027.624579,76.609550
2999.846493,296.082377,-11325.150913,-1532.190996
2999.846820,-1776.494261,-11177.109724,-2911.162892
2999.847148,-5181.441594,-8956.491898,-1915.238745
2999.847475,-5107.421000,-7254.018232,-536.266849
2999.847803,-1998.556043,-7698.141797,153.219100
2999.848130,0.000000,-7772.162391,689.485948
2999.848458,0.000000,-6883.915261,1378.971896
2999.848785,74.020594,-7179.997637,689.485948
2999.849113,2738.761985,-9104.533087,-1149.143247
2999.849440,2664.741391,-9992.780217,-919.314598
2999.849768,666.185348,-8216.285956,306.438199
2999.850095,1184.329507,-8438.347739,1302.362347
2999.850422,3182.885551,-12287.418637,1532.190996
2999.850750,3627.009116,-13693.809927,1302.362347
2999.851077,1480.411884,-10807.006753,1762.019645
2999.851405,592.164754,-9326.594869,689.485948
2999.851732,0.000000,-10214.842000,-766.095498
2999.852060,-3034.844362,-9030.512492,-1072.533697
2999.852387,-5551.544565,-6883.915261,-536.266849
2999.852715,-2960.823768,-7698.141797,-1302.362347
2999.853042,888.247130,-10066.800811,-1149.143247
2999.853370,1480.411884,-10584.944971,-306.438199
2999.853697,1776.494261,-9918.759623,-459.657299
2999.854025,2220.617826,-11325.150913,-919.314598
2999.854352,1702.473667,-10362.883188,-1762.019645
2999.854680,-296.082377,-8586.388927,-1378.971896
2999.855007,-1036.288319,-8142.265362,229.828649
2999.855335,222.061783,-10214.842000,1685.410096
2999.855662,1702.473667,-11473.192101,1225.752797
2999.855990,962.267725,-10214.842000,995.924147
2999.856317,1036.288319,-10288.862594,459.657299
2999.856645,1184.329507,-11177.109724,-842.705048
2999.856972,-888.247130,-10436.903782,-1302.362347
2999.857300,-2442.679609,-8290.306550,-2298.286494
2999.857627,-518.144159,-8734.430116,-1991.848295
2999.857955,1554.432478,-10214.842000,-1991.848295
2999.858282,888.247130,-10140.821405,-153.219100
2999.858610,518.144159,-9474.636058,1149.143247
2999.858937,962.267725,-9992.780217,383.047749
2999.859265,0.000000,-10066.800811,-536.266849
2999.859592,-962.267725,-7994.224174,-383.047749
2999.859920,-962.267725,-7550.100608,-612.876398
2999.860247,888.247130,-9326.594869,459.657299
2999.860575,2368.659014,-9622.677246,1532.190996
2999.860902,1406.391290,-8956.491898,2068.457845
2999.861230,518.144159,-9474.636058,1302.362347
2999.861557,1184.329507,-11103.089130,153.219100
2999.861885,0.000000,-11029.068536,-2298.286494
2999.862212,-1480.411884,-9548.656652,-1455.581446
2999.862540,-222.061783,-10066.800811,-459.657299
2999.862867,1628.453072,-10732.986159,-306.438199
2999.863195,888.247130,-10214.842000,0.000000
2999.863522,-814.226536,-9992.780217,383.047749
2999.863850,-370.102971,-8882.471304,0.000000
2999.864177,-814.226536,-8364.327145,-1838.629195
2999.864505,-2220.617826,-7994.224174,-919.314598
2999.864832,-2220.617826,-7772.162391,-919.314598
2999.865160,666.185348,-9252.574275,0.000000
2999.865487,2590.720797,-10584.944971,1072.533697
2999.865815,2886.803174,-11547.212695,1685.410096
2999.866142,3404.947333,-11695.253884,689.485948
2999.866470,2960.823768,-11695.253884,-306.438199
2999.866797,592.164754,-11251.130318,-1608.800546
2999.867125,-1332.370696,-10510.924376,-766.095498
2999.867452,-1036.288319,-10955.047942,-1225.752797
2999.867780,0.000000,-11917.315666,-766.095498
2999.868107,-1110.308913,-9844.739029,-383.047749
2999.868435,-2664.741391,-7920.203579,-919.314598
2999.868762,-1258.350101,-8808.450710,-1455.581446
2999.869090,-1110.308913,-9104.533087,-995.924147
2999.869417,-2146.597232,-6587.832884,0.000000
2999.869745,-444.123565,-6217.729913,1072.533697
2999.870072,3034.844362,-8586.388927,1225.752797
2999.870400,5033.400406,-9696.697840,1532.190996
2999.870727,2812.782580,-9696.697840,3524.039291
2999.871055,3182.885551,-10807.006753,919.314598
2999.871382,2664.741391,-11399.171507,-1991.848295
2999.871710,74.020594,-11843.295072,-2451.505594
2999.872037,-2368.659014,-11177.109724,-1532.190996
2999.872365,-2220.617826,-11399.171507,-2068.457845
2999.872692,0.000000,-11695.253884,-2374.896044
2999.873020,-518.144159,-10362.883188,-1225.752797
2999.873347,-2516.700203,-7846.182985,1072.533697
2999.873675,-888.247130,-6883.915261,229.828649
2999.874002,518.144159,-7994.224174,459.657299
2999.874330,-592.164754,-7105.977043,995.924147
2999.874657,666.185348,-5995.668130,536.266849
2999.874985,3404.947333,-8290.306550,842.705048
2999.875312,3997.112087,-11103.089130,1225.752797
2999.875640,2960.823768,-11473.192101,1072.533697
2999.875967,2590.720797,-11029.068536,-383.047749
2999.876295,2886.803174,-12953.603985,-2451.505594
2999.876622,1036.288319,-14063.912898,-2451.505594
2999.876950,-740.205942,-11621.233289,-1302.362347
2999.877277,-1258.350101,-9992.780217,-689.485948
2999.877605,-296.082377,-9992.780217,-766.095498
2999.877932,-1998.556043,-8216.285956,306.438199
2999.878260,-3701.029710,-6217.729913,1455.581446
2999.878587,-2664.741391,-5995.668130,766.095498
2999.878915,-1406.391290,-8438.347739,-536.266849
2999.879242,-1110.308913,-8364.327145,-536.266849
2999.879570,-296.082377,-8438.347739,-306.438199
2999.879897,2738.761985,-10362.883188,-612.876398
2999.880225,4663.297435,-12213.398043,-459.657299
2999.880552,3478.967927,-12213.398043,0.000000
2999.880880,2146.597232,-11399.171507,0.000000
2999.881207,2220.617826,-11547.212695,-766.095498
2999.881535,518.144159,-11251.130318,-306.438199
2999.881862,-1480.411884,-9178.553681,995.924147
2999.882190,-1258.350101,-8586.388927,1302.362347
2999.882517,-666.185348,-8364.327145,76.609550
2999.882845,-2368.659014,-7772.162391,0.000000
2999.883172,-4145.153275,-7105.977043,-995.924147
2999.883500,-2294.638420,-7402.059420,-2068.457845
2999.883827,1184.329507,-10288.862594,-2604.724693
2999.884155,1998.556043,-10881.027347,-689.485948
2999.884482,2220.617826,-10066.800811,1762.019645
2999.884810,4367.215058,-11695.253884,1762.019645
2999.885137,4737.318029,-11917.315666,1378.971896
2999.885465,2442.679609,-10732.986159,0.000000
2999.885792,-518.144159,-8586.388927,-536.266849
2999.886120,-592.164754,-10658.965565,-842.705048
2999.886448,-814.226536,-11473.192101,-612.876398
2999.886775,-1850.514855,-9844.739029,383.047749
2999.887103,-2516.700203,-9622.677246,612.876398
2999.887430,-518.144159,-9992.780217,-306.438199
2999.887758,-222.061783,-8956.491898,-1455.581446
2999.888085,-2294.638420,-6883.915261,-1072.533697
2999.888413,-1036.288319,-7328.038826,-1608.800546
2999.888740,592.164754,-9770.718434,-919.314598
2999.889068,888.247130,-9548.656652,459.657299
2999.889395,1184.329507,-9104.533087,1838.629195
2999.889723,2516.700203,-10955.047942,1608.800546
2999.890050,2960.823768,-11843.295072,-383.047749
2999.890378,444.123565,-11399.171507,-306.438199
2999.890705,-148.041188,-9474.636058,-1378.971896
2999.891033,888.247130,-9622.677246,-2298.286494
2999.891360,0.000000,-10658.965565,-536.266849
2999.891688,-1776.494261,-9474.636058,1225.752797
2999.892015,-1406.391290,-7846.182985,1225.752797
2999.892343,1776.494261,-8512.368333,-612.876398
2999.892670,1406.391290,-9104.533087,-612.876398
2999.892998,370.102971,-8438.347739,229.828649
2999.893325,518.144159,-7772.162391,76.609550
2999.893653,1036.288319,-9474.636058,-612.876398
2999.893980,-296.082377,-11029.068536,0.000000
2999.894308,-518.144159,-9548.656652,-842.705048
2999.894635,370.102971,-10140.821405,-842.705048
2999.894963,1036.288319,-11621.233289,-153.219100
2999.895290,518.144159,-10658.965565,-153.219100
2999.895618,740.205942,-9770.718434,-306.438199
2999.895945,2146.597232,-10214.842000,-536.266849
