#time,accel_x,accel_y,accel_z
3293.435359,148.041188,-9326.594869,459.657299
3293.435686,0.000000,-9178.553681,153.219100
3293.436014,0.000000,-8808.450710,0.000000
3293.436342,-148.041188,-9326.594869,0.000000
3293.436670,0.000000,-8882.471304,0.000000
3293.436997,74.020594,-9400.615463,0.000000
3293.437325,444.123565,-9548.656652,0.000000
3293.437653,296.082377,-9770.718434,0.000000
3293.437981,518.144159,-9770.718434,76.609550
3293.438308,592.164754,-9622.677246,76.609550
3293.438636,592.164754,-9548.656652,153.219100
3293.438964,370.102971,-9400.615463,0.000000
3293.439291,740.205942,-9400.615463,0.000000
3293.439619,518.144159,-9548.656652,-306.438199
3293.439947,0.000000,-9400.615463,-459.657299
3293.440275,74.020594,-9622.677246,-536.266849
3293.440602,74.020594,-9622.677246,-766.095498
3293.440930,222.061783,-10066.800811,-612.876398
3293.441258,592.164754,-10288.862594,-612.876398
3293.441586,740.205942,-10436.903782,-459.657299
3293.441913,592.164754,-9992.780217,459.657299
3293.442241,592.164754,-10288.862594,0.000000
3293.442569,592.164754,-9918.759623,0.000000
3293.442897,296.082377,-9918.759623,-306.438199
3293.443224,148.041188,-9770.718434,0.000000
3293.443552,0.000000,-9474.636058,-612.876398
3293.443880,444.123565,-9696.697840,-995.924147
3293.444207,-296.082377,-9622.677246,-689.485948
3293.444535,74.020594,-10066.800811,-919.314598
3293.444863,370.102971,-9992.780217,-536.266849
3293.445191,518.144159,-10214.842000,-153.219100
3293.445518,518.144159,-10066.800811,0.000000
3293.445846,592.164754,-9622.677246,612.876398
3293.446174,666.185348,-9400.615463,689.485948
3293.446502,-148.041188,-8808.450710,153.219100
3293.446829,0.000000,-8586.388927,459.657299
3293.447157,0.000000,-8956.491898,0.000000
3293.447485,-296.082377,-8956.491898,0.000000
3293.447813,0.000000,-9474.636058,0.000000
3293.448140,-518.144159,-9400.615463,-689.485948
3293.448468,222.061783,-9622.677246,0.000000
3293.448796,666.185348,-9696.697840,-919.314598
3293.449123,370.102971,-9474.636058,0.000000
3293.449451,888.247130,-9844.739029,153.219100
3293.449779,592.164754,-9622.677246,153.219100
3293.450107,518.144159,-9474.636058,0.000000
3293.450434,370.102971,-9178.553681,0.000000
3293.450762,74.020594,-9326.594869,0.000000
3293.451090,0.000000,-9400.615463,-689.485948
3293.451418,370.102971,-9252.574275,-612.876398
3293.451745,814.226536,-9474.636058,-842.705048
3293.452073,1702.473667,-9918.759623,-689.485948
3293.452401,2812.782580,-9770.718434,-459.657299
3293.452729,4145.153275,-9400.615463,0.000000
3293.453056,5181.441594,-9622.677246,-383.047749
3293.453384,5625.565159,-10436.903782,0.000000
3293.453712,6809.894666,-10362.883188,-459.657299
3293.454039,6735.874072,-9844.739029,-383.047749
3293.454367,6883.915261,-9992.780217,-229.828649
3293.454695,7179.997637,-10066.800811,-612.876398
3293.455023,7476.080014,-10362.883188,-612.876398
3293.455350,7402.059420,-10584.944971,0.000000
3293.455678,8734.430116,-9992.780217,-842.705048
3293.456006,9326.594869,-9474.636058,-153.219100
3293.456334,9548.656652,-8956.491898,0.000000
3293.456661,9992.780217,-8586.388927,766.095498
3293.456989,11177.109724,-9104.533087,689.485948
3293.457317,11695.253884,-9252.574275,229.828649
3293.457645,11769.274478,-9326.594869,1149.143247
3293.457972,11325.150913,-8734.430116,459.657299
3293.458300,11325.150913,-9178.553681,383.047749
3293.458628,11695.253884,-9770.718434,76.609550
3293.458955,12287.418637,-10140.821405,-383.047749
3293.459283,12731.542202,-10066.800811,0.000000
3293.459611,14211.954086,-9770.718434,689.485948
3293.459939,15174.221811,-8882.471304,919.314598
3293.460266,14804.118840,-8660.409521,1378.971896
3293.460594,14285.974681,-9030.512492,1991.848295
3293.460922,13323.706956,-9474.636058,919.314598
3293.461250,12953.603985,-9844.739029,459.657299
3293.461577,12435.459826,-9474.636058,459.657299
3293.461905,11917.315666,-7550.100608,766.095498
3293.462233,12509.480420,-8808.450710,306.438199
3293.462561,12139.377449,-9622.677246,229.828649
3293.462888,11177.109724,-9992.780217,229.828649
3293.463216,10140.821405,-10362.883188,-306.438199
3293.463544,9622.677246,-10732.986159,-536.266849
3293.463871,8586.388927,-9992.780217,-842.705048
3293.464199,7402.059420,-8364.327145,-536.266849
3293.464527,8808.450710,-7920.203579,-612.876398
3293.464855,10214.842000,-9474.636058,-229.828649
3293.465182,10807.006753,-10955.047942,689.485948
3293.465510,10288.862594,-11843.295072,1149.143247
3293.465838,9696.697840,-10955.047942,383.047749
3293.466166,8586.388927,-9104.533087,-383.047749
3293.466493,8290.306550,-8290.306550,-383.047749
3293.466821,8660.409521,-8364.327145,0.000000
3293.467149,9104.533087,-10732.986159,766.095498
3293.467476,9770.718434,-11917.315666,1072.533697
3293.467804,9252.574275,-9844.739029,153.219100
3293.468132,8438.347739,-8216.285956,0.000000
3293.468460,7031.956449,-8808.450710,306.438199
3293.468787,6217.729913,-9474.636058,306.438199
3293.469115,7031.956449,-9030.512492,-1302.362347
3293.469443,8808.450710,-9474.636058,-1302.362347
3293.469771,11177.109724,-9474.636058,-1532.190996
3293.470098,9770.718434,-8956.491898,1685.410096
3293.470426,7254.018232,-8364.327145,3294.210641
3293.470754,8142.265362,-9400.615463,1762.019645
3293.471082,10436.903782,-9696.697840,-1608.800546
3293.471409,12065.356855,-9992.780217,-3600.648841
3293.471737,11103.089130,-9770.718434,-383.047749
3293.472065,9252.574275,-9622.677246,2068.457845
3293.472392,8882.471304,-10066.800811,1685.410096
3293.472720,8512.368333,-8512.368333,-306.438199
3293.473048,7254.018232,-8586.388927,-689.485948
3293.473376,8808.450710,-9474.636058,-1378.971896
3293.473703,10510.924376,-9696.697840,-689.485948
3293.474031,9622.677246,-9030.512492,76.609550
3293.474359,8290.306550,-9918.759623,689.485948
3293.474687,9252.574275,-9030.512492,383.047749
3293.475014,9178.553681,-7105.977043,-689.485948
3293.475342,8808.450710,-9474.636058,-689.485948
3293.475670,10436.903782,-11917.315666,-306.438199
3293.475998,12361.439231,-11251.130318,-766.095498
3293.476325,9918.759623,-10955.047942,229.828649
3293.476653,6735.874072,-10732.986159,1915.238745
3293.476981,6291.750507,-9548.656652,306.438199
3293.477308,6587.832884,-10066.800811,-1378.971896
3293.477636,5033.400406,-10955.047942,-1302.362347
3293.477964,6439.791695,-9030.512492,-1378.971896
3293.478292,5699.585753,-8216.285956,1149.143247
3293.478619,3849.070898,-9030.512492,4060.306139
3293.478947,4071.132681,-8068.244768,2451.505594
3293.479275,2146.597232,-7624.121203,-153.219100
3293.479603,1850.514855,-8734.430116,-459.657299
3293.479930,4811.338623,-10066.800811,-1915.238745
3293.480258,4515.256246,-10955.047942,-1149.143247
3293.480586,4663.297435,-10066.800811,919.314598
3293.480914,5477.523971,-9622.677246,76.609550
3293.481241,4071.132681,-12065.356855,-536.266849
3293.481569,3404.947333,-13545.768739,229.828649
3293.481897,4219.173869,-11325.150913,-1072.533697
3293.482224,2368.659014,-9252.574275,-1225.752797
3293.482552,666.185348,-9400.615463,689.485948
3293.482880,-592.164754,-9252.574275,2145.067394
3293.483208,-2664.741391,-8290.306550,3140.991542
3293.483535,-3775.050304,-7402.059420,2374.896044
3293.483863,-5255.462188,-8586.388927,229.828649
3293.484191,-5477.523971,-7328.038826,-1532.190996
3293.484519,-3404.947333,-7624.121203,-2068.457845
3293.484846,-3108.864956,-7994.224174,-1225.752797
3293.485174,-4145.153275,-9030.512492,459.657299
3293.485502,-3701.029710,-12657.521608,76.609550
3293.485830,-1628.453072,-12139.377449,-2757.943793
3293.486157,-1110.308913,-11029.068536,-3600.648841
3293.486485,74.020594,-10807.006753,-3140.991542
3293.486813,518.144159,-12657.521608,-459.657299
3293.487140,296.082377,-13545.768739,2145.067394
3293.487468,1036.288319,-8290.306550,1838.629195
3293.487796,0.000000,-6809.894666,459.657299
3293.488124,-2368.659014,-8290.306550,-229.828649
3293.488451,-3478.967927,-7328.038826,-536.266849
3293.488779,-2886.803174,-6439.791695,-1762.019645
3293.489107,-1998.556043,-5107.421000,-2528.115143
3293.489435,-1110.308913,-8660.409521,-1302.362347
3293.489762,1998.556043,-12361.439231,0.000000
3293.490090,5181.441594,-11695.253884,766.095498
3293.490418,5477.523971,-13175.665768,306.438199
3293.490746,3997.112087,-11769.274478,-766.095498
3293.491073,2294.638420,-11769.274478,-1302.362347
3293.491401,296.082377,-11917.315666,-612.876398
3293.491729,518.144159,-9178.553681,-229.828649
3293.492056,-222.061783,-7105.977043,842.705048
3293.492384,-518.144159,-7254.018232,0.000000
3293.492712,-370.102971,-9030.512492,-766.095498
3293.493040,296.082377,-9844.739029,-1532.190996
3293.493367,1480.411884,-8068.244768,-1532.190996
3293.493695,2442.679609,-10955.047942,0.000000
3293.494023,4737.318029,-10881.027347,459.657299
3293.494351,4441.235652,-9178.553681,689.485948
3293.494678,3775.050304,-10510.924376,1149.143247
3293.495006,3775.050304,-11769.274478,766.095498
3293.495334,2072.576638,-12361.439231,153.219100
3293.495662,2072.576638,-9992.780217,0.000000
3293.495989,814.226536,-10288.862594,-536.266849
3293.496317,-666.185348,-10510.924376,0.000000
3293.496645,-592.164754,-9030.512492,-766.095498
3293.496972,296.082377,-8660.409521,-1072.533697
3293.497300,814.226536,-7031.956449,153.219100
3293.497628,444.123565,-7698.141797,2298.286494
3293.497956,1110.308913,-8364.327145,2528.115143
3293.498283,1628.453072,-7254.018232,1991.848295
3293.498611,1036.288319,-8660.409521,1378.971896
3293.498938,444.123565,-9548.656652,1149.143247
3293.499266,222.061783,-11843.295072,0.000000
3293.499593,74.020594,-10362.883188,-1378.971896
3293.499921,-740.205942,-11251.130318,-2221.676944
3293.500248,-1850.514855,-13397.727550,-689.485948
3293.500576,-444.123565,-10658.965565,-1072.533697
3293.500903,-1850.514855,-9548.656652,0.000000
3293.501231,-2960.823768,-9178.553681,153.219100
3293.501558,-3404.947333,-7550.100608,-536.266849
3293.501886,-3923.091493,-7846.182985,-383.047749
3293.502213,-1702.473667,-5625.565159,-383.047749
3293.502541,-518.144159,-7254.018232,0.000000
3293.502868,-148.041188,-9622.677246,766.095498
3293.503196,-370.102971,-10214.842000,153.219100
3293.503524,0.000000,-10362.883188,-842.705048
3293.503851,0.000000,-10732.986159,-3064.381992
3293.504179,-888.247130,-13027.624579,-1685.410096
3293.504506,-1258.350101,-12287.418637,-1378.971896
3293.504834,-888.247130,-11325.150913,-2068.457845
3293.505161,-814.226536,-11399.171507,-1225.752797
3293.505489,-1184.329507,-8956.491898,229.828649
3293.505816,-1776.494261,-9030.512492,1532.190996
3293.506144,-2516.700203,-8660.409521,153.219100
3293.506471,-740.205942,-7031.956449,-1302.362347
3293.506799,592.164754,-7698.141797,-2298.286494
3293.507126,1850.514855,-8068.244768,0.000000
3293.507454,2294.638420,-9918.759623,2757.943793
3293.507781,2664.741391,-9548.656652,2374.896044
3293.508109,2072.576638,-10732.986159,536.266849
3293.508436,740.205942,-11695.253884,-919.314598
3293.508764,666.185348,-10955.047942,-2145.067394
3293.509091,-962.267725,-10584.944971,-1762.019645
3293.509419,-1258.350101,-9770.718434,-1072.533697
3293.509746,-370.102971,-10510.924376,-383.047749
3293.510074,1554.432478,-8882.471304,76.609550
3293.510402,3923.091493,-6957.935855,0.000000
3293.510729,3923.091493,-7328.038826,2451.505594
3293.511057,2664.741391,-8512.368333,3524.039291
3293.511384,1924.535449,-8290.306550,2451.505594
3293.511712,2220.617826,-8142.265362,612.876398
3293.512039,3404.947333,-7402.059420,-459.657299
3293.512367,2738.761985,-9770.718434,1225.752797
3293.512694,1406.391290,-11473.192101,2221.676944
3293.513022,2442.679609,-13545.768739,-689.485948
3293.513349,3034.844362,-13175.665768,-3753.867940
3293.513677,3256.906145,-11917.315666,-3524.039291
3293.514004,1332.370696,-13027.624579,-306.438199
3293.514332,888.247130,-11917.315666,689.485948
3293.514659,592.164754,-8216.285956,0.000000
3293.514987,-814.226536,-6513.812290,-1149.143247
3293.515314,-1480.411884,-6143.709319,-919.314598
3293.515642,-1924.535449,-8512.368333,1149.143247
3293.515969,0.000000,-8586.388927,1225.752797
3293.516297,1628.453072,-10362.883188,306.438199
3293.516624,1110.308913,-10955.047942,-1072.533697
3293.516952,814.226536,-9992.780217,-1608.800546
3293.517279,-370.102971,-10066.800811,-1762.019645
3293.517607,-518.144159,-11177.109724,-766.095498
3293.517935,-592.164754,-12213.398043,0.000000
3293.518262,-814.226536,-10584.944971,-306.438199
3293.518590,-888.247130,-8216.285956,0.000000
3293.518917,-1184.329507,-9474.636058,536.266849
3293.519245,-2368.659014,-9844.739029,689.485948
3293.519572,-2590.720797,-9770.718434,-229.828649
3293.519900,-1850.514855,-7105.977043,-2451.505594
3293.520227,-2368.659014,-5477.523971,-1608.800546
3293.520555,-1480.411884,-7402.059420,1149.143247
3293.520882,0.000000,-8956.491898,1915.238745
3293.521210,-148.041188,-10362.883188,1991.848295
3293.521537,-962.267725,-10214.842000,1225.752797
3293.521865,-962.267725,-9474.636058,-1302.362347
3293.522192,-1480.411884,-10955.047942,-2374.896044
3293.522520,-2368.659014,-11029.068536,-612.876398
3293.522847,-1110.308913,-11325.150913,-919.314598
3293.523175,0.000000,-11103.089130,-1302.362347
3293.523502,-666.185348,-10214.842000,-153.219100
3293.523830,-1258.350101,-9622.677246,383.047749
3293.524157,-1628.453072,-7402.059420,842.705048
3293.524485,-2146.597232,-7994.224174,612.876398
3293.524813,-2368.659014,-8660.409521,306.438199
3293.525140,-222.061783,-7994.224174,-1378.971896
3293.525468,666.185348,-8808.450710,-306.438199
3293.525795,740.205942,-9844.739029,1302.362347
3293.526123,518.144159,-12731.542202,1149.143247
3293.526450,1332.370696,-12435.459826,-1915.238745
3293.526778,1554.432478,-10362.883188,-2911.162892
3293.527105,2738.761985,-10658.965565,-2451.505594
3293.527433,3034.844362,-11547.212695,-229.828649
3293.527760,1998.556043,-11843.295072,3370.820191
3293.528088,1998.556043,-8734.430116,2987.772442
3293.528415,2072.576638,-7179.997637,0.000000
3293.528743,-888.247130,-8068.244768,153.219100
3293.529070,-1184.329507,-8068.244768,-1072.533697
3293.529398,0.000000,-6883.915261,-1685.410096
3293.529725,296.082377,-7402.059420,-2068.457845
3293.530053,1702.473667,-8956.491898,-153.219100
3293.530380,2590.720797,-11177.109724,1762.019645
3293.530708,3552.988522,-9696.697840,1685.410096
3293.531035,4441.235652,-11843.295072,1685.410096
3293.531363,3997.112087,-12139.377449,383.047749
3293.531690,3552.988522,-10584.944971,-536.266849
3293.532018,1850.514855,-10584.944971,0.000000
3293.532346,1480.411884,-8068.244768,536.266849
3293.532673,518.144159,-8438.347739,536.266849
3293.533001,-1258.350101,-9030.512492,306.438199
3293.533328,-296.082377,-7476.080014,-1072.533697
3293.533656,518.144159,-7994.224174,-2145.067394
3293.533983,1924.535449,-10362.883188,-1532.190996
3293.534311,1110.308913,-11695.253884,1532.190996
3293.534638,3034.844362,-10214.842000,766.095498
3293.534966,3627.009116,-10807.006753,-459.657299
3293.535293,1184.329507,-11325.150913,153.219100
3293.535621,444.123565,-9326.594869,-766.095498
3293.535948,-1924.535449,-10732.986159,-842.705048
3293.536276,-1258.350101,-10584.944971,-1608.800546
3293.536603,-1332.370696,-9696.697840,-1225.752797
3293.536931,-2664.741391,-10066.800811,0.000000
3293.537258,-3182.885551,-7846.182985,-1072.533697
3293.537586,-2146.597232,-9326.594869,-1991.848295
3293.537913,-1184.329507,-9696.697840,-1608.800546
3293.538241,-666.185348,-8438.347739,0.000000
3293.538568,-444.123565,-8438.347739,1762.019645
3293.538896,296.082377,-8808.450710,2068.457845
3293.539224,-296.082377,-10881.027347,1915.238745
3293.539551,-296.082377,-9770.718434,689.485948
3293.539879,-1406.391290,-8956.491898,-1378.971896
3293.540206,-2220.617826,-10436.903782,-1608.800546
3293.540534,-3330.926739,-10584.944971,-1072.533697
3293.540861,-4293.194464,-9548.656652,-689.485948
3293.541189,-2220.617826,-8142.265362,-1225.752797
3293.541516,-888.247130,-9252.574275,-842.705048
3293.541844,-1036.288319,-11103.089130,995.924147
3293.542171,-444.123565,-9474.636058,1532.190996
3293.542499,370.102971,-8512.368333,306.438199
3293.542826,814.226536,-6661.853478,-536.266849
3293.543154,814.226536,-8956.491898,919.314598
3293.543481,444.123565,-10066.800811,1608.800546
3293.543809,444.123565,-9622.677246,995.924147
3293.544136,296.082377,-10658.965565,-459.657299
3293.544464,370.102971,-9622.677246,-2681.334243
3293.544791,-518.144159,-10658.965565,-2834.553343
3293.545119,-1036.288319,-11917.315666,153.219100
3293.545446,1480.411884,-10658.965565,-766.095498
3293.545774,2368.659014,-9474.636058,-766.095498
3293.546101,1924.535449,-9474.636058,842.705048
3293.546429,2072.576638,-9770.718434,229.828649
3293.546757,1628.453072,-8216.285956,-383.047749
3293.547084,2072.576638,-7698.141797,-842.705048
3293.547412,2442.679609,-9992.780217,-383.047749
3293.547739,3256.906145,-9918.759623,536.266849
3293.548067,3034.844362,-11473.192101,1685.410096
3293.548394,3552.988522,-11399.171507,612.876398
3293.548722,3330.926739,-10436.903782,-1762.019645
3293.549049,1850.514855,-11325.150913,-1838.629195
3293.549377,370.102971,-8956.491898,-1378.971896
3293.549704,-592.164754,-8142.265362,0.000000
3293.550032,-1184.329507,-7994.224174,536.266849
3293.550359,-444.123565,-8216.285956,536.266849
3293.550687,1184.329507,-9178.553681,306.438199
3293.551014,3182.885551,-7772.162391,76.609550
3293.551342,2368.659014,-8808.450710,1455.581446
3293.551669,1480.411884,-10214.842000,2298.286494
3293.551997,2294.638420,-10362.883188,-306.438199
3293.552324,2368.659014,-10584.944971,-459.657299
3293.552652,2812.782580,-7920.203579,-689.485948
3293.552979,-148.041188,-9178.553681,612.876398
3293.553307,-1998.556043,-11547.212695,1455.581446
3293.553635,-1258.350101,-11473.192101,-1302.362347
3293.553962,-296.082377,-10732.986159,-2145.067394
3293.554290,-592.164754,-8438.347739,-1838.629195
3293.554617,-1702.473667,-9918.759623,459.657299
3293.554945,-370.102971,-10436.903782,0.000000
3293.555272,1406.391290,-9844.739029,-1072.533697
3293.555600,518.144159,-11325.150913,-689.485948
3293.555927,-296.082377,-9104.533087,-153.219100
3293.556255,-1258.350101,-8438.347739,383.047749
3293.556582,-1184.329507,-10288.862594,0.000000
3293.556910,-2220.617826,-11621.233289,-766.095498
3293.557237,-2738.761985,-11325.150913,-1302.362347
3293.557565,-1406.391290,-8882.471304,-2604.724693
3293.557892,-1480.411884,-9400.615463,-2145.067394
3293.558220,-2146.597232,-11029.068536,-383.047749
3293.558547,-1184.329507,-10066.800811,153.219100
3293.558875,740.205942,-9252.574275,-536.266849
3293.559202,1036.288319,-8068.244768,-689.485948
3293.559530,-592.164754,-8586.388927,1378.971896
3293.559857,-888.247130,-9918.759623,2681.334243
3293.560185,0.000000,-10140.821405,1225.752797
3293.560513,888.247130,-8808.450710,-1685.410096
3293.560840,-148.041188,-7698.141797,-1455.581446
3293.561168,-148.041188,-10584.944971,1225.752797
3293.561495,0.000000,-10510.924376,1532.190996
3293.561823,740.205942,-9326.594869,-689.485948
3293.562150,74.020594,-8364.327145,-1762.019645
3293.562478,370.102971,-9178.553681,-919.314598
3293.562805,148.041188,-9918.759623,1072.533697
3293.563133,666.185348,-8660.409521,1838.629195
3293.563460,592.164754,-9548.656652,1302.362347
3293.563788,2368.659014,-11325.150913,-919.314598
3293.564115,1850.514855,-9326.594869,-1455.581446
3293.564443,1258.350101,-9474.636058,76.609550
3293.564770,962.267725,-8808.450710,383.047749
3293.565098,1184.329507,-10807.006753,153.219100
3293.565425,1924.535449,-11177.109724,-536.266849
3293.565753,3034.844362,-8956.491898,-919.314598
3293.566080,0.000000,-8956.491898,1225.752797
3293.566408,-370.102971,-10214.842000,995.924147
3293.566735,-296.082377,-11177.109724,-1685.410096
3293.567063,592.164754,-10140.821405,-3370.820191
3293.567390,1850.514855,-8512.368333,-2451.505594
3293.567718,2146.597232,-10807.006753,383.047749
3293.568046,2368.659014,-11843.295072,2374.896044
3293.568373,3108.864956,-9474.636058,766.095498
3293.568701,2812.782580,-9474.636058,-842.705048
3293.569028,1110.308913,-9770.718434,-919.314598
3293.569356,1036.288319,-9918.759623,-459.657299
3293.569683,1184.329507,-7846.182985,0.000000
3293.570011,370.102971,-8290.306550,1225.752797
3293.570338,-148.041188,-9770.718434,1532.190996
3293.570666,-814.226536,-9030.512492,1225.752797
3293.570993,-518.144159,-9844.739029,-612.876398
3293.571321,-222.061783,-9622.677246,-2145.067394
3293.571648,-1258.350101,-10436.903782,-1225.752797
3293.571976,-592.164754,-9548.656652,153.219100
3293.572303,1258.350101,-7772.162391,306.438199
3293.572631,1924.535449,-7550.100608,1149.143247
3293.572958,888.247130,-7402.059420,1608.800546
3293.573286,-1702.473667,-11621.233289,2451.505594
3293.573613,-2886.803174,-11399.171507,0.000000
3293.573941,-1406.391290,-9326.594869,-3753.867940
3293.574268,-888.247130,-9992.780217,-3370.820191
3293.574596,-1110.308913,-11325.150913,-995.924147
3293.574924,-888.247130,-12287.418637,1455.581446
3293.575251,592.164754,-9178.553681,612.876398
3293.575579,1332.370696,-7550.100608,-229.828649
3293.575906,0.000000,-9770.718434,76.609550
3293.576234,-666.185348,-8882.471304,459.657299
3293.576561,-444.123565,-10066.800811,1455.581446
3293.576889,-296.082377,-10510.924376,383.047749
3293.577216,-592.164754,-9844.739029,-1072.533697
3293.577544,-1998.556043,-10362.883188,-2145.067394
3293.577871,-2294.638420,-10066.800811,-2221.676944
3293.578199,-2220.617826,-11325.150913,-2221.676944
3293.578526,-1628.453072,-9622.677246,-1838.629195
3293.578854,-814.226536,-7920.203579,-1378.971896
3293.579181,222.061783,-8438.347739,229.828649
3293.579509,666.185348,-8364.327145,1302.362347
3293.579836,888.247130,-9770.718434,1915.238745
3293.580164,1110.308913,-9918.759623,1455.581446
3293.580491,1998.556043,-8438.347739,-689.485948
3293.580819,666.185348,-9178.553681,-766.095498
3293.581146,814.226536,-10658.965565,459.657299
3293.581474,1258.350101,-11547.212695,-229.828649
3293.581801,1850.514855,-9474.636058,-995.924147
3293.582129,518.144159,-7846.182985,-1378.971896
3293.582457,0.000000,-9844.739029,-306.438199
3293.582784,-296.082377,-9178.553681,536.266849
3293.583112,444.123565,-9474.636058,842.705048
3293.583439,2220.617826,-8956.491898,153.219100
3293.583767,2516.700203,-9696.697840,0.000000
3293.584094,1480.411884,-10881.027347,689.485948
3293.584422,1110.308913,-10658.965565,842.705048
3293.584749,666.185348,-10066.800811,-1455.581446
3293.585077,518.144159,-9030.512492,-1915.238745
3293.585404,148.041188,-9474.636058,-1378.971896
3293.585732,740.205942,-10436.903782,229.828649
3293.586059,740.205942,-9104.533087,1991.848295
3293.586387,0.000000,-10066.800811,1685.410096
3293.586714,592.164754,-9918.759623,-1685.410096
3293.587042,444.123565,-9992.780217,-2911.162892
3293.587369,0.000000,-10214.842000,-1302.362347
3293.587697,222.061783,-9992.780217,0.000000
3293.588024,962.267725,-11325.150913,842.705048
3293.588352,2072.576638,-9400.615463,229.828649
3293.588679,1184.329507,-8586.388927,-919.314598
3293.589007,0.000000,-10140.821405,383.047749
3293.589335,0.000000,-9770.718434,-383.047749
3293.589662,-666.185348,-9844.739029,-766.095498
3293.589990,0.000000,-8882.471304,-1378.971896
3293.590317,518.144159,-7994.224174,-153.219100
3293.590645,0.000000,-9400.615463,2528.115143
3293.590972,0.000000,-9918.759623,689.485948
3293.591300,666.185348,-10140.821405,-153.219100
3293.591627,-296.082377,-9326.594869,-1838.629195
3293.591955,-1776.494261,-7994.224174,-1762.019645
3293.592282,-2146.597232,-9178.553681,-229.828649
3293.592610,-1702.473667,-8290.306550,612.876398
3293.592937,-148.041188,-8216.285956,459.657299
3293.593265,592.164754,-8364.327145,0.000000
3293.593592,-222.061783,-10362.883188,459.657299
3293.593920,-296.082377,-12213.398043,536.266849
3293.594247,888.247130,-12139.377449,-1225.752797
3293.594575,740.205942,-10955.047942,-2068.457845
3293.594902,222.061783,-9770.718434,-1378.971896
3293.595230,-148.041188,-9474.636058,383.047749
3293.595557,518.144159,-8734.430116,459.657299
3293.595885,-148.041188,-7846.182985,0.000000
3293.596212,-1036.288319,-9696.697840,0.000000
3293.596540,-1110.308913,-9178.553681,0.000000
3293.596868,814.226536,-10066.800811,-383.047749
3293.597195,740.205942,-11695.253884,-919.314598
3293.597523,0.000000,-13027.624579,-766.095498
3293.597850,592.164754,-11473.192101,-1532.190996
3293.598178,1776.494261,-8438.347739,-2987.772442
3293.598505,0.000000,-10955.047942,-995.924147
3293.598833,-1628.453072,-9918.759623,1072.533697
3293.599160,-296.082377,-8216.285956,0.000000
3293.599488,148.041188,-9030.512492,-689.485948
3293.599815,0.000000,-8068.244768,-995.924147
3293.600143,-666.185348,-8882.471304,689.485948
3293.600471,518.144159,-8882.471304,766.095498
3293.600798,1776.494261,-10214.842000,-383.047749
3293.601126,2072.576638,-11399.171507,-306.438199
3293.601453,2590.720797,-8586.388927,153.219100
3293.601781,2368.659014,-8512.368333,1762.019645
3293.602109,2294.638420,-9622.677246,1455.581446
3293.602436,0.000000,-10140.821405,536.266849
3293.602764,-1184.329507,-9252.574275,229.828649
3293.603091,-518.144159,-7105.977043,-1838.629195
3293.603419,-740.205942,-9696.697840,-1378.971896
3293.603747,-518.144159,-10658.965565,153.219100
3293.604074,0.000000,-11177.109724,0.000000
3293.604402,518.144159,-11843.295072,-306.438199
3293.604729,2146.597232,-8956.491898,-1685.410096
3293.605057,1628.453072,-9252.574275,0.000000
3293.605385,-148.041188,-10066.800811,1532.190996
3293.605712,296.082377,-10140.821405,1532.190996
3293.606040,1776.494261,-8808.450710,76.609550
3293.606368,1110.308913,-8438.347739,0.000000
3293.606695,-962.267725,-11547.212695,1149.143247
3293.607023,-592.164754,-9770.718434,153.219100
3293.607350,666.185348,-9178.553681,-2604.724693
3293.607678,0.000000,-11399.171507,-2604.724693
3293.608006,0.000000,-11029.068536,-1608.800546
3293.608333,0.000000,-9992.780217,842.705048
3293.608661,1110.308913,-9104.533087,76.609550
3293.608988,592.164754,-9918.759623,-229.828649
3293.609316,-888.247130,-11029.068536,612.876398
3293.609644,-518.144159,-7105.977043,0.000000
3293.609971,148.041188,-6809.894666,-1072.533697
3293.610299,-814.226536,-9474.636058,0.000000
3293.610626,-1258.350101,-11991.336260,1149.143247
3293.610954,1332.370696,-10436.903782,76.609550
3293.611282,2442.679609,-7105.977043,-1762.019645
3293.611609,296.082377,-10732.986159,383.047749
3293.611937,-1036.288319,-10584.944971,1991.848295
3293.612265,-592.164754,-9474.636058,842.705048
3293.612592,-962.267725,-8586.388927,-1225.752797
3293.612920,1110.308913,-7402.059420,-1838.629195
3293.613247,1628.453072,-8290.306550,383.047749
3293.613575,666.185348,-9992.780217,2528.115143
3293.613903,-148.041188,-10732.986159,995.924147
3293.614230,296.082377,-10510.924376,-2604.724693
3293.614558,962.267725,-8956.491898,-3140.991542
3293.614885,814.226536,-11769.274478,-2145.067394
3293.615213,222.061783,-10658.965565,0.000000
3293.615541,518.144159,-10584.944971,995.924147
3293.615868,1924.535449,-10066.800811,-459.657299
3293.616196,1258.350101,-7698.141797,-1991.848295
3293.616523,-962.267725,-9400.615463,1149.143247
3293.616851,-1258.350101,-8290.306550,2145.067394
3293.617179,1406.391290,-9696.697840,-536.266849
3293.617506,1406.391290,-10732.986159,-2145.067394
3293.617834,1628.453072,-10955.047942,-1225.752797
3293.618162,1480.411884,-11695.253884,1072.533697
3293.618489,1110.308913,-9548.656652,766.095498
3293.618817,-296.082377,-9918.759623,-1072.533697
3293.619144,-1554.432478,-11029.068536,-2528.115143
3293.619472,-1480.411884,-7846.182985,-2834.553343
3293.619800,-1184.329507,-8438.347739,-536.266849
3293.620127,-296.082377,-8808.450710,306.438199
3293.620455,222.061783,-10510.924376,766.095498
3293.620782,592.164754,-9548.656652,1608.800546
3293.621110,1998.556043,-8068.244768,-612.876398
3293.621438,1258.350101,-9400.615463,306.438199
3293.621765,296.082377,-9400.615463,1072.533697
3293.622093,74.020594,-9178.553681,612.876398
3293.622420,518.144159,-9178.553681,76.609550
3293.622748,888.247130,-8660.409521,-153.219100
3293.623076,296.082377,-10658.965565,536.266849
3293.623403,-222.061783,-10658.965565,1149.143247
3293.623731,296.082377,-10140.821405,-306.438199
3293.624059,1036.288319,-9474.636058,-2374.896044
3293.624386,296.082377,-9252.574275,-1838.629195
3293.624714,-1036.288319,-10288.862594,-229.828649
3293.625041,-1036.288319,-8808.450710,459.657299
3293.625369,-1110.308913,-7772.162391,306.438199
3293.625697,592.164754,-9474.636058,-1762.019645
3293.626024,-148.041188,-9548.656652,0.000000
3293.626352,-1184.329507,-9474.636058,1378.971896
3293.626679,-518.144159,-10214.842000,0.000000
3293.627007,74.020594,-12139.377449,-2374.896044
3293.627335,666.185348,-10436.903782,-2681.334243
3293.627662,1480.411884,-8734.430116,-1532.190996
3293.627990,814.226536,-10584.944971,842.705048
3293.628317,814.226536,-11917.315666,2145.067394
3293.628645,962.267725,-10881.027347,766.095498
3293.628973,1776.494261,-9326.594869,-1838.629195
3293.629300,148.041188,-9252.574275,-1225.752797
3293.629628,-1258.350101,-9770.718434,0.000000
3293.629956,-1554.432478,-8660.409521,0.000000
3293.630283,-370.102971,-9622.677246,-995.924147
3293.630611,1924.535449,-9252.574275,-919.314598
3293.630938,2368.659014,-9030.512492,1072.533697
3293.631266,1924.535449,-10066.800811,2451.505594
3293.631594,2294.638420,-9252.574275,919.314598
3293.631921,962.267725,-9474.636058,0.000000
3293.632249,222.061783,-7994.224174,-612.876398
3293.632576,-370.102971,-9178.553681,153.219100
3293.632904,-814.226536,-9992.780217,536.266849
3293.633232,888.247130,-7920.203579,-459.657299
3293.633559,1332.370696,-8586.388927,306.438199
3293.633887,444.123565,-9622.677246,306.438199
3293.634214,74.020594,-10955.047942,-306.438199
3293.634542,814.226536,-9992.780217,-383.047749
3293.634870,814.226536,-9400.615463,-1838.629195
3293.635197,962.267725,-11621.233289,-919.314598
3293.635525,1110.308913,-10362.883188,1072.533697
3293.635853,1332.370696,-9252.574275,1072.533697
3293.636180,1332.370696,-10140.821405,229.828649
3293.636508,222.061783,-10732.986159,-536.266849
3293.636835,-444.123565,-10362.883188,-1072.533697
3293.637163,148.041188,-8660.409521,-1378.971896
3293.637491,-148.041188,-8512.368333,-1915.238745
3293.637818,-518.144159,-10881.027347,-1149.143247
3293.638146,296.082377,-11695.253884,-229.828649
3293.638473,1480.411884,-12435.459826,-229.828649
3293.638801,1776.494261,-9696.697840,-995.924147
3293.639129,222.061783,-9696.697840,0.000000
3293.639456,-888.247130,-10584.944971,612.876398
3293.639784,-1110.308913,-9696.697840,0.000000
3293.640111,-962.267725,-9030.512492,-1532.190996
3293.640439,-814.226536,-7254.018232,-1915.238745
3293.640767,-1332.370696,-9104.533087,0.000000
3293.641094,-1184.329507,-9548.656652,1072.533697
3293.641422,-740.205942,-8956.491898,459.657299
3293.641750,-222.061783,-10436.903782,-306.438199
3293.642077,1332.370696,-9326.594869,-689.485948
3293.642405,666.185348,-9918.759623,-536.266849
3293.642732,0.000000,-9252.574275,766.095498
3293.643060,222.061783,-8068.244768,612.876398
3293.643388,1036.288319,-9844.739029,0.000000
3293.643715,888.247130,-8956.491898,-306.438199
3293.644043,-518.144159,-8438.347739,1225.752797
3293.644370,-740.205942,-9104.533087,-383.047749
3293.644698,-518.144159,-11251.130318,-1225.752797
3293.645026,-370.102971,-11325.150913,-2068.457845
3293.645353,-444.123565,-9104.533087,-1608.800546
3293.645681,0.000000,-9992.780217,0.000000
3293.646008,814.226536,-10510.924376,0.000000
3293.646336,814.226536,-10510.924376,1072.533697
3293.646664,1406.391290,-9844.739029,1302.362347
3293.646991,888.247130,-7698.141797,229.828649
3293.647319,-592.164754,-9104.533087,306.438199
3293.647647,-666.185348,-9474.636058,-1225.752797
3293.647974,0.000000,-10584.944971,-1532.190996
3293.648302,666.185348,-10955.047942,-919.314598
3293.648629,1480.411884,-9030.512492,-1225.752797
3293.648957,962.267725,-11769.274478,1455.581446
3293.649285,1332.370696,-11251.130318,0.000000
3293.649612,1850.514855,-10066.800811,-1455.581446
3293.649940,740.205942,-10214.842000,-306.438199
3293.650267,814.226536,-8068.244768,-919.314598
3293.650595,1110.308913,-8438.347739,536.266849
3293.650923,296.082377,-8512.368333,1685.410096
3293.651250,-518.144159,-7698.141797,1608.800546
3293.651578,74.020594,-9252.574275,1455.581446
3293.651905,1110.308913,-9474.636058,0.000000
3293.652233,1628.453072,-10288.862594,-919.314598
3293.652561,1184.329507,-9696.697840,-536.266849
3293.652888,-888.247130,-10658.965565,459.657299
3293.653216,592.164754,-9992.780217,-612.876398
3293.653544,1554.432478,-8068.244768,0.000000
3293.653871,0.000000,-8808.450710,1532.190996
3293.654199,0.000000,-7179.997637,689.485948
3293.654526,-1110.308913,-9030.512492,76.609550
3293.654854,-2368.659014,-11547.212695,-306.438199
3293.655182,-1110.308913,-9548.656652,-1915.238745
3293.655509,-148.041188,-9326.594869,-1455.581446
3293.655837,740.205942,-10288.862594,-306.438199
3293.656164,296.082377,-11473.192101,612.876398
3293.656492,1480.411884,-11325.150913,-536.266849
3293.656820,1850.514855,-8956.491898,-1072.533697
3293.657147,1332.370696,-10584.944971,229.828649
3293.657475,-296.082377,-9474.636058,919.314598
3293.657802,-962.267725,-9622.677246,1378.971896
3293.658130,-888.247130,-8808.450710,-766.095498
3293.658458,962.267725,-9252.574275,-2528.115143
3293.658785,0.000000,-11695.253884,-1225.752797
3293.659113,148.041188,-11251.130318,0.000000
3293.659441,592.164754,-10362.883188,0.000000
3293.659768,888.247130,-10288.862594,-766.095498
3293.660096,-592.164754,-9696.697840,-1455.581446
3293.660423,-1036.288319,-9992.780217,-995.924147
3293.660751,-1480.411884,-7476.080014,0.000000
3293.661079,-148.041188,-9474.636058,0.000000
3293.661406,-888.247130,-9992.780217,842.705048
3293.661734,-148.041188,-9400.615463,689.485948
3293.662061,-222.061783,-9400.615463,0.000000
3293.662389,518.144159,-9844.739029,0.000000
3293.662717,518.144159,-9326.594869,-612.876398
3293.663044,1702.473667,-7698.141797,-1225.752797
3293.663372,740.205942,-7846.182985,0.000000
3293.663699,666.185348,-10584.944971,1685.410096
3293.664027,222.061783,-8808.450710,1532.190996
3293.664355,444.123565,-9696.697840,1302.362347
3293.664682,1998.556043,-10066.800811,0.000000
3293.665010,2146.597232,-10214.842000,-2145.067394
3293.665338,-888.247130,-10214.842000,-536.266849
3293.665665,-370.102971,-9770.718434,-689.485948
3293.665993,-222.061783,-9474.636058,-842.705048
3293.666320,518.144159,-9326.594869,-1302.362347
3293.666648,518.144159,-9474.636058,-689.485948
3293.666976,148.041188,-10658.965565,612.876398
3293.667303,222.061783,-9400.615463,76.609550
3293.667631,74.020594,-9622.677246,0.000000
3293.667958,1258.350101,-9178.553681,-995.924147
3293.668286,1184.329507,-8142.265362,-153.219100
3293.668614,-370.102971,-10955.047942,1991.848295
3293.668941,-962.267725,-11029.068536,536.266849
3293.669269,-222.061783,-11325.150913,-2145.067394
3293.669596,1036.288319,-10510.924376,-3907.087040
3293.669924,1406.391290,-9400.615463,-2451.505594
3293.670252,74.020594,-11325.150913,1991.848295
3293.670579,0.000000,-10732.986159,2681.334243
3293.670907,814.226536,-10066.800811,0.000000
3293.671235,1480.411884,-9030.512492,-2528.115143
3293.671562,0.000000,-8734.430116,-1302.362347
3293.671890,-370.102971,-9992.780217,1072.533697
3293.672217,0.000000,-8364.327145,1072.533697
3293.672545,1036.288319,-9696.697840,536.266849
3293.672873,2516.700203,-9400.615463,0.000000
3293.673200,1998.556043,-8438.347739,1149.143247
3293.673528,962.267725,-9548.656652,2145.067394
3293.673855,-518.144159,-9400.615463,1225.752797
3293.674183,-1850.514855,-10140.821405,229.828649
3293.674511,-666.185348,-9178.553681,-1608.800546
3293.674838,0.000000,-7698.141797,-1838.629195
3293.675166,444.123565,-8660.409521,766.095498
3293.675493,1110.308913,-8956.491898,1991.848295
3293.675821,2072.576638,-10510.924376,1302.362347
3293.676149,1036.288319,-9548.656652,-842.705048
3293.676476,-1406.391290,-9252.574275,-919.314598
3293.676804,-962.267725,-9548.656652,0.000000
3293.677132,0.000000,-9400.615463,-766.095498
3293.677459,148.041188,-10510.924376,229.828649
3293.677787,444.123565,-9696.697840,612.876398
3293.678114,888.247130,-9992.780217,0.000000
3293.678442,592.164754,-11473.192101,-689.485948
3293.678770,-370.102971,-11325.150913,-1455.581446
3293.679097,-592.164754,-10584.944971,-2757.943793
3293.679425,518.144159,-9030.512492,-2911.162892
3293.679752,1554.432478,-10955.047942,-1378.971896
3293.680080,1332.370696,-11917.315666,842.705048
3293.680408,1258.350101,-10066.800811,1608.800546
3293.680735,740.205942,-10362.883188,842.705048
3293.681063,814.226536,-10140.821405,-919.314598
3293.681390,-666.185348,-9770.718434,-1838.629195
3293.681718,-1850.514855,-9400.615463,-1302.362347
3293.682046,-1628.453072,-8290.306550,-1378.971896
3293.682373,-444.123565,-9400.615463,-766.095498
3293.682701,1702.473667,-9104.533087,-689.485948
3293.683029,1110.308913,-9178.553681,1915.238745
3293.683356,666.185348,-10214.842000,2528.115143
3293.683684,666.185348,-8586.388927,229.828649
3293.684011,740.205942,-9770.718434,0.000000
3293.684339,592.164754,-8216.285956,-383.047749
3293.684667,592.164754,-7328.038826,459.657299
3293.684994,0.000000,-8882.471304,1378.971896
3293.685322,-444.123565,-9548.656652,842.705048
3293.685649,740.205942,-11991.336260,-459.657299
3293.685977,1258.350101,-10214.842000,-1915.238745
3293.686305,370.102971,-8956.491898,-766.095498
3293.686632,74.020594,-9696.697840,153.219100
3293.686960,0.000000,-9474.636058,0.000000
3293.687287,-296.082377,-9622.677246,459.657299
3293.687615,518.144159,-8068.244768,0.000000
3293.687943,296.082377,-9104.533087,306.438199
3293.688270,1850.514855,-10807.006753,536.266849
3293.688598,1110.308913,-9474.636058,383.047749
3293.688926,222.061783,-10584.944971,383.047749
3293.689253,-592.164754,-10066.800811,-1302.362347
3293.689581,-1184.329507,-11843.295072,-2528.115143
3293.689908,-1258.350101,-10066.800811,-2911.162892
3293.690236,1406.391290,-10066.800811,-2451.505594
3293.690564,1628.453072,-12139.377449,-459.657299
3293.690891,2368.659014,-11547.212695,1302.362347
3293.691219,1258.350101,-10510.924376,2145.067394
3293.691546,1628.453072,-9918.759623,0.000000
3293.691874,0.000000,-8956.491898,-1991.848295
3293.692202,-1332.370696,-9400.615463,-1915.238745
3293.692529,-1628.453072,-6883.915261,-1838.629195
3293.692857,-740.205942,-7772.162391,0.000000
3293.693184,148.041188,-9474.636058,1608.800546
3293.693512,1406.391290,-10658.965565,2221.676944
3293.693840,2146.597232,-10955.047942,1838.629195
3293.694167,1850.514855,-9400.615463,0.000000
3293.694495,444.123565,-9474.636058,-995.924147
3293.694823,-2072.576638,-9474.636058,-842.705048
3293.695150,-1628.453072,-8956.491898,-1225.752797
3293.695478,0.000000,-9104.533087,-1149.143247
3293.695805,1036.288319,-7476.080014,229.828649
3293.696133,1776.494261,-8882.471304,1991.848295
3293.696461,814.226536,-9400.615463,1532.190996
3293.696788,-1702.473667,-9474.636058,229.828649
3293.697116,-1628.453072,-10881.027347,-1302.362347
3293.697443,1110.308913,-11103.089130,-3140.991542
3293.697771,888.247130,-9474.636058,-1072.533697
3293.698099,1480.411884,-10214.842000,1225.752797
3293.698426,1776.494261,-10955.047942,2374.896044
3293.698754,2590.720797,-11399.171507,383.047749
3293.699081,1850.514855,-9770.718434,-1455.581446
3293.699409,-296.082377,-8956.491898,-1838.629195
3293.699737,-1850.514855,-8586.388927,-1149.143247
3293.700064,-1332.370696,-9844.739029,-842.705048
3293.700392,0.000000,-10881.027347,-995.924147
3293.700720,888.247130,-10510.924376,-1455.581446
3293.701047,1110.308913,-11177.109724,0.000000
3293.701375,888.247130,-10955.047942,0.000000
3293.701703,370.102971,-11547.212695,-1225.752797
3293.702030,666.185348,-11547.212695,-1532.190996
3293.702358,0.000000,-8586.388927,-2911.162892
3293.702686,-518.144159,-8438.347739,-1072.533697
3293.703014,-444.123565,-8142.265362,536.266849
3293.703341,-518.144159,-7994.224174,2298.286494
3293.703669,444.123565,-9252.574275,1608.800546
3293.703997,1776.494261,-9474.636058,0.000000
3293.704325,1480.411884,-9770.718434,-383.047749
3293.704652,592.164754,-9696.697840,-919.314598
3293.704980,148.041188,-9548.656652,0.000000
3293.705308,1258.350101,-9622.677246,0.000000
3293.705635,1776.494261,-8808.450710,-306.438199
3293.705963,740.205942,-8956.491898,1225.752797
3293.706291,74.020594,-9030.512492,1608.800546
3293.706619,0.000000,-9474.636058,995.924147
3293.706946,0.000000,-8956.491898,306.438199
3293.707274,-518.144159,-8364.327145,-1302.362347
3293.707602,-2220.617826,-9622.677246,-1072.533697
3293.707930,-2294.638420,-9326.594869,-766.095498
3293.708257,0.000000,-9474.636058,-612.876398
3293.708585,2368.659014,-10066.800811,-689.485948
3293.708913,2368.659014,-9252.574275,153.219100
3293.709241,666.185348,-10584.944971,2298.286494
3293.709568,-1110.308913,-10510.924376,1685.410096
3293.709896,-1776.494261,-10807.006753,-1302.362347
3293.710224,-1480.411884,-9474.636058,-3294.210641
3293.710552,-296.082377,-8290.306550,-3600.648841
3293.710879,666.185348,-10732.986159,-536.266849
3293.711207,518.144159,-12805.562797,2834.553343
3293.711535,1406.391290,-11991.336260,1532.190996
3293.711863,3182.885551,-10732.986159,-1838.629195
3293.712190,1110.308913,-9622.677246,-2604.724693
3293.712518,-1184.329507,-9474.636058,-689.485948
3293.712846,-1480.411884,-9104.533087,76.609550
3293.713173,-888.247130,-8438.347739,766.095498
3293.713501,1110.308913,-8808.450710,0.000000
3293.713829,2442.679609,-7772.162391,1149.143247
3293.714157,1628.453072,-9696.697840,2757.943793
3293.714484,518.144159,-10436.903782,2145.067394
3293.714812,-148.041188,-9622.677246,-536.266849
3293.715140,-222.061783,-8216.285956,-3524.039291
3293.715468,-962.267725,-7105.977043,-2604.724693
3293.715795,-518.144159,-9104.533087,612.876398
3293.716123,0.000000,-7846.182985,2451.505594
3293.716451,1850.514855,-10214.842000,2757.943793
3293.716779,2738.761985,-9770.718434,459.657299
3293.717106,814.226536,-9548.656652,-842.705048
3293.717434,-2146.597232,-10066.800811,153.219100
3293.717762,-592.164754,-9622.677246,-1149.143247
3293.718090,814.226536,-9326.594869,-919.314598
3293.718417,2294.638420,-9474.636058,-842.705048
3293.718745,962.267725,-9178.553681,1149.143247
3293.719073,1628.453072,-11769.274478,1149.143247
3293.719400,1776.494261,-11103.089130,-919.314598
3293.719728,0.000000,-11103.089130,-1072.533697
3293.720056,-296.082377,-8808.450710,-1762.019645
3293.720384,0.000000,-7994.224174,-1762.019645
3293.720711,666.185348,-11843.295072,0.000000
3293.721039,1332.370696,-10584.944971,-383.047749
3293.721367,2368.659014,-11769.274478,0.000000
3293.721695,2664.741391,-11251.130318,-229.828649
3293.722022,1702.473667,-9696.697840,-689.485948
3293.722350,0.000000,-10807.006753,-689.485948
3293.722678,-1702.473667,-9696.697840,-1915.238745
3293.723006,-1258.350101,-8734.430116,-1915.238745
3293.723333,-296.082377,-7846.182985,-1225.752797
3293.723661,296.082377,-7772.162391,0.000000
3293.723989,148.041188,-10732.986159,2528.115143
3293.724317,962.267725,-11103.089130,1302.362347
3293.724644,888.247130,-10732.986159,-919.314598
3293.724972,1850.514855,-8290.306550,-2145.067394
3293.725300,888.247130,-7476.080014,-1072.533697
3293.725628,-444.123565,-9252.574275,1685.410096
3293.725955,-1406.391290,-9474.636058,2145.067394
3293.726283,-962.267725,-9622.677246,766.095498
3293.726611,-370.102971,-7994.224174,-1149.143247
3293.726938,-888.247130,-8956.491898,0.000000
3293.727266,-740.205942,-10436.903782,229.828649
3293.727594,-740.205942,-10066.800811,-306.438199
3293.727922,-962.267725,-10881.027347,-689.485948
3293.728249,0.000000,-9104.533087,-1915.238745
3293.728577,-666.185348,-8216.285956,-306.438199
3293.728905,-370.102971,-8808.450710,1149.143247
3293.729233,0.000000,-8586.388927,1532.190996
3293.729560,1406.391290,-11251.130318,459.657299
3293.729888,814.226536,-9992.780217,-536.266849
3293.730216,-1258.350101,-8956.491898,0.000000
3293.730544,-1332.370696,-10214.842000,-842.705048
3293.730871,-1406.391290,-10881.027347,-1838.629195
3293.731199,-444.123565,-10881.027347,-2221.676944
3293.731527,888.247130,-9474.636058,-2451.505594
3293.731855,2294.638420,-10807.006753,0.000000
3293.732182,2590.720797,-12435.459826,1762.019645
3293.732510,1998.556043,-10881.027347,1685.410096
3293.732838,1480.411884,-9622.677246,-153.219100
3293.733165,-888.247130,-8586.388927,-1149.143247
3293.733493,-814.226536,-7920.203579,-2068.457845
3293.733821,-666.185348,-8586.388927,-995.924147
3293.734149,0.000000,-9252.574275,0.000000
3293.734476,2368.659014,-9770.718434,536.266849
3293.734804,2368.659014,-10214.842000,919.314598
3293.735132,1554.432478,-10288.862594,1608.800546
3293.735460,962.267725,-10362.883188,766.095498
3293.735787,-296.082377,-9326.594869,-766.095498
3293.736115,-666.185348,-8734.430116,-1608.800546
3293.736443,0.000000,-7624.121203,-1072.533697
3293.736771,740.205942,-7698.141797,1838.629195
3293.737098,2072.576638,-9474.636058,2987.772442
3293.737426,888.247130,-9030.512492,1685.410096
3293.737754,-296.082377,-10955.047942,-689.485948
3293.738082,-814.226536,-10584.944971,-2604.724693
3293.738409,740.205942,-10140.821405,-2298.286494
3293.738737,814.226536,-9104.533087,-995.924147
3293.739065,296.082377,-8142.265362,1455.581446
3293.739393,1776.494261,-10732.986159,2451.505594
3293.739720,2368.659014,-10510.924376,153.219100
3293.740048,1332.370696,-9992.780217,0.000000
3293.740376,-740.205942,-9178.553681,-536.266849
3293.740703,-1776.494261,-8364.327145,-1455.581446
3293.741031,-666.185348,-10732.986159,-2221.676944
3293.741359,962.267725,-9474.636058,-2374.896044
3293.741687,666.185348,-9844.739029,-459.657299
3293.742014,148.041188,-11917.315666,1149.143247
3293.742342,740.205942,-11991.336260,-459.657299
3293.742670,592.164754,-11991.336260,-1532.190996
3293.742998,-148.041188,-9622.677246,-2145.067394
3293.743325,-1184.329507,-7920.203579,-1225.752797
3293.743653,-2442.679609,-9474.636058,0.000000
3293.743981,-1110.308913,-9400.615463,0.000000
3293.744309,0.000000,-9104.533087,-306.438199
3293.744636,962.267725,-10066.800811,306.438199
3293.744964,148.041188,-10807.006753,306.438199
3293.745292,-592.164754,-10658.965565,0.000000
3293.745620,-1036.288319,-8068.244768,306.438199
3293.745947,370.102971,-8956.491898,-383.047749
3293.746275,-518.144159,-8660.409521,459.657299
3293.746603,-740.205942,-9030.512492,1532.190996
3293.746930,-1258.350101,-8216.285956,1072.533697
3293.747258,740.205942,-9104.533087,153.219100
3293.747586,888.247130,-10140.821405,0.000000
3293.747914,888.247130,-8956.491898,-766.095498
3293.748241,-592.164754,-8882.471304,919.314598
3293.748569,-1406.391290,-8734.430116,229.828649
3293.748897,-370.102971,-8660.409521,-536.266849
3293.749225,1036.288319,-9548.656652,-459.657299
3293.749552,1850.514855,-9474.636058,0.000000
3293.749880,1776.494261,-10362.883188,1149.143247
3293.750208,1776.494261,-12287.418637,1915.238745
3293.750536,1332.370696,-9770.718434,-612.876398
3293.750863,1406.391290,-9030.512492,-1915.238745
3293.751191,1850.514855,-8586.388927,-2068.457845
3293.751519,74.020594,-9474.636058,536.266849
3293.751847,-962.267725,-9844.739029,1149.143247
3293.752174,-1480.411884,-10436.903782,0.000000
3293.752502,-592.164754,-11843.295072,-2451.505594
3293.752830,296.082377,-9622.677246,-3217.601092
3293.753158,666.185348,-11029.068536,-2145.067394
3293.753485,0.000000,-12287.418637,0.000000
3293.753813,1702.473667,-11325.150913,0.000000
3293.754141,3552.988522,-10362.883188,-1225.752797
3293.754468,1850.514855,-10066.800811,0.000000
3293.754796,0.000000,-9178.553681,1685.410096
3293.755124,-962.267725,-7105.977043,1378.971896
3293.755452,-1184.329507,-7846.182985,76.609550
3293.755779,-814.226536,-9622.677246,-536.266849
3293.756107,-370.102971,-8290.306550,-689.485948
3293.756435,-888.247130,-8660.409521,995.924147
3293.756763,-592.164754,-9474.636058,459.657299
3293.757090,666.185348,-10807.006753,-306.438199
3293.757418,1110.308913,-10362.883188,-1302.362347
3293.757746,1110.308913,-9622.677246,-229.828649
3293.758074,1110.308913,-9474.636058,1762.019645
3293.758401,888.247130,-8290.306550,2221.676944
3293.758729,1702.473667,-8068.244768,2911.162892
3293.759057,1406.391290,-8438.347739,1762.019645
3293.759385,-814.226536,-7624.121203,153.219100
3293.759712,-2738.761985,-11325.150913,-1302.362347
3293.760040,-2294.638420,-10955.047942,-2757.943793
3293.760368,-148.041188,-9400.615463,-2604.724693
3293.760695,1554.432478,-9400.615463,-1378.971896
3293.761023,2590.720797,-10658.965565,1072.533697
3293.761351,2516.700203,-12583.501014,2834.553343
3293.761679,2960.823768,-11103.089130,306.438199
3293.762006,1110.308913,-9400.615463,-229.828649
3293.762334,-666.185348,-8882.471304,-842.705048
3293.762662,-2072.576638,-7254.018232,-1455.581446
3293.762990,-2886.803174,-9548.656652,0.000000
3293.763317,-1184.329507,-10362.883188,-995.924147
3293.763645,444.123565,-11251.130318,-2451.505594
3293.763973,1628.453072,-11843.295072,-2145.067394
3293.764301,1406.391290,-9770.718434,-1915.238745
3293.764628,1036.288319,-11177.109724,-689.485948
3293.764956,-370.102971,-9622.677246,-229.828649
3293.765284,-740.205942,-8216.285956,229.828649
3293.765612,592.164754,-7402.059420,76.609550
3293.765939,1258.350101,-8586.388927,1225.752797
3293.766267,370.102971,-11251.130318,3294.210641
3293.766595,0.000000,-11029.068536,1685.410096
3293.766922,370.102971,-10214.842000,-1762.019645
3293.767250,0.000000,-9400.615463,-2834.553343
3293.767578,592.164754,-8660.409521,-2221.676944
3293.767906,370.102971,-9844.739029,383.047749
3293.768233,0.000000,-9622.677246,1302.362347
3293.768561,74.020594,-8586.388927,1225.752797
3293.768889,1258.350101,-8734.430116,766.095498
3293.769217,444.123565,-8586.388927,1532.190996
3293.769544,370.102971,-9400.615463,2145.067394
3293.769872,666.185348,-8882.471304,306.438199
3293.770200,1184.329507,-9918.759623,-1532.190996
3293.770528,888.247130,-9474.636058,-1838.629195
3293.770855,222.061783,-7772.162391,-766.095498
3293.771183,-592.164754,-9178.553681,1072.533697
3293.771511,222.061783,-11103.089130,0.000000
3293.771839,0.000000,-11029.068536,153.219100
3293.772166,-666.185348,-9474.636058,306.438199
3293.772494,-1184.329507,-8068.244768,-306.438199
3293.772822,-814.226536,-9992.780217,-689.485948
3293.773150,-740.205942,-9252.574275,-689.485948
3293.773477,1184.329507,-9696.697840,-1225.752797
3293.773805,1628.453072,-10436.903782,-689.485948
3293.774133,1776.494261,-10807.006753,919.314598
3293.774460,1850.514855,-10807.006753,689.485948
3293.774788,592.164754,-10881.027347,-229.828649
3293.775116,-1036.288319,-10510.924376,-919.314598
3293.775444,-1036.288319,-8586.388927,-2451.505594
3293.775771,-518.144159,-7994.224174,-1532.190996
3293.776099,-666.185348,-10066.800811,229.828649
3293.776427,222.061783,-9992.780217,995.924147
3293.776755,1924.535449,-9548.656652,306.438199
3293.777082,2590.720797,-10066.800811,0.000000
3293.777410,1628.453072,-10362.883188,459.657299
3293.777738,74.020594,-9178.553681,0.000000
3293.778066,-296.082377,-8734.430116,-612.876398
3293.778393,444.123565,-10140.821405,76.609550
3293.778721,1628.453072,-8734.430116,-229.828649
3293.779049,2220.617826,-7846.182985,1302.362347
3293.779377,1258.350101,-8586.388927,2374.896044
3293.779704,74.020594,-9918.759623,536.266849
3293.780032,-222.061783,-10955.047942,-2298.286494
3293.780360,0.000000,-9104.533087,-3524.039291
3293.780687,444.123565,-8364.327145,-1991.848295
3293.781015,1258.350101,-9030.512492,612.876398
3293.781343,1184.329507,-10214.842000,2834.553343
3293.781671,2072.576638,-10807.006753,1762.019645
3293.781998,2220.617826,-9400.615463,-306.438199
3293.782326,962.267725,-9474.636058,-689.485948
3293.782654,-1998.556043,-9918.759623,-766.095498
3293.782982,-3256.906145,-9400.615463,-689.485948
3293.783309,-1406.391290,-10066.800811,-1225.752797
3293.783637,666.185348,-10362.883188,-2681.334243
3293.783965,592.164754,-11917.315666,229.828649
3293.784293,370.102971,-10362.883188,1225.752797
3293.784620,74.020594,-9992.780217,1302.362347
3293.784948,444.123565,-11917.315666,0.000000
3293.785276,0.000000,-8734.430116,-1838.629195
3293.785604,-1628.453072,-7328.038826,-995.924147
3293.785931,-1480.411884,-8512.368333,229.828649
3293.786259,-740.205942,-10436.903782,306.438199
3293.786587,666.185348,-11473.192101,76.609550
3293.786915,518.144159,-10436.903782,-383.047749
3293.787242,814.226536,-10436.903782,-1149.143247
3293.787570,0.000000,-10066.800811,-689.485948
3293.787898,-1184.329507,-9474.636058,0.000000
3293.788225,0.000000,-9400.615463,-383.047749
3293.788553,-370.102971,-7179.997637,0.000000
3293.788881,-1702.473667,-7772.162391,1072.533697
3293.789209,-1184.329507,-9474.636058,1532.190996
3293.789536,0.000000,-9548.656652,0.000000
3293.789864,1628.453072,-9030.512492,-919.314598
3293.790192,1554.432478,-9548.656652,-766.095498
3293.790520,814.226536,-11177.109724,76.609550
3293.790847,74.020594,-9770.718434,306.438199
3293.791175,296.082377,-8882.471304,0.000000
3293.791503,814.226536,-9918.759623,-536.266849
3293.791831,1628.453072,-8882.471304,229.828649
3293.792158,0.000000,-9474.636058,1838.629195
3293.792486,-592.164754,-9474.636058,1378.971896
3293.792814,-888.247130,-10362.883188,-995.924147
3293.793142,222.061783,-9770.718434,-2757.943793
3293.793469,888.247130,-8068.244768,-2681.334243
3293.793797,518.144159,-9030.512492,-306.438199
3293.794125,0.000000,-9992.780217,1762.019645
3293.794452,1406.391290,-11251.130318,1072.533697
3293.794780,3404.947333,-11325.150913,-842.705048
3293.795108,1850.514855,-10066.800811,-612.876398
3293.795436,0.000000,-9548.656652,1149.143247
3293.795763,-1480.411884,-8438.347739,229.828649
3293.796091,-814.226536,-8586.388927,-842.705048
3293.796419,-370.102971,-9252.574275,-1378.971896
3293.796747,0.000000,-8882.471304,-995.924147
3293.797074,814.226536,-10214.842000,459.657299
3293.797402,962.267725,-11103.089130,306.438199
3293.797730,1628.453072,-11029.068536,0.000000
3293.798058,296.082377,-9178.553681,-306.438199
3293.798385,740.205942,-8956.491898,-306.438199
3293.798713,1628.453072,-9844.739029,1378.971896
3293.799041,1110.308913,-9326.594869,1532.190996
3293.799369,1184.329507,-8512.368333,1225.752797
3293.799696,666.185348,-10066.800811,0.000000
3293.800024,296.082377,-10584.944971,-612.876398
3293.800351,296.082377,-10955.047942,-612.876398
3293.800679,-740.205942,-9326.594869,-612.876398
3293.801007,-370.102971,-9474.636058,-1378.971896
3293.801334,1110.308913,-10362.883188,-536.266849
3293.801662,1924.535449,-9918.759623,0.000000
3293.801990,1480.411884,-10140.821405,1532.190996
3293.802317,222.061783,-9178.553681,1378.971896
3293.802645,0.000000,-9400.615463,536.266849
3293.802972,222.061783,-9252.574275,-1378.971896
3293.803300,-444.123565,-7994.224174,-1302.362347
3293.803628,-962.267725,-10214.842000,0.000000
3293.803955,-1110.308913,-11029.068536,0.000000
3293.804283,222.061783,-10510.924376,-1225.752797
3293.804610,-148.041188,-9622.677246,-1302.362347
3293.804938,0.000000,-9400.615463,-536.266849
3293.805266,-592.164754,-10362.883188,0.000000
3293.805593,-814.226536,-8438.347739,0.000000
3293.805921,-148.041188,-9178.553681,-383.047749
3293.806249,1184.329507,-10140.821405,-842.705048
3293.806576,888.247130,-9252.574275,76.609550
3293.806904,-370.102971,-9992.780217,1225.752797
3293.807231,-148.041188,-9696.697840,995.924147
3293.807559,-296.082377,-9400.615463,-612.876398
3293.807887,148.041188,-9844.739029,-1991.848295
3293.808214,-518.144159,-9474.636058,-842.705048
3293.808542,-814.226536,-10140.821405,0.000000
3293.808870,-296.082377,-9770.718434,-459.657299
3293.809197,222.061783,-10436.903782,-536.266849
3293.809525,814.226536,-9326.594869,-306.438199
3293.809852,1036.288319,-7994.224174,459.657299
3293.810180,1332.370696,-9400.615463,1762.019645
3293.810508,1110.308913,-9622.677246,612.876398
3293.810835,888.247130,-9474.636058,229.828649
3293.811163,592.164754,-8290.306550,0.000000
3293.811491,-222.061783,-8068.244768,153.219100
3293.811818,444.123565,-10584.944971,-689.485948
3293.812146,-296.082377,-9178.553681,-306.438199
3293.812473,74.020594,-9474.636058,229.828649
3293.812801,222.061783,-10140.821405,-842.705048
3293.813129,222.061783,-10436.903782,-1378.971896
3293.813456,0.000000,-9844.739029,-612.876398
3293.813784,888.247130,-8512.368333,-689.485948
3293.814112,1406.391290,-10066.800811,1838.629195
3293.814439,1702.473667,-10436.903782,1455.581446
3293.814767,1776.494261,-9104.533087,766.095498
3293.815094,1480.411884,-10881.027347,-612.876398
3293.815422,0.000000,-10436.903782,-1302.362347
3293.815750,-814.226536,-9474.636058,-1302.362347
3293.816077,-666.185348,-7994.224174,-1991.848295
3293.816405,-222.061783,-9252.574275,-153.219100
3293.816732,-296.082377,-10807.006753,766.095498
3293.817060,444.123565,-9400.615463,459.657299
3293.817388,1110.308913,-10881.027347,229.828649
3293.817715,1184.329507,-10955.047942,-536.266849
3293.818043,888.247130,-9326.594869,-612.876398
3293.818371,0.000000,-9474.636058,153.219100
3293.818698,148.041188,-8438.347739,689.485948
3293.819026,1480.411884,-8808.450710,612.876398
3293.819353,1924.535449,-8512.368333,229.828649
3293.819681,-148.041188,-10140.821405,1302.362347
3293.820009,-1332.370696,-11473.192101,689.485948
3293.820336,148.041188,-10584.944971,-1608.800546
3293.820664,148.041188,-9992.780217,-1762.019645
3293.820992,74.020594,-8586.388927,-1072.533697
3293.821319,592.164754,-8956.491898,919.314598
3293.821647,1776.494261,-10436.903782,2298.286494
3293.821974,1036.288319,-9474.636058,1072.533697
3293.822302,444.123565,-8734.430116,-536.266849
3293.822630,-518.144159,-8882.471304,-1149.143247
3293.822957,-592.164754,-9844.739029,-919.314598
3293.823285,-222.061783,-9992.780217,-459.657299
3293.823613,-1184.329507,-9622.677246,0.000000
3293.823940,-444.123565,-10732.986159,153.219100
3293.824268,592.164754,-9622.677246,-1532.190996
3293.824595,1036.288319,-9992.780217,-1072.533697
3293.824923,0.000000,-10955.047942,153.219100
3293.825251,0.000000,-9696.697840,0.000000
3293.825578,740.205942,-7920.203579,-1532.190996
3293.825906,518.144159,-8216.285956,-536.266849
3293.826233,-296.082377,-8956.491898,1532.190996
3293.826561,-518.144159,-9474.636058,1838.629195
3293.826889,0.000000,-9992.780217,-153.219100
3293.827216,148.041188,-11399.171507,-1838.629195
3293.827544,592.164754,-8882.471304,-2298.286494
3293.827872,0.000000,-8956.491898,-153.219100
3293.828199,0.000000,-11029.068536,1532.190996
3293.828527,888.247130,-9696.697840,153.219100
3293.828854,1110.308913,-9326.594869,-1532.190996
3293.829182,666.185348,-8956.491898,-612.876398
3293.829510,1036.288319,-10140.821405,383.047749
3293.829837,296.082377,-9844.739029,1455.581446
3293.830165,0.000000,-8660.409521,1378.971896
3293.830493,222.061783,-9104.533087,-995.924147
3293.830820,0.000000,-8956.491898,-1378.971896
3293.831148,518.144159,-9992.780217,-383.047749
3293.831475,222.061783,-10955.047942,689.485948
3293.831803,444.123565,-10732.986159,-306.438199
3293.832131,1480.411884,-9844.739029,-1532.190996
3293.832458,296.082377,-8068.244768,306.438199
3293.832786,0.000000,-9770.718434,2145.067394
3293.833114,-370.102971,-9844.739029,229.828649
3293.833441,-592.164754,-9030.512492,0.000000
3293.833769,1554.432478,-9252.574275,-2068.457845
3293.834096,1702.473667,-9178.553681,-1149.143247
3293.834424,74.020594,-11473.192101,3217.601092
3293.834752,962.267725,-9770.718434,1838.629195
3293.835079,1036.288319,-9030.512492,-995.924147
3293.835407,1258.350101,-10214.842000,-2604.724693
3293.835735,518.144159,-8808.450710,-2451.505594
3293.836062,296.082377,-8882.471304,919.314598
3293.836390,148.041188,-7698.141797,2145.067394
3293.836717,0.000000,-9400.615463,2145.067394
3293.837045,592.164754,-10288.862594,2145.067394
3293.837373,962.267725,-9030.512492,0.000000
3293.837700,0.000000,-10436.903782,-1072.533697
3293.838028,-740.205942,-9844.739029,-2068.457845
3293.838355,-814.226536,-9696.697840,-2681.334243
3293.838683,444.123565,-10362.883188,-1915.238745
3293.839011,1036.288319,-8882.471304,-766.095498
3293.839338,2220.617826,-9918.759623,2451.505594
3293.839666,0.000000,-9770.718434,3370.820191
3293.839994,-148.041188,-10584.944971,919.314598
3293.840321,0.000000,-10362.883188,-2221.676944
3293.840649,-222.061783,-9770.718434,-2451.505594
3293.840976,-222.061783,-9770.718434,-766.095498
3293.841304,-814.226536,-9400.615463,0.000000
3293.841632,-222.061783,-9474.636058,766.095498
3293.841959,1702.473667,-10066.800811,-612.876398
3293.842287,1110.308913,-10732.986159,-1225.752797
3293.842615,0.000000,-10658.965565,459.657299
3293.842942,74.020594,-8882.471304,306.438199
3293.843270,74.020594,-9252.574275,689.485948
3293.843597,444.123565,-9622.677246,383.047749
3293.843925,-666.185348,-8586.388927,689.485948
3293.844253,-592.164754,-9844.739029,766.095498
3293.844580,148.041188,-10066.800811,-1149.143247
3293.844908,-222.061783,-10214.842000,-1608.800546
3293.845236,0.000000,-10214.842000,-1302.362347
3293.845563,-148.041188,-8068.244768,-1302.362347
3293.845891,0.000000,-9326.594869,76.609550
3293.846218,370.102971,-9104.533087,766.095498
3293.846546,-370.102971,-8882.471304,1915.238745
3293.846874,148.041188,-9622.677246,1685.410096
3293.847201,1184.329507,-9252.574275,0.000000
3293.847529,740.205942,-10732.986159,-383.047749
3293.847856,-740.205942,-9178.553681,76.609550
3293.848184,0.000000,-9178.553681,-689.485948
3293.848512,888.247130,-9474.636058,-1915.238745
3293.848839,1110.308913,-9622.677246,-1225.752797
3293.849167,-740.205942,-9474.636058,76.609550
3293.849495,-444.123565,-9770.718434,459.657299
3293.849822,592.164754,-11103.089130,536.266849
3293.850150,1036.288319,-10140.821405,0.000000
3293.850477,592.164754,-8808.450710,-306.438199
3293.850805,74.020594,-10584.944971,-229.828649
3293.851133,-296.082377,-10288.862594,-612.876398
3293.851460,1554.432478,-9400.615463,-995.924147
3293.851788,1406.391290,-9474.636058,-1532.190996
3293.852116,1406.391290,-10140.821405,-536.266849
3293.852443,148.041188,-9992.780217,1685.410096
3293.852771,-888.247130,-9252.574275,919.314598
3293.853098,-1110.308913,-11399.171507,-383.047749
3293.853426,74.020594,-10362.883188,-1685.410096
3293.853754,74.020594,-7772.162391,-1532.190996
3293.854081,518.144159,-9696.697840,306.438199
3293.854409,1036.288319,-11103.089130,1455.581446
3293.854737,2738.761985,-10658.965565,1302.362347
3293.855064,2294.638420,-9326.594869,-383.047749
3293.855392,814.226536,-8956.491898,-383.047749
3293.855719,-666.185348,-9844.739029,-536.266849
3293.856047,-1258.350101,-8512.368333,-459.657299
3293.856375,-444.123565,-8438.347739,306.438199
3293.856702,0.000000,-8660.409521,306.438199
3293.857030,1184.329507,-8882.471304,1302.362347
3293.857358,1554.432478,-10436.903782,1915.238745
3293.857685,148.041188,-10436.903782,306.438199
3293.858013,0.000000,-10807.006753,-1378.971896
3293.858340,370.102971,-8734.430116,-2911.162892
3293.858668,-222.061783,-8512.368333,-2451.505594
3293.858996,0.000000,-9918.759623,229.828649
3293.859323,1110.308913,-9030.512492,1762.019645
3293.859651,1924.535449,-9622.677246,2221.676944
3293.859978,0.000000,-10584.944971,612.876398
3293.860306,-1110.308913,-10066.800811,-1072.533697
3293.860634,-1110.308913,-10140.821405,-1838.629195
3293.860961,-296.082377,-9696.697840,-2221.676944
3293.861289,0.000000,-10732.986159,-1455.581446
3293.861617,740.205942,-10436.903782,-612.876398
3293.861944,2294.638420,-10732.986159,0.000000
3293.862272,2516.700203,-10955.047942,536.266849
3293.862599,740.205942,-9548.656652,306.438199
3293.862927,-1554.432478,-9770.718434,383.047749
3293.863255,-962.267725,-8364.327145,-1225.752797
3293.863582,148.041188,-9030.512492,-1072.533697
3293.863910,-962.267725,-10436.903782,459.657299
3293.864238,-1406.391290,-10510.924376,766.095498
3293.864565,518.144159,-9992.780217,-1149.143247
3293.864893,1406.391290,-10214.842000,-3140.991542
3293.865220,0.000000,-11325.150913,-1302.362347
3293.865548,-666.185348,-9918.759623,76.609550
3293.865876,-962.267725,-7031.956449,0.000000
3293.866203,444.123565,-8068.244768,1072.533697
3293.866531,444.123565,-7846.182985,1608.800546
3293.866859,222.061783,-9178.553681,2987.772442
3293.867186,74.020594,-9918.759623,1838.629195
3293.867514,0.000000,-9474.636058,-1455.581446
3293.867841,814.226536,-10140.821405,-2374.896044
3293.868169,1406.391290,-9400.615463,-2221.676944
3293.868497,1110.308913,-9770.718434,-153.219100
3293.868824,814.226536,-10362.883188,1608.800546
3293.869152,518.144159,-10436.903782,919.314598
3293.869479,1110.308913,-11029.068536,536.266849
3293.869807,666.185348,-7846.182985,0.000000
3293.870135,-444.123565,-7550.100608,383.047749
3293.870462,-1110.308913,-9696.697840,306.438199
3293.870790,-444.123565,-10288.862594,-1455.581446
3293.871118,0.000000,-9992.780217,-2298.286494
3293.871445,0.000000,-8512.368333,-1915.238745
3293.871773,962.267725,-10436.903782,0.000000
3293.872100,814.226536,-11547.212695,229.828649
3293.872428,0.000000,-9622.677246,1608.800546
3293.872756,0.000000,-9770.718434,919.314598
3293.873083,0.000000,-10214.842000,-1378.971896
3293.873411,-888.247130,-10066.800811,-1915.238745
3293.873739,-444.123565,-8586.388927,-1838.629195
3293.874066,222.061783,-9252.574275,-1225.752797
3293.874394,2220.617826,-11843.295072,689.485948
3293.874721,2294.638420,-10955.047942,689.485948
3293.875049,1998.556043,-10732.986159,612.876398
3293.875377,1184.329507,-11029.068536,-536.266849
3293.875704,222.061783,-9400.615463,-1455.581446
3293.876032,-1406.391290,-8364.327145,-1378.971896
3293.876360,-1702.473667,-6291.750507,-919.314598
3293.876687,-666.185348,-7402.059420,766.095498
3293.877015,0.000000,-9992.780217,2681.334243
3293.877342,2146.597232,-10510.924376,1762.019645
3293.877670,3478.967927,-10436.903782,-153.219100
3293.877998,1406.391290,-8882.471304,0.000000
3293.878325,222.061783,-8956.491898,-842.705048
3293.878653,-1480.411884,-8734.430116,-229.828649
3293.878980,-1332.370696,-8956.491898,-229.828649
3293.879308,-148.041188,-7698.141797,76.609550
3293.879636,1184.329507,-7846.182985,842.705048
3293.879963,814.226536,-9918.759623,1532.190996
3293.880291,-370.102971,-12509.480420,153.219100
3293.880619,-296.082377,-11325.150913,-1225.752797
3293.880946,1332.370696,-10140.821405,-2757.943793
3293.881274,1406.391290,-7031.956449,-2604.724693
3293.881601,1036.288319,-10214.842000,306.438199
3293.881929,370.102971,-12065.356855,2374.896044
3293.882257,518.144159,-10732.986159,1225.752797
3293.882584,888.247130,-8808.450710,-1455.581446
3293.882912,888.247130,-8734.430116,-3370.820191
3293.883240,0.000000,-11547.212695,-153.219100
3293.883567,-1480.411884,-10214.842000,1225.752797
3293.883895,-1110.308913,-8068.244768,-383.047749
3293.884222,962.267725,-10066.800811,-1838.629195
3293.884550,2368.659014,-10658.965565,-995.924147
3293.884878,370.102971,-11843.295072,1608.800546
3293.885205,-1998.556043,-10658.965565,1685.410096
3293.885533,0.000000,-9474.636058,-2298.286494
3293.885861,296.082377,-9696.697840,-4443.353888
3293.886188,-1184.329507,-8734.430116,-1762.019645
3293.886516,-2146.597232,-8364.327145,1915.238745
3293.886843,-1406.391290,-8438.347739,2911.162892
3293.887171,1406.391290,-9622.677246,76.609550
3293.887499,2072.576638,-11621.233289,-2374.896044
3293.887826,888.247130,-9918.759623,-842.705048
3293.888154,740.205942,-7179.997637,1762.019645
3293.888482,666.185348,-8586.388927,1149.143247
3293.888809,444.123565,-10066.800811,153.219100
3293.889137,74.020594,-9474.636058,-306.438199
3293.889464,-666.185348,-7550.100608,1149.143247
3293.889792,0.000000,-8808.450710,2298.286494
3293.890120,814.226536,-9400.615463,0.000000
3293.890447,222.061783,-9474.636058,-1149.143247
3293.890775,-296.082377,-9918.759623,-1302.362347
3293.891102,-444.123565,-9474.636058,-1225.752797
3293.891430,592.164754,-9844.739029,-689.485948
3293.891758,518.144159,-10362.883188,-612.876398
3293.892085,1110.308913,-11177.109724,0.000000
3293.892413,1406.391290,-10881.027347,306.438199
3293.892741,814.226536,-8734.430116,1072.533697
3293.893068,-1628.453072,-10288.862594,919.314598
3293.893396,-1776.494261,-11325.150913,-1762.019645
3293.893723,-962.267725,-9622.677246,-4060.306139
3293.894051,0.000000,-8882.471304,-4213.525239
3293.894379,592.164754,-10807.006753,-1225.752797
3293.894706,3034.844362,-13841.851115,1915.238745
3293.895034,2442.679609,-11103.089130,1762.019645
3293.895362,1776.494261,-10658.965565,1225.752797
3293.895689,222.061783,-9844.739029,-306.438199
3293.896017,-222.061783,-8068.244768,-1838.629195
3293.896344,-888.247130,-8216.285956,-1072.533697
3293.896672,-1406.391290,-6735.874072,0.000000
3293.897000,-740.205942,-7550.100608,842.705048
3293.897327,1036.288319,-10584.944971,1302.362347
3293.897655,3552.988522,-11473.192101,919.314598
3293.897983,2590.720797,-10807.006753,536.266849
3293.898310,444.123565,-9030.512492,536.266849
3293.898638,-222.061783,-8660.409521,0.000000
3293.898965,0.000000,-8586.388927,0.000000
3293.899293,1554.432478,-7031.956449,229.828649
3293.899621,1554.432478,-7179.997637,2145.067394
3293.899948,-296.082377,-8882.471304,2374.896044
3293.900276,-1110.308913,-11103.089130,306.438199
3293.900603,-592.164754,-11251.130318,-3140.991542
3293.900931,296.082377,-9474.636058,-3830.477490
3293.901259,370.102971,-9918.759623,-1378.971896
3293.901586,74.020594,-10362.883188,459.657299
3293.901914,888.247130,-11251.130318,1762.019645
3293.902241,2072.576638,-10288.862594,306.438199
3293.902569,1332.370696,-9696.697840,-842.705048
3293.902896,0.000000,-10732.986159,-536.266849
3293.903224,-1924.535449,-8068.244768,-612.876398
3293.903551,-518.144159,-8882.471304,-919.314598
3293.903879,0.000000,-10066.800811,-2145.067394
3293.904206,148.041188,-11843.295072,-842.705048
3293.904534,1332.370696,-12879.583391,-153.219100
3293.904862,1184.329507,-10732.986159,0.000000
3293.905189,370.102971,-11325.150913,-383.047749
3293.905517,-592.164754,-10288.862594,-1532.190996
3293.905844,-740.205942,-8734.430116,-1915.238745
3293.906172,-1184.329507,-9252.574275,-612.876398
3293.906499,-666.185348,-9252.574275,0.000000
3293.906827,0.000000,-9252.574275,383.047749
3293.907154,1406.391290,-9030.512492,0.000000
3293.907482,666.185348,-9400.615463,-689.485948
3293.907809,-222.061783,-10584.944971,383.047749
3293.908137,0.000000,-8808.450710,612.876398
3293.908464,1036.288319,-8290.306550,76.609550
3293.908792,888.247130,-8586.388927,0.000000
3293.909120,0.000000,-10066.800811,1149.143247
3293.909447,74.020594,-10214.842000,1455.581446
3293.909775,0.000000,-8660.409521,536.266849
3293.910102,1110.308913,-8586.388927,-919.314598
3293.910430,0.000000,-9770.718434,-612.876398
3293.910757,0.000000,-9696.697840,689.485948
3293.911085,-518.144159,-9622.677246,0.000000
3293.911412,-444.123565,-8660.409521,76.609550
3293.911740,0.000000,-8882.471304,0.000000
3293.912067,370.102971,-9030.512492,-459.657299
3293.912395,962.267725,-9474.636058,229.828649
3293.912722,518.144159,-10510.924376,689.485948
3293.913050,-962.267725,-10066.800811,-842.705048
3293.913378,-444.123565,-11251.130318,-1378.971896
3293.913705,0.000000,-9252.574275,-3600.648841
3293.914033,962.267725,-9474.636058,-2528.115143
3293.914360,888.247130,-11621.233289,689.485948
3293.914688,1332.370696,-12213.398043,1608.800546
3293.915015,2516.700203,-10584.944971,1302.362347
3293.915343,2220.617826,-9400.615463,-919.314598
3293.915670,-296.082377,-9474.636058,-689.485948
3293.915998,-2072.576638,-10584.944971,-306.438199
3293.916325,-1850.514855,-7550.100608,-1762.019645
3293.916653,0.000000,-7846.182985,-2604.724693
3293.916980,444.123565,-9918.759623,-536.266849
3293.917308,1702.473667,-11695.253884,2298.286494
3293.917636,2294.638420,-11399.171507,2451.505594
3293.917963,1850.514855,-8438.347739,1378.971896
3293.918291,2294.638420,-9474.636058,0.000000
3293.918618,592.164754,-8660.409521,229.828649
3293.918946,222.061783,-7920.203579,919.314598
3293.919273,370.102971,-7698.141797,1302.362347
3293.919601,888.247130,-7772.162391,1149.143247
3293.919928,592.164754,-9030.512492,612.876398
3293.920256,-2294.638420,-9770.718434,842.705048
3293.920583,-3108.864956,-11029.068536,-459.657299
3293.920911,-592.164754,-10066.800811,-4136.915689
3293.921238,0.000000,-8512.368333,-2757.943793
3293.921566,1036.288319,-9844.739029,842.705048
3293.921894,814.226536,-9326.594869,3217.601092
3293.922221,1998.556043,-9844.739029,3294.210641
3293.922549,1110.308913,-11843.295072,689.485948
3293.922876,-444.123565,-9770.718434,-2374.896044
3293.923204,-1184.329507,-9104.533087,-3370.820191
3293.923531,-814.226536,-9326.594869,-2604.724693
3293.923859,-592.164754,-10881.027347,0.000000
3293.924186,666.185348,-11325.150913,76.609550
3293.924514,1110.308913,-11029.068536,689.485948
3293.924841,1036.288319,-12065.356855,919.314598
3293.925169,0.000000,-9400.615463,-383.047749
3293.925496,-888.247130,-7772.162391,-1225.752797
3293.925824,-1332.370696,-9178.553681,-1532.190996
3293.926152,-740.205942,-10658.965565,-1838.629195
3293.926479,-370.102971,-12509.480420,-536.266849
3293.926807,74.020594,-8956.491898,0.000000
3293.927134,1184.329507,-9400.615463,76.609550
3293.927462,518.144159,-10732.986159,-842.705048
3293.927789,-1776.494261,-9770.718434,-1072.533697
3293.928117,-1184.329507,-8586.388927,-612.876398
3293.928444,444.123565,-7254.018232,-536.266849
3293.928772,2442.679609,-10584.944971,1225.752797
3293.929099,1110.308913,-10140.821405,2298.286494
3293.929427,740.205942,-9030.512492,1378.971896
3293.929754,1776.494261,-8290.306550,-229.828649
3293.930082,2738.761985,-8660.409521,-2374.896044
3293.930410,1184.329507,-10214.842000,-536.266849
3293.930737,-370.102971,-9548.656652,612.876398
3293.931065,-888.247130,-8586.388927,842.705048
3293.931392,518.144159,-10658.965565,0.000000
3293.931720,222.061783,-9548.656652,-919.314598
3293.932047,-814.226536,-10362.883188,536.266849
3293.932375,-296.082377,-9400.615463,0.000000
3293.932702,1924.535449,-9252.574275,-1378.971896
3293.933030,3404.947333,-10807.006753,-1455.581446
3293.933357,2368.659014,-9770.718434,-995.924147
3293.933685,2590.720797,-9474.636058,1608.800546
3293.934012,666.185348,-8364.327145,1532.190996
3293.934340,444.123565,-9844.739029,536.266849
3293.934667,-1258.350101,-11251.130318,0.000000
3293.934995,-1850.514855,-10140.821405,-1915.238745
3293.935323,0.000000,-10584.944971,-2298.286494
3293.935650,1184.329507,-11769.274478,-1991.848295
3293.935978,1258.350101,-11399.171507,-1225.752797
3293.936305,1258.350101,-11621.233289,0.000000
3293.936633,1406.391290,-9474.636058,-459.657299
3293.936960,1036.288319,-9474.636058,0.000000
3293.937288,-518.144159,-10066.800811,0.000000
3293.937615,-1480.411884,-8734.430116,612.876398
3293.937943,-1184.329507,-8290.306550,0.000000
3293.938270,-1110.308913,-7920.203579,-1149.143247
3293.938598,-592.164754,-9400.615463,459.657299
3293.938925,-148.041188,-10584.944971,919.314598
3293.939253,1776.494261,-10140.821405,153.219100
3293.939581,1998.556043,-10362.883188,-1149.143247
3293.939908,1850.514855,-10362.883188,-383.047749
3293.940236,296.082377,-9178.553681,842.705048
3293.940563,-444.123565,-8068.244768,536.266849
3293.940891,-740.205942,-7846.182985,919.314598
3293.941218,74.020594,-8364.327145,1455.581446
3293.941546,814.226536,-7624.121203,995.924147
3293.941873,0.000000,-9474.636058,842.705048
3293.942201,-3034.844362,-9844.739029,383.047749
3293.942528,-962.267725,-8956.491898,-2757.943793
3293.942856,1036.288319,-10881.027347,-3600.648841
3293.943183,2590.720797,-11843.295072,-1685.410096
3293.943511,2516.700203,-11547.212695,995.924147
3293.943839,2368.659014,-11399.171507,2068.457845
3293.944166,2590.720797,-10436.903782,995.924147
3293.944494,1406.391290,-10362.883188,-153.219100
3293.944821,-962.267725,-7846.182985,-383.047749
3293.945149,-2368.659014,-8142.265362,-919.314598
3293.945476,-2294.638420,-9474.636058,-1685.410096
3293.945804,-370.102971,-10362.883188,-1838.629195
3293.946131,888.247130,-11177.109724,-1302.362347
3293.946459,1776.494261,-11769.274478,0.000000
3293.946786,1850.514855,-12805.562797,383.047749
3293.947114,666.185348,-11325.150913,-766.095498
3293.947441,740.205942,-9474.636058,-1532.190996
3293.947769,148.041188,-7920.203579,-2068.457845
3293.948097,-592.164754,-8142.265362,536.266849
3293.948424,-740.205942,-9992.780217,2145.067394
3293.948752,-518.144159,-9622.677246,1302.362347
3293.949079,666.185348,-9548.656652,-459.657299
3293.949407,74.020594,-9400.615463,-2374.896044
3293.949734,-296.082377,-9104.533087,-1762.019645
3293.950062,0.000000,-9696.697840,-229.828649
3293.950389,814.226536,-8882.471304,229.828649
3293.950717,666.185348,-9474.636058,1149.143247
3293.951044,0.000000,-9104.533087,1608.800546
3293.951372,814.226536,-8956.491898,1838.629195
3293.951699,666.185348,-9992.780217,1838.629195
3293.952027,74.020594,-9030.512492,459.657299
3293.952355,-592.164754,-8216.285956,-919.314598
3293.952682,0.000000,-8364.327145,-1455.581446
3293.953010,296.082377,-9474.636058,-1072.533697
3293.953337,-296.082377,-11695.253884,76.609550
3293.953665,74.020594,-10732.986159,536.266849
3293.953992,1628.453072,-10214.842000,-842.705048
3293.954320,2442.679609,-8660.409521,-1455.581446
3293.954647,1406.391290,-9178.553681,536.266849
3293.954975,-1184.329507,-10658.965565,2987.772442
3293.955302,-1850.514855,-9030.512492,1225.752797
3293.955630,0.000000,-8290.306550,-2681.334243
3293.955957,888.247130,-8586.388927,-4213.525239
3293.956285,-148.041188,-10807.006753,-1302.362347
3293.956613,0.000000,-12731.542202,2068.457845
3293.956940,1480.411884,-11473.192101,0.000000
3293.957268,222.061783,-11177.109724,-2068.457845
3293.957595,-370.102971,-11029.068536,-1762.019645
3293.957923,-1924.535449,-8956.491898,-766.095498
3293.958250,-1702.473667,-9178.553681,306.438199
3293.958578,74.020594,-8586.388927,-153.219100
3293.958905,1036.288319,-8734.430116,-306.438199
3293.959233,1110.308913,-8142.265362,1455.581446
3293.959560,1332.370696,-9104.533087,2681.334243
3293.959888,962.267725,-11325.150913,1762.019645
3293.960215,296.082377,-10881.027347,-383.047749
3293.960543,0.000000,-8512.368333,-2145.067394
3293.960871,-962.267725,-7698.141797,-1608.800546
3293.961198,0.000000,-9474.636058,536.266849
3293.961526,518.144159,-10955.047942,2451.505594
3293.961853,1184.329507,-7476.080014,2528.115143
3293.962181,2146.597232,-7031.956449,-306.438199
3293.962508,518.144159,-9548.656652,-1225.752797
3293.962836,-1258.350101,-9474.636058,-689.485948
3293.963163,296.082377,-9992.780217,-919.314598
3293.963491,1184.329507,-9178.553681,-229.828649
3293.963818,2886.803174,-10732.986159,766.095498
3293.964146,2516.700203,-11547.212695,1225.752797
3293.964473,2738.761985,-10881.027347,1991.848295
3293.964801,1998.556043,-10584.944971,-612.876398
3293.965128,518.144159,-10066.800811,-2145.067394
3293.965456,-888.247130,-8216.285956,-1608.800546
3293.965784,-592.164754,-7846.182985,-1072.533697
3293.966111,-444.123565,-10288.862594,766.095498
3293.966439,-296.082377,-11991.336260,766.095498
3293.966766,-370.102971,-11251.130318,-383.047749
3293.967094,1480.411884,-11177.109724,-1991.848295
3293.967421,1776.494261,-11325.150913,-1915.238745
3293.967749,-148.041188,-12139.377449,-536.266849
3293.968076,-1406.391290,-9474.636058,-612.876398
3293.968404,-962.267725,-7920.203579,-1991.848295
3293.968731,-962.267725,-9844.739029,-1762.019645
3293.969059,-1036.288319,-10066.800811,612.876398
3293.969386,-1332.370696,-10066.800811,2374.896044
3293.969714,-740.205942,-9770.718434,459.657299
3293.970042,666.185348,-9104.533087,-1838.629195
3293.970369,1184.329507,-9696.697840,-1225.752797
3293.970697,296.082377,-7402.059420,766.095498
3293.971024,666.185348,-7179.997637,2145.067394
3293.971352,0.000000,-8586.388927,1455.581446
3293.971679,0.000000,-9474.636058,306.438199
3293.972007,74.020594,-9622.677246,-459.657299
3293.972334,296.082377,-8512.368333,-229.828649
3293.972662,370.102971,-9696.697840,1378.971896
3293.972989,0.000000,-10881.027347,459.657299
3293.973317,-370.102971,-8808.450710,-1991.848295
3293.973644,-296.082377,-9326.594869,-1149.143247
3293.973972,-370.102971,-9252.574275,-689.485948
3293.974300,-370.102971,-10732.986159,612.876398
3293.974627,222.061783,-9104.533087,153.219100
3293.974955,1258.350101,-8438.347739,-1225.752797
3293.975282,962.267725,-9918.759623,536.266849
3293.975610,-148.041188,-10510.924376,612.876398
3293.975937,-666.185348,-11029.068536,0.000000
3293.976265,148.041188,-10214.842000,-2374.896044
3293.976592,666.185348,-9844.739029,-2757.943793
3293.976920,518.144159,-11547.212695,-919.314598
3293.977247,888.247130,-10807.006753,842.705048
3293.977575,2072.576638,-11843.295072,919.314598
3293.977902,1184.329507,-10732.986159,-536.266849
3293.978230,518.144159,-9474.636058,-1302.362347
3293.978558,296.082377,-9400.615463,-1991.848295
3293.978885,0.000000,-7846.182985,-1532.190996
3293.979213,-296.082377,-9326.594869,689.485948
3293.979540,0.000000,-8956.491898,306.438199
3293.979868,2294.638420,-9326.594869,383.047749
3293.980195,3627.009116,-11473.192101,919.314598
3293.980523,3034.844362,-10584.944971,1149.143247
3293.980850,1924.535449,-9918.759623,1532.190996
3293.981178,592.164754,-8364.327145,306.438199
3293.981505,148.041188,-7105.977043,-689.485948
3293.981833,0.000000,-8882.471304,0.000000
3293.982160,148.041188,-7994.224174,2221.676944
3293.982488,1110.308913,-8586.388927,2068.457845
3293.982816,-1184.329507,-9400.615463,536.266849
3293.983143,-2294.638420,-10584.944971,-1378.971896
3293.983471,-518.144159,-9548.656652,-2911.162892
3293.983798,666.185348,-8734.430116,-1685.410096
3293.984126,2146.597232,-10436.903782,536.266849
3293.984453,1850.514855,-12213.398043,2145.067394
3293.984781,2738.761985,-9252.574275,919.314598
3293.985108,2960.823768,-8512.368333,-536.266849
3293.985436,666.185348,-9474.636058,306.438199
3293.985763,-1036.288319,-9918.759623,1072.533697
3293.986091,-2368.659014,-8956.491898,-306.438199
3293.986418,-1258.350101,-9252.574275,-1608.800546
3293.986746,-1480.411884,-10658.965565,-3217.601092
3293.987074,148.041188,-10732.986159,-1072.533697
3293.987401,1554.432478,-12509.480420,0.000000
3293.987729,1110.308913,-12213.398043,-229.828649
3293.988056,888.247130,-11325.150913,-1149.143247
3293.988384,444.123565,-9030.512492,-1838.629195
3293.988711,-666.185348,-7994.224174,-1455.581446
3293.989039,-1628.453072,-9992.780217,153.219100
3293.989366,-2960.823768,-8586.388927,1608.800546
3293.989694,-962.267725,-9400.615463,-536.266849
3293.990021,-666.185348,-10140.821405,-1608.800546
3293.990349,370.102971,-9844.739029,-2145.067394
3293.990676,-444.123565,-9844.739029,-536.266849
3293.991004,-1184.329507,-9030.512492,842.705048
3293.991332,1184.329507,-9474.636058,153.219100
3293.991659,1110.308913,-9918.759623,-1225.752797
3293.991987,444.123565,-9104.533087,1302.362347
3293.992314,-370.102971,-9252.574275,2451.505594
3293.992642,0.000000,-8068.244768,1685.410096
3293.992969,962.267725,-9326.594869,306.438199
3293.993297,0.000000,-9252.574275,-306.438199
3293.993624,-888.247130,-8216.285956,0.000000
3293.993952,-962.267725,-9252.574275,0.000000
3293.994279,-740.205942,-9696.697840,-536.266849
3293.994607,370.102971,-10584.944971,-1762.019645
3293.994934,962.267725,-9252.574275,-2068.457845
3293.995262,2146.597232,-8956.491898,-383.047749
3293.995590,1850.514855,-10584.944971,2374.896044
3293.995917,1332.370696,-9252.574275,2374.896044
3293.996245,444.123565,-10066.800811,1915.238745
3293.996572,148.041188,-8956.491898,-1225.752797
3293.996900,740.205942,-8142.265362,-2528.115143
3293.997227,-814.226536,-10658.965565,-536.266849
3293.997555,0.000000,-11399.171507,0.000000
3293.997882,2590.720797,-11103.089130,-1532.190996
3293.998210,1998.556043,-10658.965565,-2451.505594
3293.998537,740.205942,-11251.130318,-1378.971896
3293.998865,370.102971,-11029.068536,0.000000
3293.999192,370.102971,-8734.430116,459.657299
3293.999520,518.144159,-9474.636058,1225.752797
3293.999847,0.000000,-8216.285956,1302.362347
3294.000175,1184.329507,-8068.244768,2145.067394
3294.000503,2442.679609,-10881.027347,1455.581446
3294.000830,1850.514855,-10362.883188,536.266849
3294.001158,296.082377,-10066.800811,-1532.190996
3294.001485,-370.102971,-8882.471304,-2451.505594
3294.001813,-1480.411884,-8364.327145,-1608.800546
3294.002140,-2590.720797,-10362.883188,459.657299
3294.002468,-1332.370696,-8660.409521,1378.971896
3294.002795,666.185348,-8438.347739,1532.190996
3294.003123,814.226536,-7994.224174,1149.143247
3294.003451,-370.102971,-9992.780217,536.266849
3294.003778,-592.164754,-10140.821405,0.000000
3294.004106,666.185348,-8068.244768,-1838.629195
3294.004434,1924.535449,-9400.615463,-1685.410096
3294.004761,1258.350101,-10436.903782,-459.657299
3294.005089,1998.556043,-11399.171507,1838.629195
3294.005417,2664.741391,-11325.150913,1532.190996
3294.005744,888.247130,-9104.533087,536.266849
3294.006072,148.041188,-9844.739029,-229.828649
3294.006400,-1258.350101,-7105.977043,-689.485948
3294.006727,-1702.473667,-7624.121203,612.876398
3294.007055,-1776.494261,-10584.944971,-229.828649
3294.007383,-370.102971,-10658.965565,-919.314598
3294.007710,2146.597232,-9770.718434,-2604.724693
3294.008038,2220.617826,-11103.089130,-995.924147
3294.008366,1406.391290,-12435.459826,689.485948
3294.008693,592.164754,-10955.047942,0.000000
3294.009021,-666.185348,-7994.224174,-1378.971896
3294.009349,-1554.432478,-9918.759623,-1378.971896
3294.009676,-1998.556043,-9992.780217,-1149.143247
3294.010004,-2220.617826,-9548.656652,612.876398
3294.010332,-1702.473667,-9548.656652,383.047749
3294.010659,592.164754,-9474.636058,-1685.410096
3294.010987,1628.453072,-10288.862594,-2451.505594
3294.011315,962.267725,-9400.615463,-995.924147
3294.011642,1110.308913,-9474.636058,919.314598
3294.011970,370.102971,-9178.553681,919.314598
3294.012297,-370.102971,-8956.491898,1149.143247
3294.012625,-592.164754,-9252.574275,842.705048
3294.012953,0.000000,-7994.224174,536.266849
3294.013280,1184.329507,-10214.842000,995.924147
3294.013608,962.267725,-11621.233289,612.876398
3294.013936,370.102971,-9104.533087,-995.924147
3294.014263,592.164754,-9918.759623,-2145.067394
3294.014591,-444.123565,-9252.574275,-919.314598
3294.014919,0.000000,-10214.842000,76.609550
3294.015246,-444.123565,-9104.533087,459.657299
3294.015574,1184.329507,-9252.574275,612.876398
3294.015902,1702.473667,-10066.800811,1608.800546
3294.016229,888.247130,-8808.450710,1915.238745
3294.016557,1406.391290,-9992.780217,1991.848295
3294.016885,1628.453072,-9696.697840,229.828649
3294.017212,1850.514855,-8364.327145,-1455.581446
3294.017540,-222.061783,-8586.388927,-919.314598
3294.017868,-1998.556043,-10140.821405,-459.657299
3294.018195,-740.205942,-12509.480420,-1072.533697
3294.018523,0.000000,-11251.130318,-2604.724693
3294.018851,148.041188,-10140.821405,-1838.629195
3294.019178,370.102971,-10955.047942,0.000000
3294.019506,1406.391290,-9622.677246,612.876398
3294.019834,1036.288319,-9622.677246,1072.533697
3294.020161,-370.102971,-8438.347739,0.000000
3294.020489,814.226536,-8290.306550,-1608.800546
3294.020817,1480.411884,-10955.047942,-1072.533697
3294.021144,1628.453072,-9844.739029,-919.314598
3294.021472,1554.432478,-9992.780217,-689.485948
3294.021800,296.082377,-9992.780217,1149.143247
3294.022127,0.000000,-9844.739029,995.924147
3294.022455,-296.082377,-10807.006753,1532.190996
3294.022783,-666.185348,-8216.285956,766.095498
3294.023110,-814.226536,-8216.285956,-383.047749
3294.023438,-2590.720797,-7698.141797,-766.095498
3294.023765,-2368.659014,-8142.265362,-919.314598
3294.024093,-1036.288319,-9178.553681,-1762.019645
3294.024421,1554.432478,-8142.265362,-1149.143247
3294.024748,2886.803174,-11473.192101,612.876398
3294.025076,1702.473667,-13989.892304,1608.800546
3294.025404,1110.308913,-11991.336260,919.314598
3294.025731,1776.494261,-8882.471304,-612.876398
3294.026059,814.226536,-7105.977043,-459.657299
3294.026387,888.247130,-9400.615463,1532.190996
3294.026714,-814.226536,-9030.512492,1915.238745
3294.027042,-592.164754,-8882.471304,842.705048
3294.027370,222.061783,-10214.842000,-1991.848295
3294.027697,592.164754,-9548.656652,-3370.820191
3294.028025,370.102971,-11103.089130,-1225.752797
3294.028353,-740.205942,-10436.903782,0.000000
3294.028680,222.061783,-11177.109724,536.266849
3294.029008,814.226536,-10807.006753,-842.705048
3294.029336,1184.329507,-9104.533087,-459.657299
3294.029663,370.102971,-9844.739029,1455.581446
3294.029991,-1554.432478,-10140.821405,1608.800546
3294.030319,-1110.308913,-9326.594869,-919.314598
3294.030646,-888.247130,-8216.285956,-3217.601092
3294.030974,148.041188,-7846.182985,-4596.572988
3294.031302,-370.102971,-11399.171507,-229.828649
3294.031629,0.000000,-11103.089130,2068.457845
3294.031957,1036.288319,-10288.862594,2068.457845
3294.032285,2220.617826,-9844.739029,383.047749
3294.032612,1924.535449,-9030.512492,153.219100
3294.032940,444.123565,-9252.574275,2145.067394
3294.033268,0.000000,-7402.059420,1915.238745
3294.033595,1702.473667,-9474.636058,-842.705048
3294.033923,518.144159,-9844.739029,-1991.848295
3294.034250,-296.082377,-8660.409521,-995.924147
3294.034578,-962.267725,-9918.759623,459.657299
3294.034906,-740.205942,-9474.636058,153.219100
3294.035233,444.123565,-11029.068536,-612.876398
3294.035561,888.247130,-10362.883188,-1608.800546
3294.035889,296.082377,-8068.244768,-536.266849
3294.036216,148.041188,-10140.821405,1455.581446
3294.036544,518.144159,-9252.574275,1762.019645
3294.036872,1406.391290,-9548.656652,306.438199
3294.037199,1702.473667,-9030.512492,-1608.800546
3294.037527,1776.494261,-8808.450710,-1608.800546
3294.037855,592.164754,-11177.109724,689.485948
3294.038182,518.144159,-10658.965565,842.705048
3294.038510,962.267725,-10362.883188,-459.657299
3294.038838,296.082377,-9030.512492,-1532.190996
3294.039165,-1184.329507,-9770.718434,153.219100
3294.039493,-2072.576638,-11547.212695,612.876398
3294.039821,-148.041188,-9844.739029,-1225.752797
3294.040148,1332.370696,-9844.739029,-2374.896044
3294.040476,1924.535449,-9252.574275,-995.924147
3294.040804,1924.535449,-9474.636058,1838.629195
3294.041131,1406.391290,-11103.089130,3064.381992
3294.041459,1628.453072,-9770.718434,689.485948
3294.041787,962.267725,-9474.636058,-689.485948
3294.042114,-222.061783,-8660.409521,-1532.190996
3294.042442,-1628.453072,-7105.977043,0.000000
3294.042770,-3182.885551,-9400.615463,1302.362347
3294.043097,-2738.761985,-9400.615463,-689.485948
3294.043425,0.000000,-10436.903782,-2911.162892
3294.043753,148.041188,-9400.615463,-2604.724693
3294.044080,-148.041188,-9030.512492,-459.657299
3294.044408,666.185348,-11547.212695,2145.067394
3294.044736,1924.535449,-9918.759623,612.876398
3294.045063,1924.535449,-9474.636058,0.000000
3294.045391,814.226536,-8438.347739,995.924147
3294.045718,740.205942,-8660.409521,1608.800546
3294.046046,1184.329507,-11251.130318,995.924147
3294.046374,-666.185348,-10732.986159,-612.876398
3294.046701,-1258.350101,-9030.512492,-2604.724693
3294.047029,-1332.370696,-9030.512492,-2451.505594
3294.047357,444.123565,-10214.842000,-766.095498
3294.047684,444.123565,-11473.192101,919.314598
3294.048012,962.267725,-9696.697840,536.266849
3294.048340,1776.494261,-10066.800811,0.000000
3294.048667,1998.556043,-10584.944971,229.828649
3294.048995,1036.288319,-9770.718434,536.266849
3294.049323,74.020594,-9030.512492,689.485948
3294.049650,-740.205942,-8290.306550,-689.485948
3294.049978,-814.226536,-10510.924376,-2068.457845
3294.050306,-1850.514855,-10436.903782,-2221.676944
3294.050633,-444.123565,-10066.800811,-1225.752797
3294.050961,444.123565,-10436.903782,-766.095498
3294.051289,888.247130,-10214.842000,-995.924147
3294.051616,1110.308913,-9252.574275,-689.485948
3294.051944,740.205942,-7476.080014,0.000000
3294.052272,1406.391290,-8142.265362,1225.752797
3294.052599,1554.432478,-10140.821405,1225.752797
3294.052927,740.205942,-9474.636058,842.705048
3294.053255,1110.308913,-8882.471304,229.828649
3294.053582,1036.288319,-9400.615463,-689.485948
3294.053910,1332.370696,-10140.821405,0.000000
3294.054238,296.082377,-11251.130318,-306.438199
3294.054565,-518.144159,-9252.574275,-536.266849
3294.054893,0.000000,-10066.800811,-919.314598
3294.055221,666.185348,-10214.842000,-995.924147
3294.055548,444.123565,-9474.636058,76.609550
3294.055876,-1258.350101,-8808.450710,1072.533697
3294.056203,518.144159,-8734.430116,1072.533697
3294.056531,740.205942,-9326.594869,0.000000
3294.056859,444.123565,-9030.512492,-612.876398
3294.057186,518.144159,-9844.739029,0.000000
3294.057514,962.267725,-10510.924376,612.876398
3294.057842,666.185348,-9474.636058,612.876398
3294.058169,-222.061783,-10584.944971,306.438199
3294.058497,-444.123565,-10066.800811,-229.828649
3294.058825,444.123565,-9844.739029,-1149.143247
3294.059152,74.020594,-10288.862594,-766.095498
3294.059480,-1776.494261,-10362.883188,0.000000
3294.059808,-1258.350101,-10658.965565,-1455.581446
3294.060135,0.000000,-8882.471304,-2298.286494
3294.060463,592.164754,-9474.636058,-1762.019645
3294.060791,0.000000,-9474.636058,0.000000
3294.061118,1258.350101,-9474.636058,1455.581446
3294.061446,1480.411884,-10881.027347,1455.581446
3294.061774,1110.308913,-10584.944971,-459.657299
3294.062101,444.123565,-9844.739029,-1072.533697
3294.062429,-1332.370696,-9474.636058,-766.095498
3294.062757,-2220.617826,-8364.327145,153.219100
3294.063084,-2146.597232,-9548.656652,459.657299
3294.063412,-1554.432478,-8586.388927,-536.266849
3294.063740,-518.144159,-9770.718434,-612.876398
3294.064067,-666.185348,-9474.636058,459.657299
3294.064395,-444.123565,-8882.471304,1149.143247
3294.064723,74.020594,-8660.409521,153.219100
3294.065050,592.164754,-8660.409521,-766.095498
3294.065378,1036.288319,-9400.615463,306.438199
3294.065706,1998.556043,-10066.800811,-383.047749
3294.066033,2442.679609,-9622.677246,229.828649
3294.066361,2664.741391,-11399.171507,383.047749
3294.066688,1480.411884,-10807.006753,0.000000
3294.067016,1554.432478,-10288.862594,-306.438199
3294.067344,2368.659014,-9178.553681,-842.705048
3294.067671,1924.535449,-9548.656652,536.266849
3294.067999,0.000000,-9918.759623,1072.533697
3294.068327,666.185348,-9104.533087,-383.047749
3294.068654,1998.556043,-10436.903782,-1072.533697
3294.068982,1406.391290,-11547.212695,-842.705048
3294.069310,888.247130,-11177.109724,-536.266849
3294.069637,666.185348,-9252.574275,-1608.800546
3294.069965,-222.061783,-8364.327145,-1532.190996
3294.070293,296.082377,-11399.171507,-383.047749
3294.070620,-1554.432478,-9918.759623,229.828649
3294.070948,-1332.370696,-8808.450710,842.705048
3294.071276,-1332.370696,-9030.512492,0.000000
3294.071603,0.000000,-8734.430116,-2451.505594
3294.071931,-592.164754,-9918.759623,-995.924147
3294.072259,-518.144159,-9770.718434,459.657299
3294.072586,888.247130,-9474.636058,229.828649
3294.072914,1924.535449,-10288.862594,-383.047749
3294.073242,1554.432478,-9696.697840,459.657299
3294.073569,740.205942,-9844.739029,1915.238745
3294.073897,518.144159,-8586.388927,1915.238745
3294.074225,962.267725,-10436.903782,1685.410096
3294.074552,518.144159,-8956.491898,842.705048
3294.074880,-888.247130,-6365.771101,76.609550
3294.075208,-1332.370696,-9252.574275,-383.047749
3294.075535,-1554.432478,-10436.903782,-689.485948
3294.075863,-666.185348,-10362.883188,-2068.457845
3294.076191,222.061783,-9548.656652,-2757.943793
3294.076518,666.185348,-9992.780217,-1149.143247
3294.076846,0.000000,-11177.109724,536.266849
3294.077174,-222.061783,-9770.718434,919.314598
3294.077501,-370.102971,-9326.594869,1225.752797
3294.077829,222.061783,-9548.656652,-153.219100
3294.078156,-740.205942,-8216.285956,-459.657299
3294.078484,-2072.576638,-10510.924376,689.485948
3294.078812,-2146.597232,-9770.718434,-153.219100
3294.079139,222.061783,-10214.842000,-2451.505594
3294.079467,222.061783,-10881.027347,-2451.505594
3294.079795,-2368.659014,-10362.883188,-459.657299
3294.080122,-2516.700203,-11843.295072,0.000000
3294.080450,0.000000,-9844.739029,-1838.629195
3294.080778,444.123565,-9844.739029,-1149.143247
3294.081105,74.020594,-9030.512492,306.438199
3294.081433,1554.432478,-8216.285956,2757.943793
3294.081761,2072.576638,-10807.006753,2374.896044
3294.082088,1924.535449,-9992.780217,-766.095498
3294.082416,888.247130,-9400.615463,-2221.676944
3294.082744,-222.061783,-8808.450710,-1915.238745
3294.083071,-1480.411884,-7772.162391,-842.705048
3294.083399,-2220.617826,-10066.800811,153.219100
3294.083727,-1776.494261,-9400.615463,-459.657299
3294.084054,-592.164754,-10140.821405,-612.876398
3294.084382,0.000000,-8734.430116,-995.924147
3294.084710,1628.453072,-8290.306550,-229.828649
3294.085037,2294.638420,-10288.862594,1149.143247
3294.085365,3701.029710,-9622.677246,1149.143247
3294.085693,3627.009116,-8808.450710,536.266849
3294.086020,3849.070898,-8882.471304,459.657299
3294.086348,3478.967927,-9844.739029,536.266849
3294.086676,3182.885551,-11769.274478,612.876398
3294.087003,1702.473667,-9844.739029,153.219100
3294.087331,1998.556043,-10658.965565,-842.705048
3294.087659,2368.659014,-9548.656652,-919.314598
3294.087986,3330.926739,-10584.944971,229.828649
3294.088314,2072.576638,-11991.336260,1915.238745
3294.088641,2368.659014,-9770.718434,383.047749
3294.088969,3330.926739,-9104.533087,-1838.629195
3294.089297,3478.967927,-10066.800811,-1685.410096
3294.089624,2442.679609,-11399.171507,995.924147
3294.089952,2590.720797,-9400.615463,2757.943793
3294.090280,1480.411884,-7920.203579,1302.362347
3294.090607,-296.082377,-10732.986159,0.000000
3294.090935,-1332.370696,-9844.739029,-2068.457845
3294.091263,-3182.885551,-9400.615463,-995.924147
3294.091590,-3404.947333,-11029.068536,-306.438199
3294.091918,-1184.329507,-8882.471304,-2757.943793
3294.092246,-148.041188,-9252.574275,-2068.457845
3294.092573,592.164754,-9622.677246,0.000000
3294.092901,222.061783,-9178.553681,2145.067394
3294.093229,-296.082377,-7772.162391,2068.457845
3294.093556,-1998.556043,-7105.977043,1302.362347
3294.093884,-2072.576638,-9770.718434,1532.190996
3294.094212,-1332.370696,-9104.533087,842.705048
3294.094539,-740.205942,-9326.594869,1149.143247
3294.094867,-1184.329507,-9622.677246,919.314598
3294.095195,-1554.432478,-8438.347739,-1762.019645
3294.095522,-2146.597232,-11325.150913,-2221.676944
3294.095850,-2220.617826,-10140.821405,-1991.848295
3294.096178,-1702.473667,-8734.430116,-919.314598
3294.096505,-1332.370696,-9104.533087,229.828649
3294.096833,-1480.411884,-10140.821405,842.705048
3294.097161,-1850.514855,-11473.192101,2681.334243
3294.097488,-1258.350101,-8808.450710,612.876398
3294.097816,-962.267725,-9326.594869,153.219100
3294.098144,-1258.350101,-10807.006753,-2298.286494
3294.098471,-2146.597232,-8142.265362,-3370.820191
3294.098799,-2368.659014,-9844.739029,-2374.896044
3294.099126,-444.123565,-11695.253884,-2298.286494
3294.099454,74.020594,-11251.130318,-1225.752797
3294.099782,-962.267725,-11399.171507,-306.438199
3294.100109,-2146.597232,-10658.965565,-306.438199
3294.100437,-888.247130,-10732.986159,-1378.971896
3294.100765,-370.102971,-8512.368333,-2298.286494
3294.101092,-370.102971,-9474.636058,-153.219100
3294.101420,148.041188,-9474.636058,536.266849
3294.101747,2442.679609,-8882.471304,-383.047749
3294.102075,3775.050304,-11547.212695,-536.266849
3294.102403,3627.009116,-11029.068536,-536.266849
3294.102730,3256.906145,-10362.883188,-306.438199
3294.103058,1776.494261,-7772.162391,-153.219100
3294.103385,592.164754,-7328.038826,76.609550
3294.103713,222.061783,-9844.739029,1455.581446
3294.104040,592.164754,-10436.903782,536.266849
3294.104368,1480.411884,-9918.759623,842.705048
3294.104695,1554.432478,-7920.203579,-536.266849
3294.105023,1628.453072,-7105.977043,-1838.629195
3294.105350,2072.576638,-8956.491898,-459.657299
3294.105678,3256.906145,-7476.080014,0.000000
3294.106006,4367.215058,-8216.285956,536.266849
3294.106333,4145.153275,-10436.903782,919.314598
3294.106661,4219.173869,-11399.171507,1608.800546
3294.106988,2886.803174,-10658.965565,1685.410096
3294.107316,2738.761985,-8956.491898,919.314598
3294.107643,3034.844362,-10362.883188,-306.438199
3294.107971,2220.617826,-10066.800811,-1225.752797
3294.108298,1258.350101,-8438.347739,-612.876398
3294.108626,1702.473667,-9474.636058,-689.485948
3294.108954,2812.782580,-10214.842000,-306.438199
3294.109281,2590.720797,-11621.233289,-536.266849
3294.109609,518.144159,-11547.212695,459.657299
3294.109936,0.000000,-9770.718434,0.000000
3294.110264,962.267725,-9622.677246,-459.657299
3294.110591,-148.041188,-10584.944971,229.828649
3294.110919,-1258.350101,-11325.150913,229.828649
3294.111246,-2220.617826,-10140.821405,229.828649
3294.111574,-2664.741391,-9030.512492,-306.438199
3294.111902,-740.205942,-9400.615463,-2145.067394
3294.112229,-1924.535449,-8956.491898,-1455.581446
3294.112557,-1702.473667,-9992.780217,229.828649
3294.112884,-1776.494261,-9548.656652,689.485948
3294.113212,-740.205942,-10436.903782,842.705048
3294.113539,-2220.617826,-9400.615463,689.485948
3294.113867,-2738.761985,-8438.347739,306.438199
3294.114194,-3182.885551,-9252.574275,1149.143247
3294.114522,-2664.741391,-10362.883188,536.266849
3294.114849,-1184.329507,-9992.780217,-766.095498
3294.115177,-518.144159,-9030.512492,-1915.238745
3294.115505,-2368.659014,-8142.265362,-1072.533697
3294.115832,-2072.576638,-9030.512492,612.876398
3294.116160,-1924.535449,-8586.388927,-842.705048
3294.116487,-2664.741391,-9030.512492,0.000000
3294.116815,-2368.659014,-8956.491898,0.000000
3294.117142,-2368.659014,-9252.574275,306.438199
3294.117470,-1702.473667,-11177.109724,1149.143247
3294.117797,-1036.288319,-9696.697840,229.828649
3294.118125,74.020594,-9030.512492,-1915.238745
3294.118453,0.000000,-8808.450710,-2528.115143
3294.118780,-296.082377,-9178.553681,-1072.533697
3294.119108,74.020594,-10214.842000,0.000000
3294.119435,1480.411884,-9474.636058,76.609550
3294.119763,962.267725,-10288.862594,1378.971896
3294.120090,814.226536,-11399.171507,153.219100
3294.120418,-370.102971,-11399.171507,76.609550
3294.120745,370.102971,-11695.253884,-1762.019645
3294.121073,1406.391290,-8882.471304,-3753.867940
3294.121400,1924.535449,-10436.903782,-2451.505594
3294.121728,2886.803174,-10140.821405,-306.438199
3294.122056,4219.173869,-9178.553681,1072.533697
3294.122383,3552.988522,-11029.068536,1608.800546
3294.122711,3627.009116,-10214.842000,306.438199
3294.123038,3182.885551,-9548.656652,-306.438199
3294.123366,2146.597232,-8068.244768,0.000000
3294.123693,0.000000,-8068.244768,842.705048
3294.124021,-370.102971,-9770.718434,229.828649
3294.124348,-370.102971,-9252.574275,-1608.800546
3294.124676,1776.494261,-9178.553681,-2221.676944
3294.125004,1850.514855,-8438.347739,-1685.410096
3294.125331,888.247130,-8956.491898,1225.752797
3294.125659,2664.741391,-10140.821405,2068.457845
3294.125986,4441.235652,-9474.636058,1455.581446
3294.126314,4071.132681,-9844.739029,1608.800546
3294.126641,2738.761985,-9400.615463,2298.286494
3294.126969,2590.720797,-9622.677246,1072.533697
3294.127296,2146.597232,-9474.636058,-229.828649
3294.127624,1554.432478,-9178.553681,-1072.533697
3294.127951,1406.391290,-8808.450710,-1149.143247
3294.128279,740.205942,-8956.491898,-612.876398
3294.128607,-518.144159,-10584.944971,919.314598
3294.128934,74.020594,-10658.965565,153.219100
3294.129262,0.000000,-9474.636058,-995.924147
3294.129589,444.123565,-10288.862594,-689.485948
3294.129917,1110.308913,-11251.130318,229.828649
3294.130244,0.000000,-10214.842000,612.876398
3294.130572,-222.061783,-9696.697840,229.828649
3294.130899,-1554.432478,-9548.656652,-919.314598
3294.131227,-2516.700203,-9622.677246,-1378.971896
3294.131555,-4219.173869,-8290.306550,-1378.971896
3294.131882,-3701.029710,-8956.491898,-689.485948
3294.132210,-2368.659014,-9178.553681,-1378.971896
3294.132537,-2664.741391,-10362.883188,-766.095498
3294.132865,-1850.514855,-10807.006753,153.219100
3294.133192,-1480.411884,-10362.883188,229.828649
3294.133520,-1036.288319,-9622.677246,459.657299
3294.133847,0.000000,-9326.594869,0.000000
3294.134175,-1924.535449,-8512.368333,-612.876398
3294.134503,-740.205942,-11251.130318,1149.143247
3294.134830,-444.123565,-9548.656652,842.705048
3294.135158,-518.144159,-8660.409521,689.485948
3294.135485,-1850.514855,-9178.553681,-383.047749
3294.135813,-2960.823768,-9918.759623,-459.657299
3294.136140,-1480.411884,-9178.553681,0.000000
3294.136468,0.000000,-8734.430116,-1302.362347
3294.136795,148.041188,-10214.842000,0.000000
3294.137123,1036.288319,-11251.130318,306.438199
3294.137450,0.000000,-9474.636058,766.095498
3294.137778,1110.308913,-9696.697840,536.266849
3294.138106,2220.617826,-7328.038826,-1072.533697
3294.138433,1184.329507,-7772.162391,-612.876398
3294.138761,74.020594,-9474.636058,1149.143247
3294.139088,74.020594,-10436.903782,919.314598
3294.139416,1998.556043,-10362.883188,0.000000
3294.139743,1924.535449,-8956.491898,-1072.533697
3294.140071,518.144159,-11325.150913,-229.828649
3294.140398,-592.164754,-10362.883188,-995.924147
3294.140726,0.000000,-9770.718434,-2604.724693
3294.141054,2220.617826,-10140.821405,-3830.477490
3294.141381,2516.700203,-9474.636058,-1915.238745
3294.141709,2516.700203,-11177.109724,2451.505594
3294.142036,3256.906145,-10140.821405,3294.210641
3294.142364,2368.659014,-9696.697840,995.924147
3294.142691,2368.659014,-10510.924376,-1149.143247
3294.143019,1258.350101,-8882.471304,-2528.115143
3294.143346,1332.370696,-9474.636058,-1149.143247
3294.143674,1184.329507,-10214.842000,0.000000
3294.144001,1776.494261,-11991.336260,229.828649
3294.144329,3404.947333,-10955.047942,-1302.362347
3294.144657,3034.844362,-8068.244768,-995.924147
3294.144984,2368.659014,-8586.388927,1072.533697
3294.145312,888.247130,-9326.594869,3217.601092
3294.145639,-518.144159,-9474.636058,1991.848295
3294.145967,-518.144159,-7254.018232,-842.705048
3294.146294,-1554.432478,-5921.647536,-2681.334243
3294.146622,-1110.308913,-8956.491898,-1225.752797
3294.146949,-740.205942,-10955.047942,76.609550
3294.147277,0.000000,-11843.295072,0.000000
3294.147605,3182.885551,-12287.418637,-1685.410096
3294.147932,2960.823768,-10066.800811,-1685.410096
3294.148260,1628.453072,-10066.800811,1838.629195
3294.148587,518.144159,-8882.471304,3217.601092
3294.148915,-1332.370696,-8438.347739,2987.772442
3294.149242,-1110.308913,-8068.244768,0.000000
3294.149570,-1628.453072,-8290.306550,-1302.362347
3294.149897,-1332.370696,-9400.615463,-689.485948
3294.150225,-2072.576638,-10436.903782,153.219100
3294.150552,-2590.720797,-10510.924376,-153.219100
3294.150880,-222.061783,-9770.718434,-2451.505594
3294.151208,0.000000,-10584.944971,-2604.724693
3294.151535,-740.205942,-12139.377449,76.609550
3294.151863,0.000000,-10288.862594,1455.581446
3294.152190,-444.123565,-9474.636058,995.924147
3294.152518,-296.082377,-9622.677246,-153.219100
3294.152845,-1554.432478,-9474.636058,76.609550
3294.153173,-1998.556043,-9252.574275,-383.047749
3294.153500,-2442.679609,-9178.553681,-1532.190996
3294.153828,-2072.576638,-10436.903782,-2374.896044
3294.154156,296.082377,-9178.553681,-2987.772442
3294.154483,888.247130,-9104.533087,536.266849
3294.154811,1184.329507,-10881.027347,2604.724693
3294.155138,296.082377,-10288.862594,2145.067394
3294.155466,888.247130,-10066.800811,1149.143247
3294.155793,1702.473667,-8290.306550,-1685.410096
3294.156121,518.144159,-8142.265362,-919.314598
3294.156448,0.000000,-9844.739029,1608.800546
3294.156776,740.205942,-8956.491898,1302.362347
3294.157104,222.061783,-8956.491898,-689.485948
3294.157431,814.226536,-9178.553681,-2604.724693
3294.157759,148.041188,-9548.656652,-1302.362347
3294.158086,666.185348,-10658.965565,229.828649
3294.158414,1036.288319,-10066.800811,0.000000
3294.158741,962.267725,-9770.718434,0.000000
3294.159069,1702.473667,-7402.059420,76.609550
3294.159396,1850.514855,-8734.430116,-383.047749
3294.159724,2516.700203,-9696.697840,1915.238745
3294.160051,1702.473667,-8290.306550,766.095498
3294.160379,592.164754,-10584.944971,76.609550
3294.160707,1628.453072,-10955.047942,-2221.676944
3294.161034,740.205942,-9918.759623,-2221.676944
3294.161362,222.061783,-9696.697840,-612.876398
3294.161689,-518.144159,-11103.089130,689.485948
3294.162017,1184.329507,-12065.356855,-229.828649
3294.162344,2516.700203,-9548.656652,-995.924147
3294.162672,1036.288319,-9548.656652,306.438199
3294.162999,1258.350101,-10214.842000,842.705048
3294.163327,1110.308913,-9104.533087,689.485948
3294.163655,444.123565,-7772.162391,0.000000
3294.163982,444.123565,-8364.327145,-1302.362347
3294.164310,-518.144159,-8882.471304,76.609550
3294.164637,962.267725,-10955.047942,919.314598
3294.164965,1702.473667,-11695.253884,229.828649
3294.165292,1036.288319,-10362.883188,689.485948
3294.165620,444.123565,-8660.409521,229.828649
3294.165947,-1480.411884,-7994.224174,919.314598
3294.166275,-1702.473667,-7994.224174,0.000000
3294.166602,-2294.638420,-8586.388927,-1532.190996
3294.166930,-1258.350101,-8808.450710,-2681.334243
3294.167258,-888.247130,-7920.203579,-2221.676944
3294.167585,-1258.350101,-9548.656652,0.000000
3294.167913,1036.288319,-10732.986159,612.876398
3294.168240,1332.370696,-10807.006753,1149.143247
3294.168568,1258.350101,-10658.965565,995.924147
3294.168895,592.164754,-10362.883188,536.266849
3294.169223,-370.102971,-9400.615463,153.219100
3294.169550,222.061783,-9252.574275,-229.828649
3294.169878,-666.185348,-9844.739029,-1072.533697
3294.170206,0.000000,-9992.780217,-842.705048
3294.170533,222.061783,-9622.677246,-1225.752797
3294.170861,-444.123565,-10362.883188,-1302.362347
3294.171188,148.041188,-10436.903782,-766.095498
3294.171516,-592.164754,-10510.924376,-229.828649
3294.171843,74.020594,-10510.924376,536.266849
3294.172171,518.144159,-10436.903782,0.000000
3294.172498,-666.185348,-10214.842000,0.000000
3294.172826,-518.144159,-9104.533087,-1302.362347
3294.173153,0.000000,-9992.780217,-2451.505594
3294.173481,296.082377,-10732.986159,-2528.115143
3294.173809,296.082377,-10658.965565,-1608.800546
3294.174136,-444.123565,-9104.533087,0.000000
3294.174464,370.102971,-9178.553681,306.438199
3294.174791,0.000000,-9844.739029,1378.971896
3294.175119,1924.535449,-8586.388927,2145.067394
3294.175446,1628.453072,-7624.121203,1838.629195
3294.175774,518.144159,-9030.512492,995.924147
3294.176101,740.205942,-9770.718434,-919.314598
3294.176429,74.020594,-9104.533087,-1762.019645
3294.176757,666.185348,-8882.471304,-995.924147
3294.177084,1702.473667,-10807.006753,0.000000
3294.177412,1554.432478,-10955.047942,1455.581446
3294.177739,2294.638420,-9918.759623,459.657299
3294.178067,1258.350101,-10658.965565,-229.828649
3294.178394,962.267725,-9918.759623,229.828649
3294.178722,148.041188,-8956.491898,1225.752797
3294.179049,-666.185348,-7920.203579,995.924147
3294.179377,814.226536,-7846.182985,-459.657299
3294.179705,1628.453072,-8808.450710,-842.705048
3294.180032,1480.411884,-9326.594869,0.000000
3294.180360,0.000000,-10658.965565,0.000000
3294.180687,-518.144159,-11177.109724,-995.924147
3294.181015,370.102971,-10066.800811,-2987.772442
3294.181342,-518.144159,-9474.636058,-1838.629195
3294.181670,-370.102971,-10288.862594,766.095498
3294.181997,518.144159,-10584.944971,2451.505594
3294.182325,1406.391290,-11473.192101,1378.971896
3294.182652,2516.700203,-11103.089130,-919.314598
3294.182980,148.041188,-9844.739029,-1991.848295
3294.183308,-222.061783,-8364.327145,-1838.629195
3294.183635,-1184.329507,-7476.080014,-306.438199
3294.183963,-1184.329507,-8882.471304,689.485948
3294.184290,370.102971,-10288.862594,1149.143247
3294.184618,1258.350101,-12287.418637,536.266849
3294.184945,888.247130,-9474.636058,459.657299
3294.185273,222.061783,-8364.327145,1302.362347
3294.185600,0.000000,-9326.594869,1838.629195
3294.185928,1332.370696,-8808.450710,0.000000
3294.186256,370.102971,-9400.615463,0.000000
3294.186583,888.247130,-8068.244768,-766.095498
3294.186911,444.123565,-8586.388927,383.047749
3294.187238,-1036.288319,-10362.883188,1915.238745
3294.187566,-2738.761985,-10955.047942,-153.219100
3294.187893,-4441.235652,-9622.677246,-1149.143247
3294.188221,-1554.432478,-7402.059420,-2987.772442
3294.188548,-1110.308913,-8438.347739,-1149.143247
3294.188876,-1554.432478,-10881.027347,1991.848295
3294.189203,518.144159,-9474.636058,1685.410096
3294.189531,1406.391290,-10140.821405,689.485948
3294.189859,2590.720797,-8734.430116,-1532.190996
3294.190186,1184.329507,-8512.368333,-1072.533697
3294.190514,518.144159,-10066.800811,459.657299
3294.190841,1332.370696,-9844.739029,612.876398
3294.191169,888.247130,-11325.150913,0.000000
3294.191496,888.247130,-9844.739029,-1302.362347
3294.191824,370.102971,-8808.450710,-536.266849
3294.192151,-962.267725,-10362.883188,383.047749
3294.192479,-962.267725,-10584.944971,-1378.971896
3294.192807,-1332.370696,-9770.718434,-2298.286494
3294.193134,2664.741391,-9696.697840,-3830.477490
3294.193462,2368.659014,-10658.965565,-1149.143247
3294.193789,2294.638420,-13397.727550,1762.019645
3294.194117,1924.535449,-9918.759623,459.657299
3294.194444,444.123565,-9992.780217,-306.438199
3294.194772,1036.288319,-9474.636058,-1532.190996
3294.195099,-740.205942,-7994.224174,-383.047749
3294.195427,-962.267725,-9326.594869,1532.190996
3294.195754,74.020594,-9474.636058,612.876398
3294.196082,74.020594,-10955.047942,-689.485948
3294.196410,1924.535449,-9178.553681,-1915.238745
3294.196737,2220.617826,-8882.471304,-229.828649
3294.197065,1776.494261,-9252.574275,1762.019645
3294.197392,518.144159,-9844.739029,1225.752797
3294.197720,-296.082377,-9918.759623,1072.533697
3294.198047,1258.350101,-8068.244768,-689.485948
3294.198375,1258.350101,-9252.574275,842.705048
3294.198702,518.144159,-10288.862594,1608.800546
3294.199030,-814.226536,-9696.697840,153.219100
3294.199358,-2072.576638,-8808.450710,-1378.971896
3294.199685,222.061783,-7550.100608,-3217.601092
3294.200013,518.144159,-9474.636058,-1302.362347
3294.200340,666.185348,-10658.965565,2221.676944
3294.200668,1480.411884,-10140.821405,2145.067394
3294.200995,370.102971,-8586.388927,995.924147
3294.201323,222.061783,-8808.450710,-459.657299
3294.201650,-1924.535449,-9844.739029,689.485948
3294.201978,-1554.432478,-8512.368333,0.000000
3294.202306,-814.226536,-9400.615463,-1532.190996
3294.202633,444.123565,-11473.192101,-2221.676944
3294.202961,1036.288319,-10140.821405,-1378.971896
3294.203288,814.226536,-11177.109724,536.266849
3294.203616,1406.391290,-11103.089130,459.657299
3294.203944,1036.288319,-11103.089130,-995.924147
3294.204271,-222.061783,-10955.047942,-995.924147
3294.204599,148.041188,-8290.306550,-1302.362347
3294.204926,-1258.350101,-8438.347739,1149.143247
3294.205254,-296.082377,-10362.883188,1685.410096
3294.205582,444.123565,-11251.130318,766.095498
3294.205909,2368.659014,-10436.903782,-1149.143247
3294.206237,3923.091493,-8660.409521,-2757.943793
3294.206565,1406.391290,-10881.027347,0.000000
3294.206892,666.185348,-10140.821405,1302.362347
3294.207220,-666.185348,-8882.471304,459.657299
3294.207547,-1406.391290,-9252.574275,536.266849
3294.207875,-1480.411884,-8438.347739,153.219100
3294.208203,-1998.556043,-9104.533087,1225.752797
3294.208530,-592.164754,-8956.491898,-536.266849
3294.208858,-2442.679609,-9474.636058,-1378.971896
3294.209185,-2442.679609,-9770.718434,-1838.629195
3294.209513,888.247130,-7624.121203,-2757.943793
3294.209841,1406.391290,-9400.615463,0.000000
3294.210168,1184.329507,-9696.697840,1991.848295
3294.210496,1184.329507,-10510.924376,2911.162892
3294.210823,2516.700203,-10288.862594,1762.019645
3294.211151,2886.803174,-8586.388927,76.609550
3294.211479,592.164754,-9104.533087,1302.362347
3294.211806,-740.205942,-8734.430116,1378.971896
3294.212134,-1406.391290,-9252.574275,-689.485948
3294.212462,0.000000,-9474.636058,-2451.505594
3294.212789,-148.041188,-8586.388927,-3140.991542
3294.213117,-296.082377,-11177.109724,-383.047749
3294.213444,2220.617826,-11621.233289,0.000000
3294.213772,1776.494261,-12583.501014,-536.266849
3294.214100,2072.576638,-11991.336260,-612.876398
3294.214427,1554.432478,-8734.430116,-995.924147
3294.214755,-370.102971,-9474.636058,-459.657299
3294.215082,-962.267725,-8808.450710,306.438199
3294.215410,-1110.308913,-9474.636058,0.000000
3294.215738,148.041188,-10214.842000,-612.876398
3294.216065,444.123565,-9548.656652,-1072.533697
3294.216393,518.144159,-9030.512492,-995.924147
3294.216721,1776.494261,-9474.636058,-306.438199
3294.217048,1406.391290,-10807.006753,612.876398
3294.217376,1480.411884,-11251.130318,919.314598
3294.217703,444.123565,-8956.491898,229.828649
3294.218031,-222.061783,-8216.285956,766.095498
3294.218359,1480.411884,-8882.471304,-229.828649
3294.218686,888.247130,-10066.800811,383.047749
3294.219014,222.061783,-9844.739029,383.047749
3294.219341,74.020594,-8956.491898,76.609550
3294.219669,-962.267725,-9252.574275,-306.438199
3294.219997,-1110.308913,-7994.224174,-1149.143247
3294.220324,-1406.391290,-9104.533087,-383.047749
3294.220652,-1702.473667,-9474.636058,459.657299
3294.220980,-888.247130,-9326.594869,1149.143247
3294.221307,0.000000,-8956.491898,229.828649
3294.221635,1184.329507,-7846.182985,-459.657299
3294.221962,0.000000,-9622.677246,1532.190996
3294.222290,-1036.288319,-10214.842000,1762.019645
3294.222618,148.041188,-9844.739029,-612.876398
3294.222945,-518.144159,-8068.244768,-1915.238745
3294.223273,1480.411884,-8216.285956,-1762.019645
3294.223600,0.000000,-11917.315666,1225.752797
3294.223928,1480.411884,-13915.871710,1762.019645
3294.224256,888.247130,-10436.903782,0.000000
3294.224583,148.041188,-9030.512492,-2451.505594
3294.224911,0.000000,-8438.347739,-3370.820191
3294.225239,-1776.494261,-10732.986159,-1072.533697
3294.225566,-370.102971,-9474.636058,0.000000
3294.225894,1036.288319,-7476.080014,76.609550
3294.226221,2664.741391,-10362.883188,-383.047749
3294.226549,3552.988522,-10955.047942,919.314598
3294.226877,2220.617826,-11103.089130,2298.286494
3294.227204,1776.494261,-9474.636058,1915.238745
3294.227532,592.164754,-9918.759623,-229.828649
3294.227859,-1332.370696,-9104.533087,-689.485948
3294.228187,-2368.659014,-8586.388927,-1838.629195
3294.228515,-3034.844362,-9548.656652,-1149.143247
3294.228842,-148.041188,-9992.780217,-1762.019645
3294.229170,222.061783,-9844.739029,-1685.410096
3294.229498,0.000000,-9474.636058,-842.705048
3294.229825,74.020594,-8882.471304,0.000000
3294.230153,0.000000,-10955.047942,2145.067394
3294.230480,2146.597232,-10955.047942,2374.896044
3294.230808,3330.926739,-9252.574275,1302.362347
3294.231136,2590.720797,-7328.038826,536.266849
3294.231463,1628.453072,-8734.430116,766.095498
3294.231791,592.164754,-10510.924376,995.924147
3294.232118,1332.370696,-9474.636058,-1685.410096
3294.232446,-370.102971,-8512.368333,-2298.286494
3294.232774,-1628.453072,-8142.265362,-383.047749
3294.233101,-1554.432478,-9844.739029,-76.609550
3294.233429,-814.226536,-12139.377449,766.095498
3294.233757,2442.679609,-11251.130318,-383.047749
3294.234084,2886.803174,-10807.006753,-766.095498
3294.234412,1924.535449,-11547.212695,76.609550
3294.234739,74.020594,-9474.636058,306.438199
3294.235067,-296.082377,-8734.430116,153.219100
3294.235395,-1184.329507,-8290.306550,-2145.067394
3294.235722,-2146.597232,-8438.347739,-1838.629195
3294.236050,-2294.638420,-9474.636058,-919.314598
3294.236377,-962.267725,-9844.739029,153.219100
3294.236705,-444.123565,-11843.295072,1072.533697
3294.237033,1184.329507,-10732.986159,-153.219100
3294.237360,2072.576638,-8808.450710,-919.314598
3294.237688,1924.535449,-9696.697840,-306.438199
3294.238015,888.247130,-9030.512492,229.828649
3294.238343,0.000000,-9178.553681,1225.752797
3294.238671,1998.556043,-8438.347739,-842.705048
3294.238998,370.102971,-9474.636058,-1378.971896
3294.239326,-1110.308913,-10288.862594,1072.533697
3294.239654,-666.185348,-9844.739029,766.095498
3294.239981,-1628.453072,-10362.883188,536.266849
3294.240309,-888.247130,-8956.491898,-1455.581446
3294.240636,-444.123565,-9178.553681,-1302.362347
3294.240964,-518.144159,-10510.924376,306.438199
3294.241292,-296.082377,-9178.553681,766.095498
3294.241619,0.000000,-8660.409521,766.095498
3294.241947,296.082377,-7698.141797,-995.924147
3294.242274,1036.288319,-8882.471304,-612.876398
