#time,accel_x,accel_y,accel_z
2870.556745,592.164754,-9622.677246,76.609550
2870.557072,444.123565,-9252.574275,0.000000
2870.557400,74.020594,-8882.471304,229.828649
2870.557727,74.020594,-8956.491898,76.609550
2870.558055,74.020594,-9104.533087,383.047749
2870.558383,-296.082377,-9252.574275,0.000000
2870.558710,148.041188,-9474.636058,229.828649
2870.559038,0.000000,-9400.615463,153.219100
2870.559365,518.144159,-9474.636058,536.266849
2870.559693,518.144159,-9474.636058,536.266849
2870.560021,518.144159,-9474.636058,459.657299
2870.560348,888.247130,-9252.574275,306.438199
2870.560676,148.041188,-9400.615463,459.657299
2870.561003,-518.144159,-9178.553681,-383.047749
2870.561331,0.000000,-9474.636058,-383.047749
2870.561658,0.000000,-9474.636058,-306.438199
2870.561986,0.000000,-9548.656652,-689.485948
2870.562314,0.000000,-9844.739029,-612.876398
2870.562641,444.123565,-9696.697840,-459.657299
2870.562969,666.185348,-10362.883188,-306.438199
2870.563296,666.185348,-10214.842000,-766.095498
2870.563624,740.205942,-10214.842000,0.000000
2870.563951,592.164754,-10214.842000,-383.047749
2870.564279,444.123565,-10066.800811,-383.047749
2870.564607,74.020594,-9622.677246,-459.657299
2870.564934,-518.144159,-9474.636058,-766.095498
2870.565262,0.000000,-9622.677246,-766.095498
2870.565589,0.000000,-9770.718434,-689.485948
2870.565917,0.000000,-9992.780217,-612.876398
2870.566245,0.000000,-10362.883188,-612.876398
2870.566572,222.061783,-10140.821405,-383.047749
2870.566900,370.102971,-10140.821405,0.000000
2870.567227,740.205942,-9474.636058,689.485948
2870.567555,592.164754,-9474.636058,1302.362347
2870.567882,666.185348,-9548.656652,229.828649
2870.568210,370.102971,-9474.636058,229.828649
2870.568538,74.020594,-9104.533087,0.000000
2870.568865,148.041188,-9104.533087,0.000000
2870.569193,0.000000,-9326.594869,0.000000
2870.569520,0.000000,-9104.533087,-306.438199
2870.569848,296.082377,-9474.636058,0.000000
2870.570176,1258.350101,-9104.533087,0.000000
2870.570503,1924.535449,-9326.594869,229.828649
2870.570831,2590.720797,-9474.636058,459.657299
2870.571158,3701.029710,-9178.553681,459.657299
2870.571486,4441.235652,-8956.491898,153.219100
2870.571813,4885.359217,-9400.615463,-383.047749
2870.572141,4737.318029,-9770.718434,-383.047749
2870.572469,5699.585753,-9252.574275,-306.438199
2870.572796,6365.771101,-9622.677246,-612.876398
2870.573124,7105.977043,-10658.965565,-459.657299
2870.573451,8142.265362,-11029.068536,-612.876398
2870.573779,8216.285956,-11029.068536,76.609550
2870.574106,8512.368333,-10362.883188,229.828649
2870.574434,9178.553681,-9104.533087,0.000000
2870.574762,9622.677246,-9252.574275,-229.828649
2870.575089,9696.697840,-9104.533087,459.657299
2870.575417,11103.089130,-8956.491898,-306.438199
2870.575744,11769.274478,-9474.636058,76.609550
2870.576072,11325.150913,-9770.718434,612.876398
2870.576400,11621.233289,-9696.697840,0.000000
2870.576727,10214.842000,-8882.471304,-536.266849
2870.577055,11103.089130,-10066.800811,-306.438199
2870.577382,12509.480420,-10732.986159,-383.047749
2870.577710,14211.954086,-10807.006753,76.609550
2870.578037,14878.139434,-10066.800811,1072.533697
2870.578365,15470.304188,-9400.615463,1225.752797
2870.578693,14137.933492,-8808.450710,1225.752797
2870.579020,13619.789333,-8586.388927,1378.971896
2870.579348,13249.686362,-8512.368333,229.828649
2870.579675,12583.501014,-9326.594869,459.657299
2870.580003,12287.418637,-9992.780217,229.828649
2870.580331,11103.089130,-9474.636058,689.485948
2870.580658,11695.253884,-7994.224174,536.266849
2870.580986,11029.068536,-8808.450710,459.657299
2870.581313,11769.274478,-10732.986159,459.657299
2870.581641,10066.800811,-11325.150913,919.314598
2870.581968,9178.553681,-9548.656652,766.095498
2870.582296,7550.100608,-8808.450710,-459.657299
2870.582624,5847.626942,-9622.677246,383.047749
2870.582951,4959.379811,-8438.347739,459.657299
2870.583279,4959.379811,-7846.182985,0.000000
2870.583606,5403.503377,-9770.718434,229.828649
2870.583934,5995.668130,-12509.480420,-612.876398
2870.584261,4293.194464,-12287.418637,-459.657299
2870.584589,2072.576638,-10362.883188,0.000000
2870.584917,1036.288319,-8216.285956,-919.314598
2870.585244,1036.288319,-8290.306550,-1149.143247
2870.585572,2294.638420,-8882.471304,-383.047749
2870.585899,3997.112087,-10436.903782,0.000000
2870.586227,3404.947333,-10732.986159,995.924147
2870.586555,2664.741391,-10288.862594,306.438199
2870.586882,1110.308913,-9252.574275,-536.266849
2870.587210,148.041188,-9104.533087,-1991.848295
2870.587537,148.041188,-10436.903782,-2221.676944
2870.587865,1184.329507,-11843.295072,-2374.896044
2870.588192,1554.432478,-10510.924376,-766.095498
2870.588520,2368.659014,-8808.450710,-229.828649
2870.588848,1332.370696,-8660.409521,766.095498
2870.589175,-1258.350101,-10362.883188,2068.457845
2870.589503,-3552.988522,-10436.903782,1302.362347
2870.589830,-2886.803174,-8882.471304,-1072.533697
2870.590158,-962.267725,-7105.977043,-2987.772442
2870.590485,-148.041188,-7624.121203,-1378.971896
2870.590813,-1924.535449,-8660.409521,536.266849
2870.591141,-1850.514855,-8882.471304,1838.629195
2870.591468,-740.205942,-9030.512492,-306.438199
2870.591796,740.205942,-9400.615463,-2604.724693
2870.592123,814.226536,-9696.697840,-2145.067394
2870.592451,888.247130,-9474.636058,-842.705048
2870.592779,962.267725,-9548.656652,153.219100
2870.593106,2294.638420,-11103.089130,0.000000
2870.593434,3552.988522,-10807.006753,-459.657299
2870.593761,3478.967927,-9474.636058,76.609550
2870.594089,2146.597232,-9326.594869,536.266849
2870.594416,1480.411884,-9474.636058,459.657299
2870.594744,2072.576638,-8660.409521,-842.705048
2870.595072,1850.514855,-8734.430116,-1072.533697
2870.595399,1036.288319,-8956.491898,0.000000
2870.595727,222.061783,-8438.347739,766.095498
2870.596054,1110.308913,-9844.739029,229.828649
2870.596382,2294.638420,-11325.150913,-766.095498
2870.596710,2590.720797,-12213.398043,-1838.629195
2870.597037,1406.391290,-11103.089130,-919.314598
2870.597365,888.247130,-10955.047942,-612.876398
2870.597692,1850.514855,-10658.965565,-919.314598
2870.598020,3701.029710,-11103.089130,-919.314598
2870.598347,1776.494261,-10140.821405,306.438199
2870.598675,0.000000,-9474.636058,766.095498
2870.599003,222.061783,-9474.636058,0.000000
2870.599330,1258.350101,-8956.491898,-383.047749
2870.599658,2294.638420,-8882.471304,153.219100
2870.599985,1184.329507,-10510.924376,689.485948
2870.600313,0.000000,-9696.697840,1762.019645
2870.600640,1776.494261,-8956.491898,689.485948
2870.600968,3182.885551,-9918.759623,-306.438199
2870.601296,2368.659014,-11177.109724,1302.362347
2870.601623,222.061783,-9474.636058,2068.457845
2870.601951,-1110.308913,-9030.512492,842.705048
2870.602278,-1406.391290,-9696.697840,-306.438199
2870.602606,-740.205942,-10140.821405,-766.095498
2870.602934,-1850.514855,-9400.615463,229.828649
2870.603261,-3775.050304,-7920.203579,1072.533697
2870.603589,-2812.782580,-8068.244768,76.609550
2870.603916,-1036.288319,-8512.368333,-766.095498
2870.604244,-888.247130,-9400.615463,-766.095498
2870.604571,-2294.638420,-7846.182985,0.000000
2870.604899,-2664.741391,-8364.327145,-153.219100
2870.605227,-740.205942,-9474.636058,-383.047749
2870.605554,1332.370696,-9992.780217,-459.657299
2870.605882,1110.308913,-10732.986159,229.828649
2870.606209,-296.082377,-11547.212695,1072.533697
2870.606537,-296.082377,-11103.089130,-383.047749
2870.606865,1110.308913,-11251.130318,-2451.505594
2870.607192,666.185348,-12435.459826,-1685.410096
2870.607520,-740.205942,-10658.965565,-919.314598
2870.607847,-1998.556043,-9252.574275,-306.438199
2870.608175,-1036.288319,-9104.533087,-766.095498
2870.608502,296.082377,-9178.553681,-689.485948
2870.608830,444.123565,-8956.491898,76.609550
2870.609158,-592.164754,-8734.430116,842.705048
2870.609485,-962.267725,-8290.306550,-306.438199
2870.609813,-148.041188,-9474.636058,-1608.800546
2870.610140,814.226536,-10955.047942,-1991.848295
2870.610468,370.102971,-11177.109724,-1225.752797
2870.610795,370.102971,-10732.986159,0.000000
2870.611123,888.247130,-11029.068536,-919.314598
2870.611451,2368.659014,-11251.130318,-612.876398
2870.611778,2516.700203,-10881.027347,0.000000
2870.612106,740.205942,-9770.718434,1225.752797
2870.612433,74.020594,-8512.368333,919.314598
2870.612761,2146.597232,-7476.080014,-536.266849
2870.613089,2294.638420,-8956.491898,-612.876398
2870.613416,1258.350101,-9252.574275,1149.143247
2870.613744,518.144159,-8734.430116,1532.190996
2870.614071,1036.288319,-8512.368333,306.438199
2870.614399,2664.741391,-11177.109724,-612.876398
2870.614726,2812.782580,-11991.336260,-306.438199
2870.615054,888.247130,-10214.842000,0.000000
2870.615382,-814.226536,-9474.636058,0.000000
2870.615709,0.000000,-10214.842000,-1149.143247
2870.616037,370.102971,-10214.842000,-229.828649
2870.616364,-444.123565,-10288.862594,766.095498
2870.616692,-2294.638420,-8216.285956,689.485948
2870.617020,-1406.391290,-8216.285956,-612.876398
2870.617347,74.020594,-8512.368333,-995.924147
2870.617675,518.144159,-8660.409521,0.000000
2870.618002,444.123565,-10066.800811,1225.752797
2870.618330,74.020594,-10140.821405,612.876398
2870.618657,2590.720797,-10732.986159,-1072.533697
2870.618985,3552.988522,-10732.986159,-1378.971896
2870.619313,2368.659014,-11547.212695,306.438199
2870.619640,370.102971,-10955.047942,995.924147
2870.619968,-666.185348,-10362.883188,153.219100
2870.620296,-148.041188,-9918.759623,-1225.752797
2870.620623,148.041188,-9844.739029,-612.876398
2870.620951,-1184.329507,-9252.574275,-1072.533697
2870.621278,-2664.741391,-7994.224174,383.047749
2870.621606,-1998.556043,-7624.121203,-153.219100
2870.621934,-370.102971,-8290.306550,-689.485948
2870.622261,-444.123565,-9030.512492,0.000000
2870.622589,-1554.432478,-8586.388927,766.095498
2870.622917,-1110.308913,-7624.121203,1608.800546
2870.623244,518.144159,-9252.574275,-153.219100
2870.623572,1406.391290,-11621.233289,-1072.533697
2870.623900,0.000000,-11621.233289,-612.876398
2870.624227,-1258.350101,-10807.006753,-229.828649
2870.624555,222.061783,-10288.862594,-1532.190996
2870.624882,2220.617826,-10732.986159,-2068.457845
2870.625210,1184.329507,-10510.924376,-766.095498
2870.625538,-1554.432478,-8882.471304,229.828649
2870.625865,-1776.494261,-8512.368333,153.219100
2870.626193,-814.226536,-7920.203579,-383.047749
2870.626521,1110.308913,-8734.430116,0.000000
2870.626848,740.205942,-8956.491898,1072.533697
2870.627176,0.000000,-8586.388927,1072.533697
2870.627503,444.123565,-8512.368333,153.219100
2870.627831,1998.556043,-10807.006753,-1378.971896
2870.628159,444.123565,-11769.274478,-689.485948
2870.628486,-1332.370696,-10732.986159,-536.266849
2870.628814,-2072.576638,-9622.677246,-1838.629195
2870.629142,-666.185348,-10436.903782,-2451.505594
2870.629469,962.267725,-11547.212695,-1225.752797
2870.629797,1184.329507,-11325.150913,1762.019645
2870.630125,148.041188,-10140.821405,1532.190996
2870.630452,1110.308913,-8734.430116,76.609550
2870.630780,2886.803174,-8142.265362,-536.266849
2870.631107,2886.803174,-9030.512492,383.047749
2870.631435,1776.494261,-8660.409521,1838.629195
2870.631763,518.144159,-8364.327145,1762.019645
2870.632090,1110.308913,-9030.512492,-459.657299
2870.632418,1998.556043,-10510.924376,-306.438199
2870.632746,1554.432478,-11177.109724,-689.485948
2870.633073,-222.061783,-10214.842000,-153.219100
2870.633401,-1110.308913,-10584.944971,-766.095498
2870.633728,518.144159,-11473.192101,-1455.581446
2870.634056,1702.473667,-11029.068536,-766.095498
2870.634384,-296.082377,-8290.306550,612.876398
2870.634711,-1776.494261,-7105.977043,1608.800546
2870.635039,-962.267725,-7179.997637,153.219100
2870.635367,1850.514855,-8956.491898,-766.095498
2870.635694,2072.576638,-10214.842000,0.000000
2870.636022,370.102971,-9474.636058,1149.143247
2870.636350,0.000000,-8364.327145,153.219100
2870.636677,1184.329507,-9844.739029,-995.924147
2870.637005,2368.659014,-11991.336260,-2298.286494
2870.637332,222.061783,-11621.233289,-1455.581446
2870.637660,-962.267725,-10732.986159,-612.876398
2870.637988,-296.082377,-10732.986159,-612.876398
2870.638315,1332.370696,-10584.944971,-306.438199
2870.638643,888.247130,-10732.986159,1149.143247
2870.638971,-1702.473667,-8660.409521,1378.971896
2870.639298,-2220.617826,-7698.141797,-306.438199
2870.639626,-1628.453072,-8438.347739,-1838.629195
2870.639953,-1110.308913,-9104.533087,-1608.800546
2870.640281,-2664.741391,-8068.244768,536.266849
2870.640609,-3478.967927,-7920.203579,1149.143247
2870.640936,-1628.453072,-8956.491898,-919.314598
2870.641264,518.144159,-11325.150913,-1762.019645
2870.641592,1332.370696,-12509.480420,-459.657299
2870.641919,518.144159,-11103.089130,612.876398
2870.642247,444.123565,-9474.636058,229.828649
2870.642575,1702.473667,-9252.574275,-842.705048
2870.642902,2812.782580,-10658.965565,0.000000
2870.643230,1702.473667,-9844.739029,1685.410096
2870.643557,-962.267725,-8438.347739,1838.629195
2870.643885,-2072.576638,-8438.347739,689.485948
2870.644213,-740.205942,-8882.471304,-1532.190996
2870.644540,148.041188,-8956.491898,-1532.190996
2870.644868,-814.226536,-8586.388927,0.000000
2870.645196,-1554.432478,-8808.450710,995.924147
2870.645523,888.247130,-9696.697840,0.000000
2870.645851,2664.741391,-10807.006753,-1532.190996
2870.646178,1406.391290,-10214.842000,-689.485948
2870.646506,-1036.288319,-9030.512492,612.876398
2870.646834,-1036.288319,-9770.718434,-536.266849
2870.647161,1184.329507,-11029.068536,-2221.676944
2870.647489,1998.556043,-11547.212695,-1685.410096
2870.647817,1258.350101,-10658.965565,536.266849
2870.648144,296.082377,-9844.739029,995.924147
2870.648472,1850.514855,-8734.430116,-689.485948
2870.648800,3182.885551,-8882.471304,-1225.752797
2870.649127,2664.741391,-9474.636058,689.485948
2870.649455,1628.453072,-8660.409521,2145.067394
2870.649782,1406.391290,-7994.224174,1455.581446
2870.650110,888.247130,-8660.409521,-306.438199
2870.650438,1258.350101,-9992.780217,0.000000
2870.650765,888.247130,-10881.027347,-1378.971896
2870.651093,0.000000,-9844.739029,-766.095498
2870.651421,888.247130,-10436.903782,-1685.410096
2870.651748,2738.761985,-12287.418637,-1608.800546
2870.652076,2294.638420,-12583.501014,-306.438199
2870.652403,-518.144159,-9918.759623,919.314598
2870.652731,-2294.638420,-7328.038826,689.485948
2870.653059,-1258.350101,-7698.141797,-1608.800546
2870.653386,0.000000,-9548.656652,-1378.971896
2870.653714,-444.123565,-9622.677246,153.219100
2870.654042,-1776.494261,-8068.244768,1762.019645
2870.654369,-666.185348,-7254.018232,995.924147
2870.654697,1702.473667,-8956.491898,-1302.362347
2870.655025,1332.370696,-11917.315666,-995.924147
2870.655352,-296.082377,-11103.089130,-153.219100
2870.655680,-962.267725,-9400.615463,-536.266849
2870.656007,222.061783,-9622.677246,-1455.581446
2870.656335,1258.350101,-10510.924376,-995.924147
2870.656663,518.144159,-10288.862594,1455.581446
2870.656990,-1036.288319,-9548.656652,2681.334243
2870.657318,-1258.350101,-9770.718434,229.828649
2870.657646,74.020594,-9696.697840,-2528.115143
2870.657973,-370.102971,-9104.533087,-1608.800546
2870.658301,-2368.659014,-7624.121203,842.705048
2870.658628,-3034.844362,-7920.203579,1378.971896
2870.658956,-962.267725,-9178.553681,-229.828649
2870.659284,2072.576638,-11769.274478,-1915.238745
2870.659611,1776.494261,-12213.398043,-842.705048
2870.659939,370.102971,-10658.965565,995.924147
2870.660267,74.020594,-9474.636058,459.657299
2870.660594,1332.370696,-10362.883188,-995.924147
2870.660922,1924.535449,-11843.295072,-1072.533697
2870.661250,1036.288319,-10510.924376,0.000000
2870.661577,-222.061783,-8142.265362,306.438199
2870.661905,0.000000,-8290.306550,-229.828649
2870.662232,1332.370696,-9400.615463,-536.266849
2870.662560,1036.288319,-8956.491898,0.000000
2870.662888,-592.164754,-8660.409521,842.705048
2870.663215,-222.061783,-8882.471304,229.828649
2870.663543,1850.514855,-9622.677246,-842.705048
2870.663871,2516.700203,-9474.636058,-459.657299
2870.664198,444.123565,-9326.594869,1378.971896
2870.664526,-962.267725,-9622.677246,995.924147
2870.664853,0.000000,-9918.759623,-536.266849
2870.665181,1850.514855,-10881.027347,-2145.067394
2870.665509,1998.556043,-11177.109724,-1072.533697
2870.665836,444.123565,-10658.965565,536.266849
2870.666164,-222.061783,-8882.471304,612.876398
2870.666492,1258.350101,-8216.285956,-1072.533697
2870.666819,1628.453072,-9770.718434,-1608.800546
2870.667147,1110.308913,-9992.780217,0.000000
2870.667475,0.000000,-8290.306550,1378.971896
2870.667802,592.164754,-7698.141797,1149.143247
2870.668130,1628.453072,-8808.450710,0.000000
2870.668457,1850.514855,-9844.739029,-689.485948
2870.668785,518.144159,-9918.759623,153.219100
2870.669113,-592.164754,-10658.965565,-536.266849
2870.669440,444.123565,-10436.903782,-1149.143247
2870.669768,666.185348,-10436.903782,-1762.019645
2870.670096,-888.247130,-10658.965565,0.000000
2870.670423,-1924.535449,-10288.862594,76.609550
2870.670751,-740.205942,-9918.759623,-229.828649
2870.671078,888.247130,-10288.862594,-1149.143247
2870.671406,1184.329507,-11473.192101,-1455.581446
2870.671734,-518.144159,-10066.800811,536.266849
2870.672061,-1258.350101,-7846.182985,612.876398
2870.672389,0.000000,-7698.141797,-153.219100
2870.672717,1258.350101,-9696.697840,-766.095498
2870.673044,1628.453072,-10510.924376,0.000000
2870.673372,0.000000,-9474.636058,1762.019645
2870.673700,-814.226536,-8438.347739,459.657299
2870.674027,518.144159,-9178.553681,-1149.143247
2870.674355,1554.432478,-10140.821405,-995.924147
2870.674682,-296.082377,-10214.842000,612.876398
2870.675010,-2368.659014,-10214.842000,1072.533697
2870.675338,-1110.308913,-9474.636058,0.000000
2870.675665,1110.308913,-8956.491898,-1838.629195
2870.675993,0.000000,-9178.553681,0.000000
2870.676321,-1702.473667,-8438.347739,1685.410096
2870.676648,-1480.411884,-8956.491898,1915.238745
2870.676976,592.164754,-9474.636058,-842.705048
2870.677303,888.247130,-10362.883188,-1991.848295
2870.677631,-814.226536,-9844.739029,-689.485948
2870.677959,-1776.494261,-9178.553681,-766.095498
2870.678286,-296.082377,-8586.388927,-1532.190996
2870.678614,1998.556043,-10066.800811,-1915.238745
2870.678942,2590.720797,-11251.130318,-383.047749
2870.679269,2960.823768,-10436.903782,842.705048
2870.679597,2294.638420,-9400.615463,1225.752797
2870.679925,2664.741391,-9030.512492,1149.143247
2870.680252,1998.556043,-9400.615463,-153.219100
2870.680580,1406.391290,-9770.718434,0.000000
2870.680907,-518.144159,-9622.677246,0.000000
2870.681235,0.000000,-9622.677246,-919.314598
2870.681563,1332.370696,-9104.533087,-995.924147
2870.681890,814.226536,-9696.697840,229.828649
2870.682218,-666.185348,-9548.656652,306.438199
2870.682546,-888.247130,-10807.006753,76.609550
2870.682873,444.123565,-11177.109724,-2757.943793
2870.683201,1480.411884,-10732.986159,-2834.553343
2870.683528,740.205942,-11177.109724,-995.924147
2870.683856,-518.144159,-9844.739029,1149.143247
2870.684184,148.041188,-8882.471304,689.485948
2870.684511,2294.638420,-10288.862594,-612.876398
2870.684839,2146.597232,-10807.006753,-612.876398
2870.685167,740.205942,-9844.739029,1225.752797
2870.685494,-592.164754,-8290.306550,1225.752797
2870.685822,-962.267725,-7254.018232,153.219100
2870.686150,296.082377,-8216.285956,-612.876398
2870.686477,740.205942,-9622.677246,0.000000
2870.686805,-148.041188,-9178.553681,1838.629195
2870.687132,370.102971,-8364.327145,1991.848295
2870.687460,1776.494261,-8956.491898,229.828649
2870.687788,296.082377,-9252.574275,0.000000
2870.688115,-740.205942,-9696.697840,229.828649
2870.688443,-1628.453072,-9400.615463,0.000000
2870.688771,0.000000,-9696.697840,-1608.800546
2870.689098,1480.411884,-10732.986159,-1532.190996
2870.689426,962.267725,-11917.315666,-612.876398
2870.689753,0.000000,-10955.047942,766.095498
2870.690081,592.164754,-10214.842000,-842.705048
2870.690409,1554.432478,-9622.677246,-1225.752797
2870.690736,1184.329507,-10362.883188,-612.876398
2870.691064,-518.144159,-9622.677246,383.047749
2870.691392,-1554.432478,-7920.203579,229.828649
2870.691719,-2146.597232,-6809.894666,-306.438199
2870.692047,-444.123565,-8142.265362,-1455.581446
2870.692375,0.000000,-9918.759623,-1455.581446
2870.692702,-592.164754,-10881.027347,459.657299
2870.693030,-296.082377,-11325.150913,0.000000
2870.693357,814.226536,-11103.089130,-1455.581446
2870.693685,1776.494261,-10140.821405,-1455.581446
2870.694013,740.205942,-10140.821405,-919.314598
2870.694340,-1850.514855,-10510.924376,842.705048
2870.694668,-518.144159,-9992.780217,0.000000
2870.694996,1258.350101,-9622.677246,-842.705048
2870.695323,1036.288319,-9844.739029,-536.266849
2870.695651,-1628.453072,-8734.430116,1072.533697
2870.695978,-1702.473667,-7994.224174,1378.971896
2870.696306,444.123565,-8586.388927,-306.438199
2870.696634,1628.453072,-10881.027347,-612.876398
2870.696961,1554.432478,-9696.697840,0.000000
2870.697289,0.000000,-8512.368333,1455.581446
2870.697617,74.020594,-8882.471304,1072.533697
2870.697944,1036.288319,-9178.553681,76.609550
2870.698272,1850.514855,-10140.821405,306.438199
2870.698600,370.102971,-10066.800811,306.438199
2870.698927,-518.144159,-9474.636058,459.657299
2870.699255,444.123565,-8660.409521,-383.047749
2870.699582,518.144159,-8660.409521,-995.924147
2870.699910,222.061783,-9474.636058,-229.828649
2870.700238,-592.164754,-10140.821405,306.438199
2870.700565,296.082377,-9844.739029,0.000000
2870.700893,2072.576638,-9918.759623,-1149.143247
2870.701221,2294.638420,-10362.883188,-995.924147
2870.701548,444.123565,-9622.677246,1608.800546
2870.701876,-296.082377,-9178.553681,1072.533697
2870.702203,518.144159,-9770.718434,-842.705048
2870.702531,1776.494261,-11621.233289,-2145.067394
2870.702859,1998.556043,-11843.295072,-1532.190996
2870.703186,0.000000,-10288.862594,0.000000
2870.703514,-962.267725,-9178.553681,1225.752797
2870.703842,-370.102971,-9252.574275,-153.219100
2870.704169,814.226536,-10140.821405,-1532.190996
2870.704497,0.000000,-9918.759623,-459.657299
2870.704825,-666.185348,-8956.491898,842.705048
2870.705152,0.000000,-8068.244768,383.047749
2870.705480,592.164754,-7772.162391,153.219100
2870.705807,592.164754,-8290.306550,536.266849
2870.706135,-740.205942,-8290.306550,766.095498
2870.706463,-888.247130,-9548.656652,0.000000
2870.706790,592.164754,-10584.944971,-1225.752797
2870.707118,962.267725,-11177.109724,-1685.410096
2870.707446,-296.082377,-10362.883188,0.000000
2870.707773,-888.247130,-10436.903782,612.876398
2870.708101,222.061783,-9918.759623,229.828649
2870.708428,1554.432478,-10732.986159,-1225.752797
2870.708756,1702.473667,-10658.965565,-766.095498
2870.709084,74.020594,-8882.471304,459.657299
2870.709411,-1480.411884,-7550.100608,1302.362347
2870.709739,-666.185348,-7105.977043,1149.143247
2870.710067,444.123565,-8216.285956,306.438199
2870.710394,888.247130,-9918.759623,-306.438199
2870.710722,-370.102971,-10214.842000,153.219100
2870.711050,148.041188,-8956.491898,-766.095498
2870.711377,1628.453072,-9252.574275,-1838.629195
2870.711705,1258.350101,-10510.924376,-612.876398
2870.712032,-962.267725,-10955.047942,766.095498
2870.712360,-1702.473667,-11177.109724,536.266849
2870.712688,-518.144159,-10510.924376,-1762.019645
2870.713015,148.041188,-9474.636058,-3064.381992
2870.713343,-1036.288319,-9918.759623,-995.924147
2870.713671,-1850.514855,-10288.862594,1532.190996
2870.713998,-518.144159,-10066.800811,689.485948
2870.714326,1998.556043,-9622.677246,-1532.190996
2870.714653,2220.617826,-10807.006753,-1762.019645
2870.714981,1406.391290,-9918.759623,76.609550
2870.715309,222.061783,-8290.306550,689.485948
2870.715636,148.041188,-7920.203579,612.876398
2870.715964,1258.350101,-9326.594869,-459.657299
2870.716292,1554.432478,-11029.068536,842.705048
2870.716619,370.102971,-9844.739029,1378.971896
2870.716947,0.000000,-8438.347739,153.219100
2870.717275,296.082377,-8586.388927,-766.095498
2870.717602,-740.205942,-8364.327145,-536.266849
2870.717930,-1184.329507,-8956.491898,-306.438199
2870.718257,-1184.329507,-8734.430116,229.828649
2870.718585,518.144159,-8882.471304,0.000000
2870.718913,2442.679609,-9548.656652,76.609550
2870.719240,1924.535449,-10140.821405,919.314598
2870.719568,1036.288319,-10436.903782,1685.410096
2870.719896,518.144159,-10510.924376,229.828649
2870.720223,2220.617826,-10807.006753,-1991.848295
2870.720551,3034.844362,-11399.171507,-2298.286494
2870.720878,1850.514855,-10510.924376,-153.219100
2870.721206,-296.082377,-8586.388927,1838.629195
2870.721534,-740.205942,-8438.347739,1455.581446
2870.721861,444.123565,-9474.636058,-919.314598
2870.722189,1332.370696,-10140.821405,-1991.848295
2870.722516,296.082377,-9918.759623,-153.219100
2870.722844,-962.267725,-8734.430116,612.876398
2870.723172,-222.061783,-8512.368333,0.000000
2870.723499,740.205942,-8882.471304,-1378.971896
2870.723827,0.000000,-9622.677246,-306.438199
2870.724155,-1554.432478,-10066.800811,612.876398
2870.724482,-740.205942,-9622.677246,0.000000
2870.724810,1554.432478,-9992.780217,-1915.238745
2870.725137,1184.329507,-10658.965565,-1685.410096
2870.725465,-666.185348,-11325.150913,229.828649
2870.725793,-740.205942,-10362.883188,612.876398
2870.726120,1258.350101,-9474.636058,-1225.752797
2870.726448,1776.494261,-11473.192101,-2604.724693
2870.726775,444.123565,-10955.047942,-306.438199
2870.727103,-518.144159,-9030.512492,1378.971896
2870.727431,0.000000,-8364.327145,1762.019645
2870.727758,1184.329507,-9030.512492,689.485948
2870.728086,1776.494261,-10066.800811,229.828649
2870.728413,592.164754,-9474.636058,229.828649
2870.728741,-814.226536,-8438.347739,689.485948
2870.729069,-814.226536,-8438.347739,-153.219100
2870.729396,-1036.288319,-8956.491898,-1225.752797
2870.729724,-1850.514855,-9548.656652,-766.095498
2870.730051,-2812.782580,-9992.780217,-612.876398
2870.730379,-2368.659014,-10288.862594,-689.485948
2870.730707,0.000000,-10510.924376,-1685.410096
2870.731034,1776.494261,-9992.780217,-1378.971896
2870.731362,666.185348,-9992.780217,0.000000
2870.731690,-296.082377,-9548.656652,1685.410096
2870.732017,1110.308913,-9696.697840,76.609550
2870.732345,2960.823768,-10140.821405,-995.924147
2870.732672,2590.720797,-10436.903782,0.000000
2870.733000,592.164754,-9474.636058,1378.971896
2870.733328,-1110.308913,-8512.368333,842.705048
2870.733655,222.061783,-9252.574275,-153.219100
2870.733983,1850.514855,-10881.027347,-1532.190996
2870.734310,518.144159,-10955.047942,-612.876398
2870.734638,-1332.370696,-8882.471304,919.314598
2870.734966,-518.144159,-7846.182985,-459.657299
2870.735293,1184.329507,-8216.285956,-842.705048
2870.735621,962.267725,-9400.615463,459.657299
2870.735948,-518.144159,-9918.759623,1762.019645
2870.736276,-1184.329507,-9030.512492,1302.362347
2870.736604,592.164754,-9400.615463,-1838.629195
2870.736931,1184.329507,-10881.027347,-2757.943793
2870.737259,0.000000,-11177.109724,-995.924147
2870.737587,222.061783,-10658.965565,306.438199
2870.737914,1998.556043,-9696.697840,-229.828649
2870.738242,3923.091493,-10214.842000,-1302.362347
2870.738569,2960.823768,-10807.006753,76.609550
2870.738897,962.267725,-9474.636058,1838.629195
2870.739225,-518.144159,-7772.162391,1532.190996
2870.739552,74.020594,-8290.306550,-459.657299
2870.739880,1258.350101,-9548.656652,-1072.533697
2870.740207,1110.308913,-9844.739029,-383.047749
2870.740535,-1406.391290,-9178.553681,919.314598
2870.740863,-1554.432478,-9326.594869,0.000000
2870.741190,-296.082377,-9844.739029,-1838.629195
2870.741518,-222.061783,-10584.944971,-2145.067394
2870.741845,-1406.391290,-10288.862594,-1378.971896
2870.742173,-1702.473667,-9622.677246,0.000000
2870.742501,-296.082377,-9326.594869,153.219100
2870.742828,1332.370696,-10140.821405,-383.047749
2870.743156,444.123565,-9770.718434,0.000000
2870.743483,-740.205942,-9622.677246,995.924147
2870.743811,296.082377,-9918.759623,0.000000
2870.744139,1776.494261,-10584.944971,-1608.800546
2870.744466,1332.370696,-10658.965565,-842.705048
2870.744794,518.144159,-9844.739029,383.047749
2870.745122,-592.164754,-9030.512492,1455.581446
2870.745449,-814.226536,-9770.718434,689.485948
2870.745777,1110.308913,-10436.903782,-842.705048
2870.746104,1036.288319,-10510.924376,-766.095498
2870.746432,-666.185348,-9918.759623,306.438199
2870.746760,-1258.350101,-8438.347739,459.657299
2870.747087,-296.082377,-7105.977043,-536.266849
2870.747415,0.000000,-7920.203579,0.000000
2870.747742,-814.226536,-9844.739029,0.000000
2870.748070,-962.267725,-9548.656652,0.000000
2870.748398,666.185348,-9104.533087,-842.705048
2870.748725,1628.453072,-9326.594869,-995.924147
2870.749053,740.205942,-10732.986159,766.095498
2870.749380,0.000000,-11251.130318,1302.362347
2870.749708,0.000000,-11029.068536,153.219100
2870.750036,1036.288319,-9474.636058,-1915.238745
2870.750363,2146.597232,-9622.677246,-2221.676944
2870.750691,1110.308913,-10436.903782,0.000000
2870.751018,-518.144159,-10066.800811,1838.629195
2870.751346,0.000000,-8882.471304,995.924147
2870.751674,1036.288319,-9252.574275,-1685.410096
2870.752001,666.185348,-10362.883188,-2221.676944
2870.752329,0.000000,-9548.656652,-689.485948
2870.752657,-296.082377,-8586.388927,-306.438199
2870.752984,1184.329507,-9474.636058,-229.828649
2870.753312,3034.844362,-10658.965565,-229.828649
2870.753639,3034.844362,-10436.903782,536.266849
2870.753967,1850.514855,-10214.842000,2221.676944
2870.754295,1110.308913,-9696.697840,1072.533697
2870.754622,888.247130,-9400.615463,-306.438199
2870.754950,0.000000,-9770.718434,-1608.800546
2870.755277,-1850.514855,-9770.718434,-919.314598
2870.755605,-2072.576638,-9400.615463,0.000000
2870.755933,0.000000,-9030.512492,-995.924147
2870.756260,2072.576638,-9770.718434,-1608.800546
2870.756588,2368.659014,-10807.006753,383.047749
2870.756915,814.226536,-10288.862594,919.314598
2870.757243,222.061783,-9770.718434,76.609550
2870.757571,1184.329507,-9992.780217,-689.485948
2870.757898,1628.453072,-10436.903782,-459.657299
2870.758226,444.123565,-9252.574275,842.705048
2870.758554,-592.164754,-8660.409521,1072.533697
2870.758881,-888.247130,-8734.430116,0.000000
2870.759209,0.000000,-9548.656652,-612.876398
2870.759536,0.000000,-10066.800811,-612.876398
2870.759864,-1850.514855,-9844.739029,536.266849
2870.760192,-3108.864956,-8808.450710,0.000000
2870.760519,-1998.556043,-8512.368333,-1225.752797
2870.760847,-666.185348,-9104.533087,-1072.533697
2870.761174,-814.226536,-9770.718434,536.266849
2870.761502,-1110.308913,-9548.656652,1455.581446
2870.761830,-666.185348,-9104.533087,689.485948
2870.762157,1036.288319,-9696.697840,-995.924147
2870.762485,1628.453072,-11547.212695,-995.924147
2870.762812,0.000000,-10436.903782,0.000000
2870.763140,-666.185348,-8364.327145,0.000000
2870.763468,296.082377,-8808.450710,-1225.752797
2870.763795,1332.370696,-10658.965565,-1991.848295
2870.764123,592.164754,-10955.047942,0.000000
2870.764450,0.000000,-9548.656652,919.314598
2870.764778,1036.288319,-8586.388927,383.047749
2870.765106,3256.906145,-9474.636058,-612.876398
2870.765433,3404.947333,-10362.883188,-612.876398
2870.765761,2220.617826,-10658.965565,612.876398
2870.766089,-444.123565,-8660.409521,1072.533697
2870.766416,74.020594,-9030.512492,-919.314598
2870.766744,222.061783,-10288.862594,-1991.848295
2870.767071,-518.144159,-11029.068536,-1762.019645
2870.767399,-1554.432478,-11029.068536,-536.266849
2870.767727,-1036.288319,-10658.965565,-919.314598
2870.768054,888.247130,-10362.883188,-1762.019645
2870.768382,1924.535449,-10362.883188,-1532.190996
2870.768709,444.123565,-9030.512492,229.828649
2870.769037,-518.144159,-8364.327145,1072.533697
2870.769365,148.041188,-8734.430116,536.266849
2870.769692,2072.576638,-8808.450710,0.000000
2870.770020,1480.411884,-8364.327145,995.924147
2870.770347,0.000000,-8734.430116,1838.629195
2870.770675,-814.226536,-9548.656652,1532.190996
2870.771003,444.123565,-9844.739029,-306.438199
2870.771330,962.267725,-10732.986159,-1302.362347
2870.771658,-592.164754,-10214.842000,-459.657299
2870.771986,-2220.617826,-8956.491898,76.609550
2870.772313,-1332.370696,-7846.182985,229.828649
2870.772641,444.123565,-8956.491898,-459.657299
2870.772968,370.102971,-10066.800811,459.657299
2870.773296,-592.164754,-9918.759623,1762.019645
2870.773624,-888.247130,-9252.574275,459.657299
2870.773951,148.041188,-9104.533087,-1532.190996
2870.774279,740.205942,-9844.739029,-1762.019645
2870.774606,74.020594,-11251.130318,0.000000
2870.774934,-740.205942,-10362.883188,0.000000
2870.775262,74.020594,-9918.759623,-536.266849
2870.775589,1480.411884,-9992.780217,-995.924147
2870.775917,2368.659014,-11547.212695,-536.266849
2870.776244,444.123565,-10658.965565,383.047749
2870.776572,-962.267725,-8068.244768,612.876398
2870.776900,-592.164754,-8290.306550,-1072.533697
2870.777227,814.226536,-10658.965565,-1378.971896
2870.777555,0.000000,-10066.800811,0.000000
2870.777882,-1554.432478,-8438.347739,383.047749
2870.778210,-1554.432478,-8586.388927,0.000000
2870.778538,0.000000,-10436.903782,-1455.581446
2870.778865,888.247130,-11473.192101,-2221.676944
2870.779193,-518.144159,-10658.965565,229.828649
2870.779521,-740.205942,-10140.821405,0.000000
2870.779848,962.267725,-9548.656652,-995.924147
2870.780176,2146.597232,-9844.739029,-1225.752797
2870.780503,1702.473667,-9844.739029,383.047749
2870.780831,444.123565,-9178.553681,1302.362347
2870.781159,74.020594,-7994.224174,766.095498
2870.781486,740.205942,-8364.327145,153.219100
2870.781814,1998.556043,-8808.450710,-306.438199
2870.782141,0.000000,-7624.121203,459.657299
2870.782469,-370.102971,-8956.491898,766.095498
2870.782797,888.247130,-9326.594869,0.000000
2870.783124,2442.679609,-10066.800811,-689.485948
2870.783452,1628.453072,-9844.739029,0.000000
2870.783779,296.082377,-9400.615463,1378.971896
2870.784107,0.000000,-9474.636058,459.657299
2870.784435,888.247130,-9770.718434,-1532.190996
2870.784762,1480.411884,-11029.068536,-1838.629195
2870.785090,518.144159,-11029.068536,-383.047749
2870.785417,888.247130,-10066.800811,0.000000
2870.785745,1850.514855,-8956.491898,-153.219100
2870.786073,2072.576638,-10066.800811,229.828649
2870.786400,1036.288319,-11177.109724,995.924147
2870.786728,74.020594,-10436.903782,536.266849
2870.787056,-1036.288319,-9474.636058,-383.047749
2870.787383,-444.123565,-9400.615463,-1072.533697
2870.787711,74.020594,-9474.636058,-536.266849
2870.788038,0.000000,-9992.780217,1225.752797
2870.788366,-1258.350101,-9622.677246,1378.971896
2870.788694,-888.247130,-10066.800811,-306.438199
2870.789021,-888.247130,-10140.821405,-1455.581446
2870.789349,-592.164754,-10140.821405,-1608.800546
2870.789676,-1332.370696,-9178.553681,-995.924147
2870.790004,-1702.473667,-8734.430116,0.000000
2870.790332,-222.061783,-9696.697840,306.438199
2870.790659,2442.679609,-11177.109724,153.219100
2870.790987,2368.659014,-11029.068536,1762.019645
2870.791314,888.247130,-10140.821405,1532.190996
2870.791642,-666.185348,-8660.409521,383.047749
2870.791970,-1406.391290,-8290.306550,-842.705048
2870.792297,-2368.659014,-9178.553681,-1302.362347
2870.792625,-2368.659014,-8882.471304,-689.485948
2870.792953,-2738.761985,-7846.182985,0.000000
2870.793280,-2072.576638,-7105.977043,0.000000
2870.793608,1184.329507,-9252.574275,-383.047749
2870.793935,1406.391290,-10807.006753,153.219100
2870.794263,0.000000,-10436.903782,689.485948
2870.794591,0.000000,-9696.697840,-383.047749
2870.794918,1480.411884,-9030.512492,-1915.238745
2870.795246,1924.535449,-9844.739029,-1225.752797
2870.795573,814.226536,-10436.903782,536.266849
2870.795901,-518.144159,-9622.677246,842.705048
2870.796229,444.123565,-9622.677246,-1072.533697
2870.796556,1924.535449,-10732.986159,-2298.286494
2870.796884,1258.350101,-11473.192101,-1072.533697
2870.797211,0.000000,-10362.883188,306.438199
2870.797539,74.020594,-9104.533087,-306.438199
2870.797867,1628.453072,-8438.347739,-1455.581446
2870.798194,2590.720797,-9918.759623,-919.314598
2870.798522,2590.720797,-11177.109724,1149.143247
2870.798849,1184.329507,-9474.636058,1991.848295
2870.799177,1110.308913,-7920.203579,612.876398
2870.799505,1850.514855,-9326.594869,-919.314598
2870.799832,2294.638420,-11103.089130,-995.924147
2870.800160,740.205942,-8882.471304,383.047749
2870.800488,148.041188,-8290.306550,-766.095498
2870.800815,888.247130,-9992.780217,-1302.362347
2870.801143,2442.679609,-11103.089130,-229.828649
2870.801470,1702.473667,-10140.821405,1225.752797
2870.801798,-740.205942,-8882.471304,2528.115143
2870.802126,518.144159,-8660.409521,1149.143247
2870.802453,2368.659014,-9252.574275,-995.924147
2870.802781,2368.659014,-10732.986159,0.000000
2870.803108,666.185348,-9696.697840,1685.410096
2870.803436,-148.041188,-7772.162391,1225.752797
2870.803764,74.020594,-9104.533087,0.000000
2870.804091,518.144159,-11177.109724,-995.924147
2870.804419,-518.144159,-10955.047942,-919.314598
2870.804746,-2072.576638,-9918.759623,-229.828649
2870.805074,-1924.535449,-9474.636058,-536.266849
2870.805402,-1480.411884,-9474.636058,-2068.457845
2870.805729,-370.102971,-9622.677246,-1149.143247
2870.806057,-740.205942,-8882.471304,459.657299
2870.806385,-1332.370696,-8142.265362,842.705048
2870.806712,0.000000,-8438.347739,-536.266849
2870.807040,814.226536,-9474.636058,-1225.752797
2870.807367,74.020594,-10362.883188,383.047749
2870.807695,-2146.597232,-9622.677246,842.705048
2870.808023,-2368.659014,-9474.636058,-612.876398
2870.808350,-148.041188,-10955.047942,-2451.505594
2870.808678,370.102971,-11991.336260,-2145.067394
2870.809005,-592.164754,-11325.150913,-536.266849
2870.809333,-1184.329507,-9696.697840,306.438199
2870.809661,-222.061783,-8586.388927,-766.095498
2870.809988,592.164754,-9622.677246,-1149.143247
2870.810316,-296.082377,-9770.718434,0.000000
2870.810643,-1628.453072,-8364.327145,919.314598
2870.810971,-2146.597232,-7328.038826,536.266849
2870.811299,-296.082377,-8512.368333,153.219100
2870.811626,222.061783,-9178.553681,-919.314598
2870.811954,-444.123565,-10140.821405,-229.828649
2870.812281,148.041188,-10510.924376,153.219100
2870.812609,1036.288319,-9696.697840,-919.314598
2870.812937,1776.494261,-9622.677246,-1225.752797
2870.813264,1258.350101,-10140.821405,0.000000
2870.813592,222.061783,-9474.636058,1225.752797
2870.813920,-222.061783,-8364.327145,306.438199
2870.814247,1110.308913,-8808.450710,-995.924147
2870.814575,2368.659014,-10732.986159,-766.095498
2870.814902,1406.391290,-10584.944971,995.924147
2870.815230,666.185348,-9400.615463,1302.362347
2870.815558,1110.308913,-9474.636058,-153.219100
2870.815885,2146.597232,-9696.697840,-2145.067394
2870.816213,2886.803174,-10732.986159,-842.705048
2870.816540,1406.391290,-9918.759623,459.657299
2870.816868,296.082377,-9030.512492,919.314598
2870.817196,814.226536,-8586.388927,76.609550
2870.817523,1924.535449,-9400.615463,0.000000
2870.817851,1776.494261,-9844.739029,76.609550
2870.818178,444.123565,-9326.594869,0.000000
2870.818506,962.267725,-9030.512492,-612.876398
2870.818834,2590.720797,-9474.636058,-1685.410096
2870.819161,2146.597232,-10140.821405,-383.047749
2870.819489,74.020594,-9770.718434,689.485948
2870.819817,-296.082377,-9918.759623,536.266849
2870.820144,1332.370696,-9992.780217,-1225.752797
2870.820472,2590.720797,-11695.253884,-612.876398
2870.820799,2146.597232,-11991.336260,383.047749
2870.821127,0.000000,-9622.677246,1225.752797
2870.821455,-296.082377,-9104.533087,153.219100
2870.821782,148.041188,-9548.656652,-1378.971896
2870.822110,666.185348,-10510.924376,-1455.581446
2870.822437,-296.082377,-9104.533087,0.000000
2870.822765,-666.185348,-8068.244768,536.266849
2870.823093,-518.144159,-8290.306550,-153.219100
2870.823420,0.000000,-9622.677246,0.000000
2870.823748,-814.226536,-10288.862594,919.314598
2870.824075,-2146.597232,-9252.574275,76.609550
2870.824403,-2368.659014,-8734.430116,-1225.752797
2870.824731,-1406.391290,-9474.636058,-2374.896044
2870.825058,-592.164754,-9770.718434,-383.047749
2870.825386,-1332.370696,-9770.718434,1991.848295
2870.825713,-2146.597232,-9474.636058,1762.019645
2870.826041,-1480.411884,-9400.615463,-612.876398
2870.826369,-444.123565,-10362.883188,-2451.505594
2870.826696,-444.123565,-11177.109724,-1685.410096
2870.827024,-592.164754,-9992.780217,-306.438199
2870.827352,-592.164754,-9474.636058,0.000000
2870.827679,1258.350101,-9770.718434,0.000000
2870.828007,3034.844362,-10288.862594,153.219100
2870.828334,2590.720797,-10436.903782,2145.067394
2870.828662,592.164754,-9252.574275,2374.896044
2870.828990,-666.185348,-8142.265362,383.047749
2870.829317,-666.185348,-8586.388927,-842.705048
2870.829645,-592.164754,-9844.739029,-1072.533697
2870.829973,-1332.370696,-9252.574275,306.438199
2870.830300,-1924.535449,-8068.244768,459.657299
2870.830628,-444.123565,-8290.306550,-919.314598
2870.830956,1702.473667,-10362.883188,-1149.143247
2870.831284,1924.535449,-11177.109724,229.828649
2870.831611,740.205942,-10436.903782,1302.362347
2870.831939,1184.329507,-9696.697840,0.000000
2870.832267,2368.659014,-9474.636058,-1838.629195
2870.832594,2738.761985,-11177.109724,-1149.143247
2870.832922,1628.453072,-11029.068536,1225.752797
2870.833250,1332.370696,-9696.697840,1072.533697
2870.833577,2368.659014,-9696.697840,-766.095498
2870.833905,3034.844362,-10807.006753,-1532.190996
2870.834233,1406.391290,-10955.047942,0.000000
2870.834560,-518.144159,-9474.636058,536.266849
2870.834888,-1184.329507,-7846.182985,-842.705048
2870.835216,148.041188,-7994.224174,-1608.800546
2870.835544,1628.453072,-9400.615463,-766.095498
2870.835871,1332.370696,-9548.656652,1685.410096
2870.836199,814.226536,-8438.347739,2298.286494
2870.836527,1702.473667,-8068.244768,536.266849
2870.836854,2072.576638,-9474.636058,-612.876398
2870.837182,666.185348,-10436.903782,-229.828649
2870.837510,-1036.288319,-9474.636058,-536.266849
2870.837837,-1184.329507,-9622.677246,-1608.800546
2870.838165,592.164754,-11029.068536,-2298.286494
2870.838493,3034.844362,-12065.356855,-1149.143247
2870.838820,2146.597232,-11399.171507,1838.629195
2870.839148,518.144159,-9992.780217,2528.115143
2870.839476,814.226536,-8734.430116,153.219100
2870.839804,2220.617826,-9326.594869,-1915.238745
2870.840131,1184.329507,-9918.759623,-536.266849
2870.840459,-666.185348,-7920.203579,1225.752797
2870.840787,-2368.659014,-7550.100608,1685.410096
2870.841114,-1998.556043,-8956.491898,459.657299
2870.841442,-444.123565,-10140.821405,-1378.971896
2870.841770,-1628.453072,-10066.800811,-1225.752797
2870.842097,-3182.885551,-10362.883188,-612.876398
2870.842425,-2664.741391,-9178.553681,-1532.190996
2870.842753,-814.226536,-9178.553681,-2374.896044
2870.843080,-740.205942,-9696.697840,-536.266849
2870.843408,-1110.308913,-9326.594869,1072.533697
2870.843736,-222.061783,-8512.368333,1225.752797
2870.844064,888.247130,-9474.636058,0.000000
2870.844391,1628.453072,-10732.986159,-459.657299
2870.844719,222.061783,-11029.068536,689.485948
2870.845047,-1258.350101,-9548.656652,1072.533697
2870.845374,-888.247130,-8956.491898,-459.657299
2870.845702,1036.288319,-10140.821405,-1149.143247
2870.846030,1184.329507,-11769.274478,-842.705048
2870.846357,-592.164754,-9770.718434,536.266849
2870.846685,-1702.473667,-8068.244768,76.609550
2870.847013,-1924.535449,-8512.368333,-612.876398
2870.847340,-592.164754,-9326.594869,-536.266849
2870.847668,-666.185348,-8882.471304,229.828649
2870.847996,-1258.350101,-8586.388927,459.657299
2870.848324,-666.185348,-9178.553681,-1149.143247
2870.848651,296.082377,-8586.388927,-2298.286494
2870.848979,1406.391290,-9770.718434,-1378.971896
2870.849307,888.247130,-10881.027347,153.219100
2870.849634,666.185348,-11029.068536,612.876398
2870.849962,1406.391290,-10066.800811,-1225.752797
2870.850290,3034.844362,-10658.965565,-1608.800546
2870.850617,2294.638420,-11177.109724,0.000000
2870.850945,1554.432478,-11029.068536,1532.190996
2870.851273,1406.391290,-9548.656652,459.657299
2870.851600,2590.720797,-9104.533087,-1149.143247
2870.851928,3256.906145,-10732.986159,-766.095498
2870.852256,1998.556043,-10732.986159,842.705048
2870.852584,-222.061783,-8290.306550,1838.629195
2870.852911,-370.102971,-7994.224174,-229.828649
2870.853239,666.185348,-9178.553681,-2145.067394
2870.853567,518.144159,-10584.944971,-842.705048
2870.853894,-222.061783,-9770.718434,536.266849
2870.854222,0.000000,-8808.450710,76.609550
2870.854550,1110.308913,-8586.388927,-383.047749
2870.854877,2072.576638,-9400.615463,0.000000
2870.855205,814.226536,-9474.636058,1149.143247
2870.855533,-518.144159,-8512.368333,1302.362347
2870.855860,0.000000,-8290.306550,-383.047749
2870.856188,1776.494261,-9992.780217,-1149.143247
2870.856516,1480.411884,-10955.047942,0.000000
2870.856844,592.164754,-10510.924376,1378.971896
2870.857171,148.041188,-9918.759623,919.314598
2870.857499,1184.329507,-10214.842000,-383.047749
2870.857827,1406.391290,-10807.006753,-919.314598
2870.858154,1110.308913,-10807.006753,76.609550
2870.858482,-1480.411884,-8586.388927,842.705048
2870.858810,-2294.638420,-7846.182985,0.000000
2870.859137,-1184.329507,-8660.409521,-1302.362347
2870.859465,-592.164754,-9844.739029,-919.314598
2870.859793,-2072.576638,-8956.491898,76.609550
2870.860120,-1554.432478,-8068.244768,-536.266849
2870.860448,-666.185348,-8956.491898,-995.924147
2870.860776,148.041188,-10066.800811,-612.876398
2870.861104,-740.205942,-10214.842000,0.000000
2870.861431,-2146.597232,-10288.862594,536.266849
2870.861759,-1850.514855,-9844.739029,-536.266849
2870.862087,0.000000,-9770.718434,-2068.457845
2870.862414,0.000000,-11399.171507,-1072.533697
2870.862742,-592.164754,-11547.212695,1072.533697
2870.863070,-592.164754,-10362.883188,919.314598
2870.863397,222.061783,-10140.821405,-1072.533697
2870.863725,666.185348,-10436.903782,-1915.238745
2870.864053,888.247130,-10140.821405,-1225.752797
2870.864380,-666.185348,-8142.265362,0.000000
2870.864708,-962.267725,-7328.038826,995.924147
2870.865036,518.144159,-8956.491898,-383.047749
2870.865363,2442.679609,-10140.821405,536.266849
2870.865691,1776.494261,-9548.656652,1838.629195
2870.866019,814.226536,-9474.636058,1685.410096
2870.866347,222.061783,-8512.368333,0.000000
2870.866674,0.000000,-9326.594869,-1225.752797
2870.867002,-962.267725,-9474.636058,-459.657299
2870.867330,-1480.411884,-8956.491898,153.219100
2870.867657,-1036.288319,-9252.574275,0.000000
2870.867985,888.247130,-9252.574275,-612.876398
2870.868313,2664.741391,-10584.944971,-459.657299
2870.868640,2220.617826,-11029.068536,766.095498
2870.868968,1702.473667,-10658.965565,0.000000
2870.869296,2886.803174,-9770.718434,-919.314598
2870.869623,3849.070898,-10140.821405,-2068.457845
2870.869951,3478.967927,-11029.068536,-459.657299
2870.870279,1998.556043,-10510.924376,1302.362347
2870.870607,814.226536,-9474.636058,995.924147
2870.870934,296.082377,-9400.615463,-612.876398
2870.871262,1406.391290,-10214.842000,-2298.286494
2870.871590,1332.370696,-10140.821405,-842.705048
2870.871917,-666.185348,-9474.636058,0.000000
2870.872245,-1036.288319,-8216.285956,-306.438199
2870.872573,740.205942,-8734.430116,-919.314598
2870.872900,1850.514855,-10140.821405,-383.047749
2870.873228,666.185348,-9178.553681,1378.971896
2870.873556,0.000000,-9400.615463,1455.581446
2870.873883,666.185348,-9252.574275,0.000000
2870.874211,2294.638420,-10288.862594,-1532.190996
2870.874539,1036.288319,-11103.089130,-536.266849
2870.874867,-740.205942,-10140.821405,76.609550
2870.875194,-740.205942,-9548.656652,-459.657299
2870.875522,148.041188,-10362.883188,-2604.724693
2870.875850,1776.494261,-11621.233289,-612.876398
2870.876177,592.164754,-11251.130318,842.705048
2870.876505,-888.247130,-9104.533087,2068.457845
2870.876833,-888.247130,-8068.244768,1378.971896
2870.877160,0.000000,-8512.368333,-536.266849
2870.877488,0.000000,-9326.594869,-536.266849
2870.877816,-1998.556043,-8068.244768,459.657299
2870.878143,-2368.659014,-7624.121203,383.047749
2870.878471,-1184.329507,-8290.306550,-612.876398
2870.878799,-518.144159,-10288.862594,-919.314598
2870.879127,-1850.514855,-11251.130318,76.609550
2870.879454,-3256.906145,-10732.986159,76.609550
2870.879782,-1480.411884,-9918.759623,-2068.457845
2870.880110,888.247130,-9992.780217,-3677.258390
2870.880437,666.185348,-11547.212695,-1915.238745
2870.880765,-148.041188,-9770.718434,1149.143247
2870.881093,74.020594,-9326.594869,1072.533697
2870.881420,1998.556043,-9844.739029,-459.657299
2870.881748,2072.576638,-11177.109724,-306.438199
2870.882076,222.061783,-10510.924376,919.314598
2870.882403,-2368.659014,-8142.265362,536.266849
2870.882731,-1110.308913,-8068.244768,-1225.752797
2870.883059,-296.082377,-9178.553681,-2298.286494
2870.883387,888.247130,-11177.109724,-612.876398
2870.883714,0.000000,-9770.718434,995.924147
2870.884042,-592.164754,-8512.368333,459.657299
2870.884370,0.000000,-8364.327145,-1149.143247
2870.884697,1110.308913,-9622.677246,-1149.143247
2870.885025,148.041188,-9918.759623,536.266849
2870.885353,-1332.370696,-8216.285956,766.095498
2870.885680,0.000000,-8808.450710,-536.266849
2870.886008,2220.617826,-10955.047942,-1838.629195
2870.886336,2960.823768,-11251.130318,-995.924147
2870.886663,1554.432478,-10881.027347,995.924147
2870.886991,1332.370696,-9770.718434,1149.143247
2870.887319,2516.700203,-8882.471304,-612.876398
2870.887647,2664.741391,-9770.718434,-1302.362347
2870.887974,2960.823768,-10881.027347,383.047749
2870.888302,888.247130,-8882.471304,1838.629195
2870.888630,444.123565,-7624.121203,1378.971896
2870.888957,1258.350101,-9030.512492,-995.924147
2870.889285,1776.494261,-11547.212695,-766.095498
2870.889613,0.000000,-9844.739029,536.266849
2870.889940,-1258.350101,-7994.224174,-229.828649
2870.890268,-370.102971,-8660.409521,-1378.971896
2870.890596,888.247130,-10140.821405,-1762.019645
2870.890923,296.082377,-10658.965565,-306.438199
2870.891251,-1036.288319,-10066.800811,1378.971896
2870.891579,-888.247130,-8586.388927,0.000000
2870.891907,592.164754,-8956.491898,-1225.752797
2870.892234,1776.494261,-9992.780217,-536.266849
2870.892562,592.164754,-10807.006753,1455.581446
2870.892890,222.061783,-9992.780217,995.924147
2870.893217,666.185348,-9252.574275,-842.705048
2870.893545,1628.453072,-10436.903782,-1455.581446
2870.893873,518.144159,-10584.944971,76.609550
2870.894200,-666.185348,-9622.677246,995.924147
2870.894528,-1332.370696,-9178.553681,536.266849
2870.894856,0.000000,-9918.759623,-766.095498
2870.895183,518.144159,-10510.924376,-1072.533697
2870.895511,-814.226536,-9992.780217,919.314598
2870.895839,-2368.659014,-7920.203579,1378.971896
2870.896166,-1628.453072,-7920.203579,-383.047749
2870.896494,-1628.453072,-8512.368333,-1915.238745
2870.896822,-814.226536,-9030.512492,-536.266849
2870.897150,-1036.288319,-8956.491898,0.000000
2870.897477,-1036.288319,-8290.306550,153.219100
2870.897805,0.000000,-9252.574275,-612.876398
2870.898133,518.144159,-10732.986159,-612.876398
2870.898460,-444.123565,-11843.295072,-306.438199
2870.898788,-666.185348,-11177.109724,-536.266849
2870.899116,592.164754,-9770.718434,-1532.190996
2870.899443,1776.494261,-9696.697840,-2068.457845
2870.899771,1406.391290,-11325.150913,0.000000
2870.900099,222.061783,-10584.944971,1838.629195
2870.900426,-740.205942,-9252.574275,1072.533697
2870.900754,-370.102971,-8290.306550,-1378.971896
2870.901082,-148.041188,-9696.697840,-2604.724693
2870.901410,-296.082377,-9474.636058,-1532.190996
2870.901737,-962.267725,-8512.368333,0.000000
2870.902065,-518.144159,-8438.347739,-383.047749
2870.902393,1480.411884,-9770.718434,-229.828649
2870.902720,2886.803174,-11251.130318,0.000000
2870.903048,2220.617826,-10658.965565,1149.143247
2870.903376,1332.370696,-9844.739029,1532.190996
2870.903703,1554.432478,-9622.677246,-612.876398
2870.904031,1554.432478,-10140.821405,-1072.533697
2870.904359,888.247130,-10732.986159,459.657299
2870.904686,222.061783,-9474.636058,1072.533697
2870.905014,148.041188,-8364.327145,689.485948
2870.905342,1554.432478,-8956.491898,0.000000
2870.905670,2368.659014,-10584.944971,-383.047749
2870.905997,1554.432478,-10288.862594,536.266849
2870.906325,888.247130,-8956.491898,1378.971896
2870.906653,518.144159,-8290.306550,306.438199
2870.906980,1924.535449,-9326.594869,-306.438199
2870.907308,1998.556043,-10436.903782,459.657299
2870.907636,888.247130,-9844.739029,1685.410096
2870.907963,0.000000,-9548.656652,995.924147
2870.908291,148.041188,-8734.430116,-842.705048
2870.908619,444.123565,-9474.636058,-1149.143247
2870.908946,-592.164754,-10066.800811,-229.828649
2870.909274,-2146.597232,-9178.553681,612.876398
2870.909602,-1184.329507,-8364.327145,-536.266849
2870.909930,1036.288319,-9474.636058,-1838.629195
2870.910257,1628.453072,-10807.006753,-306.438199
2870.910585,296.082377,-10214.842000,1225.752797
2870.910913,222.061783,-9474.636058,612.876398
2870.911240,1036.288319,-9252.574275,-1378.971896
2870.911568,1258.350101,-10584.944971,-1915.238745
2870.911896,74.020594,-11177.109724,-536.266849
2870.912223,-1480.411884,-9992.780217,0.000000
2870.912551,-1036.288319,-9992.780217,-1532.190996
2870.912879,0.000000,-11177.109724,-2528.115143
2870.913206,888.247130,-11621.233289,-1455.581446
2870.913534,-444.123565,-10807.006753,306.438199
2870.913862,-1332.370696,-9474.636058,995.924147
2870.914190,-666.185348,-8586.388927,-766.095498
2870.914517,0.000000,-8660.409521,-1225.752797
2870.914845,-296.082377,-9104.533087,-306.438199
2870.915173,-2960.823768,-8068.244768,1378.971896
2870.915500,-2516.700203,-7920.203579,612.876398
2870.915828,-444.123565,-8882.471304,-995.924147
2870.916156,1110.308913,-11399.171507,-1378.971896
2870.916483,518.144159,-12139.377449,76.609550
2870.916811,370.102971,-10510.924376,229.828649
2870.917139,1702.473667,-9770.718434,-995.924147
2870.917466,2146.597232,-10362.883188,-1838.629195
2870.917794,814.226536,-10362.883188,689.485948
2870.918122,-518.144159,-8216.285956,1685.410096
2870.918450,0.000000,-7476.080014,766.095498
2870.918777,592.164754,-8586.388927,-383.047749
2870.919105,888.247130,-9918.759623,229.828649
2870.919433,148.041188,-9474.636058,919.314598
2870.919760,-666.185348,-8290.306550,1378.971896
2870.920088,-222.061783,-8216.285956,-306.438199
2870.920416,592.164754,-9104.533087,-1608.800546
2870.920743,296.082377,-10510.924376,0.000000
2870.921071,0.000000,-9992.780217,1378.971896
2870.921399,-370.102971,-9178.553681,1072.533697
2870.921726,1110.308913,-10140.821405,-766.095498
2870.922054,1480.411884,-11621.233289,-995.924147
2870.922382,666.185348,-11251.130318,76.609550
2870.922710,-222.061783,-9178.553681,-612.876398
2870.923037,444.123565,-9252.574275,-1532.190996
2870.923365,1554.432478,-10362.883188,-1378.971896
2870.923693,2294.638420,-10732.986159,0.000000
2870.924020,1850.514855,-10881.027347,1302.362347
2870.924348,1036.288319,-9400.615463,919.314598
2870.924676,666.185348,-9030.512492,-306.438199
2870.925003,1110.308913,-10732.986159,-1072.533697
2870.925331,592.164754,-10436.903782,-612.876398
2870.925659,-148.041188,-9252.574275,0.000000
2870.925986,0.000000,-8882.471304,0.000000
2870.926314,1110.308913,-9770.718434,-1455.581446
2870.926642,1110.308913,-10140.821405,0.000000
2870.926969,-592.164754,-9474.636058,153.219100
2870.927297,-2220.617826,-9770.718434,306.438199
2870.927625,-666.185348,-9918.759623,-1685.410096
2870.927953,740.205942,-9622.677246,-2221.676944
2870.928280,444.123565,-10066.800811,153.219100
2870.928608,-370.102971,-9474.636058,1225.752797
2870.928936,592.164754,-8512.368333,919.314598
2870.929263,1776.494261,-8586.388927,0.000000
2870.929591,1702.473667,-10362.883188,-383.047749
2870.929919,370.102971,-10066.800811,459.657299
2870.930244,-222.061783,-8290.306550,995.924147
2870.930572,518.144159,-8290.306550,-153.219100
2870.930900,666.185348,-9844.739029,-995.924147
2870.931227,74.020594,-10955.047942,842.705048
2870.931555,-962.267725,-9400.615463,689.485948
2870.931883,-962.267725,-8734.430116,-306.438199
2870.932210,0.000000,-9252.574275,-1302.362347
2870.932538,148.041188,-9622.677246,-383.047749
2870.932866,-814.226536,-9474.636058,995.924147
2870.933193,-1702.473667,-7920.203579,1608.800546
2870.933521,-1184.329507,-8438.347739,153.219100
2870.933849,74.020594,-9696.697840,-2145.067394
2870.934176,740.205942,-10955.047942,-1532.190996
2870.934504,296.082377,-10658.965565,0.000000
2870.934832,666.185348,-10066.800811,-306.438199
2870.935159,1332.370696,-10510.924376,0.000000
2870.935487,1554.432478,-11325.150913,-459.657299
2870.935815,518.144159,-11177.109724,0.000000
2870.936143,-518.144159,-9918.759623,-229.828649
2870.936470,-592.164754,-9252.574275,-919.314598
2870.936798,148.041188,-9252.574275,-1455.581446
2870.937126,666.185348,-10510.924376,229.828649
2870.937453,-148.041188,-10214.842000,2145.067394
2870.937781,-814.226536,-9474.636058,919.314598
2870.938109,-444.123565,-8660.409521,-2451.505594
2870.938436,0.000000,-9326.594869,-2604.724693
2870.938764,-296.082377,-10066.800811,-995.924147
2870.939092,-1332.370696,-9178.553681,383.047749
2870.939419,-370.102971,-8882.471304,0.000000
2870.939747,1998.556043,-10288.862594,-612.876398
2870.940075,3256.906145,-11621.233289,0.000000
2870.940402,2368.659014,-10807.006753,1455.581446
2870.940730,1184.329507,-8882.471304,1072.533697
2870.941058,1776.494261,-8586.388927,0.000000
2870.941385,2590.720797,-9770.718434,-919.314598
2870.941713,2220.617826,-10436.903782,536.266849
2870.942041,148.041188,-8586.388927,1762.019645
2870.942369,-1110.308913,-7920.203579,842.705048
2870.942696,-370.102971,-7994.224174,-612.876398
2870.943024,0.000000,-9622.677246,-766.095498
2870.943352,-444.123565,-10066.800811,-306.438199
2870.943679,-1036.288319,-9326.594869,0.000000
2870.944007,0.000000,-8660.409521,-1225.752797
2870.944335,1258.350101,-9326.594869,-1225.752797
2870.944662,592.164754,-10140.821405,-306.438199
2870.944990,-370.102971,-9918.759623,919.314598
2870.945318,-444.123565,-9844.739029,306.438199
2870.945645,1036.288319,-10362.883188,-1685.410096
2870.945973,1998.556043,-11769.274478,-1762.019645
2870.946301,962.267725,-11547.212695,0.000000
2870.946628,296.082377,-9474.636058,612.876398
2870.946956,222.061783,-8512.368333,-229.828649
2870.947284,1554.432478,-9178.553681,-1149.143247
2870.947611,1924.535449,-10140.821405,-229.828649
2870.947939,518.144159,-9252.574275,1608.800546
2870.948267,-296.082377,-8290.306550,1455.581446
2870.948594,0.000000,-8364.327145,-306.438199
2870.948922,222.061783,-9770.718434,-1149.143247
2870.949250,-592.164754,-10140.821405,-689.485948
2870.949578,-2072.576638,-9252.574275,-536.266849
2870.949905,-1332.370696,-9252.574275,-1378.971896
2870.950233,296.082377,-11251.130318,-1608.800546
2870.950561,888.247130,-11769.274478,-306.438199
2870.950888,0.000000,-10140.821405,1225.752797
2870.951216,-1258.350101,-9030.512492,1455.581446
2870.951544,-518.144159,-8438.347739,0.000000
2870.951871,518.144159,-9104.533087,0.000000
2870.952199,148.041188,-9252.574275,-306.438199
2870.952527,-740.205942,-8586.388927,1072.533697
2870.952854,-1110.308913,-8364.327145,1149.143247
2870.953182,296.082377,-8734.430116,-459.657299
2870.953510,1406.391290,-11473.192101,-1225.752797
2870.953837,666.185348,-12731.542202,-995.924147
2870.954165,0.000000,-10066.800811,306.438199
2870.954493,1036.288319,-9474.636058,-1455.581446
2870.954820,2072.576638,-10510.924376,-1378.971896
2870.955148,1184.329507,-10881.027347,-306.438199
2870.955476,-444.123565,-9992.780217,766.095498
2870.955804,-1036.288319,-8882.471304,229.828649
2870.956131,74.020594,-7920.203579,-1608.800546
2870.956459,222.061783,-8216.285956,-1149.143247
2870.956787,-888.247130,-8734.430116,459.657299
2870.957114,-2146.597232,-8956.491898,766.095498
2870.957442,74.020594,-9918.759623,-612.876398
2870.957770,1998.556043,-11029.068536,-1915.238745
2870.958097,1776.494261,-11029.068536,-1072.533697
2870.958425,1554.432478,-10584.944971,919.314598
2870.958753,1406.391290,-9696.697840,1302.362347
2870.959080,2590.720797,-9622.677246,76.609550
2870.959408,2294.638420,-11103.089130,-306.438199
2870.959736,814.226536,-10362.883188,-229.828649
2870.960063,-1258.350101,-7994.224174,612.876398
2870.960391,-1036.288319,-7920.203579,-612.876398
2870.960719,666.185348,-8660.409521,-1762.019645
2870.961046,1406.391290,-10140.821405,-766.095498
2870.961374,962.267725,-9548.656652,536.266849
2870.961702,666.185348,-8882.471304,842.705048
2870.962029,1702.473667,-9104.533087,229.828649
2870.962357,1776.494261,-9474.636058,0.000000
2870.962685,-148.041188,-9474.636058,612.876398
2870.963013,-1258.350101,-9474.636058,689.485948
2870.963340,-444.123565,-9992.780217,-689.485948
2870.963668,1184.329507,-11103.089130,-1302.362347
2870.963996,1702.473667,-11991.336260,-995.924147
2870.964323,222.061783,-10807.006753,0.000000
2870.964651,0.000000,-9844.739029,0.000000
2870.964979,592.164754,-10362.883188,-1532.190996
2870.965306,1258.350101,-10955.047942,-1455.581446
2870.965634,888.247130,-10288.862594,-995.924147
2870.965962,-370.102971,-7846.182985,2068.457845
2870.966289,-444.123565,-7328.038826,842.705048
2870.966617,74.020594,-8586.388927,0.000000
2870.966945,296.082377,-10658.965565,0.000000
2870.967272,-370.102971,-10510.924376,-153.219100
2870.967600,-1036.288319,-9030.512492,-689.485948
2870.967928,-444.123565,-9030.512492,-1302.362347
2870.968255,592.164754,-9622.677246,-383.047749
2870.968583,-148.041188,-10584.944971,842.705048
2870.968911,-1184.329507,-10732.986159,1838.629195
2870.969239,-592.164754,-9622.677246,76.609550
2870.969566,666.185348,-10066.800811,-1532.190996
2870.969894,296.082377,-9622.677246,-689.485948
2870.970222,-740.205942,-9178.553681,1608.800546
2870.970549,-1258.350101,-8586.388927,1838.629195
2870.970877,0.000000,-8290.306550,383.047749
2870.971205,962.267725,-9400.615463,-919.314598
2870.971532,1406.391290,-9992.780217,0.000000
2870.971860,0.000000,-9178.553681,766.095498
2870.972188,0.000000,-8808.450710,-229.828649
2870.972515,1036.288319,-9474.636058,-1149.143247
2870.972843,1628.453072,-10881.027347,-383.047749
2870.973171,74.020594,-10955.047942,306.438199
2870.973498,-962.267725,-9992.780217,459.657299
2870.973826,-962.267725,-8808.450710,-995.924147
2870.974154,-370.102971,-8808.450710,-2068.457845
2870.974481,-888.247130,-9252.574275,-995.924147
2870.974809,-1850.514855,-10510.924376,0.000000
2870.975137,-1480.411884,-10436.903782,306.438199
2870.975465,740.205942,-10214.842000,-2221.676944
2870.975792,1332.370696,-10955.047942,-2451.505594
2870.976120,518.144159,-10584.944971,-1225.752797
2870.976448,74.020594,-10362.883188,153.219100
2870.976775,1406.391290,-10362.883188,-229.828649
2870.977103,3256.906145,-11251.130318,-1532.190996
2870.977431,3849.070898,-11029.068536,-536.266849
2870.977758,2516.700203,-9770.718434,1378.971896
2870.978086,1480.411884,-8956.491898,1838.629195
2870.978414,888.247130,-8882.471304,612.876398
2870.978741,814.226536,-9178.553681,-689.485948
2870.979069,814.226536,-9622.677246,-689.485948
2870.979397,-222.061783,-8438.347739,76.609550
2870.979724,0.000000,-7402.059420,383.047749
2870.980052,592.164754,-7846.182985,689.485948
2870.980380,814.226536,-9326.594869,1225.752797
2870.980707,-518.144159,-10436.903782,1608.800546
2870.981035,-1332.370696,-9326.594869,536.266849
2870.981363,0.000000,-9252.574275,-1608.800546
2870.981690,666.185348,-9622.677246,-1762.019645
2870.982018,1036.288319,-10510.924376,-1072.533697
2870.982346,74.020594,-9918.759623,1378.971896
2870.982674,1036.288319,-9770.718434,842.705048
2870.983001,2590.720797,-10362.883188,-536.266849
2870.983329,2812.782580,-11769.274478,-995.924147
2870.983657,1480.411884,-10881.027347,306.438199
2870.983984,-370.102971,-8290.306550,383.047749
2870.984312,-740.205942,-6809.894666,-229.828649
2870.984640,370.102971,-8660.409521,-536.266849
2870.984967,814.226536,-10436.903782,229.828649
2870.985295,74.020594,-9474.636058,1072.533697
2870.985623,-518.144159,-8438.347739,306.438199
2870.985950,0.000000,-8882.471304,-459.657299
2870.986278,-222.061783,-10288.862594,-1762.019645
2870.986606,-1480.411884,-10658.965565,-689.485948
2870.986933,-2442.679609,-9918.759623,-1149.143247
2870.987261,-1480.411884,-10807.006753,-2068.457845
2870.987589,222.061783,-12213.398043,-2681.334243
2870.987916,1110.308913,-12583.501014,-1455.581446
2870.988244,888.247130,-11399.171507,1455.581446
2870.988572,444.123565,-10436.903782,612.876398
2870.988900,1184.329507,-9252.574275,-153.219100
2870.989227,1998.556043,-9400.615463,-612.876398
2870.989555,148.041188,-7920.203579,0.000000
2870.989883,-2072.576638,-6957.935855,1685.410096
2870.990210,-2442.679609,-7402.059420,1455.581446
2870.990538,-518.144159,-8956.491898,-229.828649
2870.990866,444.123565,-9844.739029,-1072.533697
2870.991193,0.000000,-10140.821405,0.000000
2870.991521,-962.267725,-9844.739029,536.266849
2870.991849,1258.350101,-9992.780217,-536.266849
2870.992176,2294.638420,-10066.800811,-1455.581446
2870.992504,666.185348,-10288.862594,0.000000
2870.992832,-888.247130,-9548.656652,1302.362347
2870.993159,-148.041188,-8956.491898,153.219100
2870.993487,740.205942,-9474.636058,-1072.533697
2870.993815,444.123565,-10140.821405,-383.047749
2870.994142,-370.102971,-9474.636058,229.828649
2870.994470,-296.082377,-9104.533087,0.000000
2870.994798,1110.308913,-10140.821405,-1225.752797
2870.995126,2590.720797,-11029.068536,-1225.752797
2870.995453,2294.638420,-10510.924376,0.000000
2870.995781,962.267725,-9548.656652,1762.019645
2870.996109,296.082377,-8808.450710,689.485948
2870.996436,1184.329507,-8956.491898,0.000000
2870.996764,1332.370696,-10658.965565,0.000000
2870.997092,370.102971,-11177.109724,76.609550
2870.997419,-518.144159,-9252.574275,0.000000
2870.997747,-592.164754,-8734.430116,-1072.533697
2870.998075,0.000000,-8586.388927,-2068.457845
2870.998402,74.020594,-10214.842000,-1378.971896
2870.998730,-592.164754,-9844.739029,229.828649
2870.999058,0.000000,-9622.677246,229.828649
2870.999385,1184.329507,-9622.677246,-306.438199
2870.999713,1924.535449,-10140.821405,229.828649
2871.000041,1110.308913,-10881.027347,919.314598
2871.000368,0.000000,-9770.718434,919.314598
2871.000696,148.041188,-8882.471304,-995.924147
2871.001024,1924.535449,-10510.924376,-1762.019645
2871.001351,1998.556043,-11621.233289,-536.266849
2871.001679,296.082377,-10066.800811,919.314598
2871.002007,-740.205942,-8290.306550,1072.533697
2871.002335,222.061783,-9252.574275,-689.485948
2871.002662,740.205942,-11103.089130,-1302.362347
2871.002990,-370.102971,-9326.594869,0.000000
2871.003318,-888.247130,-7105.977043,919.314598
2871.003645,-814.226536,-6883.915261,383.047749
2871.003973,222.061783,-7920.203579,0.000000
2871.004301,0.000000,-9178.553681,459.657299
2871.004628,-592.164754,-9474.636058,153.219100
2871.004956,-1332.370696,-9918.759623,-536.266849
2871.005284,-444.123565,-10510.924376,-2298.286494
2871.005611,222.061783,-10807.006753,-2451.505594
2871.005939,370.102971,-11399.171507,-919.314598
2871.006267,222.061783,-11843.295072,536.266849
2871.006594,962.267725,-11325.150913,-153.219100
2871.006922,2146.597232,-10584.944971,-766.095498
2871.007250,1850.514855,-9770.718434,-229.828649
2871.007577,0.000000,-9104.533087,1072.533697
2871.007905,-1554.432478,-7846.182985,1685.410096
2871.008233,-1554.432478,-7402.059420,229.828649
2871.008561,74.020594,-8882.471304,-1302.362347
2871.008888,592.164754,-9622.677246,-842.705048
2871.009216,-222.061783,-9474.636058,0.000000
2871.009544,-222.061783,-9030.512492,0.000000
2871.009871,592.164754,-9474.636058,-919.314598
2871.010199,148.041188,-10807.006753,-306.438199
2871.010527,-1184.329507,-10658.965565,459.657299
2871.010854,-1850.514855,-9696.697840,-229.828649
2871.011182,-592.164754,-9992.780217,-1149.143247
2871.011510,888.247130,-10436.903782,-1685.410096
2871.011837,0.000000,-10362.883188,536.266849
2871.012165,-370.102971,-10510.924376,1915.238745
2871.012493,592.164754,-9548.656652,612.876398
2871.012820,2072.576638,-9548.656652,-1072.533697
2871.013148,2146.597232,-10066.800811,-995.924147
2871.013476,962.267725,-9474.636058,306.438199
2871.013803,0.000000,-8438.347739,842.705048
2871.014131,-296.082377,-8216.285956,919.314598
2871.014459,666.185348,-9252.574275,0.000000
2871.014786,2368.659014,-10214.842000,536.266849
2871.015114,2072.576638,-10140.821405,1149.143247
2871.015442,1110.308913,-9178.553681,536.266849
2871.015770,666.185348,-8438.347739,-536.266849
2871.016097,666.185348,-9104.533087,-1532.190996
2871.016425,-592.164754,-9622.677246,-612.876398
2871.016753,-1110.308913,-8808.450710,229.828649
2871.017080,-592.164754,-8586.388927,0.000000
2871.017408,1554.432478,-10510.924376,-383.047749
2871.017736,1998.556043,-11177.109724,0.000000
2871.018063,1184.329507,-10807.006753,1302.362347
2871.018391,888.247130,-10066.800811,842.705048
2871.018719,1258.350101,-9696.697840,-1378.971896
2871.019046,1110.308913,-10436.903782,-1838.629195
2871.019374,296.082377,-10510.924376,-459.657299
2871.019702,-1184.329507,-9252.574275,689.485948
2871.020029,-1258.350101,-9104.533087,0.000000
2871.020357,0.000000,-10066.800811,-1532.190996
2871.020685,1110.308913,-10658.965565,-1149.143247
2871.021012,518.144159,-9622.677246,-536.266849
2871.021340,-888.247130,-8512.368333,0.000000
2871.021668,0.000000,-8290.306550,-153.219100
2871.021996,1110.308913,-8512.368333,-842.705048
2871.022323,74.020594,-9696.697840,689.485948
2871.022651,-1110.308913,-9252.574275,1838.629195
2871.022979,-444.123565,-7846.182985,842.705048
2871.023306,444.123565,-9252.574275,-842.705048
2871.023634,1036.288319,-11177.109724,-1608.800546
2871.023962,74.020594,-10955.047942,0.000000
2871.024289,-444.123565,-10066.800811,0.000000
2871.024617,0.000000,-9548.656652,-1072.533697
2871.024945,1332.370696,-10955.047942,-1991.848295
2871.025272,814.226536,-11177.109724,-612.876398
2871.025600,74.020594,-10436.903782,1072.533697
2871.025928,0.000000,-8956.491898,2298.286494
2871.026255,1036.288319,-8956.491898,0.000000
2871.026583,666.185348,-9844.739029,-536.266849
2871.026911,-962.267725,-9252.574275,306.438199
2871.027238,-2368.659014,-6883.915261,76.609550
2871.027566,-1628.453072,-6809.894666,-536.266849
2871.027894,-888.247130,-8512.368333,-1762.019645
2871.028222,-518.144159,-10214.842000,-459.657299
2871.028549,-518.144159,-11547.212695,459.657299
2871.028877,0.000000,-10732.986159,0.000000
2871.029204,1332.370696,-11547.212695,-1149.143247
2871.029532,2146.597232,-11991.336260,-1378.971896
2871.029859,2220.617826,-11547.212695,-383.047749
2871.030187,1332.370696,-10658.965565,689.485948
2871.030515,1332.370696,-9622.677246,153.219100
2871.030842,2220.617826,-10510.924376,-1225.752797
2871.031170,1258.350101,-10584.944971,-306.438199
2871.031497,-1332.370696,-8660.409521,842.705048
2871.031825,-2516.700203,-7402.059420,612.876398
2871.032152,-814.226536,-8734.430116,-1072.533697
2871.032480,1036.288319,-9696.697840,-2145.067394
2871.032808,1258.350101,-9844.739029,0.000000
2871.033135,370.102971,-8808.450710,1378.971896
2871.033463,296.082377,-8290.306550,919.314598
2871.033790,1628.453072,-9104.533087,-153.219100
2871.034118,740.205942,-9474.636058,0.000000
2871.034446,-518.144159,-9474.636058,1072.533697
2871.034773,-296.082377,-9622.677246,153.219100
2871.035101,296.082377,-9326.594869,-1225.752797
2871.035428,962.267725,-10288.862594,-1608.800546
2871.035756,814.226536,-10881.027347,-766.095498
2871.036083,74.020594,-9622.677246,536.266849
2871.036411,1036.288319,-9252.574275,0.000000
2871.036739,2664.741391,-9844.739029,-689.485948
2871.037066,2960.823768,-9770.718434,-1378.971896
2871.037394,962.267725,-8586.388927,1455.581446
2871.037721,-740.205942,-8290.306550,1762.019645
2871.038049,0.000000,-9326.594869,0.000000
2871.038376,814.226536,-11029.068536,-1685.410096
2871.038704,518.144159,-11251.130318,-1378.971896
2871.039032,-222.061783,-10288.862594,0.000000
2871.039359,-148.041188,-9918.759623,-1225.752797
2871.039687,-148.041188,-9696.697840,-1072.533697
2871.040014,-74.020594,-9992.780217,-766.095498
2871.040342,-962.267725,-10288.862594,76.609550
2871.040670,-1406.391290,-9030.512492,153.219100
2871.040997,-740.205942,-8364.327145,-536.266849
2871.041325,518.144159,-9178.553681,-153.219100
2871.041652,962.267725,-10436.903782,842.705048
2871.041980,592.164754,-10436.903782,689.485948
2871.042307,0.000000,-9696.697840,306.438199
2871.042635,740.205942,-9622.677246,-1991.848295
2871.042963,1036.288319,-10807.006753,-1915.238745
2871.043290,148.041188,-11695.253884,0.000000
2871.043618,-888.247130,-9918.759623,1072.533697
2871.043945,-296.082377,-8586.388927,229.828649
2871.044273,814.226536,-9030.512492,-995.924147
2871.044600,1184.329507,-9918.759623,229.828649
2871.044928,-370.102971,-9252.574275,1225.752797
2871.045256,-1850.514855,-7031.956449,1072.533697
2871.045583,-1554.432478,-6365.771101,-383.047749
2871.045911,0.000000,-8068.244768,-1072.533697
2871.046238,0.000000,-10288.862594,0.000000
2871.046566,-296.082377,-9844.739029,919.314598
2871.046894,0.000000,-9474.636058,-229.828649
2871.047221,1628.453072,-10807.006753,-2145.067394
2871.047549,2146.597232,-11917.315666,-1225.752797
2871.047876,222.061783,-11251.130318,766.095498
2871.048204,-1110.308913,-9548.656652,536.266849
2871.048531,222.061783,-9770.718434,-1149.143247
2871.048859,1702.473667,-9844.739029,-3064.381992
2871.049187,444.123565,-9770.718434,-1149.143247
2871.049514,-1554.432478,-9400.615463,2451.505594
2871.049842,-370.102971,-9178.553681,1225.752797
2871.050169,2220.617826,-10140.821405,-1838.629195
2871.050497,2368.659014,-11177.109724,-2451.505594
2871.050825,296.082377,-10066.800811,-919.314598
2871.051152,-444.123565,-8290.306550,1149.143247
2871.051480,518.144159,-8734.430116,-766.095498
2871.051807,1332.370696,-9918.759623,-919.314598
2871.052135,1332.370696,-10510.924376,0.000000
2871.052462,1258.350101,-9992.780217,1302.362347
2871.052790,888.247130,-9400.615463,1455.581446
2871.053118,1184.329507,-10214.842000,-383.047749
2871.053445,666.185348,-10362.883188,-919.314598
2871.053773,0.000000,-9474.636058,-153.219100
2871.054100,-592.164754,-8216.285956,76.609550
2871.054428,296.082377,-8734.430116,306.438199
2871.054755,2220.617826,-10066.800811,842.705048
2871.055083,2294.638420,-10140.821405,919.314598
2871.055411,148.041188,-9252.574275,1915.238745
2871.055738,-444.123565,-8364.327145,1302.362347
2871.056066,0.000000,-8512.368333,-766.095498
2871.056393,370.102971,-9770.718434,-1608.800546
2871.056721,-666.185348,-9770.718434,-229.828649
2871.057049,-1406.391290,-8512.368333,842.705048
2871.057376,-370.102971,-7698.141797,153.219100
2871.057704,888.247130,-9252.574275,-1149.143247
2871.058031,444.123565,-10436.903782,-536.266849
2871.058359,-296.082377,-10807.006753,842.705048
2871.058686,-962.267725,-9548.656652,383.047749
2871.059014,0.000000,-9474.636058,-1225.752797
2871.059342,296.082377,-9770.718434,-1762.019645
2871.059669,296.082377,-10510.924376,76.609550
2871.059997,518.144159,-10140.821405,1072.533697
2871.060324,148.041188,-9844.739029,229.828649
2871.060652,1258.350101,-9474.636058,-995.924147
2871.060979,1332.370696,-10658.965565,-1532.190996
2871.061307,-296.082377,-10955.047942,-383.047749
2871.061635,-1258.350101,-9548.656652,0.000000
2871.061962,-296.082377,-9178.553681,-1838.629195
2871.062290,148.041188,-9696.697840,-1149.143247
2871.062617,-666.185348,-11769.274478,-229.828649
2871.062945,-1258.350101,-10288.862594,1302.362347
2871.063273,-518.144159,-8808.450710,459.657299
2871.063600,962.267725,-8956.491898,-995.924147
2871.063928,962.267725,-9770.718434,-689.485948
2871.064255,-962.267725,-8586.388927,536.266849
2871.064583,-2294.638420,-7476.080014,612.876398
2871.064910,-1258.350101,-7698.141797,-383.047749
2871.065238,0.000000,-9030.512492,-1685.410096
2871.065566,148.041188,-10362.883188,-536.266849
2871.065893,148.041188,-10658.965565,1072.533697
2871.066221,1036.288319,-10140.821405,536.266849
2871.066548,2442.679609,-10584.944971,-612.876398
2871.066876,2738.761985,-10584.944971,-383.047749
2871.067203,2220.617826,-9844.739029,229.828649
2871.067531,666.185348,-8586.388927,1302.362347
2871.067859,962.267725,-8734.430116,76.609550
2871.068186,1628.453072,-9992.780217,-766.095498
2871.068514,1110.308913,-10214.842000,-229.828649
2871.068841,-222.061783,-9030.512492,229.828649
2871.069169,-1702.473667,-7994.224174,-229.828649
2871.069497,-666.185348,-8808.450710,-1762.019645
2871.069824,444.123565,-10066.800811,-2451.505594
2871.070152,814.226536,-10955.047942,-689.485948
2871.070479,74.020594,-9474.636058,842.705048
2871.070807,148.041188,-8882.471304,689.485948
2871.071134,1924.535449,-10436.903782,-306.438199
2871.071462,2072.576638,-11473.192101,-153.219100
2871.071790,814.226536,-11399.171507,689.485948
2871.072117,148.041188,-9992.780217,0.000000
2871.072445,1036.288319,-9474.636058,-1378.971896
2871.072772,1702.473667,-10732.986159,-1838.629195
2871.073100,814.226536,-11251.130318,0.000000
2871.073428,-1184.329507,-9030.512492,1762.019645
2871.073755,-296.082377,-7994.224174,1532.190996
2871.074083,962.267725,-8956.491898,-842.705048
2871.074410,1258.350101,-10140.821405,0.000000
2871.074738,-222.061783,-8808.450710,1532.190996
2871.075065,-1110.308913,-7846.182985,2068.457845
2871.075393,-444.123565,-8364.327145,76.609550
2871.075721,740.205942,-9548.656652,-1302.362347
2871.076048,0.000000,-11029.068536,-1455.581446
2871.076376,-1406.391290,-10362.883188,229.828649
2871.076703,-1332.370696,-9548.656652,0.000000
2871.077031,444.123565,-10140.821405,-1225.752797
2871.077358,444.123565,-11177.109724,-1072.533697
2871.077686,-444.123565,-10584.944971,842.705048
2871.078014,0.000000,-8142.265362,842.705048
2871.078341,148.041188,-7402.059420,-383.047749
2871.078669,1554.432478,-9178.553681,-842.705048
2871.078996,296.082377,-9548.656652,689.485948
2871.079324,-888.247130,-8956.491898,1455.581446
2871.079652,-1184.329507,-8660.409521,153.219100
2871.079979,-296.082377,-9548.656652,-2145.067394
2871.080307,518.144159,-10955.047942,-2451.505594
2871.080634,-1332.370696,-10807.006753,-536.266849
2871.080962,-1258.350101,-10066.800811,306.438199
2871.081289,0.000000,-9326.594869,-919.314598
2871.081617,1258.350101,-10807.006753,-842.705048
2871.081945,74.020594,-10436.903782,0.000000
2871.082272,-1480.411884,-9104.533087,766.095498
2871.082600,-1628.453072,-8290.306550,0.000000
2871.082927,-444.123565,-9326.594869,-2068.457845
2871.083255,592.164754,-10732.986159,-1532.190996
2871.083582,592.164754,-10732.986159,0.000000
2871.083910,1110.308913,-9844.739029,536.266849
2871.084238,2368.659014,-9918.759623,-689.485948
2871.084565,2590.720797,-11103.089130,-1149.143247
2871.084893,2812.782580,-11547.212695,-842.705048
2871.085220,1628.453072,-9918.759623,1532.190996
2871.085548,74.020594,-8364.327145,1455.581446
2871.085876,444.123565,-8956.491898,-459.657299
2871.086203,0.000000,-9770.718434,-612.876398
2871.086531,-962.267725,-9844.739029,306.438199
2871.086858,-1480.411884,-8734.430116,229.828649
2871.087186,-370.102971,-8142.265362,-1378.971896
2871.087513,1110.308913,-8882.471304,-2374.896044
2871.087841,1702.473667,-9696.697840,-1225.752797
2871.088169,1332.370696,-10362.883188,1302.362347
2871.088496,592.164754,-9622.677246,1302.362347
2871.088824,1628.453072,-9992.780217,-612.876398
2871.089151,2590.720797,-10584.944971,-1532.190996
2871.089479,2664.741391,-9770.718434,76.609550
2871.089806,1776.494261,-9178.553681,766.095498
2871.090134,814.226536,-8808.450710,1302.362347
2871.090462,2072.576638,-10066.800811,-306.438199
2871.090789,1776.494261,-11547.212695,-459.657299
2871.091117,0.000000,-9770.718434,229.828649
2871.091444,-1702.473667,-7402.059420,0.000000
2871.091772,-1036.288319,-7105.977043,-1225.752797
2871.092100,370.102971,-9252.574275,-995.924147
2871.092427,296.082377,-10807.006753,459.657299
2871.092755,-1036.288319,-9918.759623,2298.286494
2871.093082,-222.061783,-9030.512492,536.266849
2871.093410,518.144159,-9400.615463,-1915.238745
2871.093737,0.000000,-10732.986159,-2145.067394
2871.094065,-1998.556043,-10584.944971,-229.828649
2871.094393,-2368.659014,-9770.718434,0.000000
2871.094720,-1480.411884,-9178.553681,-1608.800546
2871.095048,888.247130,-10288.862594,-2221.676944
2871.095375,1110.308913,-11547.212695,-229.828649
2871.095703,740.205942,-10732.986159,1762.019645
2871.096030,518.144159,-9178.553681,1302.362347
2871.096358,1110.308913,-8956.491898,-1149.143247
2871.096686,1480.411884,-9474.636058,-842.705048
2871.097013,444.123565,-9770.718434,1378.971896
2871.097341,-518.144159,-7920.203579,1608.800546
2871.097668,-296.082377,-7254.018232,306.438199
2871.097996,74.020594,-9474.636058,-1378.971896
2871.098324,0.000000,-11029.068536,-766.095498
2871.098651,-518.144159,-9622.677246,229.828649
2871.098979,-518.144159,-9474.636058,-229.828649
2871.099306,740.205942,-9252.574275,-1378.971896
2871.099634,888.247130,-9622.677246,-1302.362347
2871.099961,-666.185348,-10066.800811,612.876398
2871.100289,-1924.535449,-10584.944971,1532.190996
2871.100617,-592.164754,-10214.842000,153.219100
2871.100944,1702.473667,-9844.739029,-1378.971896
2871.101272,1406.391290,-10732.986159,-459.657299
2871.101599,222.061783,-9844.739029,1302.362347
2871.101927,-370.102971,-8660.409521,1532.190996
2871.102255,666.185348,-8586.388927,-995.924147
2871.102582,1036.288319,-10214.842000,-2145.067394
2871.102910,592.164754,-10881.027347,-306.438199
2871.103237,-592.164754,-9474.636058,1532.190996
2871.103565,-148.041188,-8586.388927,689.485948
2871.103892,1036.288319,-9474.636058,-1608.800546
2871.104220,1258.350101,-11325.150913,-766.095498
2871.104548,1406.391290,-11325.150913,536.266849
2871.104875,1036.288319,-9252.574275,0.000000
2871.105203,962.267725,-8660.409521,-919.314598
2871.105530,1480.411884,-8882.471304,-1072.533697
2871.105858,444.123565,-9844.739029,459.657299
2871.106185,-2072.576638,-9770.718434,1455.581446
2871.106513,-2220.617826,-9178.553681,229.828649
2871.106841,-888.247130,-9918.759623,-2298.286494
2871.107168,1850.514855,-10955.047942,-2834.553343
2871.107496,814.226536,-10066.800811,-153.219100
2871.107823,740.205942,-9474.636058,1532.190996
2871.108151,1036.288319,-8438.347739,919.314598
2871.108479,2294.638420,-9696.697840,-383.047749
2871.108806,1850.514855,-9992.780217,-383.047749
2871.109134,-740.205942,-9474.636058,842.705048
2871.109461,-888.247130,-7698.141797,995.924147
2871.109789,0.000000,-8808.450710,-612.876398
2871.110116,666.185348,-10955.047942,-1685.410096
2871.110444,222.061783,-11325.150913,-383.047749
2871.110772,-444.123565,-8882.471304,-306.438199
2871.111099,0.000000,-7105.977043,-1225.752797
2871.111427,518.144159,-8586.388927,-1149.143247
2871.111754,444.123565,-9992.780217,383.047749
2871.112082,-592.164754,-9622.677246,2528.115143
2871.112409,-518.144159,-8882.471304,1762.019645
2871.112737,814.226536,-9548.656652,-1072.533697
2871.113065,2072.576638,-10955.047942,-2298.286494
2871.113392,666.185348,-11621.233289,-536.266849
2871.113720,0.000000,-10807.006753,383.047749
2871.114047,0.000000,-10362.883188,0.000000
2871.114375,814.226536,-10658.965565,-1149.143247
2871.114703,444.123565,-10436.903782,76.609550
2871.115030,0.000000,-9992.780217,995.924147
2871.115358,-1110.308913,-7624.121203,766.095498
2871.115685,-814.226536,-7105.977043,-306.438199
2871.116013,0.000000,-9178.553681,-995.924147
2871.116340,0.000000,-9918.759623,0.000000
2871.116668,-666.185348,-8586.388927,995.924147
2871.116996,0.000000,-7846.182985,76.609550
2871.117323,1628.453072,-9252.574275,-1762.019645
2871.117651,1258.350101,-11399.171507,-1072.533697
2871.117978,0.000000,-11473.192101,1072.533697
2871.118306,-518.144159,-10362.883188,536.266849
2871.118633,814.226536,-10584.944971,-1072.533697
2871.118961,1702.473667,-10288.862594,-1915.238745
2871.119289,1258.350101,-10510.924376,459.657299
2871.119616,-444.123565,-9104.533087,1685.410096
2871.119944,-444.123565,-9030.512492,766.095498
2871.120271,592.164754,-9252.574275,-1072.533697
2871.120599,1628.453072,-10066.800811,-1302.362347
2871.120927,370.102971,-9548.656652,229.828649
2871.121254,0.000000,-8512.368333,383.047749
2871.121582,0.000000,-8956.491898,-995.924147
2871.121909,1184.329507,-10214.842000,-1608.800546
2871.122237,1258.350101,-10955.047942,-1532.190996
2871.122564,962.267725,-10584.944971,0.000000
2871.122892,0.000000,-9326.594869,306.438199
2871.123220,444.123565,-8734.430116,-612.876398
2871.123547,296.082377,-9548.656652,-612.876398
2871.123875,-740.205942,-10436.903782,1072.533697
2871.124202,-1406.391290,-9474.636058,536.266849
2871.124530,-888.247130,-8956.491898,-1149.143247
2871.124858,888.247130,-9104.533087,-2451.505594
2871.125185,1110.308913,-10881.027347,-689.485948
2871.125513,-444.123565,-10584.944971,1991.848295
2871.125840,-518.144159,-9474.636058,1378.971896
2871.126168,962.267725,-9918.759623,-1149.143247
2871.126495,2368.659014,-10881.027347,-2528.115143
2871.126823,2368.659014,-11177.109724,-383.047749
2871.127151,1036.288319,-9030.512492,2145.067394
2871.127478,814.226536,-8142.265362,1838.629195
2871.127806,740.205942,-9178.553681,0.000000
2871.128133,222.061783,-10362.883188,-689.485948
2871.128461,-740.205942,-9178.553681,383.047749
2871.128788,-1480.411884,-7105.977043,229.828649
2871.129116,-666.185348,-6957.935855,-612.876398
2871.129444,0.000000,-8290.306550,-306.438199
2871.129771,0.000000,-9844.739029,919.314598
2871.130099,-666.185348,-9622.677246,1608.800546
2871.130426,0.000000,-9844.739029,153.219100
2871.130754,1258.350101,-10362.883188,-1991.848295
2871.131082,888.247130,-10658.965565,-2298.286494
2871.131409,0.000000,-10807.006753,-383.047749
2871.131737,296.082377,-10658.965565,-229.828649
2871.132065,888.247130,-10288.862594,-995.924147
2871.132392,2072.576638,-11029.068536,-1762.019645
2871.132720,1850.514855,-11695.253884,-536.266849
2871.133047,0.000000,-10066.800811,459.657299
2871.133375,-592.164754,-8290.306550,766.095498
2871.133703,-592.164754,-7994.224174,-1149.143247
2871.134030,1110.308913,-9548.656652,-919.314598
2871.134358,74.020594,-9252.574275,766.095498
2871.134686,-814.226536,-7994.224174,1225.752797
2871.135013,-962.267725,-7920.203579,76.609550
2871.135341,518.144159,-9326.594869,-1838.629195
2871.135668,0.000000,-10658.965565,-1302.362347
2871.135996,-962.267725,-11473.192101,0.000000
2871.136324,-222.061783,-11399.171507,-306.438199
2871.136651,1406.391290,-10881.027347,-2068.457845
2871.136979,2368.659014,-11547.212695,-1991.848295
2871.137307,1258.350101,-11843.295072,229.828649
2871.137634,222.061783,-10066.800811,1838.629195
2871.137962,814.226536,-8142.265362,995.924147
2871.138289,2368.659014,-8512.368333,-1225.752797
2871.138617,1554.432478,-9474.636058,306.438199
2871.138945,0.000000,-7772.162391,2221.676944
2871.139272,-1480.411884,-6439.791695,1838.629195
2871.139600,-1332.370696,-6587.832884,-306.438199
2871.139928,-814.226536,-8512.368333,-2145.067394
2871.140255,-666.185348,-11991.336260,-1225.752797
2871.140583,0.000000,-10658.965565,995.924147
2871.140910,1480.411884,-8660.409521,0.000000
2871.141238,3182.885551,-9770.718434,-842.705048
2871.141566,2368.659014,-11473.192101,0.000000
2871.141893,148.041188,-11029.068536,919.314598
2871.142221,-666.185348,-9400.615463,229.828649
2871.142548,-518.144159,-8660.409521,-1685.410096
2871.142876,518.144159,-10658.965565,-2298.286494
2871.143204,518.144159,-11251.130318,-383.047749
2871.143531,-1480.411884,-9770.718434,919.314598
2871.143859,-1110.308913,-10066.800811,0.000000
2871.144187,1258.350101,-11399.171507,-2221.676944
2871.144514,1406.391290,-11399.171507,-2374.896044
2871.144842,222.061783,-9918.759623,-306.438199
2871.145169,-148.041188,-8438.347739,1302.362347
2871.145497,222.061783,-7994.224174,306.438199
2871.145825,888.247130,-10658.965565,-766.095498
2871.146152,444.123565,-11843.295072,76.609550
2871.146480,-444.123565,-9918.759623,383.047749
2871.146808,-1554.432478,-8364.327145,0.000000
2871.147135,-222.061783,-8216.285956,-1915.238745
2871.147463,148.041188,-9622.677246,-1608.800546
2871.147790,-370.102971,-10214.842000,0.000000
2871.148118,-592.164754,-8956.491898,1378.971896
2871.148446,370.102971,-8734.430116,536.266849
2871.148773,1776.494261,-8808.450710,76.609550
2871.149101,1850.514855,-10288.862594,612.876398
2871.149429,518.144159,-10584.944971,1838.629195
2871.149756,518.144159,-8808.450710,766.095498
2871.150084,962.267725,-9104.533087,-1378.971896
2871.150411,1776.494261,-11473.192101,-1532.190996
2871.150739,740.205942,-11769.274478,306.438199
2871.151067,-740.205942,-9104.533087,1225.752797
2871.151394,-814.226536,-7772.162391,-612.876398
2871.151722,296.082377,-9696.697840,-1838.629195
2871.152050,370.102971,-11177.109724,229.828649
2871.152377,-1036.288319,-8438.347739,1225.752797
2871.152705,-1184.329507,-6143.709319,766.095498
2871.153032,0.000000,-7105.977043,-1149.143247
2871.153360,444.123565,-9252.574275,-1149.143247
2871.153688,-222.061783,-9844.739029,459.657299
2871.154015,0.000000,-9696.697840,1608.800546
2871.154343,1036.288319,-10510.924376,-919.314598
2871.154671,1924.535449,-11251.130318,-2834.553343
2871.154998,1406.391290,-12361.439231,-1991.848295
2871.155326,370.102971,-12139.377449,-306.438199
2871.155653,222.061783,-11177.109724,153.219100
2871.155981,1258.350101,-10362.883188,-1302.362347
2871.156309,2590.720797,-10732.986159,-1225.752797
2871.156636,1776.494261,-11029.068536,153.219100
2871.156964,-222.061783,-8956.491898,2451.505594
2871.157292,-1332.370696,-7476.080014,919.314598
2871.157619,-814.226536,-7772.162391,-689.485948
2871.157947,0.000000,-8882.471304,-1685.410096
2871.158274,-740.205942,-9548.656652,76.609550
2871.158602,-888.247130,-8512.368333,1225.752797
2871.158930,666.185348,-8364.327145,0.000000
2871.159257,1924.535449,-10066.800811,-919.314598
2871.159585,1110.308913,-11843.295072,689.485948
2871.159913,148.041188,-10436.903782,1378.971896
2871.160240,-444.123565,-8586.388927,153.219100
2871.160568,0.000000,-8586.388927,-1072.533697
2871.160895,592.164754,-10140.821405,-612.876398
2871.161223,-370.102971,-10214.842000,612.876398
2871.161551,-1406.391290,-9030.512492,2068.457845
2871.161878,0.000000,-8364.327145,-612.876398
2871.162206,1406.391290,-10066.800811,-2374.896044
2871.162533,1332.370696,-10955.047942,-1072.533697
2871.162861,-370.102971,-9400.615463,1455.581446
2871.163189,-740.205942,-8068.244768,2068.457845
2871.163516,0.000000,-9252.574275,-1378.971896
2871.163844,444.123565,-11029.068536,-2221.676944
2871.164172,0.000000,-10510.924376,-842.705048
2871.164499,-148.041188,-9400.615463,-229.828649
2871.164827,0.000000,-9326.594869,-612.876398
2871.165154,666.185348,-9992.780217,-1302.362347
2871.165482,814.226536,-10955.047942,-842.705048
2871.165810,-666.185348,-10732.986159,306.438199
2871.166137,-518.144159,-9178.553681,0.000000
2871.166465,-518.144159,-9252.574275,-1455.581446
2871.166793,1036.288319,-10436.903782,-1915.238745
2871.167120,888.247130,-10658.965565,-229.828649
2871.167448,592.164754,-9474.636058,1455.581446
2871.167775,1406.391290,-9622.677246,459.657299
2871.168103,2590.720797,-10955.047942,-1455.581446
2871.168431,2146.597232,-11547.212695,383.047749
2871.168758,0.000000,-10955.047942,1149.143247
2871.169086,-1332.370696,-8364.327145,0.000000
2871.169414,-962.267725,-7846.182985,-1378.971896
2871.169741,592.164754,-9696.697840,-1455.581446
2871.170069,1110.308913,-10140.821405,612.876398
2871.170396,74.020594,-9104.533087,2681.334243
2871.170724,0.000000,-7402.059420,1455.581446
2871.171052,888.247130,-8068.244768,-306.438199
2871.171379,518.144159,-9104.533087,-536.266849
2871.171707,0.000000,-9030.512492,919.314598
2871.172035,-592.164754,-8364.327145,1838.629195
2871.172362,222.061783,-8142.265362,153.219100
2871.172690,1628.453072,-10510.924376,-2298.286494
2871.173017,1998.556043,-10807.006753,-536.266849
2871.173345,740.205942,-10807.006753,306.438199
2871.173673,518.144159,-10510.924376,-306.438199
2871.174000,1554.432478,-10362.883188,-1302.362347
2871.174328,2442.679609,-11029.068536,-1532.190996
2871.174656,1406.391290,-11325.150913,306.438199
2871.174983,-814.226536,-9030.512492,2068.457845
2871.175311,-222.061783,-7698.141797,459.657299
2871.175638,814.226536,-9548.656652,-1378.971896
2871.175966,0.000000,-10658.965565,-689.485948
2871.176294,-1480.411884,-9030.512492,842.705048
2871.176621,-1924.535449,-6365.771101,76.609550
2871.176949,-888.247130,-7550.100608,-1991.848295
2871.177277,0.000000,-11029.068536,-1838.629195
2871.177604,0.000000,-11843.295072,-306.438199
2871.177932,-592.164754,-10288.862594,919.314598
2871.178259,888.247130,-10658.965565,-612.876398
2871.178587,2664.741391,-11103.089130,-1915.238745
2871.178915,2664.741391,-11843.295072,-459.657299
2871.179242,1184.329507,-11029.068536,1302.362347
2871.179570,0.000000,-8512.368333,536.266849
2871.179898,296.082377,-8660.409521,-1915.238745
2871.180225,370.102971,-10510.924376,-1532.190996
2871.180553,-444.123565,-10584.944971,383.047749
2871.180880,-1924.535449,-8512.368333,1455.581446
2871.181208,-1924.535449,-8290.306550,229.828649
2871.181536,-296.082377,-9548.656652,-1302.362347
2871.181863,370.102971,-10066.800811,-1532.190996
2871.182191,296.082377,-9474.636058,1762.019645
2871.182518,-1036.288319,-7846.182985,1685.410096
2871.182846,-222.061783,-7846.182985,306.438199
2871.183174,148.041188,-9696.697840,-459.657299
2871.183501,0.000000,-10436.903782,0.000000
2871.183829,-1554.432478,-9104.533087,919.314598
2871.184157,-1258.350101,-8660.409521,-766.095498
2871.184484,222.061783,-9326.594869,-1685.410096
2871.184812,1480.411884,-10955.047942,-1762.019645
2871.185139,1110.308913,-9992.780217,689.485948
2871.185467,222.061783,-9104.533087,1762.019645
2871.185795,1480.411884,-9104.533087,383.047749
2871.186122,2886.803174,-9474.636058,-766.095498
2871.186450,1998.556043,-10807.006753,383.047749
2871.186778,222.061783,-9918.759623,1455.581446
2871.187105,-518.144159,-8808.450710,612.876398
2871.187433,666.185348,-9474.636058,-1532.190996
2871.187760,1036.288319,-11325.150913,-1838.629195
2871.188088,148.041188,-11843.295072,-383.047749
2871.188416,-370.102971,-9474.636058,459.657299
2871.188743,222.061783,-7994.224174,-459.657299
2871.189071,888.247130,-9030.512492,-1455.581446
2871.189399,814.226536,-11029.068536,0.000000
2871.189726,-666.185348,-9474.636058,2221.676944
2871.190054,-592.164754,-7624.121203,995.924147
2871.190381,592.164754,-8216.285956,-1225.752797
2871.190709,1850.514855,-9918.759623,-1225.752797
2871.191037,1184.329507,-10510.924376,536.266849
2871.191364,962.267725,-10584.944971,1762.019645
2871.191692,740.205942,-9844.739029,0.000000
2871.192020,1850.514855,-10584.944971,-1991.848295
2871.192347,1480.411884,-11843.295072,-1455.581446
2871.192675,74.020594,-11177.109724,306.438199
2871.193002,-370.102971,-9104.533087,766.095498
2871.193330,444.123565,-9178.553681,-153.219100
2871.193658,1036.288319,-10214.842000,-689.485948
2871.193985,148.041188,-9770.718434,306.438199
2871.194313,-1924.535449,-7179.997637,1378.971896
2871.194641,-2072.576638,-6883.915261,383.047749
2871.194968,-518.144159,-7994.224174,-1455.581446
2871.195296,-296.082377,-9696.697840,-1149.143247
2871.195623,-962.267725,-9252.574275,766.095498
2871.195951,-888.247130,-8882.471304,1225.752797
2871.196279,592.164754,-9252.574275,-1302.362347
2871.196606,1998.556043,-11621.233289,-1532.190996
2871.196934,888.247130,-12361.439231,-536.266849
2871.197262,-148.041188,-10510.924376,766.095498
2871.197589,444.123565,-8734.430116,-306.438199
2871.197917,1628.453072,-9326.594869,-995.924147
2871.198244,962.267725,-11325.150913,-153.219100
2871.198572,-740.205942,-9992.780217,1532.190996
2871.198900,-1850.514855,-8364.327145,995.924147
2871.199227,-1036.288319,-8734.430116,-1455.581446
2871.199555,74.020594,-10140.821405,-2757.943793
2871.199882,-444.123565,-10510.924376,0.000000
2871.200210,-1332.370696,-8586.388927,1838.629195
2871.200538,-592.164754,-8216.285956,306.438199
2871.200865,592.164754,-9548.656652,-1915.238745
2871.201193,1036.288319,-10214.842000,-1915.238745
2871.201521,518.144159,-10584.944971,0.000000
2871.201848,0.000000,-9844.739029,995.924147
2871.202176,370.102971,-9474.636058,-536.266849
2871.202503,1480.411884,-9992.780217,-1302.362347
2871.202831,1406.391290,-10584.944971,-306.438199
2871.203159,518.144159,-10807.006753,1302.362347
2871.203486,296.082377,-9030.512492,383.047749
2871.203814,666.185348,-7846.182985,-1608.800546
2871.204142,1110.308913,-9104.533087,-1378.971896
2871.204469,962.267725,-10881.027347,1532.190996
2871.204797,296.082377,-9400.615463,2451.505594
2871.205124,1258.350101,-8142.265362,536.266849
2871.205452,1702.473667,-9252.574275,-1378.971896
2871.205780,1332.370696,-11695.253884,-612.876398
2871.206107,-296.082377,-10362.883188,842.705048
2871.206435,-592.164754,-8068.244768,0.000000
2871.206763,0.000000,-8216.285956,-1378.971896
2871.207090,592.164754,-9992.780217,-1608.800546
2871.207418,74.020594,-10436.903782,-383.047749
2871.207745,-1184.329507,-8882.471304,1149.143247
2871.208073,222.061783,-8586.388927,-229.828649
2871.208401,1406.391290,-9474.636058,-1378.971896
2871.208728,1480.411884,-10955.047942,-306.438199
2871.209056,1406.391290,-10066.800811,536.266849
2871.209384,1036.288319,-8956.491898,76.609550
2871.209711,1332.370696,-8956.491898,-459.657299
2871.210039,2590.720797,-11177.109724,-1915.238745
2871.210366,1924.535449,-12065.356855,-612.876398
2871.210694,592.164754,-10658.965565,766.095498
2871.211022,0.000000,-9992.780217,0.000000
2871.211349,1554.432478,-10807.006753,-1838.629195
2871.211677,1258.350101,-11251.130318,-2068.457845
2871.212005,-222.061783,-9770.718434,766.095498
2871.212332,-1776.494261,-7698.141797,1608.800546
2871.212660,-444.123565,-7624.121203,153.219100
2871.212987,740.205942,-8438.347739,-995.924147
2871.213315,-962.267725,-8808.450710,229.828649
2871.213643,-2664.741391,-8216.285956,1685.410096
2871.213970,-2442.679609,-8068.244768,0.000000
2871.214298,-962.267725,-9696.697840,-1991.848295
2871.214626,888.247130,-10732.986159,-1762.019645
2871.214953,1184.329507,-11621.233289,0.000000
2871.215281,962.267725,-10436.903782,1455.581446
2871.215608,1924.535449,-10066.800811,383.047749
2871.215936,3034.844362,-10436.903782,229.828649
2871.216264,1480.411884,-10881.027347,-766.095498
2871.216591,-666.185348,-9400.615463,0.000000
2871.216919,-1480.411884,-7994.224174,-229.828649
2871.217247,-592.164754,-8660.409521,-995.924147
2871.217574,518.144159,-10362.883188,-689.485948
2871.217902,-740.205942,-10955.047942,766.095498
2871.218229,-1332.370696,-9622.677246,1072.533697
2871.218557,-740.205942,-8290.306550,-842.705048
2871.218885,-222.061783,-9252.574275,-2298.286494
2871.219212,-296.082377,-10584.944971,-1378.971896
2871.219540,-740.205942,-9252.574275,459.657299
2871.219867,-666.185348,-9104.533087,1378.971896
2871.220195,-148.041188,-9400.615463,229.828649
2871.220523,666.185348,-10807.006753,-995.924147
2871.220850,1110.308913,-11325.150913,-689.485948
2871.221178,962.267725,-11251.130318,0.000000
2871.221506,740.205942,-9252.574275,-1149.143247
2871.221833,1406.391290,-8956.491898,-1915.238745
2871.222161,2072.576638,-10807.006753,-536.266849
2871.222488,1110.308913,-10732.986159,1915.238745
2871.222816,0.000000,-8068.244768,2145.067394
2871.223144,666.185348,-7624.121203,0.000000
2871.223471,1776.494261,-9400.615463,-995.924147
2871.223799,1332.370696,-10510.924376,-383.047749
2871.224127,-296.082377,-9548.656652,1225.752797
2871.224454,-592.164754,-8142.265362,842.705048
2871.224782,740.205942,-8216.285956,-1225.752797
2871.225109,518.144159,-10288.862594,-1608.800546
2871.225437,-814.226536,-10807.006753,0.000000
2871.225765,-666.185348,-9992.780217,459.657299
2871.226092,444.123565,-9326.594869,-919.314598
2871.226420,1184.329507,-9918.759623,-1149.143247
2871.226748,740.205942,-10807.006753,-153.219100
2871.227075,518.144159,-9474.636058,1225.752797
2871.227403,814.226536,-8216.285956,612.876398
2871.227730,1406.391290,-8068.244768,-995.924147
2871.228058,2590.720797,-10214.842000,-1149.143247
2871.228386,1776.494261,-10955.047942,766.095498
2871.228713,222.061783,-9844.739029,1455.581446
2871.229041,0.000000,-8586.388927,-536.266849
2871.229369,814.226536,-10288.862594,-2451.505594
2871.229696,740.205942,-11991.336260,-1378.971896
2871.230024,-296.082377,-11621.233289,612.876398
2871.230351,0.000000,-9030.512492,306.438199
2871.230679,888.247130,-8068.244768,-919.314598
2871.231007,814.226536,-9696.697840,-536.266849
2871.231334,-666.185348,-10362.883188,1378.971896
2871.231662,-2294.638420,-8882.471304,1455.581446
2871.231990,-2294.638420,-7994.224174,-459.657299
2871.232317,-592.164754,-8882.471304,-3140.991542
2871.232645,74.020594,-10807.006753,-1915.238745
2871.232973,666.185348,-10436.903782,306.438199
2871.233300,222.061783,-9252.574275,1225.752797
2871.233628,1554.432478,-9918.759623,0.000000
2871.233956,3034.844362,-11251.130318,-842.705048
2871.234284,2442.679609,-11547.212695,536.266849
2871.234611,666.185348,-9252.574275,2451.505594
2871.234939,-518.144159,-7105.977043,995.924147
2871.235267,-666.185348,-8364.327145,0.000000
2871.235594,-814.226536,-10955.047942,-689.485948
2871.235922,-1924.535449,-10584.944971,612.876398
2871.236250,-1702.473667,-8586.388927,306.438199
2871.236577,-814.226536,-7402.059420,-766.095498
2871.236905,-888.247130,-8882.471304,-1302.362347
2871.237233,-1480.411884,-9992.780217,0.000000
2871.237560,-3108.864956,-9030.512492,995.924147
2871.237888,-1850.514855,-9030.512492,0.000000
2871.238216,1184.329507,-10066.800811,-2451.505594
2871.238544,3182.885551,-11843.295072,-1915.238745
2871.238871,3034.844362,-12435.459826,1532.190996
2871.239199,1924.535449,-10362.883188,2298.286494
2871.239527,1998.556043,-9104.533087,689.485948
2871.239854,2294.638420,-9844.739029,-1302.362347
2871.240182,962.267725,-11251.130318,-1608.800546
2871.240510,-592.164754,-9030.512492,0.000000
2871.240837,-1776.494261,-6809.894666,0.000000
2871.241165,-148.041188,-8290.306550,-612.876398
2871.241493,1184.329507,-11473.192101,0.000000
2871.241820,666.185348,-11399.171507,919.314598
2871.242148,814.226536,-8660.409521,612.876398
2871.242476,592.164754,-7994.224174,-1378.971896
2871.242803,2072.576638,-9548.656652,-2757.943793
2871.243131,1332.370696,-10732.986159,-1149.143247
2871.243459,-148.041188,-10510.924376,1378.971896
2871.243787,-518.144159,-8956.491898,1838.629195
2871.244114,1406.391290,-9326.594869,-689.485948
2871.244442,2368.659014,-10807.006753,-612.876398
2871.244770,1184.329507,-11621.233289,153.219100
2871.245097,-296.082377,-8808.450710,1455.581446
2871.245425,-370.102971,-7105.977043,76.609550
2871.245753,1110.308913,-8068.244768,-1225.752797
2871.246080,1406.391290,-9400.615463,0.000000
2871.246408,222.061783,-8586.388927,2911.162892
2871.246736,-518.144159,-7846.182985,2374.896044
2871.247063,370.102971,-9030.512492,-536.266849
2871.247391,2220.617826,-11917.315666,-2298.286494
2871.247719,962.267725,-12287.418637,-689.485948
2871.248047,-222.061783,-10362.883188,995.924147
2871.248374,74.020594,-8808.450710,-383.047749
2871.248702,1480.411884,-9696.697840,-1685.410096
2871.249030,888.247130,-11695.253884,-995.924147
2871.249357,-1332.370696,-10510.924376,1072.533697
2871.249685,-1924.535449,-8438.347739,1838.629195
2871.250013,-296.082377,-8216.285956,-536.266849
2871.250340,592.164754,-9770.718434,-1915.238745
2871.250668,222.061783,-10510.924376,0.000000
2871.250996,-1184.329507,-8734.430116,842.705048
2871.251323,-666.185348,-7624.121203,0.000000
2871.251651,0.000000,-9400.615463,-1915.238745
2871.251979,1110.308913,-11843.295072,-1685.410096
2871.252307,962.267725,-12361.439231,689.485948
2871.252634,518.144159,-10510.924376,2068.457845
2871.252962,666.185348,-8956.491898,76.609550
2871.253290,1184.329507,-9696.697840,-1608.800546
2871.253617,0.000000,-10436.903782,-919.314598
2871.253945,-1998.556043,-9178.553681,536.266849
2871.254273,-2516.700203,-6587.832884,153.219100
2871.254600,-814.226536,-6957.935855,-1378.971896
2871.254928,0.000000,-9548.656652,-842.705048
2871.255256,-888.247130,-10732.986159,919.314598
2871.255583,-1332.370696,-9474.636058,459.657299
2871.255911,-666.185348,-9252.574275,-153.219100
2871.256239,1406.391290,-10584.944971,-2681.334243
2871.256567,1480.411884,-11769.274478,-1838.629195
2871.256894,-148.041188,-10362.883188,842.705048
2871.257222,74.020594,-8586.388927,995.924147
2871.257550,1110.308913,-9548.656652,-536.266849
2871.257877,2072.576638,-12287.418637,-1225.752797
2871.258205,0.000000,-10510.924376,383.047749
2871.258533,-1480.411884,-8216.285956,0.000000
2871.258860,-370.102971,-8068.244768,-1072.533697
2871.259188,1776.494261,-9104.533087,-2451.505594
2871.259516,1776.494261,-9918.759623,-306.438199
2871.259843,148.041188,-9178.553681,2298.286494
2871.260171,-518.144159,-8364.327145,2145.067394
2871.260499,2516.700203,-8734.430116,-536.266849
2871.260827,2664.741391,-9918.759623,-2451.505594
2871.261154,296.082377,-10732.986159,153.219100
2871.261482,-814.226536,-9992.780217,1455.581446
2871.261810,0.000000,-9474.636058,0.000000
2871.262137,1628.453072,-10955.047942,-2221.676944
2871.262465,1776.494261,-11769.274478,-2451.505594
2871.262793,74.020594,-10288.862594,-306.438199
2871.263120,0.000000,-9474.636058,995.924147
2871.263448,1110.308913,-9326.594869,-306.438199
2871.263776,2368.659014,-9844.739029,-1149.143247
2871.264103,888.247130,-9844.739029,919.314598
2871.264431,-148.041188,-8364.327145,2757.943793
2871.264759,74.020594,-7402.059420,1378.971896
2871.265087,1110.308913,-8068.244768,-1149.143247
2871.265414,740.205942,-10140.821405,-1608.800546
2871.265742,-740.205942,-10807.006753,153.219100
2871.266070,-296.082377,-9770.718434,229.828649
2871.266397,518.144159,-8808.450710,-1225.752797
2871.266725,888.247130,-9622.677246,-1838.629195
2871.267053,-444.123565,-10214.842000,-689.485948
2871.267380,-1332.370696,-10732.986159,919.314598
2871.267708,-1184.329507,-9548.656652,766.095498
2871.268036,444.123565,-9104.533087,-1072.533697
2871.268363,1110.308913,-9770.718434,-1072.533697
2871.268691,-148.041188,-10362.883188,919.314598
2871.269019,-1184.329507,-9770.718434,1608.800546
2871.269346,-666.185348,-8586.388927,229.828649
2871.269674,1258.350101,-9770.718434,-2068.457845
2871.270002,962.267725,-11251.130318,-1378.971896
2871.270330,-592.164754,-10658.965565,689.485948
2871.270657,-296.082377,-8438.347739,612.876398
2871.270985,1258.350101,-9252.574275,-1302.362347
2871.271313,2294.638420,-11695.253884,-1225.752797
2871.271640,222.061783,-11399.171507,766.095498
2871.271968,-962.267725,-9030.512492,1149.143247
2871.272296,-962.267725,-6809.894666,-612.876398
2871.272623,0.000000,-8290.306550,-1762.019645
2871.272951,-1406.391290,-9918.759623,-766.095498
2871.273279,-2738.761985,-9992.780217,1378.971896
2871.273606,-2072.576638,-8882.471304,995.924147
2871.273934,148.041188,-9400.615463,-919.314598
2871.274262,1554.432478,-11399.171507,-2681.334243
2871.274590,518.144159,-11251.130318,0.000000
2871.274917,-296.082377,-9474.636058,1915.238745
2871.275245,518.144159,-9252.574275,612.876398
2871.275573,1776.494261,-10436.903782,-1608.800546
2871.275900,2664.741391,-11177.109724,-1838.629195
2871.276228,1628.453072,-9548.656652,612.876398
2871.276556,666.185348,-8808.450710,1838.629195
2871.276883,1628.453072,-9326.594869,459.657299
2871.277211,2072.576638,-10436.903782,-1225.752797
2871.277539,666.185348,-10584.944971,-689.485948
2871.277866,-740.205942,-8882.471304,306.438199
2871.278194,-888.247130,-7550.100608,-153.219100
2871.278522,0.000000,-8068.244768,-1302.362347
2871.278850,370.102971,-9104.533087,-1302.362347
2871.279177,-592.164754,-10881.027347,1455.581446
2871.279505,-370.102971,-9918.759623,1915.238745
2871.279833,1924.535449,-9326.594869,-383.047749
2871.280160,3330.926739,-11251.130318,-1991.848295
2871.280488,2590.720797,-12361.439231,-995.924147
2871.280816,888.247130,-11325.150913,919.314598
2871.281143,370.102971,-9252.574275,306.438199
2871.281471,1998.556043,-9696.697840,-1225.752797
2871.281799,2368.659014,-10807.006753,-1149.143247
2871.282126,370.102971,-10658.965565,1762.019645
2871.282454,-1036.288319,-8734.430116,2528.115143
2871.282782,-296.082377,-7254.018232,229.828649
2871.283110,814.226536,-8586.388927,-1608.800546
2871.283437,0.000000,-9696.697840,-919.314598
2871.283765,-888.247130,-9400.615463,1378.971896
2871.284093,-370.102971,-7624.121203,1608.800546
2871.284420,1036.288319,-8290.306550,-842.705048
2871.284748,1110.308913,-11177.109724,-1915.238745
2871.285076,0.000000,-12065.356855,-306.438199
2871.285403,-592.164754,-11473.192101,1302.362347
2871.285731,444.123565,-10214.842000,0.000000
2871.286059,1776.494261,-10436.903782,-2221.676944
2871.286386,1258.350101,-11103.089130,-1149.143247
2871.286714,-592.164754,-9326.594869,1378.971896
2871.287042,-1332.370696,-7920.203579,2221.676944
2871.287370,444.123565,-8882.471304,0.000000
2871.287697,1776.494261,-9326.594869,-1149.143247
2871.288025,0.000000,-9474.636058,229.828649
2871.288353,-2146.597232,-8216.285956,1532.190996
2871.288680,-1628.453072,-7476.080014,459.657299
2871.289008,222.061783,-8734.430116,-1685.410096
2871.289336,370.102971,-11621.233289,-1838.629195
2871.289663,-1036.288319,-11399.171507,229.828649
2871.289991,-666.185348,-9548.656652,76.609550
2871.290319,1332.370696,-8290.306550,-459.657299
2871.290646,1776.494261,-10214.842000,-1302.362347
2871.290974,-296.082377,-10955.047942,536.266849
2871.291302,-2368.659014,-9104.533087,1378.971896
2871.291630,-1258.350101,-8142.265362,-689.485948
2871.291957,518.144159,-9178.553681,-2911.162892
2871.292285,296.082377,-10807.006753,-1915.238745
2871.292613,-1332.370696,-10807.006753,842.705048
2871.292940,-666.185348,-9844.739029,1685.410096
2871.293268,1110.308913,-9844.739029,-612.876398
2871.293596,2960.823768,-11695.253884,-1915.238745
2871.293923,2368.659014,-12213.398043,-306.438199
2871.294251,814.226536,-9918.759623,1455.581446
2871.294579,74.020594,-8290.306550,1915.238745
2871.294906,666.185348,-8808.450710,0.000000
2871.295234,0.000000,-9474.636058,-1149.143247
2871.295562,-1036.288319,-10066.800811,229.828649
2871.295889,-1628.453072,-8364.327145,1455.581446
2871.296217,-370.102971,-7550.100608,0.000000
2871.296545,1184.329507,-8882.471304,-1378.971896
2871.296873,666.185348,-10584.944971,-459.657299
2871.297200,-962.267725,-9770.718434,1149.143247
2871.297528,0.000000,-8808.450710,1532.190996
2871.297856,1924.535449,-8364.327145,-536.266849
2871.298183,2886.803174,-10510.924376,-919.314598
2871.298511,1702.473667,-11547.212695,1302.362347
2871.298839,296.082377,-10066.800811,2528.115143
2871.299166,1036.288319,-9474.636058,76.609550
2871.299494,3034.844362,-10288.862594,-2374.896044
2871.299822,1480.411884,-10732.986159,-1991.848295
2871.300149,-888.247130,-9918.759623,459.657299
2871.300477,-1110.308913,-8734.430116,1072.533697
2871.300805,666.185348,-8956.491898,-919.314598
2871.301133,1406.391290,-9992.780217,-1455.581446
2871.301460,-518.144159,-9696.697840,306.438199
2871.301788,-1184.329507,-7994.224174,2298.286494
2871.302116,370.102971,-7698.141797,459.657299
2871.302443,1110.308913,-8364.327145,-2068.457845
2871.302771,296.082377,-10214.842000,-1991.848295
2871.303099,-1184.329507,-11177.109724,306.438199
2871.303426,0.000000,-10140.821405,766.095498
2871.303754,814.226536,-10288.862594,-1838.629195
2871.304082,1480.411884,-11991.336260,-2145.067394
2871.304409,296.082377,-12287.418637,-919.314598
2871.304737,-148.041188,-10807.006753,766.095498
2871.305065,444.123565,-9030.512492,459.657299
2871.305393,1628.453072,-9030.512492,-842.705048
2871.305720,1332.370696,-9696.697840,-536.266849
2871.306048,-740.205942,-9696.697840,1302.362347
2871.306376,-666.185348,-8660.409521,1915.238745
2871.306703,0.000000,-8438.347739,0.000000
2871.307031,1036.288319,-9918.759623,-1378.971896
2871.307359,-148.041188,-10881.027347,-612.876398
2871.307686,-814.226536,-9844.739029,612.876398
2871.308014,-666.185348,-7846.182985,229.828649
2871.308342,518.144159,-7994.224174,-1991.848295
2871.308669,1110.308913,-10288.862594,-995.924147
2871.308997,-222.061783,-10584.944971,1608.800546
2871.309325,-1036.288319,-9400.615463,2298.286494
2871.309653,-222.061783,-8290.306550,383.047749
2871.309980,518.144159,-8734.430116,-1302.362347
2871.310308,0.000000,-10658.965565,-383.047749
2871.310636,-1184.329507,-10881.027347,-229.828649
2871.310963,-1184.329507,-8512.368333,995.924147
2871.311291,888.247130,-9178.553681,-1455.581446
2871.311619,2294.638420,-11103.089130,-2068.457845
2871.311946,296.082377,-11399.171507,689.485948
2871.312274,-1110.308913,-9622.677246,2068.457845
2871.312602,-740.205942,-8882.471304,0.000000
2871.312929,814.226536,-10584.944971,-2528.115143
2871.313257,1332.370696,-11695.253884,-2451.505594
2871.313585,148.041188,-10214.842000,689.485948
2871.313913,370.102971,-8808.450710,1378.971896
2871.314240,1702.473667,-8586.388927,-612.876398
2871.314568,1554.432478,-9770.718434,-1378.971896
2871.314896,-518.144159,-10436.903782,-306.438199
2871.315223,-2072.576638,-8808.450710,306.438199
2871.315551,-1184.329507,-8068.244768,-766.095498
2871.315879,0.000000,-9326.594869,-1991.848295
2871.316206,592.164754,-11325.150913,-995.924147
2871.316534,222.061783,-10955.047942,1532.190996
2871.316862,592.164754,-9696.697840,1838.629195
2871.317189,3182.885551,-9548.656652,0.000000
2871.317517,3997.112087,-10214.842000,-1608.800546
2871.317845,2072.576638,-10732.986159,-459.657299
2871.318173,0.000000,-10066.800811,919.314598
2871.318500,0.000000,-8438.347739,689.485948
2871.318828,1110.308913,-8660.409521,-383.047749
2871.319156,1480.411884,-10510.924376,0.000000
2871.319483,148.041188,-10066.800811,1149.143247
2871.319811,-888.247130,-7994.224174,995.924147
2871.320139,-888.247130,-6217.729913,-1378.971896
2871.320466,0.000000,-7846.182985,-2834.553343
2871.320794,-518.144159,-9696.697840,-995.924147
2871.321122,-1406.391290,-8808.450710,1225.752797
2871.321449,-1406.391290,-7846.182985,1608.800546
2871.321777,1702.473667,-9326.594869,-995.924147
2871.322105,2886.803174,-12065.356855,-1608.800546
2871.322432,1776.494261,-12731.542202,459.657299
2871.322760,814.226536,-11325.150913,766.095498
2871.323088,1776.494261,-9918.759623,-1302.362347
2871.323416,2590.720797,-10658.965565,-2451.505594
2871.323743,1628.453072,-11325.150913,-1149.143247
2871.324071,-740.205942,-9622.677246,2068.457845
2871.324399,-1258.350101,-8068.244768,1838.629195
2871.324726,296.082377,-8290.306550,-766.095498
2871.325054,814.226536,-9918.759623,-2221.676944
2871.325382,-592.164754,-9770.718434,-153.219100
2871.325709,-1850.514855,-8512.368333,1072.533697
2871.326037,-1850.514855,-7031.956449,0.000000
2871.326365,-444.123565,-9252.574275,-2068.457845
2871.326692,518.144159,-11325.150913,-1838.629195
2871.327020,0.000000,-11843.295072,459.657299
2871.327348,74.020594,-10658.965565,1991.848295
2871.327676,1702.473667,-10288.862594,0.000000
2871.328003,2442.679609,-11029.068536,-1532.190996
2871.328331,666.185348,-11399.171507,-306.438199
2871.328659,-962.267725,-8734.430116,689.485948
2871.328986,-666.185348,-7402.059420,459.657299
2871.329314,518.144159,-8512.368333,-612.876398
2871.329642,1480.411884,-10881.027347,-842.705048
2871.329969,-444.123565,-10807.006753,1455.581446
2871.330297,-1554.432478,-8660.409521,2298.286494
2871.330625,222.061783,-9030.512492,0.000000
2871.330952,2220.617826,-10807.006753,-2374.896044
2871.331280,814.226536,-11399.171507,-842.705048
2871.331608,-1036.288319,-9400.615463,919.314598
2871.331936,-888.247130,-7328.038826,1149.143247
2871.332263,666.185348,-7846.182985,-1072.533697
2871.332591,370.102971,-10584.944971,-995.924147
2871.332919,-1850.514855,-10955.047942,536.266849
2871.333246,-2220.617826,-9400.615463,766.095498
2871.333574,148.041188,-8660.409521,-1915.238745
2871.333901,1702.473667,-10288.862594,-2068.457845
2871.334229,1258.350101,-11769.274478,0.000000
2871.334557,814.226536,-9696.697840,2528.115143
2871.334884,1184.329507,-8512.368333,1685.410096
2871.335212,2368.659014,-9030.512492,-842.705048
2871.335539,3256.906145,-10955.047942,-1915.238745
2871.335867,592.164754,-11251.130318,842.705048
2871.336195,-1406.391290,-9326.594869,2221.676944
2871.336522,-370.102971,-8290.306550,-766.095498
2871.336850,1332.370696,-10436.903782,-2604.724693
2871.337177,1184.329507,-11769.274478,-1685.410096
2871.337505,-666.185348,-10658.965565,536.266849
2871.337833,-814.226536,-8734.430116,1302.362347
2871.338160,444.123565,-7476.080014,-995.924147
2871.338488,1258.350101,-9326.594869,-1532.190996
2871.338815,-814.226536,-9770.718434,1455.581446
2871.339143,-1998.556043,-8068.244768,2681.334243
2871.339471,-370.102971,-7476.080014,919.314598
2871.339798,2294.638420,-9622.677246,-1608.800546
2871.340126,2072.576638,-11843.295072,-919.314598
2871.340454,296.082377,-11325.150913,1455.581446
2871.340781,0.000000,-9030.512492,842.705048
2871.341109,1332.370696,-8956.491898,-1685.410096
2871.341436,2442.679609,-11473.192101,-2221.676944
2871.341764,666.185348,-11103.089130,-229.828649
2871.342092,-962.267725,-9474.636058,2221.676944
2871.342419,222.061783,-8512.368333,766.095498
2871.342747,2072.576638,-9918.759623,-1532.190996
2871.343074,1110.308913,-10584.944971,-306.438199
2871.343402,-962.267725,-9178.553681,919.314598
2871.343730,-1702.473667,-7920.203579,995.924147
2871.344057,-148.041188,-8586.388927,-995.924147
2871.344385,740.205942,-9696.697840,-2374.896044
2871.344712,-814.226536,-10732.986159,-689.485948
2871.345040,-1184.329507,-10214.842000,842.705048
2871.345368,222.061783,-9474.636058,-306.438199
2871.345695,1702.473667,-10140.821405,-2068.457845
2871.346023,2146.597232,-11769.274478,-1149.143247
2871.346350,814.226536,-11325.150913,689.485948
2871.346678,0.000000,-9326.594869,1685.410096
2871.347006,444.123565,-7476.080014,536.266849
2871.347333,814.226536,-8882.471304,-1455.581446
2871.347661,-740.205942,-10510.924376,306.438199
2871.347988,-1702.473667,-10066.800811,1532.190996
2871.348316,-2072.576638,-8660.409521,1149.143247
2871.348644,-592.164754,-8586.388927,-995.924147
2871.348971,-518.144159,-10288.862594,-2145.067394
2871.349299,-2146.597232,-10955.047942,0.000000
2871.349626,-2368.659014,-8142.265362,-153.219100
2871.349954,-296.082377,-7698.141797,-919.314598
2871.350282,2072.576638,-9770.718434,-1532.190996
2871.350609,2146.597232,-11103.089130,-306.438199
2871.350937,592.164754,-10807.006753,2451.505594
2871.351264,0.000000,-9178.553681,1685.410096
2871.351592,1332.370696,-9252.574275,-2221.676944
2871.351920,814.226536,-9992.780217,-2757.943793
2871.352247,-370.102971,-9844.739029,-612.876398
2871.352575,-1184.329507,-8438.347739,612.876398
2871.352902,444.123565,-8512.368333,536.266849
2871.353230,2368.659014,-9548.656652,-612.876398
2871.353558,2294.638420,-11547.212695,229.828649
2871.353885,740.205942,-10362.883188,1915.238745
2871.354213,740.205942,-8660.409521,1072.533697
2871.354540,1480.411884,-8068.244768,-919.314598
2871.354868,2738.761985,-9770.718434,-2068.457845
2871.355196,1628.453072,-11621.233289,0.000000
2871.355523,74.020594,-10658.965565,2068.457845
2871.355851,0.000000,-8660.409521,612.876398
2871.356178,1332.370696,-9252.574275,-2068.457845
2871.356506,1258.350101,-11399.171507,-2221.676944
2871.356834,-1702.473667,-10436.903782,0.000000
2871.357161,-2368.659014,-8438.347739,842.705048
2871.357489,-444.123565,-6957.935855,-842.705048
2871.357816,888.247130,-8142.265362,-1532.190996
2871.358144,592.164754,-10584.944971,766.095498
2871.358472,-148.041188,-9474.636058,2757.943793
2871.358799,592.164754,-8142.265362,1302.362347
2871.359127,2664.741391,-9844.739029,-1302.362347
2871.359454,2294.638420,-11621.233289,-1455.581446
2871.359782,888.247130,-11843.295072,229.828649
2871.360110,-370.102971,-9918.759623,1378.971896
2871.360437,888.247130,-9400.615463,-842.705048
2871.360765,1998.556043,-10732.986159,-2451.505594
2871.361093,888.247130,-10881.027347,-459.657299
2871.361420,-1776.494261,-8438.347739,2145.067394
2871.361748,-1184.329507,-6957.935855,1225.752797
2871.362075,0.000000,-7105.977043,-842.705048
2871.362403,222.061783,-8808.450710,-1302.362347
2871.362731,-1628.453072,-8586.388927,229.828649
2871.363058,-2664.741391,-8882.471304,1302.362347
2871.363386,-1628.453072,-9622.677246,-1532.190996
2871.363713,1258.350101,-11547.212695,-2451.505594
2871.364041,2368.659014,-11843.295072,-2145.067394
