#time,accel_x,accel_y,accel_z
2763.049400,592.164754,-9918.759623,229.828649
2763.049727,148.041188,-9622.677246,-842.705048
2763.050055,74.020594,-10066.800811,-995.924147
2763.050382,0.000000,-10066.800811,-919.314598
2763.050709,-148.041188,-10140.821405,-1072.533697
2763.051037,370.102971,-10510.924376,-306.438199
2763.051364,0.000000,-10436.903782,-919.314598
2763.051692,74.020594,-10510.924376,-612.876398
2763.052019,814.226536,-10807.006753,-536.266849
2763.052347,592.164754,-10436.903782,0.000000
2763.052674,444.123565,-10140.821405,0.000000
2763.053002,148.041188,-9918.759623,-383.047749
2763.053329,74.020594,-9844.739029,-383.047749
2763.053657,-148.041188,-9474.636058,-612.876398
2763.053984,0.000000,-9104.533087,-459.657299
2763.054311,74.020594,-9326.594869,0.000000
2763.054639,296.082377,-9474.636058,0.000000
2763.054966,370.102971,-9548.656652,306.438199
2763.055294,518.144159,-9474.636058,306.438199
2763.055621,888.247130,-9474.636058,383.047749
2763.055949,740.205942,-9104.533087,842.705048
2763.056276,444.123565,-8882.471304,536.266849
2763.056604,518.144159,-8882.471304,536.266849
2763.056931,148.041188,-9030.512492,229.828649
2763.057258,74.020594,-8882.471304,306.438199
2763.057586,0.000000,-9030.512492,0.000000
2763.057913,74.020594,-9252.574275,-229.828649
2763.058241,0.000000,-9474.636058,0.000000
2763.058568,74.020594,-9474.636058,76.609550
2763.058896,518.144159,-9622.677246,-383.047749
2763.059223,296.082377,-9844.739029,0.000000
2763.059551,740.205942,-9844.739029,0.000000
2763.059878,518.144159,-9770.718434,-306.438199
2763.060206,444.123565,-9844.739029,-536.266849
2763.060533,148.041188,-9474.636058,0.000000
2763.060860,444.123565,-9770.718434,0.000000
2763.061188,0.000000,-9918.759623,-689.485948
2763.061515,-222.061783,-10214.842000,-919.314598
2763.061843,0.000000,-10214.842000,-1302.362347
2763.062170,0.000000,-10436.903782,-842.705048
2763.062498,296.082377,-10510.924376,-689.485948
2763.062825,592.164754,-9918.759623,-612.876398
2763.063153,518.144159,-9992.780217,0.000000
2763.063480,592.164754,-10362.883188,0.000000
2763.063808,518.144159,-9918.759623,0.000000
2763.064135,0.000000,-9844.739029,0.000000
2763.064462,0.000000,-9770.718434,-229.828649
2763.064790,-444.123565,-9474.636058,-306.438199
2763.065117,0.000000,-9474.636058,0.000000
2763.065445,740.205942,-9844.739029,-306.438199
2763.065772,1036.288319,-9252.574275,-229.828649
2763.066100,962.267725,-8956.491898,-306.438199
2763.066427,1924.535449,-9104.533087,153.219100
2763.066755,2886.803174,-8882.471304,612.876398
2763.067082,4071.132681,-8068.244768,383.047749
2763.067409,4737.318029,-7994.224174,229.828649
2763.067737,5033.400406,-9622.677246,153.219100
2763.068064,5699.585753,-9104.533087,459.657299
2763.068392,6069.688724,-8734.430116,0.000000
2763.068719,6217.729913,-9474.636058,-306.438199
2763.069047,7328.038826,-10140.821405,-383.047749
2763.069374,7846.182985,-10288.862594,0.000000
2763.069702,7772.162391,-10066.800811,689.485948
2763.070029,8956.491898,-9992.780217,536.266849
2763.070357,9696.697840,-9030.512492,229.828649
2763.070684,9696.697840,-8956.491898,383.047749
2763.071011,10288.862594,-8734.430116,536.266849
2763.071339,11251.130318,-8956.491898,229.828649
2763.071666,11769.274478,-9622.677246,76.609550
2763.071994,11843.295072,-9844.739029,-842.705048
2763.072321,10807.006753,-9474.636058,689.485948
2763.072649,10732.986159,-10066.800811,-229.828649
2763.072976,11917.315666,-10732.986159,-842.705048
2763.073304,12805.562797,-11177.109724,-842.705048
2763.073631,14063.912898,-10955.047942,0.000000
2763.073958,14878.139434,-10066.800811,612.876398
2763.074286,15618.345376,-9548.656652,1149.143247
2763.074613,13915.871710,-9252.574275,1225.752797
2763.074941,13175.665768,-8660.409521,842.705048
2763.075268,12139.377449,-9474.636058,766.095498
2763.075596,10807.006753,-10510.924376,229.828649
2763.075923,11029.068536,-9844.739029,-383.047749
2763.076251,10140.821405,-9400.615463,0.000000
2763.076578,9104.533087,-10436.903782,536.266849
2763.076906,7772.162391,-11251.130318,1072.533697
2763.077233,7105.977043,-9696.697840,842.705048
2763.077560,5551.544565,-8808.450710,-766.095498
2763.077888,4441.235652,-9622.677246,0.000000
2763.078215,4589.276840,-8586.388927,306.438199
2763.078543,3627.009116,-7698.141797,766.095498
2763.078870,2886.803174,-7550.100608,1225.752797
2763.079198,3923.091493,-8364.327145,-459.657299
2763.079525,3775.050304,-9548.656652,0.000000
2763.079853,4219.173869,-10807.006753,229.828649
2763.080180,3034.844362,-10881.027347,229.828649
2763.080507,1776.494261,-11103.089130,0.000000
2763.080835,666.185348,-10140.821405,-612.876398
2763.081162,814.226536,-9474.636058,-1072.533697
2763.081490,962.267725,-7846.182985,76.609550
2763.081817,1628.453072,-9622.677246,995.924147
2763.082145,1554.432478,-10288.862594,1532.190996
2763.082472,74.020594,-10881.027347,842.705048
2763.082800,-1702.473667,-9918.759623,-536.266849
2763.083127,-3256.906145,-8290.306550,-2221.676944
2763.083455,-3404.947333,-8512.368333,-2604.724693
2763.083782,-1332.370696,-10214.842000,-2298.286494
2763.084109,-1036.288319,-11103.089130,-306.438199
2763.084437,0.000000,-11769.274478,153.219100
2763.084764,-444.123565,-10288.862594,-229.828649
2763.085092,-1258.350101,-8808.450710,-689.485948
2763.085419,-2664.741391,-8512.368333,-689.485948
2763.085747,-2738.761985,-9622.677246,-383.047749
2763.086074,-2220.617826,-11177.109724,-1149.143247
2763.086402,-888.247130,-9770.718434,-1072.533697
2763.086729,148.041188,-7772.162391,-459.657299
2763.087057,-592.164754,-7624.121203,536.266849
2763.087384,-1702.473667,-9252.574275,1455.581446
2763.087711,-1776.494261,-10584.944971,0.000000
2763.088039,-444.123565,-10658.965565,-2604.724693
2763.088366,1850.514855,-9770.718434,-2451.505594
2763.088694,3256.906145,-8438.347739,-689.485948
2763.089021,2812.782580,-9030.512492,2068.457845
2763.089349,2072.576638,-10658.965565,3677.258390
2763.089676,1406.391290,-11177.109724,1378.971896
2763.090004,1184.329507,-9844.739029,-2451.505594
2763.090331,1258.350101,-7920.203579,-3753.867940
2763.090658,1998.556043,-8216.285956,-995.924147
2763.090986,2072.576638,-9474.636058,1149.143247
2763.091313,1850.514855,-10658.965565,1762.019645
2763.091641,2368.659014,-10288.862594,76.609550
2763.091968,3552.988522,-9104.533087,-1915.238745
2763.092296,3997.112087,-7994.224174,-1378.971896
2763.092623,4367.215058,-9844.739029,306.438199
2763.092951,3552.988522,-11621.233289,1455.581446
2763.093278,3478.967927,-12065.356855,842.705048
2763.093606,3478.967927,-11251.130318,-306.438199
2763.093933,3108.864956,-10140.821405,-383.047749
2763.094260,2516.700203,-10140.821405,0.000000
2763.094588,1702.473667,-11029.068536,306.438199
2763.094915,222.061783,-11621.233289,-229.828649
2763.095243,-370.102971,-10881.027347,-1072.533697
2763.095570,0.000000,-8142.265362,-1225.752797
2763.095898,444.123565,-7402.059420,306.438199
2763.096225,74.020594,-8956.491898,1455.581446
2763.096553,444.123565,-11177.109724,1072.533697
2763.096880,222.061783,-10881.027347,153.219100
2763.097207,740.205942,-8512.368333,-842.705048
2763.097535,1036.288319,-8956.491898,-383.047749
2763.097862,148.041188,-9992.780217,1685.410096
2763.098190,-814.226536,-11251.130318,1762.019645
2763.098517,-1924.535449,-11621.233289,306.438199
2763.098845,-2072.576638,-10362.883188,-1302.362347
2763.099172,-1258.350101,-8142.265362,-1762.019645
2763.099500,-1702.473667,-7402.059420,-76.609550
2763.099827,-3108.864956,-9104.533087,2298.286494
2763.100155,-2146.597232,-11547.212695,1072.533697
2763.100482,-1480.411884,-9696.697840,0.000000
2763.100809,-1628.453072,-7105.977043,-1225.752797
2763.101137,-2072.576638,-6217.729913,-229.828649
2763.101464,-1850.514855,-8290.306550,689.485948
2763.101792,-2368.659014,-9992.780217,766.095498
2763.102119,-2368.659014,-10732.986159,-612.876398
2763.102447,-2146.597232,-9030.512492,-2374.896044
2763.102774,-1480.411884,-8734.430116,-2604.724693
2763.103102,-1258.350101,-10066.800811,-1225.752797
2763.103429,-1036.288319,-11843.295072,0.000000
2763.103756,-444.123565,-12435.459826,-919.314598
2763.104084,222.061783,-10807.006753,-1838.629195
2763.104411,296.082377,-7772.162391,-842.705048
2763.104739,740.205942,-7402.059420,-306.438199
2763.105066,962.267725,-9178.553681,1378.971896
2763.105394,296.082377,-11547.212695,1225.752797
2763.105721,592.164754,-10955.047942,-766.095498
2763.106049,1554.432478,-9030.512492,-2528.115143
2763.106376,1258.350101,-8068.244768,-1991.848295
2763.106704,1480.411884,-11325.150913,-1225.752797
2763.107031,1406.391290,-12509.480420,153.219100
2763.107358,1332.370696,-11621.233289,-612.876398
2763.107686,1776.494261,-10214.842000,-1378.971896
2763.108013,2516.700203,-8660.409521,-995.924147
2763.108341,2146.597232,-8216.285956,536.266849
2763.108668,962.267725,-9178.553681,2068.457845
2763.108996,518.144159,-10288.862594,1838.629195
2763.109323,666.185348,-9030.512492,-306.438199
2763.109651,888.247130,-6883.915261,-995.924147
2763.109978,1702.473667,-7402.059420,-306.438199
2763.110305,1776.494261,-9474.636058,1302.362347
2763.110633,2072.576638,-12139.377449,1685.410096
2763.110960,1110.308913,-11325.150913,459.657299
2763.111288,1702.473667,-8586.388927,-459.657299
2763.111615,518.144159,-7476.080014,-766.095498
2763.111943,666.185348,-9178.553681,689.485948
2763.112270,518.144159,-11843.295072,1225.752797
2763.112598,666.185348,-11325.150913,383.047749
2763.112926,666.185348,-8364.327145,-842.705048
2763.113253,814.226536,-7476.080014,-1072.533697
2763.113581,1258.350101,-9178.553681,0.000000
2763.113909,444.123565,-9770.718434,919.314598
2763.114236,0.000000,-10955.047942,612.876398
2763.114564,518.144159,-10140.821405,-1378.971896
2763.114891,1332.370696,-8660.409521,-1915.238745
2763.115219,666.185348,-8586.388927,0.000000
2763.115547,296.082377,-9696.697840,536.266849
2763.115874,-296.082377,-11843.295072,2145.067394
2763.116202,-370.102971,-12879.583391,-229.828649
2763.116530,-1554.432478,-9252.574275,-2145.067394
2763.116857,-1776.494261,-7994.224174,-2681.334243
2763.117185,-2442.679609,-8808.450710,-1149.143247
2763.117513,-2442.679609,-11251.130318,76.609550
2763.117840,-2146.597232,-11177.109724,0.000000
2763.118168,-1702.473667,-9696.697840,-1149.143247
2763.118495,-1036.288319,-6809.894666,-1532.190996
2763.118823,-296.082377,-8216.285956,-766.095498
2763.119151,-592.164754,-10510.924376,689.485948
2763.119478,-444.123565,-11177.109724,919.314598
2763.119806,-444.123565,-9548.656652,-306.438199
2763.120134,222.061783,-7846.182985,-1532.190996
2763.120461,1628.453072,-7846.182985,-842.705048
2763.120789,888.247130,-10214.842000,1072.533697
2763.121116,0.000000,-11473.192101,1225.752797
2763.121444,0.000000,-11177.109724,-306.438199
2763.121772,0.000000,-9030.512492,-1608.800546
2763.122099,-222.061783,-7698.141797,-1302.362347
2763.122427,-222.061783,-8068.244768,536.266849
2763.122755,222.061783,-10214.842000,2451.505594
2763.123082,592.164754,-10510.924376,1378.971896
2763.123410,74.020594,-9252.574275,0.000000
2763.123738,0.000000,-8142.265362,-995.924147
2763.124065,222.061783,-8216.285956,-919.314598
2763.124393,296.082377,-10732.986159,0.000000
2763.124720,444.123565,-12139.377449,-306.438199
2763.125048,296.082377,-10510.924376,-766.095498
2763.125376,1406.391290,-8660.409521,-1455.581446
2763.125703,1924.535449,-8808.450710,-1149.143247
2763.126031,1776.494261,-10732.986159,0.000000
2763.126359,1184.329507,-12361.439231,1072.533697
2763.126686,888.247130,-11547.212695,383.047749
2763.127014,1776.494261,-8438.347739,-995.924147
2763.127341,2368.659014,-7772.162391,-995.924147
2763.127669,1776.494261,-8364.327145,919.314598
2763.127997,1332.370696,-10436.903782,1685.410096
2763.128324,1258.350101,-11621.233289,306.438199
2763.128652,1110.308913,-10955.047942,-1149.143247
2763.128980,1776.494261,-9326.594869,-1838.629195
2763.129307,1480.411884,-9030.512492,-842.705048
2763.129635,1036.288319,-11029.068536,1685.410096
2763.129963,1480.411884,-12361.439231,1302.362347
2763.130290,740.205942,-11251.130318,-229.828649
2763.130618,-666.185348,-7994.224174,-995.924147
2763.130945,-1850.514855,-6661.853478,-689.485948
2763.131273,-2516.700203,-7476.080014,153.219100
2763.131601,-2664.741391,-9622.677246,689.485948
2763.131928,-2294.638420,-9844.739029,0.000000
2763.132256,-962.267725,-8660.409521,-1762.019645
2763.132584,0.000000,-7698.141797,-1608.800546
2763.132911,888.247130,-9178.553681,0.000000
2763.133239,666.185348,-11695.253884,1762.019645
2763.133567,888.247130,-12139.377449,919.314598
2763.133894,1110.308913,-10140.821405,-612.876398
2763.134222,1332.370696,-8290.306550,-1149.143247
2763.134549,1036.288319,-8290.306550,-306.438199
2763.134877,-148.041188,-9548.656652,1225.752797
2763.135205,-592.164754,-10436.903782,1072.533697
2763.135532,-1110.308913,-10436.903782,-689.485948
2763.135860,-1258.350101,-9104.533087,-2221.676944
2763.136188,-444.123565,-7994.224174,-2374.896044
2763.136515,-370.102971,-9548.656652,-689.485948
2763.136843,0.000000,-11695.253884,306.438199
2763.137170,222.061783,-11917.315666,459.657299
2763.137498,370.102971,-9548.656652,-536.266849
2763.137826,740.205942,-7772.162391,-1072.533697
2763.138153,0.000000,-9474.636058,76.609550
2763.138481,-592.164754,-11399.171507,1225.752797
2763.138809,-740.205942,-11843.295072,-229.828649
2763.139136,-1406.391290,-10066.800811,-1532.190996
2763.139464,-666.185348,-8660.409521,-2604.724693
2763.139792,-666.185348,-8142.265362,-1915.238745
2763.140119,-296.082377,-10214.842000,459.657299
2763.140447,592.164754,-11843.295072,1455.581446
2763.140774,1924.535449,-10881.027347,536.266849
2763.141102,2886.803174,-8438.347739,0.000000
2763.141430,3034.844362,-7698.141797,0.000000
2763.141757,2220.617826,-8068.244768,1302.362347
2763.142085,1480.411884,-10436.903782,1838.629195
2763.142413,962.267725,-11251.130318,612.876398
2763.142740,1036.288319,-9474.636058,-919.314598
2763.143068,1406.391290,-7772.162391,-1378.971896
2763.143395,740.205942,-8438.347739,0.000000
2763.143723,74.020594,-10362.883188,1225.752797
2763.144051,148.041188,-11843.295072,612.876398
2763.144378,592.164754,-10362.883188,-689.485948
2763.144706,888.247130,-7179.997637,-1532.190996
2763.145034,222.061783,-7179.997637,76.609550
2763.145361,0.000000,-8586.388927,1685.410096
2763.145689,814.226536,-10732.986159,1685.410096
2763.146017,296.082377,-11103.089130,0.000000
2763.146344,-222.061783,-9696.697840,-1225.752797
2763.146672,666.185348,-8512.368333,-2221.676944
2763.146999,148.041188,-9474.636058,-1072.533697
2763.147327,-148.041188,-12139.377449,153.219100
2763.147655,962.267725,-12953.603985,0.000000
2763.147982,1850.514855,-10436.903782,-1302.362347
2763.148310,2146.597232,-7624.121203,-1149.143247
2763.148638,1406.391290,-8290.306550,76.609550
2763.148965,74.020594,-9918.759623,1838.629195
2763.149293,-222.061783,-10732.986159,1685.410096
2763.149621,-444.123565,-10066.800811,-306.438199
2763.149948,296.082377,-7698.141797,-2145.067394
2763.150276,814.226536,-8660.409521,-1378.971896
2763.150603,0.000000,-10140.821405,842.705048
2763.150931,-1258.350101,-11473.192101,689.485948
2763.151259,-1554.432478,-11399.171507,-612.876398
2763.151586,-814.226536,-10066.800811,-1915.238745
2763.151914,-148.041188,-8364.327145,-1685.410096
2763.152242,-148.041188,-8882.471304,0.000000
2763.152569,-222.061783,-10436.903782,1378.971896
2763.152897,-370.102971,-11473.192101,842.705048
2763.153224,-444.123565,-9400.615463,-229.828649
2763.153552,-370.102971,-6291.750507,-1149.143247
2763.153880,0.000000,-6587.832884,0.000000
2763.154207,296.082377,-9696.697840,1455.581446
2763.154535,518.144159,-11695.253884,1455.581446
2763.154863,444.123565,-9474.636058,0.000000
2763.155190,222.061783,-8142.265362,-1915.238745
2763.155518,296.082377,-8956.491898,-1149.143247
2763.155846,444.123565,-10436.903782,76.609550
2763.156173,888.247130,-12213.398043,612.876398
2763.156501,518.144159,-12213.398043,76.609550
2763.156828,1184.329507,-9770.718434,-766.095498
2763.157156,888.247130,-7994.224174,-1225.752797
2763.157484,0.000000,-8290.306550,-229.828649
2763.157811,-1110.308913,-10658.965565,1225.752797
2763.158139,-666.185348,-11177.109724,0.000000
2763.158467,-370.102971,-9770.718434,-1762.019645
2763.158794,444.123565,-8142.265362,-1608.800546
2763.159122,888.247130,-8660.409521,-612.876398
2763.159449,1110.308913,-11473.192101,1302.362347
2763.159777,1332.370696,-13101.645173,459.657299
2763.160105,888.247130,-11029.068536,-459.657299
2763.160432,888.247130,-8068.244768,-1915.238745
2763.160760,222.061783,-7254.018232,-1149.143247
2763.161088,-592.164754,-8956.491898,383.047749
2763.161415,0.000000,-11029.068536,1608.800546
2763.161743,518.144159,-11917.315666,229.828649
2763.162071,592.164754,-8882.471304,-1455.581446
2763.162398,592.164754,-7328.038826,-1762.019645
2763.162726,148.041188,-8512.368333,-689.485948
2763.163053,0.000000,-10807.006753,536.266849
2763.163381,370.102971,-11325.150913,459.657299
2763.163709,1184.329507,-9474.636058,-1072.533697
2763.164036,2368.659014,-7476.080014,-1072.533697
2763.164364,1924.535449,-7772.162391,766.095498
2763.164692,1776.494261,-9918.759623,1991.848295
2763.165019,370.102971,-10955.047942,1685.410096
2763.165347,-444.123565,-10658.965565,-383.047749
2763.165675,-814.226536,-8808.450710,-2451.505594
2763.166002,-666.185348,-7476.080014,-2145.067394
2763.166330,-962.267725,-8660.409521,-766.095498
2763.166657,-148.041188,-11325.150913,689.485948
2763.166985,0.000000,-12287.418637,306.438199
2763.167313,222.061783,-10288.862594,-995.924147
2763.167640,740.205942,-7920.203579,-1532.190996
2763.167968,296.082377,-8068.244768,-689.485948
2763.168296,-370.102971,-10362.883188,995.924147
2763.168623,-592.164754,-10658.965565,1149.143247
2763.168951,0.000000,-9992.780217,-842.705048
2763.169278,1036.288319,-8364.327145,-1608.800546
2763.169606,1480.411884,-8808.450710,-1072.533697
2763.169934,370.102971,-10288.862594,919.314598
2763.170261,0.000000,-11991.336260,1225.752797
2763.170589,-222.061783,-10955.047942,-1072.533697
2763.170917,518.144159,-8068.244768,-1915.238745
2763.171244,370.102971,-7550.100608,-689.485948
2763.171572,592.164754,-9030.512492,995.924147
2763.171900,592.164754,-10214.842000,2298.286494
2763.172227,592.164754,-10658.965565,1225.752797
2763.172555,518.144159,-9474.636058,-689.485948
2763.172882,518.144159,-8290.306550,-1225.752797
2763.173210,296.082377,-7994.224174,-536.266849
2763.173538,148.041188,-10362.883188,766.095498
2763.173865,444.123565,-11843.295072,842.705048
2763.174193,-222.061783,-10658.965565,0.000000
2763.174521,-296.082377,-7772.162391,-995.924147
2763.174848,-444.123565,-7476.080014,-1225.752797
2763.175176,-962.267725,-9622.677246,689.485948
2763.175504,-666.185348,-11399.171507,1072.533697
2763.175831,222.061783,-10066.800811,153.219100
2763.176159,1332.370696,-7772.162391,-766.095498
2763.176486,1924.535449,-7772.162391,-689.485948
2763.176814,1110.308913,-9622.677246,383.047749
2763.177142,814.226536,-11695.253884,919.314598
2763.177469,1036.288319,-12213.398043,0.000000
2763.177797,1406.391290,-10362.883188,-1762.019645
2763.178125,2146.597232,-9030.512492,-1685.410096
2763.178452,2072.576638,-9252.574275,76.609550
2763.178780,962.267725,-10510.924376,1991.848295
2763.179107,222.061783,-11251.130318,842.705048
2763.179435,-888.247130,-10140.821405,-612.876398
2763.179763,-814.226536,-7920.203579,-1762.019645
2763.180090,-740.205942,-7550.100608,-1915.238745
2763.180418,-1184.329507,-9992.780217,229.828649
2763.180746,-962.267725,-11029.068536,612.876398
2763.181073,0.000000,-11843.295072,-766.095498
2763.181401,296.082377,-10214.842000,-1608.800546
2763.181729,666.185348,-8512.368333,-1608.800546
2763.182056,592.164754,-9252.574275,-459.657299
2763.182384,0.000000,-11103.089130,1455.581446
2763.182711,-296.082377,-10584.944971,1378.971896
2763.183039,148.041188,-8956.491898,229.828649
2763.183367,444.123565,-7402.059420,-995.924147
2763.183694,518.144159,-7994.224174,-919.314598
2763.184022,0.000000,-9548.656652,76.609550
2763.184350,-1110.308913,-10955.047942,842.705048
2763.184677,-370.102971,-9844.739029,-383.047749
2763.185005,1406.391290,-9030.512492,-766.095498
2763.185332,1776.494261,-8290.306550,-1302.362347
2763.185660,1258.350101,-9326.594869,766.095498
2763.185988,888.247130,-11399.171507,1378.971896
2763.186315,-444.123565,-11325.150913,229.828649
2763.186643,-814.226536,-8512.368333,-842.705048
2763.186971,0.000000,-6809.894666,-1685.410096
2763.187298,148.041188,-8142.265362,-229.828649
2763.187626,888.247130,-11177.109724,689.485948
2763.187954,1110.308913,-11621.233289,459.657299
2763.188281,444.123565,-10658.965565,-612.876398
2763.188609,222.061783,-8734.430116,-1608.800546
2763.188936,666.185348,-8290.306550,-1915.238745
2763.189264,-518.144159,-9622.677246,76.609550
2763.189592,-222.061783,-11325.150913,1685.410096
2763.189919,962.267725,-10510.924376,153.219100
2763.190247,1480.411884,-8364.327145,-1302.362347
2763.190575,1110.308913,-7920.203579,-1149.143247
2763.190902,518.144159,-9474.636058,0.000000
2763.191230,444.123565,-11917.315666,766.095498
2763.191558,222.061783,-12213.398043,-229.828649
2763.191885,1554.432478,-9474.636058,-1608.800546
2763.192213,1776.494261,-7772.162391,-1991.848295
2763.192540,666.185348,-8734.430116,842.705048
2763.192868,0.000000,-10510.924376,2221.676944
2763.193196,0.000000,-10881.027347,1378.971896
2763.193523,-296.082377,-10362.883188,459.657299
2763.193851,-222.061783,-7179.997637,-383.047749
2763.194179,-148.041188,-7031.956449,-1608.800546
2763.194506,-962.267725,-8956.491898,919.314598
2763.194834,-888.247130,-11177.109724,536.266849
2763.195161,-1110.308913,-11029.068536,-995.924147
2763.195489,-888.247130,-9030.512492,-1762.019645
2763.195817,0.000000,-7846.182985,-1915.238745
2763.196144,0.000000,-9104.533087,-306.438199
2763.196472,-370.102971,-11769.274478,842.705048
2763.196800,370.102971,-11325.150913,306.438199
2763.197127,1036.288319,-9252.574275,-995.924147
2763.197455,1332.370696,-7254.018232,-1225.752797
2763.197783,888.247130,-7994.224174,153.219100
2763.198110,444.123565,-10362.883188,2145.067394
2763.198438,0.000000,-11547.212695,1455.581446
2763.198765,-148.041188,-9844.739029,-383.047749
2763.199093,888.247130,-8216.285956,-1838.629195
2763.199421,444.123565,-8216.285956,-1532.190996
2763.199748,-518.144159,-9992.780217,0.000000
2763.200076,-814.226536,-12953.603985,229.828649
2763.200404,-444.123565,-12287.418637,-689.485948
2763.200731,222.061783,-9622.677246,-1991.848295
2763.201059,592.164754,-8364.327145,-1532.190996
2763.201386,222.061783,-9548.656652,536.266849
2763.201714,370.102971,-11769.274478,1149.143247
2763.202042,148.041188,-10955.047942,76.609550
2763.202369,-370.102971,-8512.368333,-1378.971896
2763.202697,-222.061783,-6809.894666,-766.095498
2763.203025,222.061783,-7772.162391,-229.828649
2763.203352,222.061783,-10955.047942,1838.629195
2763.203680,888.247130,-12583.501014,919.314598
2763.204008,1850.514855,-10510.924376,-153.219100
2763.204335,2368.659014,-7550.100608,-1149.143247
2763.204663,1924.535449,-7254.018232,-229.828649
2763.204990,444.123565,-9696.697840,1685.410096
2763.205318,370.102971,-11325.150913,1991.848295
2763.205646,0.000000,-10362.883188,-383.047749
2763.205973,0.000000,-7772.162391,-1149.143247
2763.206301,592.164754,-7624.121203,-1455.581446
2763.206629,296.082377,-9400.615463,766.095498
2763.206956,-518.144159,-11177.109724,1532.190996
2763.207284,0.000000,-11177.109724,-459.657299
2763.207612,222.061783,-9474.636058,-1762.019645
2763.207939,666.185348,-7105.977043,-1532.190996
2763.208267,1110.308913,-8068.244768,0.000000
2763.208594,1184.329507,-10362.883188,1991.848295
2763.208922,1332.370696,-11399.171507,1915.238745
2763.209250,1110.308913,-11103.089130,0.000000
2763.209577,1036.288319,-8512.368333,-1149.143247
2763.209905,222.061783,-7698.141797,-1225.752797
2763.210233,0.000000,-10066.800811,76.609550
2763.210560,-296.082377,-12657.521608,229.828649
2763.210888,0.000000,-12287.418637,-919.314598
2763.211215,666.185348,-9622.677246,-1685.410096
2763.211543,1110.308913,-8068.244768,-1225.752797
2763.211871,592.164754,-9030.512492,459.657299
2763.212198,0.000000,-11103.089130,1915.238745
2763.212526,-518.144159,-10584.944971,919.314598
2763.212854,-370.102971,-9104.533087,-1378.971896
2763.213181,296.082377,-7772.162391,-1608.800546
2763.213509,0.000000,-7772.162391,0.000000
2763.213836,-740.205942,-9696.697840,1915.238745
2763.214164,-518.144159,-11473.192101,919.314598
2763.214492,-518.144159,-10362.883188,-153.219100
2763.214819,-296.082377,-8438.347739,-1532.190996
2763.215147,-444.123565,-7994.224174,-919.314598
2763.215474,0.000000,-9178.553681,919.314598
2763.215802,370.102971,-10881.027347,1225.752797
2763.216129,-296.082377,-11251.130318,153.219100
2763.216457,-74.020594,-9474.636058,-689.485948
2763.216784,148.041188,-6587.832884,-919.314598
2763.217112,296.082377,-8364.327145,0.000000
2763.217439,0.000000,-10732.986159,153.219100
2763.217767,-740.205942,-11325.150913,1072.533697
2763.218095,-666.185348,-9400.615463,-919.314598
2763.218422,-370.102971,-8068.244768,-2298.286494
2763.218750,148.041188,-8734.430116,-1838.629195
2763.219077,0.000000,-10214.842000,153.219100
2763.219405,-370.102971,-11473.192101,1072.533697
2763.219732,814.226536,-10510.924376,-459.657299
2763.220060,1776.494261,-9326.594869,-1991.848295
2763.220387,1924.535449,-8734.430116,-689.485948
2763.220715,1110.308913,-9400.615463,766.095498
2763.221042,666.185348,-11547.212695,1302.362347
2763.221370,74.020594,-12065.356855,-383.047749
2763.221698,666.185348,-9770.718434,-2528.115143
2763.222025,666.185348,-8068.244768,-1915.238745
2763.222353,962.267725,-9104.533087,-536.266849
2763.222680,888.247130,-10658.965565,1532.190996
2763.223008,814.226536,-11695.253884,689.485948
2763.223335,814.226536,-10732.986159,-842.705048
2763.223663,814.226536,-7772.162391,-1455.581446
2763.223990,888.247130,-8290.306550,-1149.143247
2763.224318,0.000000,-10288.862594,995.924147
2763.224645,444.123565,-11547.212695,1225.752797
2763.224973,888.247130,-10658.965565,0.000000
2763.225300,1036.288319,-9030.512492,-1149.143247
2763.225628,666.185348,-7846.182985,-1225.752797
2763.225956,814.226536,-9252.574275,0.000000
2763.226283,222.061783,-10510.924376,1991.848295
2763.226611,0.000000,-11177.109724,1685.410096
2763.226938,296.082377,-9178.553681,-459.657299
2763.227266,444.123565,-7031.956449,-1225.752797
2763.227593,592.164754,-7550.100608,0.000000
2763.227921,370.102971,-10066.800811,1685.410096
2763.228248,0.000000,-11251.130318,2221.676944
2763.228576,74.020594,-10288.862594,76.609550
2763.228903,222.061783,-8734.430116,-1915.238745
2763.229231,-148.041188,-8512.368333,-1149.143247
2763.229559,-370.102971,-10288.862594,0.000000
2763.229886,-370.102971,-11843.295072,76.609550
2763.230214,-740.205942,-11399.171507,-995.924147
2763.230541,-888.247130,-9252.574275,-1685.410096
2763.230869,-814.226536,-7624.121203,-1302.362347
2763.231196,0.000000,-8882.471304,229.828649
2763.231524,296.082377,-11399.171507,1455.581446
2763.231851,888.247130,-11177.109724,536.266849
2763.232179,1406.391290,-9104.533087,-995.924147
2763.232506,1628.453072,-7772.162391,-1225.752797
2763.232834,1184.329507,-8586.388927,-1149.143247
2763.233162,592.164754,-11399.171507,1225.752797
2763.233489,222.061783,-13397.727550,459.657299
2763.233817,592.164754,-11843.295072,-1302.362347
2763.234144,592.164754,-8808.450710,-2604.724693
2763.234472,0.000000,-8364.327145,-1302.362347
2763.234799,-1036.288319,-9696.697840,1072.533697
2763.235127,-1554.432478,-10732.986159,1225.752797
2763.235454,-1628.453072,-9474.636058,-536.266849
2763.235782,-1258.350101,-7550.100608,-1915.238745
2763.236109,-740.205942,-6439.791695,-1532.190996
2763.236437,-518.144159,-7920.203579,306.438199
2763.236765,296.082377,-10732.986159,1532.190996
2763.237092,592.164754,-12213.398043,612.876398
2763.237420,814.226536,-10584.944971,-306.438199
2763.237747,666.185348,-8142.265362,-995.924147
2763.238075,740.205942,-9030.512492,-383.047749
2763.238402,74.020594,-11103.089130,842.705048
2763.238730,-222.061783,-11695.253884,1072.533697
2763.239057,296.082377,-10140.821405,-306.438199
2763.239385,1036.288319,-7476.080014,-995.924147
2763.239712,1480.411884,-6069.688724,-229.828649
2763.240040,592.164754,-8512.368333,1225.752797
2763.240367,0.000000,-10881.027347,1838.629195
2763.240695,0.000000,-10584.944971,-536.266849
2763.241023,814.226536,-9104.533087,-2221.676944
2763.241350,1702.473667,-8438.347739,-1608.800546
2763.241678,1998.556043,-9918.759623,842.705048
2763.242005,1850.514855,-11769.274478,2221.676944
2763.242333,1628.453072,-12139.377449,1302.362347
2763.242660,888.247130,-10288.862594,-612.876398
2763.242988,518.144159,-7994.224174,-2528.115143
2763.243315,-592.164754,-7698.141797,-1532.190996
2763.243643,-1258.350101,-10066.800811,76.609550
2763.243970,-518.144159,-11695.253884,383.047749
2763.244298,592.164754,-10955.047942,-689.485948
2763.244626,1480.411884,-8808.450710,-1762.019645
2763.244953,2072.576638,-7994.224174,-995.924147
2763.245281,1110.308913,-10436.903782,612.876398
2763.245608,296.082377,-11473.192101,1302.362347
2763.245936,296.082377,-10658.965565,-306.438199
2763.246263,148.041188,-8586.388927,-1532.190996
2763.246591,444.123565,-7179.997637,-1072.533697
2763.246918,370.102971,-8734.430116,536.266849
2763.247246,-666.185348,-10881.027347,1302.362347
2763.247573,-592.164754,-12139.377449,536.266849
2763.247901,74.020594,-10288.862594,-1838.629195
2763.248229,962.267725,-8216.285956,-2145.067394
2763.248556,666.185348,-7994.224174,-153.219100
2763.248884,-148.041188,-9030.512492,2145.067394
2763.249211,0.000000,-10584.944971,3370.820191
2763.249539,-666.185348,-9474.636058,383.047749
2763.249866,-222.061783,-7476.080014,-919.314598
2763.250194,-222.061783,-7402.059420,-536.266849
2763.250521,0.000000,-9474.636058,842.705048
2763.250849,0.000000,-11991.336260,459.657299
2763.251176,-814.226536,-12287.418637,-766.095498
2763.251504,-1036.288319,-9770.718434,-2298.286494
2763.251832,-444.123565,-7328.038826,-2451.505594
2763.252159,592.164754,-9400.615463,-1608.800546
2763.252487,666.185348,-11547.212695,1149.143247
2763.252814,1406.391290,-11917.315666,1532.190996
2763.253142,1924.535449,-9696.697840,842.705048
2763.253469,1850.514855,-7254.018232,-306.438199
2763.253797,1258.350101,-6957.935855,-153.219100
2763.254124,-222.061783,-9474.636058,-383.047749
2763.254452,-666.185348,-11251.130318,-229.828649
2763.254779,-296.082377,-11325.150913,-1149.143247
2763.255107,814.226536,-9770.718434,-1838.629195
2763.255435,1258.350101,-9178.553681,-995.924147
2763.255762,74.020594,-10140.821405,919.314598
2763.256090,-814.226536,-11769.274478,1225.752797
2763.256417,-296.082377,-11621.233289,0.000000
2763.256745,-444.123565,-8956.491898,-1762.019645
2763.257072,0.000000,-6883.915261,-1455.581446
2763.257400,0.000000,-7254.018232,306.438199
2763.257727,74.020594,-9696.697840,2298.286494
2763.258055,740.205942,-11251.130318,1762.019645
2763.258382,-666.185348,-9326.594869,76.609550
2763.258710,-148.041188,-8068.244768,-1762.019645
2763.259037,148.041188,-8290.306550,-2145.067394
2763.259365,222.061783,-10288.862594,0.000000
2763.259693,518.144159,-11769.274478,766.095498
2763.260020,1480.411884,-11325.150913,459.657299
2763.260348,2664.741391,-9252.574275,-153.219100
2763.260675,2812.782580,-7328.038826,-306.438199
2763.261003,1924.535449,-8364.327145,459.657299
2763.261330,444.123565,-10955.047942,1378.971896
2763.261658,518.144159,-11029.068536,919.314598
2763.261985,74.020594,-9030.512492,-1455.581446
2763.262313,-444.123565,-7476.080014,-2068.457845
2763.262640,-666.185348,-7994.224174,-766.095498
2763.262968,-296.082377,-10658.965565,0.000000
2763.263296,0.000000,-11843.295072,-383.047749
2763.263623,592.164754,-10881.027347,-995.924147
2763.263951,962.267725,-9104.533087,-1302.362347
2763.264278,1184.329507,-9104.533087,-612.876398
2763.264606,592.164754,-10436.903782,306.438199
2763.264933,222.061783,-12139.377449,612.876398
2763.265261,-296.082377,-11177.109724,536.266849
2763.265588,-740.205942,-8956.491898,-1302.362347
2763.265916,-296.082377,-7476.080014,-1685.410096
2763.266243,-740.205942,-9252.574275,0.000000
2763.266571,-1184.329507,-10584.944971,995.924147
2763.266899,-1184.329507,-11177.109724,459.657299
2763.267226,-370.102971,-9326.594869,-1838.629195
2763.267554,-296.082377,-7105.977043,-1762.019645
2763.267881,-888.247130,-7846.182985,-383.047749
2763.268209,-666.185348,-10362.883188,689.485948
2763.268536,-370.102971,-11769.274478,1302.362347
2763.268864,0.000000,-10658.965565,0.000000
2763.269191,518.144159,-8438.347739,-919.314598
2763.269519,962.267725,-7772.162391,-153.219100
2763.269846,222.061783,-9770.718434,689.485948
2763.270174,-296.082377,-11399.171507,919.314598
2763.270502,-592.164754,-10436.903782,-306.438199
2763.270829,-666.185348,-8068.244768,-2604.724693
2763.271157,0.000000,-6957.935855,-2451.505594
2763.271484,518.144159,-8660.409521,0.000000
2763.271812,1110.308913,-11251.130318,1685.410096
2763.272139,1554.432478,-11547.212695,1532.190996
2763.272467,1924.535449,-10288.862594,-459.657299
2763.272794,888.247130,-8142.265362,-1685.410096
2763.273122,148.041188,-8068.244768,-919.314598
2763.273449,-370.102971,-9992.780217,76.609550
2763.273777,-370.102971,-11843.295072,0.000000
2763.274104,296.082377,-11843.295072,-1149.143247
2763.274432,1628.453072,-9622.677246,-919.314598
2763.274760,1702.473667,-8290.306550,-229.828649
2763.275087,1628.453072,-9326.594869,536.266849
2763.275415,962.267725,-11473.192101,1302.362347
2763.275742,1184.329507,-11177.109724,76.609550
2763.276070,1702.473667,-8734.430116,-1302.362347
2763.276397,2664.741391,-7624.121203,-689.485948
2763.276725,2442.679609,-8438.347739,1532.190996
2763.277052,1480.411884,-9844.739029,3370.820191
2763.277380,962.267725,-12435.459826,1225.752797
2763.277707,1036.288319,-11917.315666,-1685.410096
2763.278035,518.144159,-8956.491898,-3600.648841
2763.278363,0.000000,-7846.182985,-2145.067394
2763.278690,-666.185348,-9548.656652,76.609550
2763.279018,-148.041188,-10436.903782,2068.457845
2763.279345,888.247130,-9844.739029,612.876398
2763.279673,444.123565,-6883.915261,0.000000
2763.280000,518.144159,-6439.791695,-459.657299
2763.280328,518.144159,-8142.265362,919.314598
2763.280655,370.102971,-10584.944971,1685.410096
2763.280983,-296.082377,-11325.150913,1072.533697
2763.281310,-444.123565,-9474.636058,-1149.143247
2763.281638,370.102971,-8290.306550,-1838.629195
2763.281966,592.164754,-9030.512492,-919.314598
2763.282293,-444.123565,-11843.295072,306.438199
2763.282621,-370.102971,-12731.542202,612.876398
2763.282948,-370.102971,-10436.903782,-689.485948
2763.283276,0.000000,-8068.244768,-1149.143247
2763.283603,-444.123565,-7920.203579,-1072.533697
2763.283931,-1480.411884,-8734.430116,1072.533697
2763.284258,-1258.350101,-9992.780217,1532.190996
2763.284586,-1258.350101,-10732.986159,0.000000
2763.284913,-740.205942,-9030.512492,-1838.629195
2763.285241,0.000000,-7772.162391,-1915.238745
2763.285569,0.000000,-9622.677246,536.266849
2763.285896,148.041188,-11917.315666,995.924147
2763.286224,444.123565,-12657.521608,0.000000
2763.286551,-296.082377,-10807.006753,-1455.581446
2763.286879,-740.205942,-7698.141797,-2068.457845
2763.287206,-962.267725,-7994.224174,-1532.190996
2763.287534,-962.267725,-10510.924376,919.314598
2763.287861,0.000000,-11843.295072,1838.629195
2763.288189,370.102971,-10066.800811,229.828649
2763.288516,1702.473667,-8216.285956,-536.266849
2763.288844,814.226536,-7476.080014,-689.485948
2763.289171,518.144159,-9104.533087,0.000000
2763.289499,0.000000,-10881.027347,689.485948
2763.289827,222.061783,-10732.986159,-153.219100
2763.290154,1110.308913,-8660.409521,-919.314598
2763.290482,2368.659014,-7846.182985,-919.314598
2763.290809,2220.617826,-9252.574275,306.438199
2763.291137,1480.411884,-11399.171507,2451.505594
2763.291464,444.123565,-11399.171507,1149.143247
2763.291792,222.061783,-9252.574275,-2145.067394
2763.292119,148.041188,-7698.141797,-2834.553343
2763.292447,370.102971,-7698.141797,-1455.581446
2763.292774,888.247130,-9178.553681,919.314598
2763.293102,1998.556043,-12139.377449,1302.362347
2763.293430,1702.473667,-11769.274478,536.266849
2763.293757,740.205942,-8290.306550,-612.876398
2763.294085,370.102971,-7698.141797,-1378.971896
2763.294412,0.000000,-9622.677246,-842.705048
2763.294740,296.082377,-11843.295072,0.000000
2763.295067,592.164754,-11103.089130,-459.657299
2763.295395,962.267725,-8808.450710,-383.047749
2763.295722,2738.761985,-8734.430116,-1072.533697
2763.296050,1776.494261,-9474.636058,-383.047749
2763.296377,0.000000,-11473.192101,1072.533697
2763.296705,-148.041188,-11769.274478,383.047749
2763.297033,222.061783,-9474.636058,-1532.190996
2763.297360,1258.350101,-7624.121203,-1378.971896
2763.297688,1184.329507,-8142.265362,459.657299
2763.298015,740.205942,-10658.965565,2068.457845
2763.298343,296.082377,-11843.295072,2298.286494
2763.298670,-740.205942,-10436.903782,76.609550
2763.298998,-1406.391290,-8290.306550,-1838.629195
2763.299325,-1406.391290,-7254.018232,-1838.629195
2763.299653,-1480.411884,-8956.491898,-612.876398
2763.299980,-1184.329507,-11399.171507,842.705048
2763.300308,-296.082377,-12065.356855,612.876398
2763.300636,-296.082377,-9548.656652,-689.485948
2763.300963,-296.082377,-7402.059420,-1225.752797
2763.301291,-888.247130,-8438.347739,-383.047749
2763.301618,-1184.329507,-10881.027347,1378.971896
2763.301946,-740.205942,-11177.109724,1532.190996
2763.302273,0.000000,-8364.327145,0.000000
2763.302601,592.164754,-7105.977043,-1302.362347
2763.302928,0.000000,-7698.141797,76.609550
2763.303256,-740.205942,-9844.739029,842.705048
2763.303583,-666.185348,-11473.192101,612.876398
2763.303911,0.000000,-10732.986159,-2298.286494
2763.304239,296.082377,-9326.594869,-2451.505594
2763.304566,370.102971,-8068.244768,-1225.752797
2763.304894,1036.288319,-9918.759623,0.000000
2763.305221,888.247130,-12287.418637,1991.848295
2763.305549,814.226536,-11621.233289,995.924147
2763.305876,518.144159,-8364.327145,-995.924147
2763.306204,296.082377,-6883.915261,-2145.067394
2763.306531,0.000000,-8290.306550,-842.705048
2763.306859,-740.205942,-10658.965565,1149.143247
2763.307186,-888.247130,-11769.274478,842.705048
2763.307514,-1258.350101,-9992.780217,-1455.581446
2763.307841,-962.267725,-8068.244768,-2528.115143
2763.308169,0.000000,-8660.409521,-1915.238745
2763.308497,962.267725,-10732.986159,0.000000
2763.308824,2368.659014,-12287.418637,842.705048
2763.309152,2368.659014,-11177.109724,766.095498
2763.309479,2664.741391,-9326.594869,-153.219100
2763.309807,2812.782580,-7698.141797,-612.876398
2763.310134,1332.370696,-8956.491898,229.828649
2763.310462,814.226536,-10214.842000,1149.143247
2763.310789,1480.411884,-11177.109724,0.000000
2763.311117,888.247130,-9400.615463,-1072.533697
2763.311444,1258.350101,-7846.182985,-1302.362347
2763.311772,888.247130,-8586.388927,153.219100
2763.312100,-444.123565,-10510.924376,1072.533697
2763.312427,-814.226536,-11621.233289,689.485948
2763.312755,0.000000,-9400.615463,-1072.533697
2763.313082,592.164754,-7328.038826,-1302.362347
2763.313410,518.144159,-7550.100608,153.219100
2763.313737,-148.041188,-9918.759623,1532.190996
2763.314065,-740.205942,-11769.274478,1378.971896
2763.314392,-888.247130,-11621.233289,-612.876398
2763.314720,-370.102971,-9252.574275,-3140.991542
2763.315047,0.000000,-8142.265362,-3217.601092
2763.315375,444.123565,-9474.636058,-842.705048
2763.315702,1036.288319,-11399.171507,1378.971896
2763.316030,888.247130,-11547.212695,2298.286494
2763.316357,1924.535449,-10140.821405,383.047749
2763.316685,1998.556043,-7994.224174,-536.266849
2763.317012,1258.350101,-7254.018232,-306.438199
2763.317340,0.000000,-9104.533087,689.485948
2763.317667,-148.041188,-10658.965565,1072.533697
2763.317995,-592.164754,-9992.780217,0.000000
2763.318322,296.082377,-8512.368333,-842.705048
2763.318650,370.102971,-8512.368333,-995.924147
2763.318977,-592.164754,-11103.089130,0.000000
2763.319305,-962.267725,-12583.501014,383.047749
2763.319632,-962.267725,-11177.109724,-536.266849
2763.319960,-740.205942,-8512.368333,-1762.019645
2763.320287,74.020594,-7402.059420,-1455.581446
2763.320615,-222.061783,-7476.080014,919.314598
2763.320942,0.000000,-10362.883188,2221.676944
2763.321270,740.205942,-11843.295072,1225.752797
2763.321597,740.205942,-10362.883188,-995.924147
2763.321925,518.144159,-8142.265362,-1838.629195
2763.322252,74.020594,-8364.327145,-1072.533697
2763.322580,-518.144159,-10510.924376,536.266849
2763.322907,-370.102971,-11621.233289,76.609550
2763.323235,-296.082377,-10288.862594,-919.314598
2763.323562,0.000000,-8586.388927,-1685.410096
2763.323890,74.020594,-7772.162391,-1149.143247
2763.324217,-296.082377,-8586.388927,689.485948
2763.324545,-888.247130,-10658.965565,1455.581446
2763.324872,-1036.288319,-10658.965565,76.609550
2763.325200,0.000000,-9474.636058,-1991.848295
2763.325527,740.205942,-7846.182985,-1532.190996
2763.325855,888.247130,-9548.656652,-229.828649
2763.326182,444.123565,-11473.192101,1762.019645
2763.326510,740.205942,-11473.192101,1225.752797
2763.326837,1184.329507,-10584.944971,-842.705048
2763.327165,1036.288319,-8364.327145,-1455.581446
2763.327492,296.082377,-7846.182985,-689.485948
2763.327820,1036.288319,-9696.697840,76.609550
2763.328147,370.102971,-11621.233289,612.876398
2763.328475,296.082377,-11177.109724,76.609550
2763.328802,814.226536,-7920.203579,-536.266849
2763.329130,1406.391290,-6957.935855,-612.876398
2763.329457,1258.350101,-9770.718434,689.485948
2763.329785,814.226536,-11621.233289,689.485948
2763.330112,444.123565,-11399.171507,0.000000
2763.330440,74.020594,-9844.739029,-1685.410096
2763.330767,592.164754,-8586.388927,-2298.286494
2763.331095,1258.350101,-8512.368333,-612.876398
2763.331422,518.144159,-10214.842000,1532.190996
2763.331750,1110.308913,-11843.295072,2451.505594
2763.332077,1850.514855,-10436.903782,0.000000
2763.332405,1628.453072,-7698.141797,-1455.581446
2763.332732,888.247130,-7402.059420,-1455.581446
2763.333060,-888.247130,-9030.512492,995.924147
2763.333387,-962.267725,-10066.800811,995.924147
2763.333715,-518.144159,-10214.842000,-306.438199
2763.334042,592.164754,-8586.388927,-1302.362347
2763.334370,1184.329507,-7624.121203,-919.314598
2763.334697,740.205942,-9548.656652,612.876398
2763.335025,0.000000,-12361.439231,995.924147
2763.335352,-296.082377,-12583.501014,-612.876398
2763.335680,-1036.288319,-9992.780217,-2374.896044
2763.336007,-740.205942,-7328.038826,-2451.505594
2763.336335,0.000000,-8142.265362,-229.828649
2763.336662,-296.082377,-10362.883188,1608.800546
2763.336990,-148.041188,-12361.439231,2374.896044
2763.337317,74.020594,-11251.130318,0.000000
2763.337645,0.000000,-8512.368333,-2068.457845
2763.337972,0.000000,-7846.182985,-1991.848295
2763.338300,-666.185348,-9252.574275,459.657299
2763.338627,-592.164754,-10807.006753,1149.143247
2763.338955,0.000000,-9844.739029,612.876398
2763.339282,1110.308913,-8512.368333,-536.266849
2763.339610,1702.473667,-8586.388927,-306.438199
2763.339937,222.061783,-9918.759623,995.924147
2763.340265,-518.144159,-10955.047942,1378.971896
2763.340592,-1036.288319,-11029.068536,-383.047749
2763.340920,-740.205942,-9104.533087,-2068.457845
2763.341247,-370.102971,-7476.080014,-2528.115143
2763.341575,370.102971,-8216.285956,-459.657299
2763.341902,370.102971,-11103.089130,2374.896044
2763.342230,592.164754,-12213.398043,2145.067394
2763.342557,740.205942,-10881.027347,0.000000
2763.342885,296.082377,-7920.203579,-1532.190996
2763.343212,370.102971,-6957.935855,-1225.752797
2763.343540,296.082377,-9252.574275,229.828649
2763.343867,0.000000,-11473.192101,2298.286494
2763.344195,518.144159,-11473.192101,229.828649
2763.344522,592.164754,-8808.450710,-995.924147
2763.344850,1036.288319,-8068.244768,-1685.410096
2763.345177,296.082377,-9548.656652,-306.438199
2763.345505,74.020594,-11029.068536,76.609550
2763.345832,444.123565,-11029.068536,153.219100
2763.346160,1480.411884,-9992.780217,-995.924147
2763.346487,1332.370696,-8364.327145,-689.485948
2763.346815,740.205942,-8142.265362,153.219100
2763.347142,148.041188,-9474.636058,1608.800546
2763.347470,74.020594,-10955.047942,919.314598
2763.347797,518.144159,-10732.986159,-1532.190996
2763.348125,666.185348,-8364.327145,-3524.039291
2763.348453,814.226536,-7328.038826,-1915.238745
2763.348780,888.247130,-10140.821405,0.000000
2763.349108,1184.329507,-12731.542202,995.924147
2763.349435,1776.494261,-12805.562797,229.828649
2763.349763,2368.659014,-9548.656652,-842.705048
2763.350090,2442.679609,-7254.018232,-1225.752797
2763.350418,962.267725,-8364.327145,536.266849
2763.350745,-222.061783,-10658.965565,2604.724693
2763.351073,-1406.391290,-10732.986159,1378.971896
2763.351400,-1480.411884,-8734.430116,-1302.362347
2763.351728,-740.205942,-7624.121203,-2451.505594
2763.352055,-296.082377,-8142.265362,-1685.410096
2763.352383,-888.247130,-9104.533087,306.438199
2763.352710,-370.102971,-10955.047942,995.924147
2763.353038,0.000000,-10658.965565,153.219100
2763.353365,1850.514855,-9548.656652,-842.705048
2763.353693,1776.494261,-8660.409521,-229.828649
2763.354020,1110.308913,-9696.697840,1455.581446
2763.354348,296.082377,-11399.171507,2145.067394
2763.354675,0.000000,-10807.006753,842.705048
2763.355003,-1110.308913,-8068.244768,-1302.362347
2763.355330,-1036.288319,-7476.080014,-1378.971896
2763.355658,-1480.411884,-8734.430116,-536.266849
2763.355985,-1184.329507,-10732.986159,459.657299
2763.356313,-296.082377,-12213.398043,0.000000
2763.356640,-740.205942,-10288.862594,-1225.752797
2763.356968,-1184.329507,-7476.080014,-1225.752797
2763.357295,-1036.288319,-7254.018232,-842.705048
2763.357623,-74.020594,-9770.718434,0.000000
2763.357950,74.020594,-11991.336260,459.657299
2763.358278,888.247130,-11843.295072,0.000000
2763.358605,1554.432478,-9696.697840,-1149.143247
2763.358933,1850.514855,-8216.285956,-1302.362347
2763.359260,888.247130,-9178.553681,76.609550
2763.359588,0.000000,-11325.150913,1149.143247
2763.359915,370.102971,-11325.150913,-612.876398
2763.360243,1406.391290,-9622.677246,-2145.067394
2763.360570,1406.391290,-8512.368333,-1991.848295
2763.360898,1110.308913,-8734.430116,459.657299
2763.361225,814.226536,-10362.883188,2681.334243
2763.361553,444.123565,-10732.986159,2145.067394
2763.361880,296.082377,-9992.780217,-459.657299
2763.362208,148.041188,-7624.121203,-2221.676944
2763.362535,444.123565,-7846.182985,-995.924147
2763.362863,444.123565,-9992.780217,153.219100
2763.363190,296.082377,-11843.295072,842.705048
2763.363518,0.000000,-11621.233289,0.000000
2763.363845,0.000000,-9252.574275,-2221.676944
2763.364173,1480.411884,-7698.141797,-2145.067394
2763.364500,1184.329507,-8882.471304,-612.876398
2763.364828,1628.453072,-11547.212695,1685.410096
2763.365155,2368.659014,-11917.315666,1991.848295
2763.365483,2812.782580,-9696.697840,612.876398
2763.365810,2960.823768,-7698.141797,-766.095498
2763.366138,1702.473667,-7920.203579,76.609550
2763.366465,148.041188,-9252.574275,612.876398
2763.366793,-962.267725,-10288.862594,766.095498
2763.367120,-148.041188,-10658.965565,-1608.800546
2763.367448,296.082377,-9844.739029,-2298.286494
2763.367775,296.082377,-9400.615463,-1378.971896
2763.368103,-444.123565,-9548.656652,689.485948
2763.368430,-1110.308913,-10732.986159,1149.143247
2763.368758,-814.226536,-10807.006753,459.657299
2763.369085,-444.123565,-8512.368333,-1838.629195
2763.369413,-370.102971,-7328.038826,-1149.143247
2763.369740,296.082377,-9400.615463,612.876398
2763.370068,0.000000,-10881.027347,2221.676944
2763.370395,0.000000,-11473.192101,1149.143247
2763.370723,-592.164754,-9770.718434,-689.485948
2763.371050,-370.102971,-8142.265362,-2451.505594
2763.371378,-592.164754,-7624.121203,-1608.800546
2763.371705,0.000000,-10510.924376,-306.438199
2763.372033,148.041188,-12065.356855,1455.581446
2763.372360,1036.288319,-11325.150913,1149.143247
2763.372688,1480.411884,-8808.450710,229.828649
2763.373015,444.123565,-7328.038826,153.219100
2763.373343,0.000000,-8660.409521,0.000000
2763.373670,-1332.370696,-10214.842000,689.485948
2763.373998,-1998.556043,-10436.903782,-229.828649
2763.374325,-888.247130,-9178.553681,-2221.676944
2763.374653,148.041188,-8438.347739,-2145.067394
2763.374980,-296.082377,-9696.697840,0.000000
2763.375308,-518.144159,-11251.130318,1149.143247
2763.375635,0.000000,-10732.986159,995.924147
2763.375963,148.041188,-9178.553681,-1608.800546
2763.376290,74.020594,-7994.224174,-2451.505594
2763.376618,0.000000,-8068.244768,-842.705048
2763.376945,0.000000,-9844.739029,1532.190996
2763.377273,962.267725,-11399.171507,1532.190996
2763.377600,1184.329507,-10881.027347,0.000000
2763.377928,814.226536,-8586.388927,-1608.800546
2763.378255,1406.391290,-8660.409521,-2374.896044
2763.378583,888.247130,-9844.739029,-1685.410096
2763.378910,370.102971,-12879.583391,0.000000
2763.379238,518.144159,-12361.439231,0.000000
2763.379565,962.267725,-9326.594869,-919.314598
2763.379893,2220.617826,-7698.141797,-766.095498
2763.380220,1850.514855,-8512.368333,76.609550
2763.380548,296.082377,-9992.780217,2145.067394
2763.380875,0.000000,-10955.047942,1225.752797
2763.381203,370.102971,-9770.718434,-1072.533697
2763.381530,592.164754,-8438.347739,-2145.067394
2763.381858,74.020594,-8216.285956,-842.705048
2763.382185,0.000000,-9696.697840,1225.752797
2763.382513,0.000000,-11029.068536,2145.067394
2763.382840,1110.308913,-11325.150913,76.609550
2763.383168,1406.391290,-8808.450710,-1532.190996
2763.383495,1258.350101,-8512.368333,-306.438199
2763.383823,666.185348,-9474.636058,1149.143247
2763.384150,222.061783,-10955.047942,1685.410096
2763.384478,370.102971,-10510.924376,612.876398
2763.384805,444.123565,-8660.409521,-1608.800546
2763.385133,740.205942,-6439.791695,-1302.362347
2763.385460,1036.288319,-8734.430116,-229.828649
2763.385788,74.020594,-11177.109724,1302.362347
2763.386116,222.061783,-12805.562797,1302.362347
2763.386443,444.123565,-10658.965565,-612.876398
2763.386771,814.226536,-7772.162391,-1302.362347
2763.387098,740.205942,-7846.182985,-1072.533697
2763.387426,518.144159,-10584.944971,612.876398
2763.387753,-74.020594,-10955.047942,1608.800546
2763.388081,0.000000,-10066.800811,153.219100
2763.388408,0.000000,-8438.347739,-1072.533697
2763.388736,-222.061783,-8586.388927,-995.924147
2763.389063,-740.205942,-9400.615463,-153.219100
2763.389391,-2072.576638,-10510.924376,229.828649
2763.389718,-1332.370696,-11325.150913,-459.657299
2763.390046,-592.164754,-9696.697840,-1838.629195
2763.390373,-592.164754,-8142.265362,-1762.019645
2763.390701,-296.082377,-8808.450710,-383.047749
2763.391028,0.000000,-11103.089130,766.095498
2763.391356,518.144159,-12287.418637,919.314598
2763.391683,148.041188,-10436.903782,-995.924147
2763.392011,0.000000,-7402.059420,-2068.457845
2763.392338,222.061783,-7105.977043,-1378.971896
2763.392666,74.020594,-10066.800811,76.609550
2763.392993,518.144159,-12731.542202,1225.752797
2763.393321,1406.391290,-11621.233289,0.000000
2763.393648,1998.556043,-8586.388927,-1302.362347
2763.393976,2368.659014,-7994.224174,-766.095498
2763.394303,740.205942,-8882.471304,842.705048
2763.394631,-740.205942,-10362.883188,2528.115143
2763.394958,-1036.288319,-9844.739029,766.095498
2763.395286,-296.082377,-8956.491898,-1762.019645
2763.395613,0.000000,-8660.409521,-1838.629195
2763.395941,0.000000,-8660.409521,153.219100
2763.396268,222.061783,-9326.594869,1608.800546
2763.396596,0.000000,-10955.047942,2451.505594
2763.396923,0.000000,-10214.842000,-689.485948
2763.397251,1036.288319,-8586.388927,-2374.896044
2763.397578,1924.535449,-8808.450710,-1455.581446
2763.397906,1480.411884,-10066.800811,689.485948
2763.398233,1850.514855,-11769.274478,2221.676944
2763.398561,1850.514855,-11695.253884,612.876398
2763.398888,1628.453072,-9030.512492,-536.266849
2763.399216,740.205942,-7550.100608,-1455.581446
2763.399543,148.041188,-8290.306550,-459.657299
2763.399871,0.000000,-11547.212695,689.485948
2763.400198,444.123565,-11991.336260,383.047749
2763.400526,296.082377,-9770.718434,-842.705048
2763.400853,666.185348,-8364.327145,-1455.581446
2763.401181,1406.391290,-9474.636058,-383.047749
2763.401508,296.082377,-10584.944971,995.924147
2763.401836,-370.102971,-11621.233289,1378.971896
2763.402163,0.000000,-11103.089130,-612.876398
2763.402491,888.247130,-9770.718434,-2298.286494
2763.402818,1628.453072,-8660.409521,-1302.362347
2763.403146,74.020594,-8956.491898,1838.629195
2763.403473,-592.164754,-10510.924376,2145.067394
2763.403801,296.082377,-10584.944971,0.000000
2763.404128,370.102971,-9326.594869,-2068.457845
2763.404456,0.000000,-7772.162391,-1608.800546
2763.404783,-444.123565,-8808.450710,306.438199
2763.405111,0.000000,-9844.739029,842.705048
2763.405438,0.000000,-10658.965565,689.485948
2763.405766,-592.164754,-9548.656652,-383.047749
2763.406093,0.000000,-7476.080014,-612.876398
2763.406421,666.185348,-8068.244768,-919.314598
2763.406748,222.061783,-10288.862594,766.095498
2763.407076,-518.144159,-11547.212695,1149.143247
2763.407403,-296.082377,-10214.842000,-306.438199
2763.407731,444.123565,-8586.388927,-1915.238745
2763.408058,740.205942,-7402.059420,-2451.505594
2763.408386,518.144159,-9474.636058,0.000000
2763.408713,370.102971,-11251.130318,1378.971896
2763.409041,1332.370696,-11695.253884,689.485948
2763.409368,1702.473667,-10214.842000,-612.876398
2763.409696,1258.350101,-8438.347739,-995.924147
2763.410023,0.000000,-8512.368333,76.609550
2763.410351,-1332.370696,-9770.718434,1762.019645
2763.410678,-666.185348,-10510.924376,153.219100
2763.411006,-296.082377,-9548.656652,-2068.457845
2763.411333,0.000000,-8660.409521,-2451.505594
2763.411661,-222.061783,-8956.491898,-842.705048
2763.411988,-444.123565,-10214.842000,842.705048
2763.412316,74.020594,-12139.377449,383.047749
2763.412643,0.000000,-11695.253884,-536.266849
2763.412971,296.082377,-8956.491898,-2451.505594
2763.413298,888.247130,-8068.244768,-1302.362347
2763.413626,888.247130,-9474.636058,842.705048
2763.413953,1184.329507,-11029.068536,2145.067394
2763.414281,888.247130,-11251.130318,1685.410096
2763.414608,518.144159,-9400.615463,-383.047749
2763.414936,592.164754,-7105.977043,-1685.410096
2763.415263,1258.350101,-7772.162391,-1991.848295
2763.415591,222.061783,-9474.636058,306.438199
2763.415918,296.082377,-11621.233289,919.314598
2763.416246,962.267725,-10658.965565,0.000000
2763.416573,1998.556043,-7920.203579,-1149.143247
2763.416901,1998.556043,-7846.182985,-306.438199
2763.417228,1332.370696,-9696.697840,1915.238745
2763.417556,-222.061783,-10066.800811,2298.286494
2763.417883,-814.226536,-9770.718434,306.438199
2763.418211,-1110.308913,-8438.347739,-1991.848295
2763.418538,-296.082377,-8364.327145,-1915.238745
2763.418866,-296.082377,-9474.636058,229.828649
2763.419193,444.123565,-10732.986159,919.314598
2763.419521,888.247130,-11769.274478,76.609550
2763.419848,740.205942,-10584.944971,-995.924147
2763.420176,740.205942,-8364.327145,-1762.019645
2763.420503,370.102971,-7846.182985,-689.485948
2763.420831,0.000000,-10140.821405,919.314598
2763.421159,666.185348,-12287.418637,1608.800546
2763.421486,888.247130,-10288.862594,-612.876398
2763.421814,1480.411884,-8142.265362,-1225.752797
2763.422141,1184.329507,-8512.368333,-1225.752797
2763.422469,370.102971,-10436.903782,0.000000
2763.422796,-666.185348,-12213.398043,306.438199
2763.423124,-740.205942,-11325.150913,-1378.971896
2763.423451,-666.185348,-8808.450710,-2451.505594
2763.423779,296.082377,-8364.327145,-1302.362347
2763.424106,0.000000,-9400.615463,689.485948
2763.424434,-444.123565,-10510.924376,2298.286494
2763.424761,-962.267725,-10362.883188,1762.019645
2763.425089,-518.144159,-8882.471304,-995.924147
2763.425416,-666.185348,-7698.141797,-1915.238745
2763.425744,-814.226536,-7698.141797,-1225.752797
2763.426071,-1036.288319,-9252.574275,1532.190996
2763.426399,-370.102971,-11177.109724,1455.581446
2763.426726,0.000000,-10658.965565,-842.705048
2763.427054,148.041188,-8068.244768,-2221.676944
2763.427381,666.185348,-7105.977043,-1608.800546
2763.427709,740.205942,-10066.800811,383.047749
2763.428036,592.164754,-12139.377449,2374.896044
2763.428364,1184.329507,-10807.006753,995.924147
2763.428691,1406.391290,-7994.224174,-383.047749
2763.429019,1554.432478,-6291.750507,-919.314598
2763.429346,740.205942,-8364.327145,76.609550
2763.429674,0.000000,-10807.006753,1532.190996
2763.430001,-370.102971,-11325.150913,229.828649
2763.430329,148.041188,-9696.697840,-1762.019645
2763.430656,814.226536,-8808.450710,-2528.115143
2763.430984,1258.350101,-9844.739029,-229.828649
2763.431311,148.041188,-11325.150913,1225.752797
2763.431639,-148.041188,-11843.295072,1072.533697
2763.431966,0.000000,-10436.903782,-919.314598
2763.432294,444.123565,-8734.430116,-2298.286494
2763.432621,888.247130,-8142.265362,-842.705048
2763.432949,0.000000,-9622.677246,1149.143247
2763.433276,0.000000,-10955.047942,1991.848295
2763.433604,666.185348,-11473.192101,-459.657299
2763.433931,0.000000,-9918.759623,-2374.896044
2763.434259,0.000000,-7550.100608,-2528.115143
2763.434586,0.000000,-8512.368333,-919.314598
2763.434914,814.226536,-11473.192101,766.095498
2763.435241,1406.391290,-12509.480420,1915.238745
2763.435569,1554.432478,-9770.718434,612.876398
2763.435896,2294.638420,-7698.141797,153.219100
2763.436224,2664.741391,-8216.285956,0.000000
2763.436551,1110.308913,-10066.800811,1149.143247
2763.436879,148.041188,-11103.089130,1608.800546
2763.437206,444.123565,-9474.636058,229.828649
2763.437534,888.247130,-8216.285956,-383.047749
2763.437861,1332.370696,-7920.203579,-383.047749
2763.438189,-296.082377,-8808.450710,1455.581446
2763.438516,-1628.453072,-10288.862594,1838.629195
2763.438844,-1554.432478,-10584.944971,-306.438199
2763.439171,-962.267725,-8660.409521,-2451.505594
2763.439499,-740.205942,-7031.956449,-2145.067394
2763.439826,-666.185348,-7624.121203,153.219100
2763.440154,296.082377,-10288.862594,919.314598
2763.440481,1406.391290,-11621.233289,1532.190996
2763.440809,518.144159,-10584.944971,-766.095498
2763.441136,444.123565,-8586.388927,-2221.676944
2763.441464,666.185348,-8660.409521,-2145.067394
2763.441791,222.061783,-11103.089130,-612.876398
2763.442119,518.144159,-12805.562797,459.657299
2763.442446,814.226536,-11399.171507,-842.705048
2763.442774,1406.391290,-8364.327145,-1532.190996
2763.443101,1258.350101,-8290.306550,-1072.533697
2763.443429,370.102971,-9474.636058,612.876398
2763.443756,-666.185348,-11029.068536,1378.971896
2763.444084,-296.082377,-10214.842000,0.000000
2763.444411,74.020594,-9474.636058,-1532.190996
2763.444739,-518.144159,-8068.244768,-1915.238745
2763.445066,-1184.329507,-9178.553681,-229.828649
2763.445394,-1850.514855,-11103.089130,229.828649
2763.445721,-1332.370696,-11843.295072,0.000000
2763.446049,0.000000,-10584.944971,-2221.676944
2763.446376,1184.329507,-8956.491898,-2221.676944
2763.446704,888.247130,-8734.430116,306.438199
2763.447031,666.185348,-8956.491898,2451.505594
2763.447359,1480.411884,-10288.862594,2987.772442
2763.447686,1480.411884,-10658.965565,689.485948
2763.448014,592.164754,-8364.327145,-842.705048
2763.448341,74.020594,-6587.832884,-459.657299
2763.448669,148.041188,-7994.224174,612.876398
2763.448996,0.000000,-10140.821405,2068.457845
2763.449324,0.000000,-10436.903782,919.314598
2763.449651,592.164754,-9548.656652,-766.095498
2763.449979,1554.432478,-8660.409521,-995.924147
2763.450306,1776.494261,-8142.265362,-612.876398
2763.450634,814.226536,-10288.862594,842.705048
2763.450962,296.082377,-11325.150913,1915.238745
2763.451289,518.144159,-9696.697840,306.438199
2763.451617,1480.411884,-7994.224174,-1838.629195
2763.451944,1110.308913,-8512.368333,-995.924147
2763.452272,592.164754,-10584.944971,459.657299
2763.452599,296.082377,-11621.233289,1455.581446
2763.452927,666.185348,-11473.192101,-306.438199
2763.453254,296.082377,-10066.800811,-2451.505594
2763.453582,0.000000,-8512.368333,-1838.629195
2763.453909,-148.041188,-9030.512492,-689.485948
2763.454237,-666.185348,-10288.862594,919.314598
2763.454564,370.102971,-11843.295072,0.000000
2763.454892,370.102971,-10214.842000,-995.924147
2763.455219,888.247130,-8660.409521,-1455.581446
2763.455547,666.185348,-8734.430116,-1072.533697
2763.455874,0.000000,-10658.965565,536.266849
2763.456202,0.000000,-12287.418637,689.485948
2763.456529,-296.082377,-10510.924376,-1149.143247
2763.456857,296.082377,-8290.306550,-2374.896044
2763.457184,518.144159,-8068.244768,-995.924147
2763.457512,1110.308913,-9770.718434,1072.533697
2763.457839,666.185348,-11473.192101,3064.381992
2763.458167,444.123565,-9918.759623,1762.019645
2763.458494,0.000000,-8290.306550,-995.924147
2763.458822,296.082377,-7402.059420,-1225.752797
2763.459149,0.000000,-7476.080014,0.000000
2763.459477,-1036.288319,-9622.677246,2528.115143
2763.459804,-296.082377,-10955.047942,2145.067394
2763.460132,370.102971,-9474.636058,-459.657299
2763.460459,814.226536,-7920.203579,-995.924147
2763.460787,296.082377,-8142.265362,-612.876398
2763.461114,-592.164754,-9030.512492,1149.143247
2763.461442,-1110.308913,-11029.068536,995.924147
2763.461769,-1332.370696,-11547.212695,-1072.533697
2763.462097,-592.164754,-9104.533087,-2604.724693
2763.462424,666.185348,-7772.162391,-1915.238745
2763.462752,74.020594,-8882.471304,766.095498
2763.463079,0.000000,-11621.233289,2451.505594
2763.463407,1036.288319,-11917.315666,459.657299
2763.463734,518.144159,-9474.636058,-2604.724693
2763.464062,370.102971,-7698.141797,-3064.381992
2763.464389,296.082377,-8512.368333,-2068.457845
2763.464717,74.020594,-11103.089130,919.314598
2763.465044,666.185348,-12509.480420,1378.971896
2763.465372,2368.659014,-11325.150913,-1378.971896
2763.465699,2368.659014,-9622.677246,-1838.629195
2763.466027,1702.473667,-9474.636058,-689.485948
2763.466354,518.144159,-11177.109724,536.266849
2763.466682,-888.247130,-11177.109724,919.314598
2763.467009,-1406.391290,-9622.677246,-1455.581446
2763.467337,-814.226536,-7698.141797,-2451.505594
2763.467664,0.000000,-7920.203579,-1532.190996
2763.467992,0.000000,-9104.533087,536.266849
2763.468319,222.061783,-11029.068536,2068.457845
2763.468647,296.082377,-12065.356855,306.438199
2763.468974,370.102971,-9992.780217,-1838.629195
2763.469302,592.164754,-7328.038826,-1838.629195
2763.469629,370.102971,-7179.997637,0.000000
2763.469957,814.226536,-10510.924376,2451.505594
2763.470284,1036.288319,-11547.212695,2451.505594
2763.470612,1184.329507,-9770.718434,306.438199
2763.470939,1850.514855,-8364.327145,-766.095498
2763.471267,1406.391290,-8290.306550,-306.438199
2763.471594,814.226536,-9696.697840,536.266849
2763.471922,518.144159,-11399.171507,1225.752797
2763.472249,222.061783,-10288.862594,0.000000
2763.472577,1332.370696,-8586.388927,-842.705048
2763.472904,1258.350101,-7920.203579,-689.485948
2763.473232,740.205942,-9400.615463,1455.581446
2763.473559,0.000000,-11251.130318,2298.286494
2763.473887,-370.102971,-11029.068536,919.314598
2763.474214,-296.082377,-9104.533087,-1838.629195
2763.474542,-296.082377,-8142.265362,-3294.210641
2763.474869,-962.267725,-8882.471304,-1685.410096
2763.475197,-1184.329507,-10732.986159,76.609550
2763.475524,-296.082377,-12583.501014,0.000000
2763.475852,0.000000,-11843.295072,-1302.362347
2763.476179,222.061783,-9178.553681,-2145.067394
2763.476507,0.000000,-8364.327145,-612.876398
2763.476834,-222.061783,-9474.636058,1149.143247
2763.477162,-222.061783,-11769.274478,1762.019645
2763.477489,222.061783,-10658.965565,229.828649
2763.477817,370.102971,-8068.244768,-1532.190996
2763.478144,518.144159,-7254.018232,-1378.971896
2763.478472,296.082377,-8734.430116,0.000000
2763.478799,-592.164754,-10807.006753,766.095498
2763.479127,0.000000,-12583.501014,-306.438199
2763.479454,222.061783,-9548.656652,-1991.848295
2763.479782,1110.308913,-8290.306550,-2145.067394
2763.480109,888.247130,-9474.636058,-612.876398
2763.480437,0.000000,-10881.027347,1378.971896
2763.480764,74.020594,-10658.965565,1991.848295
2763.481092,1036.288319,-9548.656652,229.828649
2763.481420,740.205942,-7624.121203,-1762.019645
2763.481747,0.000000,-7105.977043,-689.485948
2763.482075,-1110.308913,-8364.327145,1685.410096
2763.482402,-1036.288319,-10732.986159,1608.800546
2763.482730,-1184.329507,-11251.130318,-612.876398
2763.483057,-592.164754,-9622.677246,-2451.505594
2763.483385,-296.082377,-7624.121203,-2451.505594
2763.483712,296.082377,-8364.327145,153.219100
2763.484040,592.164754,-11029.068536,1608.800546
2763.484367,1110.308913,-11843.295072,995.924147
2763.484695,1184.329507,-9992.780217,-459.657299
2763.485022,1924.535449,-8142.265362,-1378.971896
2763.485350,2072.576638,-8586.388927,-612.876398
2763.485677,1036.288319,-10584.944971,536.266849
2763.486005,296.082377,-12139.377449,1455.581446
2763.486332,1480.411884,-11177.109724,-383.047749
2763.486660,1406.391290,-9178.553681,-2451.505594
2763.486987,1036.288319,-8882.471304,-1302.362347
2763.487315,370.102971,-9992.780217,536.266849
2763.487642,370.102971,-11769.274478,1685.410096
2763.487970,518.144159,-11029.068536,612.876398
2763.488297,-888.247130,-8512.368333,-995.924147
2763.488625,-1258.350101,-6883.915261,-1149.143247
2763.488952,-1776.494261,-8512.368333,-612.876398
2763.489280,-1110.308913,-10732.986159,459.657299
2763.489607,74.020594,-11769.274478,229.828649
2763.489935,814.226536,-11103.089130,-995.924147
2763.490262,1628.453072,-9252.574275,-1762.019645
2763.490590,1332.370696,-8290.306550,0.000000
2763.490917,666.185348,-9770.718434,1838.629195
2763.491245,814.226536,-11325.150913,1455.581446
2763.491572,888.247130,-9770.718434,-229.828649
2763.491900,1332.370696,-7624.121203,-995.924147
2763.492227,1406.391290,-6883.915261,-229.828649
2763.492555,1258.350101,-8734.430116,2068.457845
2763.492882,296.082377,-9992.780217,1302.362347
2763.493210,-296.082377,-10584.944971,536.266849
2763.493537,-148.041188,-9474.636058,-2451.505594
2763.493865,148.041188,-8364.327145,-3064.381992
2763.494192,0.000000,-9252.574275,-842.705048
2763.494520,-296.082377,-11177.109724,1762.019645
2763.494847,222.061783,-11991.336260,1455.581446
2763.495175,0.000000,-10732.986159,-306.438199
2763.495502,74.020594,-8512.368333,-1838.629195
2763.495830,-592.164754,-7920.203579,-1455.581446
2763.496157,-1036.288319,-9992.780217,459.657299
2763.496485,-296.082377,-11621.233289,995.924147
2763.496812,592.164754,-11029.068536,-612.876398
2763.497140,518.144159,-9474.636058,-1685.410096
2763.497467,518.144159,-8660.409521,-1762.019645
2763.497795,592.164754,-9400.615463,-153.219100
2763.498122,0.000000,-11473.192101,1225.752797
2763.498450,0.000000,-12065.356855,383.047749
2763.498777,740.205942,-9992.780217,-1302.362347
2763.499105,1184.329507,-7994.224174,-1915.238745
2763.499432,962.267725,-7846.182985,-306.438199
2763.499760,444.123565,-9696.697840,1608.800546
2763.500087,0.000000,-11177.109724,1608.800546
2763.500415,0.000000,-9918.759623,-612.876398
2763.500742,444.123565,-8438.347739,-2374.896044
2763.501070,296.082377,-8660.409521,-1302.362347
2763.501397,-148.041188,-9770.718434,1302.362347
2763.501725,-296.082377,-9918.759623,1915.238745
2763.502052,296.082377,-10066.800811,-842.705048
2763.502380,666.185348,-8808.450710,-1532.190996
2763.502707,592.164754,-7476.080014,-1302.362347
2763.503035,0.000000,-7994.224174,306.438199
2763.503362,0.000000,-9548.656652,2298.286494
2763.503690,518.144159,-11177.109724,1149.143247
2763.504017,518.144159,-9918.759623,-995.924147
2763.504345,814.226536,-8216.285956,-2298.286494
2763.504672,222.061783,-7846.182985,0.000000
2763.505000,-666.185348,-10807.006753,1149.143247
2763.505327,0.000000,-11547.212695,536.266849
2763.505655,-148.041188,-10436.903782,-995.924147
2763.505982,1036.288319,-10140.821405,-2145.067394
2763.506310,1406.391290,-9770.718434,-766.095498
2763.506637,1628.453072,-9474.636058,689.485948
2763.506965,1110.308913,-10436.903782,1149.143247
2763.507292,518.144159,-10881.027347,536.266849
2763.507620,518.144159,-9696.697840,-1685.410096
2763.507947,222.061783,-8068.244768,-1838.629195
2763.508275,0.000000,-9104.533087,-536.266849
2763.508602,74.020594,-11473.192101,1225.752797
2763.508930,1110.308913,-12509.480420,-766.095498
2763.509257,740.205942,-10140.821405,-1225.752797
2763.509585,-296.082377,-8068.244768,-1685.410096
2763.509912,74.020594,-8586.388927,-995.924147
2763.510240,0.000000,-10584.944971,842.705048
2763.510567,296.082377,-11399.171507,1149.143247
2763.510895,0.000000,-9326.594869,0.000000
2763.511223,592.164754,-8068.244768,-1149.143247
2763.511550,222.061783,-8364.327145,-612.876398
2763.511878,-370.102971,-9326.594869,766.095498
2763.512205,-740.205942,-10140.821405,1225.752797
2763.512533,-370.102971,-10584.944971,-306.438199
2763.512860,0.000000,-9622.677246,-1991.848295
2763.513188,888.247130,-7846.182985,-1838.629195
2763.513515,1184.329507,-7994.224174,383.047749
2763.513843,1110.308913,-10362.883188,2374.896044
2763.514170,888.247130,-11547.212695,2145.067394
2763.514498,740.205942,-9326.594869,-306.438199
2763.514825,518.144159,-7179.997637,-1915.238745
2763.515153,148.041188,-8216.285956,-1378.971896
2763.515480,-592.164754,-10214.842000,1149.143247
2763.515808,-592.164754,-11769.274478,1225.752797
2763.516135,518.144159,-10658.965565,-1149.143247
2763.516463,444.123565,-8882.471304,-3064.381992
2763.516791,0.000000,-8586.388927,-2145.067394
2763.517118,-666.185348,-9770.718434,-306.438199
2763.517446,-666.185348,-11399.171507,1608.800546
2763.517773,0.000000,-11473.192101,689.485948
2763.518101,148.041188,-9770.718434,-1378.971896
2763.518429,222.061783,-7994.224174,-1378.971896
2763.518756,518.144159,-8364.327145,-383.047749
2763.519084,222.061783,-11103.089130,1302.362347
2763.519411,0.000000,-12509.480420,842.705048
2763.519739,-148.041188,-11029.068536,-1608.800546
2763.520067,148.041188,-8364.327145,-2681.334243
2763.520394,888.247130,-7846.182985,-1532.190996
2763.520722,148.041188,-10066.800811,1225.752797
2763.521049,962.267725,-11621.233289,2374.896044
2763.521377,1406.391290,-10362.883188,1072.533697
2763.521705,1628.453072,-8438.347739,-1072.533697
2763.522032,888.247130,-7846.182985,-1072.533697
2763.522360,0.000000,-8956.491898,612.876398
2763.522687,0.000000,-9104.533087,1991.848295
2763.523015,296.082377,-9992.780217,459.657299
2763.523343,370.102971,-9400.615463,-1838.629195
2763.523670,518.144159,-8068.244768,-1762.019645
2763.523998,296.082377,-8512.368333,-306.438199
2763.524325,740.205942,-10658.965565,1302.362347
2763.524653,1110.308913,-11991.336260,766.095498
2763.524981,666.185348,-10436.903782,-1302.362347
2763.525308,666.185348,-7846.182985,-1149.143247
2763.525636,888.247130,-7179.997637,-459.657299
2763.525963,222.061783,-9252.574275,1685.410096
2763.526291,-222.061783,-11177.109724,2374.896044
2763.526618,-518.144159,-10732.986159,306.438199
2763.526946,0.000000,-8586.388927,-2528.115143
2763.527274,666.185348,-7624.121203,-2528.115143
2763.527601,1258.350101,-9844.739029,-1225.752797
2763.527929,0.000000,-11547.212695,1149.143247
2763.528256,518.144159,-11325.150913,1072.533697
2763.528584,1332.370696,-9844.739029,-1149.143247
2763.528912,1110.308913,-9178.553681,-2298.286494
2763.529239,814.226536,-9844.739029,76.609550
2763.529567,0.000000,-10066.800811,1378.971896
2763.529894,888.247130,-10881.027347,1455.581446
2763.530222,0.000000,-10140.821405,-306.438199
2763.530550,-1258.350101,-8142.265362,-1455.581446
2763.530877,-2220.617826,-7846.182985,-612.876398
2763.531205,-1924.535449,-9030.512492,0.000000
2763.531532,-1406.391290,-11177.109724,0.000000
2763.531860,-1406.391290,-11621.233289,-1072.533697
2763.532188,-1776.494261,-9104.533087,-1455.581446
2763.532515,-888.247130,-7698.141797,-1608.800546
2763.532843,370.102971,-8660.409521,-229.828649
2763.533170,740.205942,-11325.150913,1149.143247
2763.533498,962.267725,-12139.377449,1378.971896
2763.533826,1480.411884,-10066.800811,612.876398
2763.534153,2294.638420,-7846.182985,-1378.971896
2763.534481,2516.700203,-8290.306550,0.000000
2763.534808,1110.308913,-9918.759623,2298.286494
2763.535136,740.205942,-10510.924376,2068.457845
2763.535464,962.267725,-9622.677246,0.000000
2763.535791,814.226536,-8660.409521,-2145.067394
2763.536119,592.164754,-7994.224174,-1225.752797
2763.536446,666.185348,-8882.471304,995.924147
2763.536774,518.144159,-9992.780217,1302.362347
2763.537102,518.144159,-10955.047942,995.924147
2763.537429,-222.061783,-9252.574275,-1532.190996
2763.537757,-222.061783,-7476.080014,-2681.334243
2763.538084,0.000000,-8734.430116,-1685.410096
2763.538412,444.123565,-11547.212695,459.657299
2763.538740,592.164754,-12213.398043,612.876398
2763.539067,740.205942,-10658.965565,-766.095498
2763.539395,740.205942,-9030.512492,-1838.629195
2763.539722,1110.308913,-9178.553681,-1149.143247
2763.540050,592.164754,-10214.842000,459.657299
2763.540377,740.205942,-11547.212695,1608.800546
2763.540705,1036.288319,-10510.924376,76.609550
2763.541033,1480.411884,-7994.224174,-1378.971896
2763.541360,1480.411884,-7105.977043,-919.314598
2763.541688,962.267725,-8882.471304,1455.581446
2763.542015,148.041188,-10955.047942,1991.848295
2763.542343,0.000000,-11029.068536,459.657299
2763.542671,444.123565,-10214.842000,-1685.410096
2763.542998,740.205942,-9178.553681,-2604.724693
2763.543326,444.123565,-9400.615463,76.609550
2763.543653,222.061783,-10955.047942,1378.971896
2763.543981,296.082377,-11103.089130,1991.848295
2763.544309,148.041188,-9696.697840,-842.705048
2763.544636,-222.061783,-7920.203579,-1838.629195
2763.544964,-518.144159,-8142.265362,-612.876398
2763.545291,-666.185348,-9770.718434,1225.752797
2763.545619,-222.061783,-10288.862594,1455.581446
2763.545947,-444.123565,-9918.759623,-689.485948
2763.546274,-370.102971,-9474.636058,-2068.457845
2763.546602,-666.185348,-8068.244768,-1302.362347
2763.546929,222.061783,-9030.512492,229.828649
2763.547257,814.226536,-11325.150913,1685.410096
2763.547585,814.226536,-11695.253884,1072.533697
2763.547912,1184.329507,-9252.574275,-459.657299
2763.548240,1332.370696,-7328.038826,-995.924147
2763.548567,0.000000,-8290.306550,153.219100
2763.548895,0.000000,-10362.883188,1762.019645
2763.549223,-1702.473667,-10658.965565,1149.143247
2763.549550,-1776.494261,-9844.739029,-1149.143247
2763.549878,-1184.329507,-8808.450710,-2987.772442
2763.550205,0.000000,-9400.615463,-1225.752797
2763.550533,-814.226536,-10066.800811,995.924147
2763.550861,-148.041188,-11399.171507,1455.581446
2763.551188,0.000000,-11251.130318,76.609550
2763.551516,74.020594,-8438.347739,-1608.800546
2763.551843,0.000000,-7105.977043,-1608.800546
2763.552171,-962.267725,-8586.388927,536.266849
2763.552499,-518.144159,-10881.027347,1915.238745
2763.552826,1110.308913,-11843.295072,-689.485948
2763.553154,370.102971,-10510.924376,-1685.410096
2763.553481,666.185348,-9178.553681,-2681.334243
2763.553809,814.226536,-9104.533087,-995.924147
2763.554136,148.041188,-10436.903782,612.876398
2763.554464,444.123565,-12065.356855,842.705048
2763.554792,1628.453072,-10288.862594,-1532.190996
2763.555119,2072.576638,-8216.285956,-3064.381992
2763.555447,1480.411884,-6883.915261,-383.047749
2763.555774,1036.288319,-9400.615463,1838.629195
2763.556102,518.144159,-10955.047942,2757.943793
2763.556430,444.123565,-10658.965565,842.705048
2763.556757,666.185348,-9474.636058,-2298.286494
2763.557085,888.247130,-8364.327145,-2911.162892
2763.557412,888.247130,-9252.574275,-689.485948
2763.557740,518.144159,-11251.130318,1378.971896
2763.558068,666.185348,-11695.253884,1532.190996
2763.558395,962.267725,-9918.759623,-459.657299
2763.558723,888.247130,-8068.244768,-1838.629195
2763.559050,370.102971,-7624.121203,-766.095498
2763.559378,518.144159,-9104.533087,1225.752797
2763.559706,740.205942,-10732.986159,1455.581446
2763.560033,0.000000,-10510.924376,459.657299
2763.560361,222.061783,-8734.430116,-1608.800546
2763.560688,740.205942,-8142.265362,-1455.581446
2763.561016,0.000000,-9474.636058,306.438199
2763.561344,-222.061783,-12213.398043,1378.971896
2763.561671,518.144159,-12287.418637,153.219100
2763.561999,888.247130,-10288.862594,-1838.629195
2763.562326,962.267725,-8364.327145,-1225.752797
2763.562654,888.247130,-8734.430116,689.485948
2763.562982,0.000000,-10066.800811,2451.505594
2763.563309,-592.164754,-10732.986159,1685.410096
2763.563637,-592.164754,-8586.388927,-995.924147
2763.563964,0.000000,-7476.080014,-2374.896044
2763.564292,370.102971,-8882.471304,-1991.848295
2763.564620,-666.185348,-9178.553681,2145.067394
2763.564947,-888.247130,-11103.089130,2068.457845
2763.565275,-370.102971,-11029.068536,-383.047749
2763.565602,-444.123565,-8882.471304,-2451.505594
2763.565930,-962.267725,-7624.121203,-1838.629195
2763.566257,0.000000,-9326.594869,842.705048
2763.566585,814.226536,-11325.150913,2068.457845
2763.566913,888.247130,-10807.006753,1072.533697
2763.567240,0.000000,-9474.636058,-612.876398
2763.567568,-370.102971,-7846.182985,-1838.629195
2763.567895,-296.082377,-8586.388927,-1302.362347
2763.568223,-296.082377,-10732.986159,229.828649
2763.568551,296.082377,-11843.295072,-459.657299
2763.568878,740.205942,-9992.780217,-1302.362347
2763.569206,1406.391290,-8512.368333,-1225.752797
2763.569533,444.123565,-8808.450710,-383.047749
2763.569861,814.226536,-10214.842000,1762.019645
2763.570189,444.123565,-10955.047942,1532.190996
2763.570516,296.082377,-10140.821405,-459.657299
2763.570844,740.205942,-9030.512492,-1991.848295
2763.571171,444.123565,-8808.450710,-1225.752797
2763.571499,222.061783,-9770.718434,536.266849
2763.571827,-222.061783,-11473.192101,1072.533697
2763.572154,-296.082377,-11621.233289,0.000000
2763.572482,0.000000,-9696.697840,-2604.724693
2763.572809,370.102971,-8364.327145,-2987.772442
2763.573137,888.247130,-8364.327145,-689.485948
2763.573465,1110.308913,-9992.780217,1455.581446
2763.573792,2442.679609,-11177.109724,2374.896044
2763.574120,1850.514855,-10214.842000,383.047749
2763.574447,814.226536,-8512.368333,-842.705048
2763.574775,518.144159,-7698.141797,-919.314598
2763.575103,0.000000,-9696.697840,383.047749
2763.575430,-666.185348,-10732.986159,1991.848295
2763.575758,-814.226536,-9770.718434,0.000000
2763.576085,-1258.350101,-8586.388927,-1915.238745
2763.576413,-888.247130,-8216.285956,-2221.676944
2763.576741,222.061783,-8808.450710,-1378.971896
2763.577068,888.247130,-10362.883188,229.828649
2763.577396,1332.370696,-11769.274478,1302.362347
2763.577723,2072.576638,-10436.903782,229.828649
2763.578051,2960.823768,-8364.327145,-766.095498
2763.578379,2146.597232,-9252.574275,-536.266849
2763.578706,740.205942,-10510.924376,1762.019645
2763.579034,962.267725,-10658.965565,995.924147
2763.579361,148.041188,-10066.800811,-1302.362347
2763.579689,-222.061783,-8734.430116,-2451.505594
2763.580016,-296.082377,-8142.265362,-2221.676944
2763.580344,222.061783,-10066.800811,689.485948
2763.580672,444.123565,-11991.336260,1378.971896
2763.580999,222.061783,-11103.089130,459.657299
2763.581327,-370.102971,-9252.574275,-1072.533697
2763.581654,-962.267725,-7402.059420,-1378.971896
2763.581982,-444.123565,-8142.265362,-689.485948
2763.582310,0.000000,-10362.883188,1149.143247
2763.582637,0.000000,-11843.295072,1378.971896
2763.582965,0.000000,-9918.759623,-536.266849
2763.583292,0.000000,-8586.388927,-1608.800546
2763.583620,296.082377,-8956.491898,-1378.971896
2763.583948,296.082377,-10066.800811,459.657299
2763.584275,74.020594,-11843.295072,1378.971896
2763.584603,370.102971,-10288.862594,995.924147
2763.584930,1628.453072,-7846.182985,-1455.581446
2763.585258,1258.350101,-7328.038826,0.000000
2763.585586,148.041188,-8660.409521,2145.067394
2763.585913,0.000000,-10362.883188,2987.772442
2763.586241,0.000000,-10066.800811,766.095498
2763.586568,-444.123565,-8808.450710,-2374.896044
2763.586896,0.000000,-8142.265362,-2757.943793
2763.587224,-296.082377,-9030.512492,-995.924147
2763.587551,-444.123565,-10584.944971,1455.581446
2763.587879,740.205942,-11769.274478,383.047749
2763.588206,296.082377,-11177.109724,-1532.190996
2763.588534,666.185348,-9326.594869,-2068.457845
2763.588862,888.247130,-8216.285956,-1149.143247
2763.589189,666.185348,-9474.636058,1378.971896
2763.589517,666.185348,-11695.253884,2681.334243
2763.589844,518.144159,-10658.965565,-76.609550
2763.590172,444.123565,-8512.368333,-1915.238745
2763.590500,888.247130,-7772.162391,-1762.019645
2763.590827,666.185348,-9030.512492,-153.219100
2763.591155,444.123565,-11399.171507,995.924147
2763.591482,74.020594,-10955.047942,0.000000
2763.591810,666.185348,-9400.615463,-1762.019645
2763.592138,1480.411884,-9030.512492,-2221.676944
2763.592465,1258.350101,-9252.574275,76.609550
2763.592793,0.000000,-10066.800811,2068.457845
2763.593120,-222.061783,-10955.047942,842.705048
2763.593448,-592.164754,-10881.027347,-995.924147
2763.593775,-222.061783,-8586.388927,-1762.019645
2763.594103,296.082377,-7772.162391,-1302.362347
2763.594431,-444.123565,-9104.533087,1532.190996
2763.594758,0.000000,-11177.109724,1302.362347
2763.595086,-370.102971,-11177.109724,-459.657299
2763.595413,-962.267725,-8660.409521,-1762.019645
2763.595741,-1036.288319,-7105.977043,-1149.143247
2763.596069,-592.164754,-8290.306550,153.219100
2763.596396,296.082377,-11251.130318,2451.505594
2763.596724,888.247130,-11621.233289,2145.067394
2763.597051,1554.432478,-9622.677246,153.219100
2763.597379,1628.453072,-8216.285956,-1225.752797
2763.597707,1110.308913,-8660.409521,-689.485948
2763.598034,74.020594,-10066.800811,689.485948
2763.598362,-222.061783,-11325.150913,766.095498
2763.598689,-370.102971,-10214.842000,-383.047749
2763.599017,888.247130,-8364.327145,-2604.724693
2763.599345,666.185348,-8438.347739,-1149.143247
2763.599672,74.020594,-9844.739029,1838.629195
2763.600000,0.000000,-11177.109724,2298.286494
2763.600327,0.000000,-10510.924376,-153.219100
2763.600655,0.000000,-8660.409521,-2834.553343
2763.600983,-740.205942,-7105.977043,-2451.505594
2763.601310,-814.226536,-8290.306550,0.000000
2763.601638,0.000000,-11029.068536,1915.238745
2763.601965,814.226536,-12435.459826,153.219100
2763.602293,888.247130,-10955.047942,-1915.238745
2763.602621,444.123565,-9178.553681,-2145.067394
2763.602948,666.185348,-9326.594869,-1072.533697
2763.603276,222.061783,-10436.903782,383.047749
2763.603603,1258.350101,-11917.315666,306.438199
2763.603931,1036.288319,-10066.800811,-612.876398
2763.604259,1480.411884,-8290.306550,-1302.362347
2763.604586,1110.308913,-7179.997637,-229.828649
2763.604914,888.247130,-8956.491898,1302.362347
2763.605241,0.000000,-10955.047942,2298.286494
2763.605569,-518.144159,-10584.944971,153.219100
2763.605896,0.000000,-8808.450710,-2145.067394
2763.606224,740.205942,-8290.306550,-2451.505594
2763.606552,666.185348,-9696.697840,0.000000
2763.606879,592.164754,-11473.192101,2145.067394
2763.607207,592.164754,-11917.315666,1455.581446
2763.607534,0.000000,-9326.594869,-383.047749
2763.607862,74.020594,-7550.100608,-1838.629195
2763.608190,-888.247130,-7328.038826,-995.924147
2763.608517,-740.205942,-9178.553681,1378.971896
2763.608845,-148.041188,-10584.944971,1378.971896
2763.609172,0.000000,-9844.739029,0.000000
2763.609500,0.000000,-8364.327145,-1762.019645
2763.609828,518.144159,-8364.327145,-995.924147
2763.610155,148.041188,-9622.677246,0.000000
2763.610483,814.226536,-11843.295072,1072.533697
2763.610810,1110.308913,-11547.212695,0.000000
2763.611138,1332.370696,-9844.739029,-1608.800546
2763.611466,1406.391290,-8068.244768,-1685.410096
2763.611793,1110.308913,-8660.409521,-229.828649
2763.612121,666.185348,-10955.047942,2068.457845
2763.612448,444.123565,-11325.150913,919.314598
2763.612776,740.205942,-9992.780217,-1532.190996
2763.613104,518.144159,-8364.327145,-2528.115143
2763.613431,222.061783,-8660.409521,-1455.581446
2763.613759,0.000000,-10436.903782,1149.143247
2763.614086,-370.102971,-11473.192101,2068.457845
2763.614414,-222.061783,-10140.821405,153.219100
2763.614741,296.082377,-9178.553681,-1915.238745
2763.615069,296.082377,-8882.471304,-1991.848295
2763.615396,666.185348,-9104.533087,536.266849
2763.615724,-222.061783,-10955.047942,2068.457845
2763.616051,-296.082377,-11325.150913,536.266849
2763.616379,-296.082377,-9622.677246,-1608.800546
2763.616707,-592.164754,-8364.327145,-1762.019645
2763.617034,-444.123565,-8734.430116,-766.095498
2763.617362,-518.144159,-10658.965565,1915.238745
2763.617689,814.226536,-10881.027347,1532.190996
2763.618017,888.247130,-9474.636058,-383.047749
2763.618344,666.185348,-8512.368333,-612.876398
2763.618672,1110.308913,-8142.265362,0.000000
2763.618999,1036.288319,-8808.450710,1149.143247
2763.619327,444.123565,-9622.677246,1915.238745
2763.619654,-740.205942,-9696.697840,919.314598
2763.619982,-518.144159,-9104.533087,-689.485948
2763.620309,-1258.350101,-9030.512492,-1685.410096
2763.620637,-1258.350101,-9474.636058,-1149.143247
2763.620965,-1036.288319,-10807.006753,-459.657299
2763.621292,-666.185348,-11769.274478,-612.876398
2763.621620,296.082377,-9992.780217,-1685.410096
2763.621947,1332.370696,-8290.306550,-2374.896044
2763.622275,1480.411884,-8956.491898,-306.438199
2763.622602,1406.391290,-10658.965565,2145.067394
2763.622930,2072.576638,-10955.047942,995.924147
2763.623257,1480.411884,-9696.697840,-919.314598
2763.623585,518.144159,-8734.430116,-1915.238745
2763.623912,518.144159,-9030.512492,-2221.676944
2763.624240,814.226536,-9992.780217,459.657299
2763.624567,1110.308913,-11547.212695,1225.752797
2763.624895,740.205942,-11621.233289,0.000000
2763.625223,740.205942,-9992.780217,-1762.019645
2763.625550,296.082377,-7994.224174,-2298.286494
2763.625878,518.144159,-8660.409521,-689.485948
2763.626205,814.226536,-10881.027347,1532.190996
2763.626533,1036.288319,-11843.295072,1608.800546
2763.626860,1110.308913,-9474.636058,0.000000
2763.627188,518.144159,-7920.203579,-1378.971896
2763.627515,0.000000,-9104.533087,-766.095498
2763.627843,148.041188,-11325.150913,689.485948
2763.628170,222.061783,-11473.192101,766.095498
2763.628498,-148.041188,-9918.759623,-766.095498
2763.628826,518.144159,-8882.471304,-1838.629195
2763.629153,666.185348,-8142.265362,-612.876398
2763.629481,296.082377,-8956.491898,1915.238745
2763.629808,592.164754,-10362.883188,2681.334243
2763.630136,222.061783,-10140.821405,995.924147
2763.630463,0.000000,-8882.471304,-1532.190996
2763.630791,0.000000,-7328.038826,-766.095498
2763.631118,-592.164754,-7920.203579,-306.438199
2763.631446,-592.164754,-10732.986159,1915.238745
2763.631773,74.020594,-12361.439231,383.047749
2763.632101,222.061783,-11029.068536,-1762.019645
2763.632428,518.144159,-9104.533087,-2451.505594
2763.632756,1480.411884,-9400.615463,-842.705048
2763.633084,1036.288319,-10807.006753,1685.410096
2763.633411,444.123565,-11547.212695,1991.848295
2763.633739,1110.308913,-9548.656652,0.000000
2763.634066,1554.432478,-8586.388927,-1915.238745
2763.634394,148.041188,-7846.182985,-536.266849
2763.634721,74.020594,-9178.553681,842.705048
2763.635049,0.000000,-10955.047942,1685.410096
2763.635376,0.000000,-10510.924376,153.219100
2763.635704,0.000000,-9400.615463,-1685.410096
2763.636031,148.041188,-9178.553681,-2374.896044
2763.636359,296.082377,-9548.656652,-306.438199
2763.636686,296.082377,-10732.986159,1225.752797
2763.637014,74.020594,-11325.150913,995.924147
2763.637342,-962.267725,-10362.883188,-612.876398
2763.637669,-1480.411884,-8586.388927,-1762.019645
2763.637997,-1184.329507,-7772.162391,-995.924147
2763.638324,-444.123565,-9918.759623,536.266849
2763.638652,0.000000,-11473.192101,612.876398
2763.638979,-444.123565,-10214.842000,-306.438199
2763.639307,-666.185348,-8660.409521,-1225.752797
2763.639634,518.144159,-7698.141797,-1608.800546
2763.639962,148.041188,-8216.285956,0.000000
2763.640289,0.000000,-10807.006753,2068.457845
2763.640617,222.061783,-10658.965565,689.485948
2763.640945,1258.350101,-9326.594869,-1149.143247
2763.641272,1628.453072,-8882.471304,-1455.581446
2763.641600,1036.288319,-9918.759623,612.876398
2763.641927,222.061783,-10881.027347,1915.238745
2763.642255,296.082377,-10881.027347,-229.828649
2763.642582,-592.164754,-9696.697840,-2451.505594
2763.642910,-1110.308913,-7846.182985,-3294.210641
2763.643237,-518.144159,-7624.121203,-1685.410096
2763.643565,222.061783,-9918.759623,1072.533697
2763.643892,370.102971,-11769.274478,2145.067394
2763.644220,444.123565,-11325.150913,153.219100
2763.644547,814.226536,-9844.739029,-1762.019645
2763.644875,814.226536,-8734.430116,-3294.210641
2763.645203,888.247130,-8734.430116,-612.876398
2763.645530,1258.350101,-10807.006753,1685.410096
2763.645858,1406.391290,-11473.192101,1225.752797
2763.646185,2072.576638,-9918.759623,-842.705048
2763.646513,1850.514855,-8438.347739,-1608.800546
2763.646840,666.185348,-8438.347739,-383.047749
2763.647168,888.247130,-11251.130318,153.219100
2763.647495,888.247130,-11769.274478,0.000000
2763.647823,740.205942,-9770.718434,-1149.143247
2763.648150,1184.329507,-8290.306550,-1685.410096
2763.648478,1110.308913,-8068.244768,0.000000
2763.648805,444.123565,-9622.677246,2451.505594
2763.649133,0.000000,-10658.965565,2757.943793
2763.649461,-666.185348,-9400.615463,229.828649
2763.649788,-370.102971,-8364.327145,-1838.629195
2763.650116,-296.082377,-7846.182985,-1302.362347
2763.650443,148.041188,-9252.574275,0.000000
2763.650771,296.082377,-11103.089130,1838.629195
2763.651098,74.020594,-11769.274478,383.047749
2763.651426,-222.061783,-10140.821405,-1378.971896
2763.651753,-148.041188,-9030.512492,-1608.800546
2763.652081,0.000000,-7254.018232,-459.657299
2763.652408,-148.041188,-9400.615463,2068.457845
2763.652736,222.061783,-10807.006753,2068.457845
2763.653064,222.061783,-10214.842000,-229.828649
2763.653391,148.041188,-8660.409521,-1455.581446
2763.653719,0.000000,-7994.224174,-1225.752797
2763.654046,-222.061783,-9178.553681,-459.657299
2763.654374,518.144159,-11769.274478,612.876398
2763.654701,222.061783,-11325.150913,-229.828649
2763.655029,1184.329507,-10066.800811,-1685.410096
2763.655356,1332.370696,-9474.636058,-1302.362347
2763.655684,740.205942,-10362.883188,306.438199
2763.656011,148.041188,-10807.006753,1378.971896
2763.656339,0.000000,-10584.944971,459.657299
2763.656666,-1110.308913,-9252.574275,-1991.848295
2763.656994,-592.164754,-8068.244768,-2451.505594
2763.657322,-666.185348,-8364.327145,-919.314598
2763.657649,-1110.308913,-9992.780217,1608.800546
2763.657977,-740.205942,-11251.130318,919.314598
2763.658304,-592.164754,-10732.986159,-1455.581446
2763.658632,-740.205942,-9474.636058,-2757.943793
2763.658959,-222.061783,-7772.162391,-1072.533697
2763.659287,444.123565,-9474.636058,842.705048
2763.659614,740.205942,-11325.150913,2298.286494
2763.659942,518.144159,-11547.212695,1072.533697
2763.660269,296.082377,-9326.594869,-1072.533697
2763.660597,0.000000,-7254.018232,-1608.800546
2763.660924,-148.041188,-7772.162391,-383.047749
2763.661252,-296.082377,-9622.677246,1685.410096
2763.661580,0.000000,-10214.842000,1225.752797
2763.661907,740.205942,-8882.471304,-919.314598
2763.662235,740.205942,-8956.491898,-1378.971896
2763.662562,592.164754,-9474.636058,0.000000
2763.662890,518.144159,-9474.636058,1685.410096
2763.663217,0.000000,-10066.800811,1455.581446
2763.663545,296.082377,-9918.759623,-536.266849
2763.663872,518.144159,-8808.450710,-995.924147
2763.664200,296.082377,-8364.327145,-612.876398
2763.664527,-518.144159,-8808.450710,383.047749
2763.664855,-592.164754,-10807.006753,229.828649
2763.665182,0.000000,-11399.171507,-1225.752797
2763.665510,518.144159,-10807.006753,-3217.601092
2763.665838,518.144159,-9474.636058,-2221.676944
2763.666165,2294.638420,-9400.615463,0.000000
2763.666493,3034.844362,-11473.192101,1991.848295
2763.666820,3404.947333,-12509.480420,2068.457845
2763.667148,2590.720797,-10658.965565,153.219100
2763.667475,2886.803174,-8660.409521,-1532.190996
2763.667803,1850.514855,-7698.141797,-766.095498
2763.668130,888.247130,-9178.553681,0.000000
2763.668458,-148.041188,-9770.718434,1762.019645
2763.668785,148.041188,-9696.697840,459.657299
2763.669113,296.082377,-9474.636058,-1225.752797
2763.669441,74.020594,-9400.615463,-1608.800546
2763.669768,-148.041188,-9548.656652,-383.047749
2763.670096,0.000000,-10584.944971,919.314598
2763.670423,0.000000,-10436.903782,306.438199
2763.670751,-444.123565,-8216.285956,-153.219100
2763.671078,-370.102971,-7105.977043,-306.438199
2763.671406,148.041188,-8364.327145,612.876398
2763.671733,148.041188,-10436.903782,1378.971896
2763.672061,0.000000,-11029.068536,612.876398
2763.672388,-518.144159,-9918.759623,-1838.629195
2763.672716,-518.144159,-8808.450710,-1685.410096
2763.673043,-370.102971,-8364.327145,-1225.752797
2763.673371,-666.185348,-9252.574275,919.314598
2763.673699,0.000000,-10732.986159,1685.410096
2763.674026,592.164754,-10584.944971,76.609550
2763.674354,1258.350101,-9844.739029,-919.314598
2763.674681,1036.288319,-8586.388927,306.438199
2763.675009,296.082377,-8364.327145,536.266849
2763.675336,0.000000,-9622.677246,1149.143247
2763.675664,-814.226536,-10658.965565,0.000000
2763.675991,-962.267725,-9696.697840,-2221.676944
2763.676319,-296.082377,-9178.553681,-2757.943793
2763.676646,444.123565,-10214.842000,-1532.190996
2763.676974,148.041188,-12139.377449,689.485948
2763.677301,666.185348,-12509.480420,766.095498
2763.677629,74.020594,-10066.800811,-1302.362347
2763.677957,740.205942,-9252.574275,-1991.848295
2763.678284,0.000000,-7920.203579,-1225.752797
2763.678612,0.000000,-8882.471304,459.657299
2763.678939,370.102971,-10362.883188,2068.457845
2763.679267,518.144159,-10362.883188,306.438199
2763.679594,962.267725,-9844.739029,-536.266849
2763.679922,1036.288319,-8068.244768,-766.095498
2763.680249,814.226536,-8438.347739,76.609550
2763.680577,1110.308913,-11029.068536,1149.143247
2763.680904,888.247130,-11621.233289,229.828649
2763.681232,296.082377,-10066.800811,-306.438199
2763.681560,222.061783,-8364.327145,-1378.971896
2763.681887,296.082377,-7920.203579,306.438199
2763.682215,592.164754,-9474.636058,2221.676944
2763.682542,1184.329507,-10436.903782,1991.848295
2763.682870,296.082377,-9252.574275,76.609550
2763.683197,0.000000,-8216.285956,-1455.581446
2763.683525,-222.061783,-7550.100608,-1225.752797
2763.683852,-888.247130,-8808.450710,919.314598
2763.684180,-740.205942,-10881.027347,1762.019645
2763.684507,518.144159,-11177.109724,-612.876398
2763.684835,1406.391290,-10214.842000,-1762.019645
2763.685162,1480.411884,-9326.594869,-1455.581446
2763.685490,1184.329507,-9622.677246,536.266849
2763.685818,814.226536,-10881.027347,1838.629195
2763.686145,888.247130,-11843.295072,-689.485948
2763.686473,-222.061783,-10140.821405,-1762.019645
2763.686800,74.020594,-8364.327145,-2145.067394
2763.687128,0.000000,-7476.080014,-1072.533697
2763.687455,74.020594,-9992.780217,1072.533697
2763.687783,-222.061783,-11917.315666,1072.533697
2763.688110,-592.164754,-11547.212695,-459.657299
2763.688438,74.020594,-9770.718434,-2604.724693
2763.688765,888.247130,-9326.594869,-3140.991542
2763.689093,962.267725,-9474.636058,-306.438199
2763.689420,740.205942,-10436.903782,1762.019645
2763.689748,1110.308913,-10584.944971,1302.362347
2763.690076,1036.288319,-9548.656652,-229.828649
2763.690403,888.247130,-8216.285956,-1072.533697
2763.690731,-444.123565,-8216.285956,-306.438199
2763.691058,-1036.288319,-10066.800811,1072.533697
2763.691386,-1406.391290,-11621.233289,459.657299
2763.691713,-666.185348,-9326.594869,-2068.457845
2763.692041,222.061783,-7698.141797,-1762.019645
2763.692368,518.144159,-8586.388927,-612.876398
2763.692696,0.000000,-10214.842000,2374.896044
2763.693023,370.102971,-10436.903782,2298.286494
2763.693351,0.000000,-9104.533087,-229.828649
2763.693679,-740.205942,-9474.636058,-612.876398
2763.694006,-740.205942,-7402.059420,-459.657299
2763.694334,-370.102971,-7476.080014,689.485948
2763.694661,222.061783,-10510.924376,1072.533697
2763.694989,1036.288319,-11843.295072,-306.438199
2763.695316,518.144159,-10362.883188,-1378.971896
2763.695644,518.144159,-9178.553681,-1685.410096
2763.695971,518.144159,-8882.471304,-766.095498
2763.696299,148.041188,-10140.821405,1072.533697
2763.696626,592.164754,-10807.006753,1302.362347
2763.696954,962.267725,-9770.718434,0.000000
2763.697281,1184.329507,-8216.285956,-766.095498
2763.697609,962.267725,-9030.512492,153.219100
2763.697937,0.000000,-10214.842000,995.924147
2763.698264,-148.041188,-11029.068536,612.876398
2763.698592,0.000000,-9992.780217,-1378.971896
2763.698919,0.000000,-9252.574275,-2221.676944
2763.699247,518.144159,-9252.574275,-2145.067394
2763.699574,1036.288319,-9992.780217,-459.657299
2763.699902,1258.350101,-11473.192101,995.924147
2763.700229,666.185348,-11695.253884,76.609550
2763.700557,814.226536,-10658.965565,-1302.362347
2763.700884,370.102971,-8660.409521,-1149.143247
2763.701212,740.205942,-7920.203579,-229.828649
2763.701539,592.164754,-9400.615463,1378.971896
2763.701867,444.123565,-11177.109724,1685.410096
2763.702195,1110.308913,-10807.006753,306.438199
2763.702522,666.185348,-9030.512492,-1455.581446
2763.702850,-370.102971,-7994.224174,-689.485948
2763.703177,-518.144159,-9400.615463,153.219100
2763.703505,0.000000,-10881.027347,919.314598
2763.703832,370.102971,-10214.842000,0.000000
2763.704160,370.102971,-9030.512492,-459.657299
2763.704487,1554.432478,-7994.224174,76.609550
2763.704815,1332.370696,-9030.512492,842.705048
2763.705142,0.000000,-10288.862594,2451.505594
2763.705470,-222.061783,-9844.739029,689.485948
2763.705797,-814.226536,-8438.347739,-1302.362347
2763.706125,-518.144159,-8216.285956,-2068.457845
2763.706453,-518.144159,-8438.347739,-919.314598
2763.706780,-740.205942,-10140.821405,1225.752797
2763.707108,444.123565,-11769.274478,1378.971896
2763.707435,0.000000,-11103.089130,-689.485948
2763.707763,148.041188,-10140.821405,-2221.676944
2763.708090,0.000000,-8438.347739,-1762.019645
2763.708418,0.000000,-8364.327145,0.000000
2763.708745,518.144159,-10732.986159,1072.533697
2763.709073,518.144159,-10807.006753,76.609550
2763.709400,1258.350101,-10214.842000,-536.266849
2763.709728,666.185348,-8364.327145,-1225.752797
2763.710056,740.205942,-9104.533087,-919.314598
2763.710383,296.082377,-11251.130318,229.828649
2763.710711,370.102971,-11695.253884,-229.828649
2763.711038,592.164754,-9474.636058,-1225.752797
2763.711366,1406.391290,-9326.594869,-1608.800546
2763.711693,1406.391290,-9696.697840,76.609550
2763.712021,666.185348,-10584.944971,1838.629195
2763.712348,0.000000,-10214.842000,1762.019645
2763.712676,-1332.370696,-9030.512492,0.000000
2763.713003,-2220.617826,-7920.203579,-1762.019645
2763.713331,-2368.659014,-7698.141797,-1915.238745
2763.713658,-2072.576638,-9252.574275,0.000000
2763.713986,-444.123565,-11103.089130,766.095498
2763.714314,370.102971,-11695.253884,-612.876398
2763.714641,444.123565,-10658.965565,-612.876398
2763.714969,1258.350101,-8808.450710,-229.828649
2763.715296,1332.370696,-7994.224174,306.438199
2763.715624,1036.288319,-9770.718434,1685.410096
2763.715951,1258.350101,-10807.006753,1378.971896
2763.716279,1036.288319,-9400.615463,0.000000
2763.716606,1480.411884,-8142.265362,-383.047749
2763.716934,296.082377,-7328.038826,306.438199
2763.717261,0.000000,-8734.430116,1378.971896
2763.717589,444.123565,-10214.842000,536.266849
2763.717916,666.185348,-9918.759623,-1149.143247
2763.718244,962.267725,-9770.718434,-1378.971896
2763.718571,1406.391290,-9326.594869,-919.314598
2763.718899,666.185348,-9696.697840,919.314598
2763.719226,740.205942,-10881.027347,2374.896044
2763.719554,296.082377,-10214.842000,689.485948
2763.719881,0.000000,-9252.574275,-919.314598
2763.720209,222.061783,-8290.306550,-1762.019645
2763.720536,444.123565,-9474.636058,-1455.581446
2763.720864,888.247130,-11621.233289,229.828649
2763.721191,888.247130,-11769.274478,383.047749
2763.721519,814.226536,-10584.944971,-1225.752797
2763.721846,370.102971,-9474.636058,-1838.629195
2763.722174,222.061783,-7846.182985,-1455.581446
2763.722501,0.000000,-8660.409521,0.000000
2763.722829,518.144159,-10807.006753,1302.362347
2763.723156,1184.329507,-10584.944971,459.657299
2763.723484,1258.350101,-8808.450710,-919.314598
2763.723811,1776.494261,-8734.430116,-459.657299
2763.724139,814.226536,-9104.533087,306.438199
2763.724466,518.144159,-10288.862594,766.095498
2763.724793,74.020594,-10510.924376,-306.438199
2763.725121,-740.205942,-9474.636058,-1225.752797
2763.725448,444.123565,-9252.574275,-1149.143247
2763.725776,222.061783,-9622.677246,-383.047749
2763.726103,-148.041188,-10955.047942,1915.238745
2763.726431,-222.061783,-10658.965565,1225.752797
2763.726758,-444.123565,-8438.347739,-766.095498
2763.727086,-1036.288319,-7254.018232,-1302.362347
2763.727413,-592.164754,-7179.997637,-536.266849
2763.727741,-518.144159,-8586.388927,1302.362347
2763.728068,0.000000,-10066.800811,1762.019645
2763.728396,74.020594,-11251.130318,0.000000
2763.728723,444.123565,-10214.842000,-1532.190996
2763.729051,518.144159,-8956.491898,-1915.238745
2763.729378,370.102971,-9178.553681,-689.485948
2763.729706,222.061783,-11177.109724,1149.143247
2763.730033,296.082377,-11843.295072,-612.876398
2763.730361,0.000000,-10214.842000,-1149.143247
2763.730688,-370.102971,-9178.553681,-1149.143247
2763.731016,0.000000,-9104.533087,-153.219100
2763.731343,444.123565,-9992.780217,1225.752797
2763.731670,0.000000,-10510.924376,919.314598
2763.731998,-666.185348,-9770.718434,0.000000
2763.732325,0.000000,-9326.594869,-919.314598
2763.732653,-370.102971,-8956.491898,-1149.143247
2763.732980,-518.144159,-10066.800811,459.657299
2763.733308,0.000000,-11325.150913,1149.143247
2763.733635,444.123565,-10214.842000,-459.657299
2763.733963,592.164754,-9474.636058,-1149.143247
2763.734290,814.226536,-8364.327145,-995.924147
2763.734618,666.185348,-9696.697840,0.000000
2763.734945,888.247130,-10658.965565,612.876398
2763.735273,962.267725,-10807.006753,-153.219100
2763.735600,222.061783,-9474.636058,-1532.190996
2763.735928,222.061783,-7846.182985,-1532.190996
2763.736255,740.205942,-7994.224174,-459.657299
2763.736583,814.226536,-10214.842000,1149.143247
2763.736910,1036.288319,-11991.336260,689.485948
2763.737238,518.144159,-9992.780217,-153.219100
2763.737565,1702.473667,-10214.842000,-1532.190996
2763.737892,1924.535449,-9252.574275,-919.314598
2763.738220,1554.432478,-8512.368333,842.705048
2763.738547,814.226536,-9696.697840,2068.457845
2763.738875,666.185348,-9770.718434,842.705048
2763.739202,444.123565,-9474.636058,-1378.971896
2763.739530,0.000000,-8882.471304,-1378.971896
2763.739857,-518.144159,-8734.430116,-536.266849
2763.740185,0.000000,-10658.965565,995.924147
2763.740512,222.061783,-11547.212695,306.438199
2763.740840,0.000000,-9844.739029,-766.095498
2763.741167,148.041188,-8364.327145,-1302.362347
2763.741495,444.123565,-8142.265362,-1225.752797
2763.741822,74.020594,-10066.800811,383.047749
2763.742150,666.185348,-11843.295072,842.705048
2763.742477,592.164754,-10732.986159,-383.047749
2763.742805,0.000000,-9696.697840,-1302.362347
2763.743132,370.102971,-8808.450710,-1225.752797
2763.743460,518.144159,-9030.512492,-153.219100
2763.743787,444.123565,-10955.047942,919.314598
2763.744115,370.102971,-11473.192101,76.609550
2763.744442,0.000000,-10140.821405,-1378.971896
2763.744769,296.082377,-8882.471304,-689.485948
2763.745097,444.123565,-8142.265362,612.876398
2763.745424,370.102971,-9622.677246,2451.505594
2763.745752,0.000000,-10140.821405,2145.067394
2763.746079,-592.164754,-9252.574275,-536.266849
2763.746407,-296.082377,-8956.491898,-2528.115143
2763.746734,-666.185348,-8882.471304,-1532.190996
2763.747062,-1554.432478,-9474.636058,459.657299
2763.747389,-1110.308913,-10732.986159,1378.971896
2763.747717,-518.144159,-9992.780217,-689.485948
2763.748044,148.041188,-8956.491898,-1915.238745
2763.748372,74.020594,-8512.368333,-1762.019645
2763.748699,592.164754,-8956.491898,536.266849
2763.749027,1036.288319,-10807.006753,1915.238745
2763.749354,962.267725,-11029.068536,766.095498
2763.749682,592.164754,-9400.615463,-612.876398
2763.750009,518.144159,-8216.285956,-1225.752797
2763.750337,0.000000,-8364.327145,-383.047749
2763.750664,0.000000,-10436.903782,612.876398
2763.750992,74.020594,-11547.212695,0.000000
2763.751319,148.041188,-11177.109724,-995.924147
2763.751646,148.041188,-10066.800811,-1991.848295
2763.751974,518.144159,-8364.327145,-1532.190996
2763.752301,592.164754,-8734.430116,0.000000
2763.752629,148.041188,-10584.944971,1455.581446
2763.752956,666.185348,-10732.986159,229.828649
2763.753284,1480.411884,-9844.739029,-1302.362347
2763.753611,1998.556043,-9400.615463,-919.314598
2763.753939,1258.350101,-9548.656652,612.876398
2763.754266,444.123565,-10807.006753,1838.629195
2763.754594,444.123565,-10955.047942,306.438199
2763.754921,370.102971,-8882.471304,-1915.238745
2763.755249,592.164754,-9178.553681,-1378.971896
2763.755576,1406.391290,-9030.512492,-306.438199
2763.755904,1332.370696,-9844.739029,1762.019645
2763.756231,888.247130,-10436.903782,1762.019645
2763.756559,-222.061783,-9770.718434,0.000000
2763.756886,-1480.411884,-8586.388927,-1302.362347
2763.757214,-1036.288319,-7550.100608,-1762.019645
2763.757541,-370.102971,-7846.182985,0.000000
2763.757869,222.061783,-11325.150913,229.828649
2763.758196,518.144159,-11843.295072,0.000000
2763.758523,814.226536,-10510.924376,-842.705048
2763.758851,1036.288319,-9326.594869,-1149.143247
2763.759178,962.267725,-9252.574275,-536.266849
2763.759506,666.185348,-10066.800811,459.657299
2763.759833,1258.350101,-10288.862594,-842.705048
2763.760161,518.144159,-8882.471304,-459.657299
2763.760488,592.164754,-8586.388927,-229.828649
2763.760816,370.102971,-8734.430116,842.705048
2763.761143,0.000000,-9770.718434,1838.629195
2763.761471,0.000000,-11103.089130,842.705048
2763.761798,0.000000,-10584.944971,-1225.752797
2763.762126,0.000000,-9104.533087,-2911.162892
2763.762453,296.082377,-9326.594869,-2298.286494
2763.762781,-740.205942,-9844.739029,229.828649
2763.763108,-518.144159,-11399.171507,1685.410096
2763.763436,222.061783,-11177.109724,0.000000
2763.763763,444.123565,-10214.842000,-1455.581446
2763.764091,296.082377,-9178.553681,-1378.971896
2763.764418,518.144159,-8808.450710,0.000000
2763.764745,1036.288319,-10362.883188,689.485948
2763.765073,444.123565,-10881.027347,536.266849
2763.765400,222.061783,-9400.615463,-612.876398
2763.765728,74.020594,-8512.368333,-995.924147
2763.766055,370.102971,-8364.327145,-689.485948
2763.766383,1110.308913,-9104.533087,536.266849
2763.766710,518.144159,-10732.986159,842.705048
2763.767038,296.082377,-10807.006753,306.438199
2763.767365,814.226536,-9400.615463,-842.705048
2763.767693,1184.329507,-8734.430116,-919.314598
2763.768020,518.144159,-9474.636058,612.876398
2763.768348,148.041188,-10881.027347,2068.457845
2763.768675,0.000000,-9696.697840,1455.581446
2763.769003,-148.041188,-8216.285956,-383.047749
2763.769330,-518.144159,-8142.265362,-995.924147
2763.769658,-518.144159,-9030.512492,-306.438199
2763.769985,-888.247130,-9770.718434,612.876398
2763.770313,-296.082377,-11029.068536,0.000000
2763.770640,74.020594,-10066.800811,-1608.800546
2763.770968,222.061783,-8660.409521,-1685.410096
2763.771295,0.000000,-8142.265362,76.609550
2763.771622,1702.473667,-9104.533087,1225.752797
2763.771950,1850.514855,-11251.130318,1915.238745
2763.772277,1924.535449,-11177.109724,536.266849
2763.772605,1258.350101,-9696.697840,-383.047749
2763.772932,1258.350101,-8364.327145,-1378.971896
2763.773260,666.185348,-8882.471304,0.000000
2763.773587,-962.267725,-11695.253884,1072.533697
2763.773915,-1406.391290,-11325.150913,-306.438199
2763.774242,296.082377,-10214.842000,-2298.286494
2763.774570,814.226536,-9548.656652,-2145.067394
2763.774897,740.205942,-9622.677246,76.609550
2763.775225,370.102971,-10066.800811,2145.067394
2763.775552,0.000000,-9844.739029,1302.362347
2763.775880,-1184.329507,-9104.533087,306.438199
2763.776207,-962.267725,-7476.080014,-1991.848295
2763.776535,-666.185348,-7031.956449,-1378.971896
2763.776862,-296.082377,-9548.656652,306.438199
2763.777190,296.082377,-12139.377449,1149.143247
2763.777517,666.185348,-11843.295072,-306.438199
2763.777845,814.226536,-10732.986159,-2451.505594
2763.778172,518.144159,-8956.491898,-2374.896044
2763.778499,222.061783,-8660.409521,-1225.752797
2763.778827,444.123565,-9992.780217,1072.533697
2763.779154,962.267725,-10732.986159,919.314598
2763.779482,1702.473667,-9252.574275,0.000000
2763.779809,1480.411884,-8660.409521,0.000000
2763.780137,1110.308913,-8808.450710,1302.362347
2763.780464,-148.041188,-8882.471304,919.314598
2763.780792,-296.082377,-9918.759623,-1149.143247
2763.781119,-814.226536,-9844.739029,-2298.286494
2763.781447,0.000000,-9548.656652,-2145.067394
2763.781774,666.185348,-9400.615463,-689.485948
2763.782102,740.205942,-10288.862594,1302.362347
2763.782429,0.000000,-11843.295072,2145.067394
2763.782757,222.061783,-10732.986159,306.438199
2763.783084,-296.082377,-8660.409521,-2528.115143
2763.783412,-740.205942,-7772.162391,-1991.848295
2763.783739,-444.123565,-8364.327145,-383.047749
2763.784067,-518.144159,-9918.759623,1685.410096
2763.784394,370.102971,-10955.047942,1225.752797
2763.784721,740.205942,-10140.821405,-842.705048
2763.785049,370.102971,-9178.553681,-1608.800546
2763.785376,444.123565,-9178.553681,-612.876398
2763.785704,222.061783,-10066.800811,229.828649
2763.786031,1110.308913,-11399.171507,306.438199
2763.786359,1776.494261,-10807.006753,229.828649
2763.786686,1776.494261,-9844.739029,536.266849
2763.787014,1702.473667,-8290.306550,612.876398
2763.787341,1480.411884,-8364.327145,689.485948
2763.787669,518.144159,-10658.965565,995.924147
2763.787996,0.000000,-9992.780217,-689.485948
2763.788324,-518.144159,-9030.512492,-1762.019645
2763.788651,-296.082377,-9104.533087,-1302.362347
2763.788979,0.000000,-9400.615463,-153.219100
2763.789306,0.000000,-10658.965565,1378.971896
2763.789634,444.123565,-11251.130318,1378.971896
2763.789961,222.061783,-9326.594869,-383.047749
2763.790289,296.082377,-8290.306550,-919.314598
2763.790616,0.000000,-8808.450710,-459.657299
2763.790944,0.000000,-9844.739029,919.314598
2763.791271,-222.061783,-10732.986159,1072.533697
2763.791598,-296.082377,-10066.800811,-612.876398
2763.791926,0.000000,-9918.759623,-2068.457845
2763.792253,222.061783,-8882.471304,-1838.629195
2763.792581,148.041188,-9474.636058,-1072.533697
2763.792908,814.226536,-11177.109724,536.266849
2763.793236,1184.329507,-11177.109724,0.000000
2763.793563,1406.391290,-9548.656652,-766.095498
2763.793891,1110.308913,-8216.285956,-459.657299
2763.794218,1258.350101,-8586.388927,0.000000
2763.794546,888.247130,-9548.656652,842.705048
2763.794873,296.082377,-10436.903782,1225.752797
2763.795201,-740.205942,-9918.759623,-383.047749
2763.795528,-592.164754,-8808.450710,-1762.019645
2763.795856,-740.205942,-8438.347739,-1762.019645
2763.796183,-962.267725,-10066.800811,-536.266849
2763.796511,0.000000,-11769.274478,153.219100
2763.796838,370.102971,-10584.944971,-612.876398
2763.797166,518.144159,-8956.491898,-1302.362347
2763.797493,740.205942,-8364.327145,-459.657299
2763.797821,444.123565,-8808.450710,1149.143247
2763.798148,296.082377,-9770.718434,1838.629195
2763.798475,518.144159,-9696.697840,76.609550
2763.798803,592.164754,-9770.718434,-919.314598
2763.799130,592.164754,-9104.533087,-1378.971896
2763.799458,592.164754,-9030.512492,-689.485948
2763.799785,-222.061783,-10214.842000,919.314598
2763.800113,-444.123565,-11621.233289,612.876398
2763.800440,-740.205942,-11029.068536,-1455.581446
2763.800768,-444.123565,-9844.739029,-2068.457845
2763.801095,148.041188,-8290.306550,-2221.676944
2763.801423,814.226536,-9104.533087,-306.438199
2763.801750,592.164754,-10658.965565,2068.457845
2763.802078,888.247130,-10658.965565,1225.752797
2763.802405,888.247130,-9326.594869,-383.047749
2763.802733,444.123565,-9030.512492,-995.924147
2763.803060,0.000000,-9326.594869,0.000000
2763.803388,74.020594,-10658.965565,766.095498
2763.803715,0.000000,-10658.965565,842.705048
2763.804043,-148.041188,-9178.553681,-995.924147
2763.804370,0.000000,-8734.430116,-689.485948
2763.804698,814.226536,-9030.512492,229.828649
2763.805025,1184.329507,-9622.677246,1225.752797
2763.805352,888.247130,-10658.965565,1149.143247
2763.805680,1184.329507,-9474.636058,-306.438199
2763.806007,1110.308913,-8734.430116,-1072.533697
2763.806335,814.226536,-8068.244768,-612.876398
2763.806662,814.226536,-9622.677246,995.924147
2763.806990,666.185348,-11325.150913,1532.190996
2763.807317,740.205942,-11103.089130,-459.657299
2763.807645,814.226536,-10288.862594,-1378.971896
2763.807972,1110.308913,-9696.697840,-1455.581446
2763.808300,1110.308913,-8438.347739,153.219100
2763.808627,962.267725,-10066.800811,1685.410096
2763.808955,444.123565,-10140.821405,1072.533697
2763.809282,370.102971,-8956.491898,-383.047749
2763.809610,148.041188,-8142.265362,-919.314598
2763.809937,0.000000,-7920.203579,-153.219100
2763.810265,-222.061783,-9474.636058,689.485948
2763.810592,-370.102971,-11843.295072,689.485948
2763.810920,-296.082377,-10214.842000,-1072.533697
2763.811247,-296.082377,-9252.574275,-2451.505594
2763.811574,296.082377,-9030.512492,-1915.238745
2763.811902,444.123565,-10214.842000,0.000000
2763.812229,296.082377,-11177.109724,1455.581446
2763.812557,0.000000,-11325.150913,0.000000
2763.812884,-222.061783,-9696.697840,-459.657299
2763.813212,-296.082377,-8512.368333,-1225.752797
2763.813539,-592.164754,-8364.327145,-383.047749
2763.813867,-296.082377,-9844.739029,842.705048
2763.814194,-148.041188,-10807.006753,383.047749
2763.814522,444.123565,-10066.800811,-536.266849
2763.814849,740.205942,-9178.553681,-1838.629195
2763.815177,962.267725,-8438.347739,-612.876398
2763.815504,1184.329507,-8956.491898,153.219100
2763.815832,888.247130,-10955.047942,1378.971896
2763.816159,666.185348,-10584.944971,0.000000
2763.816487,592.164754,-8882.471304,-1608.800546
2763.816814,740.205942,-9474.636058,-1149.143247
2763.817142,518.144159,-10214.842000,689.485948
2763.817469,0.000000,-10807.006753,2451.505594
2763.817797,296.082377,-10362.883188,536.266849
2763.818124,-148.041188,-9104.533087,-1608.800546
2763.818452,-592.164754,-9030.512492,-1915.238745
2763.818779,-740.205942,-8734.430116,-612.876398
2763.819107,-592.164754,-8956.491898,1149.143247
2763.819434,-740.205942,-10288.862594,612.876398
2763.819762,-666.185348,-9844.739029,76.609550
2763.820089,222.061783,-9474.636058,-306.438199
2763.820416,814.226536,-8808.450710,-229.828649
2763.820744,1110.308913,-9918.759623,383.047749
2763.821071,962.267725,-11251.130318,995.924147
2763.821399,740.205942,-10584.944971,-766.095498
2763.821726,148.041188,-8734.430116,-1302.362347
2763.822054,592.164754,-8438.347739,-919.314598
2763.822381,1036.288319,-8956.491898,-306.438199
2763.822709,1110.308913,-10807.006753,919.314598
2763.823036,1036.288319,-11177.109724,306.438199
2763.823364,1110.308913,-9696.697840,-1149.143247
2763.823691,1110.308913,-9030.512492,-1225.752797
2763.824019,814.226536,-9326.594869,0.000000
2763.824346,962.267725,-9918.759623,995.924147
2763.824674,0.000000,-10288.862594,1302.362347
2763.825001,74.020594,-9622.677246,-689.485948
2763.825329,0.000000,-9400.615463,-1302.362347
2763.825656,222.061783,-9474.636058,-995.924147
2763.825984,-148.041188,-10214.842000,0.000000
2763.826311,-592.164754,-11621.233289,459.657299
2763.826639,0.000000,-10658.965565,-842.705048
2763.826966,0.000000,-8734.430116,-1838.629195
2763.827294,148.041188,-8660.409521,-919.314598
2763.827621,370.102971,-8734.430116,919.314598
2763.827949,592.164754,-10066.800811,2145.067394
2763.828276,518.144159,-10436.903782,383.047749
2763.828604,370.102971,-9104.533087,-383.047749
2763.828931,296.082377,-7994.224174,-1225.752797
2763.829259,74.020594,-7772.162391,-689.485948
2763.829586,222.061783,-9622.677246,612.876398
2763.829914,592.164754,-11399.171507,919.314598
2763.830241,1036.288319,-10584.944971,0.000000
2763.830569,666.185348,-8438.347739,-612.876398
2763.830896,1110.308913,-8290.306550,-536.266849
2763.831224,296.082377,-9696.697840,612.876398
2763.831551,0.000000,-10955.047942,1838.629195
2763.831879,370.102971,-10288.862594,0.000000
2763.832206,-296.082377,-8438.347739,-1532.190996
2763.832534,-592.164754,-8438.347739,-1302.362347
2763.832861,-518.144159,-9326.594869,-536.266849
2763.833188,-888.247130,-9844.739029,459.657299
2763.833516,-370.102971,-10584.944971,0.000000
2763.833843,74.020594,-9844.739029,-2068.457845
2763.834171,0.000000,-9474.636058,-1762.019645
2763.834498,296.082377,-9326.594869,-689.485948
2763.834826,592.164754,-9992.780217,766.095498
2763.835153,370.102971,-11547.212695,1302.362347
2763.835481,1332.370696,-11029.068536,-383.047749
2763.835808,592.164754,-9104.533087,-1608.800546
2763.836136,1110.308913,-9178.553681,-1378.971896
2763.836463,1332.370696,-9696.697840,0.000000
2763.836791,814.226536,-11103.089130,1149.143247
2763.837118,370.102971,-10658.965565,76.609550
2763.837446,0.000000,-9548.656652,-1302.362347
2763.837773,148.041188,-8956.491898,-919.314598
2763.838101,814.226536,-9400.615463,306.438199
2763.838428,444.123565,-10362.883188,1072.533697
2763.838756,370.102971,-11029.068536,1072.533697
2763.839083,-148.041188,-9474.636058,0.000000
2763.839411,-666.185348,-7994.224174,-919.314598
2763.839738,-740.205942,-7624.121203,0.000000
2763.840066,-370.102971,-8956.491898,536.266849
2763.840393,0.000000,-10658.965565,383.047749
2763.840721,148.041188,-10066.800811,-766.095498
2763.841048,740.205942,-9770.718434,-1455.581446
2763.841376,888.247130,-9696.697840,-153.219100
2763.841703,888.247130,-9252.574275,766.095498
2763.842031,1036.288319,-9992.780217,1532.190996
2763.842358,1480.411884,-10362.883188,995.924147
2763.842686,1480.411884,-8586.388927,-153.219100
2763.843013,2072.576638,-8512.368333,0.000000
2763.843341,1184.329507,-8734.430116,1149.143247
2763.843668,0.000000,-9696.697840,1838.629195
2763.843996,-1110.308913,-10807.006753,229.828649
2763.844323,-1332.370696,-9474.636058,-2604.724693
2763.844651,-962.267725,-9104.533087,-3524.039291
2763.844978,-666.185348,-9474.636058,-2145.067394
2763.845306,148.041188,-10658.965565,1072.533697
2763.845633,740.205942,-12213.398043,1838.629195
2763.845960,1480.411884,-11251.130318,0.000000
2763.846288,370.102971,-9178.553681,-1532.190996
2763.846615,-666.185348,-8068.244768,-1378.971896
2763.846943,-666.185348,-7920.203579,-1072.533697
2763.847270,-740.205942,-10140.821405,0.000000
2763.847598,-370.102971,-10807.006753,536.266849
2763.847925,148.041188,-9474.636058,-919.314598
2763.848253,592.164754,-9622.677246,-995.924147
2763.848580,888.247130,-9696.697840,0.000000
2763.848908,1036.288319,-10510.924376,306.438199
2763.849235,814.226536,-11325.150913,229.828649
2763.849563,1184.329507,-9474.636058,-919.314598
2763.849890,1258.350101,-8216.285956,-1225.752797
2763.850218,1406.391290,-8142.265362,306.438199
2763.850545,962.267725,-9474.636058,1838.629195
2763.850873,296.082377,-10436.903782,1915.238745
2763.851200,296.082377,-10362.883188,-766.095498
2763.851528,0.000000,-9548.656652,-2298.286494
2763.851855,0.000000,-8734.430116,-1915.238745
2763.852183,0.000000,-8290.306550,0.000000
2763.852510,-592.164754,-10066.800811,1685.410096
2763.852838,-370.102971,-10658.965565,1149.143247
2763.853165,370.102971,-9252.574275,-995.924147
2763.853493,518.144159,-7994.224174,-1225.752797
2763.853820,518.144159,-8068.244768,153.219100
2763.854148,592.164754,-9918.759623,1302.362347
2763.854475,444.123565,-11029.068536,1532.190996
2763.854803,0.000000,-10362.883188,-842.705048
2763.855130,0.000000,-9696.697840,-2221.676944
2763.855458,370.102971,-9474.636058,-1532.190996
2763.855785,814.226536,-9770.718434,0.000000
2763.856113,444.123565,-11843.295072,1072.533697
2763.856440,296.082377,-11325.150913,536.266849
2763.856768,814.226536,-10140.821405,-1532.190996
2763.857095,296.082377,-8068.244768,-1378.971896
2763.857423,444.123565,-7920.203579,-153.219100
2763.857750,592.164754,-9844.739029,919.314598
2763.858078,148.041188,-10584.944971,1072.533697
2763.858405,518.144159,-9770.718434,76.609550
2763.858732,1258.350101,-9178.553681,-1225.752797
2763.859060,814.226536,-9696.697840,229.828649
2763.859387,370.102971,-10584.944971,919.314598
