#time,accel_x,accel_y,accel_z
3123.963895,0.000000,-9474.636058,-383.047749
3123.964223,-296.082377,-9770.718434,-612.876398
3123.964551,-296.082377,-10214.842000,-1072.533697
3123.964878,148.041188,-10140.821405,-842.705048
3123.965206,518.144159,-11103.089130,-1225.752797
3123.965533,740.205942,-10807.006753,-766.095498
3123.965861,740.205942,-11029.068536,-536.266849
3123.966189,592.164754,-10732.986159,-766.095498
3123.966516,518.144159,-10288.862594,-306.438199
3123.966844,444.123565,-9622.677246,-383.047749
3123.967171,592.164754,-9992.780217,-1302.362347
3123.967499,0.000000,-9400.615463,-1072.533697
3123.967827,222.061783,-9622.677246,-766.095498
3123.968154,0.000000,-9622.677246,-612.876398
3123.968482,0.000000,-9918.759623,-383.047749
3123.968809,148.041188,-9844.739029,-459.657299
3123.969137,814.226536,-10288.862594,153.219100
3123.969465,592.164754,-10140.821405,0.000000
3123.969792,888.247130,-10214.842000,229.828649
3123.970120,1184.329507,-9474.636058,0.000000
3123.970447,444.123565,-9030.512492,689.485948
3123.970775,370.102971,-8956.491898,842.705048
3123.971103,0.000000,-8660.409521,459.657299
3123.971430,222.061783,-9104.533087,76.609550
3123.971758,0.000000,-8734.430116,153.219100
3123.972085,0.000000,-8808.450710,-995.924147
3123.972413,148.041188,-9178.553681,0.000000
3123.972740,296.082377,-9548.656652,0.000000
3123.973068,444.123565,-9770.718434,76.609550
3123.973396,814.226536,-9622.677246,0.000000
3123.973723,814.226536,-9252.574275,76.609550
3123.974051,444.123565,-9400.615463,0.000000
3123.974378,740.205942,-9474.636058,0.000000
3123.974706,148.041188,-9474.636058,0.000000
3123.975034,-148.041188,-9474.636058,-229.828649
3123.975361,0.000000,-9844.739029,-612.876398
3123.975689,0.000000,-10066.800811,-1072.533697
3123.976016,0.000000,-10436.903782,-919.314598
3123.976344,444.123565,-10732.986159,-995.924147
3123.976672,666.185348,-10955.047942,-919.314598
3123.976999,74.020594,-10288.862594,0.000000
3123.977327,592.164754,-10881.027347,-536.266849
3123.977654,518.144159,-10510.924376,-383.047749
3123.977982,444.123565,-10140.821405,-383.047749
3123.978310,222.061783,-9622.677246,-153.219100
3123.978637,222.061783,-9696.697840,-689.485948
3123.978965,444.123565,-9474.636058,-459.657299
3123.979292,0.000000,-9622.677246,-383.047749
3123.979620,222.061783,-9326.594869,-536.266849
3123.979947,888.247130,-9400.615463,-689.485948
3123.980275,1628.453072,-9770.718434,-306.438199
3123.980603,2442.679609,-9178.553681,76.609550
3123.980930,3182.885551,-9030.512492,995.924147
3123.981258,3627.009116,-8586.388927,842.705048
3123.981585,3923.091493,-9178.553681,459.657299
3123.981913,4885.359217,-8882.471304,459.657299
3123.982241,5329.482782,-8364.327145,459.657299
3123.982568,5921.647536,-8512.368333,459.657299
3123.982896,7105.977043,-9252.574275,0.000000
3123.983223,7328.038826,-9104.533087,229.828649
3123.983551,7550.100608,-9696.697840,689.485948
3123.983879,8586.388927,-9178.553681,459.657299
3123.984206,9770.718434,-9400.615463,0.000000
3123.984534,10807.006753,-9622.677246,0.000000
3123.984861,11621.233289,-9400.615463,229.828649
3123.985189,12435.459826,-9326.594869,536.266849
3123.985517,12509.480420,-9252.574275,1762.019645
3123.985844,12361.439231,-9844.739029,689.485948
3123.986172,11991.336260,-10066.800811,229.828649
3123.986499,11917.315666,-8734.430116,-919.314598
3123.986827,12583.501014,-9622.677246,-766.095498
3123.987154,13767.830521,-10955.047942,-766.095498
3123.987482,14434.015869,-10807.006753,0.000000
3123.987810,15174.221811,-9696.697840,306.438199
3123.988137,15618.345376,-9400.615463,-306.438199
3123.988465,15322.262999,-11103.089130,459.657299
3123.988792,14508.036463,-9844.739029,612.876398
3123.989120,14063.912898,-9844.739029,459.657299
3123.989448,13397.727550,-10288.862594,612.876398
3123.989775,13323.706956,-10362.883188,612.876398
3123.990103,12509.480420,-9252.574275,919.314598
3123.990430,11917.315666,-8660.409521,1378.971896
3123.990758,12139.377449,-8512.368333,689.485948
3123.991086,11473.192101,-9918.759623,0.000000
3123.991413,10881.027347,-10807.006753,76.609550
3123.991741,10140.821405,-10510.924376,76.609550
3123.992068,8438.347739,-9474.636058,383.047749
3123.992396,7476.080014,-8364.327145,919.314598
3123.992724,8216.285956,-6883.915261,76.609550
3123.993051,9770.718434,-8734.430116,76.609550
3123.993379,9918.759623,-10955.047942,919.314598
3123.993706,9400.615463,-11177.109724,1455.581446
3123.994034,7994.224174,-8586.388927,229.828649
3123.994362,7031.956449,-7994.224174,-306.438199
3123.994689,6513.812290,-8734.430116,0.000000
3123.995017,7994.224174,-8660.409521,76.609550
3123.995344,9252.574275,-10955.047942,306.438199
3123.995672,9918.759623,-12065.356855,919.314598
3123.995999,9548.656652,-10584.944971,306.438199
3123.996327,7772.162391,-9474.636058,459.657299
3123.996655,5921.647536,-9770.718434,766.095498
3123.996982,5329.482782,-9622.677246,-1225.752797
3123.997310,5995.668130,-9844.739029,-2145.067394
3123.997637,6735.874072,-9474.636058,-1378.971896
3123.997965,7772.162391,-8660.409521,-612.876398
3123.998293,5921.647536,-8142.265362,1838.629195
3123.998620,3182.885551,-8956.491898,2068.457845
3123.998948,3478.967927,-9400.615463,-612.876398
3123.999275,5181.441594,-11103.089130,-3217.601092
3123.999603,5255.462188,-11177.109724,-2298.286494
3123.999931,5033.400406,-9696.697840,-766.095498
3124.000258,4737.318029,-9178.553681,842.705048
3124.000586,3849.070898,-10732.986159,1302.362347
3124.000913,1850.514855,-10362.883188,689.485948
3124.001241,592.164754,-7920.203579,-1302.362347
3124.001569,1332.370696,-6587.832884,-2298.286494
3124.001896,3849.070898,-7994.224174,-2528.115143
3124.002224,4737.318029,-9548.656652,-383.047749
3124.002551,4219.173869,-9548.656652,1991.848295
3124.002879,5551.544565,-8364.327145,1455.581446
3124.003206,6883.915261,-9104.533087,-995.924147
3124.003534,5995.668130,-9918.759623,-383.047749
3124.003862,5773.606348,-10955.047942,306.438199
3124.004189,7624.121203,-10955.047942,-306.438199
3124.004517,6735.874072,-9992.780217,0.000000
3124.004844,2886.803174,-11621.233289,1455.581446
3124.005172,1850.514855,-11769.274478,1225.752797
3124.005500,2072.576638,-8956.491898,-459.657299
3124.005827,444.123565,-7105.977043,-1762.019645
3124.006155,-1036.288319,-9104.533087,-1149.143247
3124.006482,148.041188,-9474.636058,459.657299
3124.006810,2146.597232,-7328.038826,459.657299
3124.007138,1998.556043,-8290.306550,766.095498
3124.007465,1332.370696,-9992.780217,919.314598
3124.007793,1406.391290,-9252.574275,229.828649
3124.008120,1776.494261,-10066.800811,-766.095498
3124.008448,1480.411884,-11177.109724,-995.924147
3124.008776,1554.432478,-12287.418637,-383.047749
3124.009103,1036.288319,-14063.912898,-383.047749
3124.009431,-518.144159,-13767.830521,-612.876398
3124.009758,0.000000,-10510.924376,-2757.943793
3124.010086,-592.164754,-9770.718434,-2451.505594
3124.010414,-1480.411884,-11547.212695,0.000000
3124.010741,666.185348,-8068.244768,995.924147
3124.011069,2072.576638,-5477.523971,612.876398
3124.011396,1036.288319,-7772.162391,2451.505594
3124.011724,666.185348,-8068.244768,2987.772442
3124.012051,0.000000,-6365.771101,1149.143247
3124.012379,-2664.741391,-8660.409521,995.924147
3124.012707,-962.267725,-11325.150913,229.828649
3124.013034,-666.185348,-11103.089130,-2528.115143
3124.013362,-1406.391290,-13619.789333,0.000000
3124.013689,-888.247130,-13027.624579,1149.143247
3124.014017,-518.144159,-9474.636058,-1149.143247
3124.014345,-4515.256246,-10362.883188,0.000000
3124.014672,-5255.462188,-9622.677246,766.095498
3124.015000,-2664.741391,-5107.421000,-2068.457845
3124.015327,-4145.153275,-4367.215058,-459.657299
3124.015655,-3404.947333,-6957.935855,3370.820191
3124.015983,-1332.370696,-5329.482782,1225.752797
3124.016310,-1258.350101,-7105.977043,76.609550
3124.016638,-666.185348,-11325.150913,0.000000
3124.016965,1406.391290,-11547.212695,-1991.848295
3124.017293,1776.494261,-12731.542202,-2987.772442
3124.017621,1406.391290,-14508.036463,0.000000
3124.017948,2294.638420,-12657.521608,-383.047749
3124.018276,0.000000,-10584.944971,-1915.238745
3124.018603,-2146.597232,-12805.562797,76.609550
3124.018931,0.000000,-9844.739029,-306.438199
3124.019258,814.226536,-5773.606348,-1915.238745
3124.019586,-1480.411884,-8364.327145,-229.828649
3124.019914,-444.123565,-9326.594869,-229.828649
3124.020241,2072.576638,-6217.729913,-2298.286494
3124.020569,1702.473667,-7105.977043,-919.314598
3124.020896,2072.576638,-11103.089130,536.266849
3124.021224,4589.276840,-11917.315666,-536.266849
3124.021552,4219.173869,-14137.933492,153.219100
3124.021879,3997.112087,-15544.324782,842.705048
3124.022207,3627.009116,-11843.295072,-1608.800546
3124.022534,1332.370696,-10807.006753,-536.266849
3124.022862,-962.267725,-12879.583391,1838.629195
3124.023190,592.164754,-8808.450710,-842.705048
3124.023517,222.061783,-5551.544565,-1225.752797
3124.023845,-296.082377,-7846.182985,1455.581446
3124.024172,1036.288319,-5921.647536,1225.752797
3124.024500,1110.308913,-4737.318029,1225.752797
3124.024828,0.000000,-6217.729913,2451.505594
3124.025155,1480.411884,-7105.977043,919.314598
3124.025483,2368.659014,-8882.471304,-306.438199
3124.025810,2220.617826,-13471.748144,1149.143247
3124.026138,3256.906145,-12805.562797,1455.581446
3124.026466,3478.967927,-10362.883188,-229.828649
3124.026793,-370.102971,-12139.377449,536.266849
3124.027121,-2146.597232,-11843.295072,76.609550
3124.027448,-1110.308913,-6957.935855,-2681.334243
3124.027776,-2960.823768,-7476.080014,-1838.629195
3124.028103,-2590.720797,-9178.553681,76.609550
3124.028431,0.000000,-6291.750507,-766.095498
3124.028759,-148.041188,-5551.544565,229.828649
3124.029086,592.164754,-7846.182985,689.485948
3124.029414,2072.576638,-8438.347739,0.000000
3124.029741,2516.700203,-11621.233289,0.000000
3124.030069,2442.679609,-13841.851115,1072.533697
3124.030397,2812.782580,-11843.295072,-995.924147
3124.030724,1036.288319,-11769.274478,-2451.505594
3124.031052,-2442.679609,-15544.324782,-919.314598
3124.031379,-2960.823768,-12731.542202,-1915.238745
3124.031707,-3478.967927,-8882.471304,-4443.353888
3124.032034,-4145.153275,-11103.089130,-2604.724693
3124.032361,-2368.659014,-10436.903782,-1838.629195
3124.032689,-592.164754,-5995.668130,-2221.676944
3124.033016,-1998.556043,-7031.956449,536.266849
3124.033343,-1258.350101,-6883.915261,2221.676944
3124.033671,1702.473667,-6587.832884,1149.143247
3124.033998,1554.432478,-9474.636058,2221.676944
3124.034326,1332.370696,-9474.636058,2298.286494
3124.034653,2442.679609,-8734.430116,-842.705048
3124.034980,-1184.329507,-10436.903782,0.000000
3124.035308,-1184.329507,-13545.768739,0.000000
3124.035635,-296.082377,-10214.842000,-1608.800546
3124.035963,-2368.659014,-9548.656652,-766.095498
3124.036290,-3701.029710,-11251.130318,153.219100
3124.036617,-740.205942,-8586.388927,-2221.676944
3124.036945,-1776.494261,-6069.688724,-2834.553343
3124.037272,-962.267725,-7105.977043,153.219100
3124.037600,1924.535449,-6883.915261,1608.800546
3124.037927,3108.864956,-8660.409521,3140.991542
3124.038254,3701.029710,-10214.842000,3524.039291
3124.038582,4145.153275,-8438.347739,1378.971896
3124.038909,2960.823768,-7920.203579,-1378.971896
3124.039236,740.205942,-11843.295072,-536.266849
3124.039564,814.226536,-13101.645173,-229.828649
3124.039891,2220.617826,-11177.109724,-1608.800546
3124.040219,1554.432478,-11991.336260,-306.438199
3124.040546,1332.370696,-12435.459826,-612.876398
3124.040873,1184.329507,-9918.759623,-1225.752797
3124.041201,-1184.329507,-9030.512492,766.095498
3124.041528,-1998.556043,-8586.388927,0.000000
3124.041856,296.082377,-6661.853478,-2528.115143
3124.042183,962.267725,-8660.409521,-2145.067394
3124.042510,1776.494261,-11251.130318,689.485948
3124.042838,3330.926739,-8808.450710,919.314598
3124.043165,2886.803174,-9992.780217,1072.533697
3124.043492,2220.617826,-13545.768739,919.314598
3124.043820,2294.638420,-12583.501014,-612.876398
3124.044147,444.123565,-11621.233289,-1225.752797
3124.044475,-296.082377,-12287.418637,306.438199
3124.044802,666.185348,-9622.677246,0.000000
3124.045129,370.102971,-6513.812290,-919.314598
3124.045457,-3256.906145,-8364.327145,919.314598
3124.045784,-3404.947333,-7994.224174,1378.971896
3124.046112,518.144159,-6809.894666,-1685.410096
3124.046439,1258.350101,-9918.759623,-689.485948
3124.046766,1258.350101,-9474.636058,1378.971896
3124.047094,1406.391290,-7179.997637,459.657299
3124.047421,222.061783,-9548.656652,1762.019645
3124.047749,518.144159,-11177.109724,2068.457845
3124.048076,1554.432478,-9474.636058,-919.314598
3124.048403,-740.205942,-10881.027347,612.876398
3124.048731,-1554.432478,-11769.274478,2374.896044
3124.049058,-592.164754,-9400.615463,-995.924147
3124.049385,-3182.885551,-9104.533087,-2374.896044
3124.049713,-5107.421000,-10288.862594,-1149.143247
3124.050040,-1776.494261,-8290.306550,-3294.210641
3124.050368,-518.144159,-8142.265362,-3753.867940
3124.050695,-1702.473667,-10066.800811,76.609550
3124.051022,888.247130,-8660.409521,-689.485948
3124.051350,1036.288319,-7994.224174,-919.314598
3124.051677,-740.205942,-11769.274478,1762.019645
3124.052005,2442.679609,-11029.068536,1762.019645
3124.052332,3256.906145,-10584.944971,-766.095498
3124.052659,-814.226536,-12509.480420,1149.143247
3124.052987,-814.226536,-11621.233289,-306.438199
3124.053314,-1924.535449,-8290.306550,-2528.115143
3124.053641,-4219.173869,-10955.047942,-689.485948
3124.053969,-2738.761985,-10214.842000,0.000000
3124.054296,-148.041188,-8290.306550,-2604.724693
3124.054624,-518.144159,-9992.780217,-459.657299
3124.054951,1258.350101,-10140.821405,612.876398
3124.055278,3108.864956,-6439.791695,-306.438199
3124.055606,1406.391290,-9474.636058,1608.800546
3124.055933,1332.370696,-11325.150913,3524.039291
3124.056261,4441.235652,-7031.956449,536.266849
3124.056588,2516.700203,-9326.594869,1072.533697
3124.056915,148.041188,-12139.377449,2298.286494
3124.057243,962.267725,-9030.512492,306.438199
3124.057570,-1332.370696,-9400.615463,-919.314598
3124.057897,-2442.679609,-12509.480420,306.438199
3124.058225,0.000000,-9474.636058,-1915.238745
3124.058552,1776.494261,-7846.182985,-3294.210641
3124.058880,74.020594,-10658.965565,306.438199
3124.059207,1924.535449,-9178.553681,-306.438199
3124.059534,2442.679609,-5625.565159,-306.438199
3124.059862,2072.576638,-8956.491898,2451.505594
3124.060189,3478.967927,-9104.533087,2221.676944
3124.060517,3775.050304,-6809.894666,459.657299
3124.060844,1480.411884,-10658.965565,1991.848295
3124.061171,1776.494261,-11621.233289,919.314598
3124.061499,666.185348,-9474.636058,-2451.505594
3124.061826,-2812.782580,-11177.109724,-689.485948
3124.062154,-2294.638420,-13323.706956,-153.219100
3124.062481,-296.082377,-11325.150913,-3677.258390
3124.062808,-814.226536,-12065.356855,-3294.210641
3124.063136,148.041188,-11621.233289,-2068.457845
3124.063463,2072.576638,-7698.141797,-1991.848295
3124.063790,740.205942,-8068.244768,766.095498
3124.064118,888.247130,-10658.965565,3140.991542
3124.064445,3330.926739,-7105.977043,689.485948
3124.064773,2072.576638,-8142.265362,-153.219100
3124.065100,0.000000,-10881.027347,1225.752797
3124.065427,740.205942,-10436.903782,689.485948
3124.065755,-518.144159,-9918.759623,306.438199
3124.066082,-3034.844362,-11325.150913,1149.143247
3124.066410,-1554.432478,-11399.171507,-995.924147
3124.066737,-148.041188,-10140.821405,-2374.896044
3124.067064,-2442.679609,-10881.027347,0.000000
3124.067392,-1924.535449,-9400.615463,383.047749
3124.067719,-518.144159,-5847.626942,-2298.286494
3124.068046,-2886.803174,-7105.977043,-612.876398
3124.068374,-814.226536,-7994.224174,1072.533697
3124.068701,2294.638420,-5847.626942,-306.438199
3124.069029,1924.535449,-8734.430116,2068.457845
3124.069356,2294.638420,-10658.965565,2987.772442
3124.069683,1998.556043,-10214.842000,153.219100
3124.070011,-1184.329507,-12065.356855,-229.828649
3124.070338,-888.247130,-12953.603985,-612.876398
3124.070666,1036.288319,-8956.491898,-1991.848295
3124.070993,-740.205942,-9326.594869,-2068.457845
3124.071320,-2146.597232,-12287.418637,76.609550
3124.071648,0.000000,-9252.574275,-995.924147
3124.071975,1258.350101,-7550.100608,-2834.553343
3124.072303,296.082377,-11251.130318,-153.219100
3124.072630,2146.597232,-8808.450710,689.485948
3124.072957,3330.926739,-7624.121203,-1149.143247
3124.073285,1110.308913,-11473.192101,1378.971896
3124.073612,1628.453072,-10510.924376,76.609550
3124.073939,1406.391290,-8290.306550,-1762.019645
3124.074267,-666.185348,-11325.150913,536.266849
3124.074594,444.123565,-12657.521608,919.314598
3124.074922,2960.823768,-11547.212695,-995.924147
3124.075249,592.164754,-12731.542202,-383.047749
3124.075576,0.000000,-12213.398043,-459.657299
3124.075904,0.000000,-6661.853478,-3907.087040
3124.076231,-1110.308913,-7772.162391,-2911.162892
3124.076559,-1850.514855,-10140.821405,766.095498
3124.076886,1702.473667,-5181.441594,383.047749
3124.077213,2294.638420,-5255.462188,842.705048
3124.077541,1702.473667,-10066.800811,3447.429741
3124.077868,2812.782580,-9474.636058,2451.505594
3124.078195,1036.288319,-9104.533087,1225.752797
3124.078523,-962.267725,-11695.253884,1225.752797
3124.078850,74.020594,-10066.800811,-1685.410096
3124.079178,296.082377,-9696.697840,-3140.991542
3124.079505,-962.267725,-12509.480420,0.000000
3124.079832,518.144159,-10807.006753,459.657299
3124.080160,518.144159,-7402.059420,-2298.286494
3124.080487,-2072.576638,-9844.739029,-306.438199
3124.080815,-296.082377,-7772.162391,-306.438199
3124.081142,2664.741391,-5329.482782,-1608.800546
3124.081469,1702.473667,-8808.450710,1608.800546
3124.081797,1924.535449,-9918.759623,3830.477490
3124.082124,3478.967927,-8438.347739,766.095498
3124.082451,518.144159,-11177.109724,229.828649
3124.082779,-1036.288319,-13027.624579,153.219100
3124.083106,370.102971,-11103.089130,-3294.210641
3124.083434,-1628.453072,-13471.748144,-2451.505594
3124.083761,-2738.761985,-14211.954086,-689.485948
3124.084088,-740.205942,-9400.615463,-3447.429741
3124.084416,-1258.350101,-9178.553681,-2757.943793
3124.084743,-1924.535449,-11103.089130,459.657299
3124.085071,888.247130,-7328.038826,-842.705048
3124.085398,1776.494261,-6143.709319,-383.047749
3124.085725,592.164754,-9400.615463,2911.162892
3124.086053,2442.679609,-7476.080014,2681.334243
3124.086380,1554.432478,-7254.018232,2221.676944
3124.086708,-1406.391290,-10881.027347,2221.676944
3124.087035,1036.288319,-10288.862594,-766.095498
3124.087362,74.020594,-10436.903782,-2604.724693
3124.087690,-3108.864956,-13915.871710,-383.047749
3124.088017,-2590.720797,-11843.295072,-1455.581446
3124.088344,-1258.350101,-8216.285956,-4136.915689
3124.088672,-1480.411884,-9696.697840,-2221.676944
3124.088999,518.144159,-9992.780217,0.000000
3124.089327,3108.864956,-6069.688724,842.705048
3124.089654,1850.514855,-7328.038826,3447.429741
3124.089981,1776.494261,-8734.430116,3294.210641
3124.090309,2072.576638,-5625.565159,306.438199
3124.090636,-296.082377,-7254.018232,229.828649
3124.090964,-370.102971,-9844.739029,1225.752797
3124.091291,1850.514855,-10066.800811,-1532.190996
3124.091618,1332.370696,-12805.562797,-1608.800546
3124.091946,518.144159,-15174.221811,0.000000
3124.092273,2072.576638,-10881.027347,-1608.800546
3124.092600,814.226536,-9400.615463,-1762.019645
3124.092928,-1628.453072,-11769.274478,612.876398
3124.093255,518.144159,-8808.450710,-1838.629195
3124.093583,1184.329507,-6735.874072,-2987.772442
3124.093910,-296.082377,-8882.471304,-459.657299
3124.094237,370.102971,-7846.182985,536.266849
3124.094565,962.267725,-6735.874072,842.705048
3124.094892,518.144159,-11029.068536,1685.410096
3124.095220,2072.576638,-12435.459826,229.828649
3124.095547,3404.947333,-11769.274478,-2451.505594
3124.095874,2590.720797,-14211.954086,-1149.143247
3124.096202,1850.514855,-12287.418637,1225.752797
3124.096529,592.164754,-6809.894666,-612.876398
3124.096857,-2368.659014,-9030.512492,-306.438199
3124.097184,-2738.761985,-11843.295072,76.609550
3124.097511,444.123565,-7402.059420,-2451.505594
3124.097839,1406.391290,-6661.853478,-1608.800546
3124.098166,740.205942,-9474.636058,2757.943793
3124.098493,814.226536,-7920.203579,1991.848295
3124.098821,-370.102971,-7328.038826,766.095498
3124.099148,-814.226536,-9918.759623,459.657299
3124.099476,666.185348,-9622.677246,-1685.410096
3124.099803,1406.391290,-10066.800811,-1838.629195
3124.100130,74.020594,-12361.439231,1455.581446
3124.100458,888.247130,-10881.027347,995.924147
3124.100785,962.267725,-9548.656652,-689.485948
3124.101113,0.000000,-12435.459826,842.705048
3124.101440,0.000000,-10436.903782,-536.266849
3124.101767,1110.308913,-6587.832884,-3140.991542
3124.102095,-740.205942,-7772.162391,-1532.190996
3124.102422,-1184.329507,-8882.471304,919.314598
3124.102749,-1702.473667,-5625.565159,0.000000
3124.103077,-740.205942,-8882.471304,1532.190996
3124.103404,0.000000,-11325.150913,1455.581446
3124.103732,1554.432478,-10955.047942,-766.095498
3124.104059,222.061783,-12287.418637,-842.705048
3124.104386,-666.185348,-12879.583391,-995.924147
3124.104714,-1110.308913,-9770.718434,-1762.019645
3124.105041,-1554.432478,-9918.759623,-1455.581446
3124.105369,-1924.535449,-11177.109724,459.657299
3124.105696,518.144159,-8142.265362,-383.047749
3124.106023,888.247130,-8142.265362,-1762.019645
3124.106351,-814.226536,-10584.944971,689.485948
3124.106678,-370.102971,-7846.182985,1072.533697
3124.107005,74.020594,-5921.647536,153.219100
3124.107333,-296.082377,-9548.656652,1532.190996
3124.107660,2146.597232,-9474.636058,689.485948
3124.107988,3256.906145,-9918.759623,-1072.533697
3124.108315,1036.288319,-13101.645173,842.705048
3124.108642,370.102971,-11843.295072,995.924147
3124.108970,296.082377,-8586.388927,-1991.848295
3124.109297,-2368.659014,-10658.965565,-1302.362347
3124.109625,-592.164754,-11843.295072,-1072.533697
3124.109952,666.185348,-7328.038826,-2681.334243
3124.110279,74.020594,-9252.574275,-612.876398
3124.110607,-148.041188,-9252.574275,1149.143247
3124.110934,1702.473667,-5995.668130,153.219100
3124.111262,814.226536,-7402.059420,1762.019645
3124.111589,1776.494261,-10584.944971,2451.505594
3124.111916,3849.070898,-8068.244768,76.609550
3124.112244,2368.659014,-9770.718434,-306.438199
3124.112571,1184.329507,-12805.562797,306.438199
3124.112898,1036.288319,-9770.718434,-153.219100
3124.113226,-888.247130,-9770.718434,-1225.752797
3124.113553,-2368.659014,-13619.789333,-919.314598
3124.113881,-888.247130,-11251.130318,-3753.867940
3124.114208,666.185348,-8512.368333,-4519.963438
3124.114535,0.000000,-10955.047942,-1302.362347
3124.114863,592.164754,-9918.759623,1072.533697
3124.115190,962.267725,-7772.162391,1532.190996
3124.115518,0.000000,-9178.553681,1915.238745
3124.115845,1036.288319,-8956.491898,536.266849
3124.116172,1628.453072,-7624.121203,-1991.848295
3124.116500,74.020594,-10140.821405,0.000000
3124.116827,-1110.308913,-11103.089130,1838.629195
3124.117154,148.041188,-8142.265362,-536.266849
3124.117482,-518.144159,-11251.130318,-919.314598
3124.117809,74.020594,-13693.809927,229.828649
3124.118137,1998.556043,-9326.594869,-1838.629195
3124.118464,666.185348,-9252.574275,-306.438199
3124.118791,-1332.370696,-10214.842000,2451.505594
3124.119119,0.000000,-7105.977043,689.485948
3124.119446,-1480.411884,-6661.853478,76.609550
3124.119774,-2886.803174,-8142.265362,919.314598
3124.120101,-666.185348,-6735.874072,-612.876398
3124.120428,1332.370696,-8734.430116,-919.314598
3124.120756,296.082377,-12361.439231,536.266849
3124.121083,1184.329507,-10881.027347,153.219100
3124.121411,1628.453072,-9030.512492,-766.095498
3124.121738,592.164754,-11917.315666,76.609550
3124.122065,1554.432478,-10807.006753,0.000000
3124.122393,1628.453072,-7402.059420,-766.095498
3124.122720,-1702.473667,-10510.924376,766.095498
3124.123047,-1258.350101,-11547.212695,229.828649
3124.123375,1702.473667,-8290.306550,-2681.334243
3124.123702,-222.061783,-9104.533087,-536.266849
3124.124030,444.123565,-11399.171507,1532.190996
3124.124357,1628.453072,-9844.739029,-1302.362347
3124.124684,888.247130,-10807.006753,-1991.848295
3124.125012,74.020594,-11251.130318,-1378.971896
3124.125339,74.020594,-9178.553681,-1378.971896
3124.125667,-1850.514855,-9474.636058,-306.438199
3124.125994,-1850.514855,-10881.027347,1532.190996
3124.126321,2220.617826,-9400.615463,-1225.752797
3124.126649,2368.659014,-11473.192101,-1072.533697
3124.126976,1554.432478,-13175.665768,1838.629195
3124.127303,3034.844362,-10881.027347,459.657299
3124.127631,740.205942,-8068.244768,-1149.143247
3124.127958,-1332.370696,-9400.615463,0.000000
3124.128286,-1184.329507,-8290.306550,-1302.362347
3124.128613,0.000000,-7402.059420,-2145.067394
3124.128940,0.000000,-9696.697840,383.047749
3124.129268,814.226536,-10362.883188,1455.581446
3124.129595,0.000000,-7994.224174,153.219100
3124.129923,-888.247130,-9918.759623,153.219100
3124.130251,-370.102971,-10140.821405,459.657299
3124.130578,518.144159,-7920.203579,-1225.752797
3124.130906,518.144159,-10214.842000,306.438199
3124.131234,1406.391290,-9622.677246,1225.752797
3124.131561,1332.370696,-7105.977043,383.047749
3124.131889,-592.164754,-9400.615463,1149.143247
3124.132217,-962.267725,-10584.944971,1532.190996
3124.132545,962.267725,-8290.306550,-766.095498
3124.132872,1480.411884,-9326.594869,-2757.943793
3124.133200,740.205942,-11843.295072,-1378.971896
3124.133528,1850.514855,-9474.636058,-459.657299
3124.133855,1998.556043,-8882.471304,-306.438199
3124.134183,0.000000,-11769.274478,1991.848295
3124.134511,592.164754,-9918.759623,1532.190996
3124.134838,666.185348,-9178.553681,-689.485948
3124.135166,-962.267725,-11621.233289,-306.438199
3124.135494,-592.164754,-10214.842000,-1991.848295
3124.135821,-962.267725,-9400.615463,-1915.238745
3124.136149,-2516.700203,-10955.047942,-383.047749
3124.136477,-888.247130,-9696.697840,-612.876398
3124.136804,1850.514855,-8956.491898,-2298.286494
3124.137132,1776.494261,-12287.418637,-919.314598
3124.137460,1110.308913,-10658.965565,1532.190996
3124.137787,2590.720797,-7328.038826,76.609550
3124.138115,740.205942,-9030.512492,842.705048
3124.138443,-518.144159,-10881.027347,2528.115143
3124.138770,-518.144159,-7846.182985,1072.533697
3124.139098,-1554.432478,-8660.409521,-459.657299
3124.139426,-1850.514855,-11399.171507,-766.095498
3124.139753,148.041188,-9548.656652,-2145.067394
3124.140081,-1258.350101,-9104.533087,-995.924147
3124.140409,-1702.473667,-11399.171507,2374.896044
3124.140736,1110.308913,-9326.594869,0.000000
3124.141064,1850.514855,-9030.512492,-1762.019645
3124.141392,148.041188,-10732.986159,-306.438199
3124.141719,296.082377,-7624.121203,-536.266849
3124.142047,666.185348,-6069.688724,-383.047749
3124.142375,-296.082377,-9030.512492,2298.286494
3124.142702,444.123565,-9104.533087,1838.629195
3124.143030,1998.556043,-7920.203579,229.828649
3124.143358,1110.308913,-11621.233289,689.485948
3124.143685,1332.370696,-12287.418637,153.219100
3124.144013,1184.329507,-9844.739029,-1838.629195
3124.144341,-518.144159,-10436.903782,306.438199
3124.144668,-666.185348,-9770.718434,612.876398
3124.144996,1554.432478,-8956.491898,-1072.533697
3124.145324,1554.432478,-11695.253884,-306.438199
3124.145651,222.061783,-11695.253884,766.095498
3124.145979,74.020594,-7550.100608,-1072.533697
3124.146307,-1184.329507,-7624.121203,-1685.410096
3124.146634,-2368.659014,-10288.862594,0.000000
3124.146962,666.185348,-8364.327145,-1302.362347
3124.147290,2072.576638,-8586.388927,-766.095498
3124.147617,2072.576638,-11325.150913,1455.581446
3124.147945,2664.741391,-10362.883188,1378.971896
3124.148273,0.000000,-10658.965565,1072.533697
3124.148600,-1776.494261,-11843.295072,1302.362347
3124.148928,740.205942,-10658.965565,-1302.362347
3124.149256,1998.556043,-9844.739029,-4213.525239
3124.149583,296.082377,-12435.459826,-1302.362347
3124.149911,666.185348,-9548.656652,76.609550
3124.150239,1258.350101,-5181.441594,-995.924147
3124.150566,0.000000,-8512.368333,153.219100
3124.150894,-592.164754,-9770.718434,1532.190996
3124.151222,0.000000,-6587.832884,536.266849
3124.151550,-296.082377,-8586.388927,459.657299
3124.151877,0.000000,-10584.944971,612.876398
3124.152205,370.102971,-9178.553681,-306.438199
3124.152533,-1110.308913,-10510.924376,1378.971896
3124.152860,148.041188,-12139.377449,766.095498
3124.153188,2442.679609,-11621.233289,-1838.629195
3124.153516,1702.473667,-12139.377449,-3064.381992
3124.153843,-296.082377,-11547.212695,-1685.410096
3124.154171,-222.061783,-6587.832884,-1838.629195
3124.154499,-1036.288319,-5921.647536,-1762.019645
3124.154826,-1998.556043,-9622.677246,1149.143247
3124.155154,666.185348,-8660.409521,919.314598
3124.155482,1776.494261,-7772.162391,0.000000
3124.155809,148.041188,-10362.883188,766.095498
3124.156137,0.000000,-9918.759623,1455.581446
3124.156465,-370.102971,-10436.903782,-383.047749
3124.156792,-1036.288319,-12361.439231,306.438199
3124.157120,0.000000,-10881.027347,-612.876398
3124.157448,962.267725,-8956.491898,-2221.676944
3124.157775,0.000000,-11547.212695,-1302.362347
3124.158103,-666.185348,-10955.047942,1072.533697
3124.158431,444.123565,-6883.915261,-1378.971896
3124.158758,-444.123565,-9474.636058,-536.266849
3124.159086,296.082377,-10881.027347,612.876398
3124.159414,2886.803174,-6661.853478,-612.876398
3124.159741,2886.803174,-7920.203579,919.314598
3124.160069,1554.432478,-10584.944971,3753.867940
3124.160397,74.020594,-9400.615463,2145.067394
3124.160724,-1332.370696,-8660.409521,153.219100
3124.161052,-1850.514855,-10436.903782,229.828649
3124.161380,-370.102971,-9844.739029,-1991.848295
3124.161707,-222.061783,-11029.068536,-2757.943793
3124.162035,-1776.494261,-12213.398043,-1302.362347
3124.162363,-370.102971,-9326.594869,-1838.629195
3124.162690,444.123565,-6957.935855,-2757.943793
3124.163018,222.061783,-10362.883188,0.000000
3124.163346,2220.617826,-9252.574275,919.314598
3124.163673,3478.967927,-5847.626942,229.828649
3124.164001,2960.823768,-9178.553681,1685.410096
3124.164329,1406.391290,-10436.903782,2987.772442
3124.164656,0.000000,-8142.265362,1838.629195
3124.164984,-1998.556043,-10436.903782,383.047749
3124.165312,-1850.514855,-12435.459826,-1532.190996
3124.165639,0.000000,-11991.336260,-4903.011187
3124.165967,592.164754,-12953.603985,-4213.525239
3124.166295,0.000000,-12287.418637,-919.314598
3124.166622,222.061783,-8734.430116,0.000000
3124.166950,1258.350101,-9400.615463,-383.047749
3124.167278,1554.432478,-10732.986159,536.266849
3124.167605,1924.535449,-7105.977043,0.000000
3124.167933,1406.391290,-5255.462188,153.219100
3124.168261,222.061783,-9030.512492,2451.505594
3124.168588,-296.082377,-8512.368333,2451.505594
3124.168916,518.144159,-8808.450710,459.657299
3124.169244,0.000000,-11621.233289,536.266849
3124.169571,1036.288319,-11547.212695,0.000000
3124.169899,1628.453072,-11399.171507,-2374.896044
3124.170227,-370.102971,-13027.624579,-1532.190996
3124.170555,-370.102971,-10214.842000,-612.876398
3124.170882,148.041188,-6513.812290,-1149.143247
3124.171210,-666.185348,-8734.430116,919.314598
3124.171538,-888.247130,-7994.224174,2681.334243
3124.171865,1184.329507,-5255.462188,766.095498
3124.172193,0.000000,-6809.894666,842.705048
3124.172521,-1332.370696,-9474.636058,1532.190996
3124.172848,-370.102971,-8068.244768,153.219100
3124.173176,444.123565,-9030.512492,-306.438199
3124.173504,592.164754,-11621.233289,612.876398
3124.173831,1776.494261,-11843.295072,-1149.143247
3124.174159,1110.308913,-12657.521608,-1608.800546
3124.174487,-518.144159,-14211.954086,-1072.533697
3124.174814,0.000000,-10732.986159,-1991.848295
3124.175142,370.102971,-9400.615463,-2451.505594
3124.175470,296.082377,-10955.047942,0.000000
3124.175797,1332.370696,-7846.182985,0.000000
3124.176125,2072.576638,-6217.729913,0.000000
3124.176453,740.205942,-8882.471304,1915.238745
3124.176780,0.000000,-9252.574275,1072.533697
3124.177108,-592.164754,-7105.977043,-306.438199
3124.177436,-1702.473667,-9918.759623,0.000000
3124.177763,-666.185348,-12139.377449,-306.438199
3124.178091,888.247130,-11843.295072,-2451.505594
3124.178419,518.144159,-14063.912898,-2298.286494
3124.178746,740.205942,-13249.686362,0.000000
3124.179074,1554.432478,-9326.594869,-2528.115143
3124.179402,1036.288319,-11177.109724,-1915.238745
3124.179729,-222.061783,-10066.800811,-153.219100
3124.180057,0.000000,-4737.318029,-995.924147
3124.180385,-222.061783,-5995.668130,0.000000
3124.180712,-740.205942,-8364.327145,1608.800546
3124.181040,296.082377,-7328.038826,1149.143247
3124.181368,-814.226536,-7624.121203,1455.581446
3124.181695,-1406.391290,-10658.965565,1532.190996
3124.182023,0.000000,-10732.986159,-383.047749
3124.182351,1554.432478,-11399.171507,-2911.162892
3124.182678,148.041188,-13545.768739,-612.876398
3124.183006,0.000000,-10658.965565,536.266849
3124.183334,888.247130,-7328.038826,-1378.971896
3124.183661,0.000000,-11029.068536,-306.438199
3124.183989,-740.205942,-9030.512492,306.438199
3124.184317,888.247130,-5995.668130,-995.924147
3124.184644,518.144159,-8660.409521,383.047749
3124.184972,0.000000,-9622.677246,1838.629195
3124.185300,1406.391290,-6735.874072,306.438199
3124.185627,962.267725,-8660.409521,306.438199
3124.185955,518.144159,-11991.336260,1838.629195
3124.186283,444.123565,-10881.027347,-306.438199
3124.186610,888.247130,-12361.439231,-1532.190996
3124.186938,-592.164754,-13027.624579,-689.485948
3124.187266,-518.144159,-9992.780217,-2068.457845
3124.187593,-222.061783,-9844.739029,-2298.286494
3124.187921,-1554.432478,-10881.027347,-919.314598
3124.188249,148.041188,-7920.203579,-306.438199
3124.188577,1776.494261,-8068.244768,-1838.629195
3124.188904,888.247130,-10362.883188,1149.143247
3124.189232,1258.350101,-8068.244768,1915.238745
3124.189560,1850.514855,-7254.018232,612.876398
3124.189887,1184.329507,-10436.903782,1608.800546
3124.190215,740.205942,-10214.842000,1378.971896
3124.190543,444.123565,-9252.574275,-689.485948
3124.190870,-1924.535449,-12139.377449,-919.314598
3124.191198,-1776.494261,-11769.274478,-1915.238745
3124.191526,-148.041188,-8512.368333,-3753.867940
3124.191853,-888.247130,-10140.821405,-2451.505594
3124.192181,-296.082377,-11621.233289,612.876398
3124.192509,2590.720797,-8364.327145,-383.047749
3124.192836,2220.617826,-7920.203579,-306.438199
3124.193164,1332.370696,-9030.512492,1455.581446
3124.193492,296.082377,-6587.832884,1532.190996
3124.193819,0.000000,-7254.018232,1532.190996
3124.194147,-222.061783,-9400.615463,1915.238745
3124.194475,1110.308913,-9400.615463,0.000000
3124.194802,1258.350101,-10955.047942,-766.095498
3124.195130,444.123565,-13545.768739,536.266849
3124.195458,1110.308913,-11029.068536,-383.047749
3124.195785,1406.391290,-9992.780217,-2757.943793
3124.196113,-370.102971,-10807.006753,-1455.581446
3124.196441,74.020594,-8734.430116,-306.438199
3124.196768,1332.370696,-7476.080014,-689.485948
3124.197096,444.123565,-9474.636058,1608.800546
3124.197424,0.000000,-8290.306550,2298.286494
3124.197751,-148.041188,-5995.668130,459.657299
3124.198079,-1036.288319,-9178.553681,0.000000
3124.198407,-592.164754,-11399.171507,0.000000
3124.198734,1554.432478,-9622.677246,-1838.629195
3124.199062,1628.453072,-11843.295072,-306.438199
3124.199390,962.267725,-12213.398043,919.314598
3124.199717,1110.308913,-9178.553681,-1225.752797
3124.200045,-518.144159,-10732.986159,-1149.143247
3124.200373,-1998.556043,-12435.459826,-383.047749
3124.200700,444.123565,-9178.553681,-1838.629195
3124.201028,2368.659014,-9474.636058,-2221.676944
3124.201356,1036.288319,-10658.965565,919.314598
3124.201683,592.164754,-7476.080014,1838.629195
3124.202011,962.267725,-5921.647536,766.095498
3124.202339,0.000000,-9474.636058,995.924147
3124.202666,-296.082377,-10214.842000,0.000000
3124.202994,-888.247130,-9104.533087,-1225.752797
3124.203322,-2368.659014,-11251.130318,-536.266849
3124.203649,-518.144159,-10807.006753,-919.314598
3124.203977,1258.350101,-10140.821405,-2604.724693
3124.204305,-148.041188,-12065.356855,612.876398
3124.204632,1110.308913,-11473.192101,919.314598
3124.204960,3256.906145,-8808.450710,-1608.800546
3124.205288,1850.514855,-9770.718434,-1225.752797
3124.205615,-222.061783,-8512.368333,612.876398
3124.205943,-740.205942,-5403.503377,1072.533697
3124.206271,-666.185348,-7105.977043,1838.629195
3124.206598,-370.102971,-9474.636058,1991.848295
3124.206926,666.185348,-9474.636058,-459.657299
3124.207254,0.000000,-11991.336260,-995.924147
3124.207582,-1332.370696,-12879.583391,383.047749
3124.207909,-518.144159,-8512.368333,-1225.752797
3124.208237,0.000000,-9326.594869,-1455.581446
3124.208565,-296.082377,-11547.212695,153.219100
3124.208892,0.000000,-7476.080014,536.266849
3124.209220,1998.556043,-7105.977043,-689.485948
3124.209548,962.267725,-10510.924376,919.314598
3124.209875,0.000000,-8734.430116,919.314598
3124.210203,-222.061783,-5773.606348,-612.876398
3124.210531,0.000000,-9474.636058,153.219100
3124.210858,666.185348,-10584.944971,153.219100
3124.211186,1480.411884,-10436.903782,-536.266849
3124.211514,740.205942,-11843.295072,0.000000
3124.211841,0.000000,-11843.295072,383.047749
3124.212169,296.082377,-9474.636058,-1072.533697
3124.212497,-1110.308913,-11251.130318,-383.047749
3124.212824,-1554.432478,-10584.944971,1225.752797
3124.213152,1406.391290,-7402.059420,-2528.115143
3124.213480,1776.494261,-9474.636058,-2374.896044
3124.213807,-444.123565,-9770.718434,1378.971896
3124.214135,0.000000,-7179.997637,919.314598
3124.214463,296.082377,-7698.141797,-153.219100
3124.214790,518.144159,-11177.109724,612.876398
3124.215118,2516.700203,-10214.842000,-612.876398
3124.215446,2738.761985,-10436.903782,-842.705048
3124.215773,370.102971,-12287.418637,1685.410096
3124.216101,0.000000,-9178.553681,995.924147
3124.216429,-518.144159,-8660.409521,-689.485948
3124.216756,-2516.700203,-11547.212695,306.438199
3124.217084,-1480.411884,-9474.636058,-1378.971896
3124.217412,-222.061783,-7328.038826,-3524.039291
3124.217739,592.164754,-10066.800811,-536.266849
3124.218067,1036.288319,-9548.656652,766.095498
3124.218395,2072.576638,-7994.224174,842.705048
3124.218722,1036.288319,-9548.656652,1685.410096
3124.219050,1554.432478,-9992.780217,1072.533697
3124.219378,2368.659014,-9252.574275,-995.924147
3124.219705,1036.288319,-10807.006753,-612.876398
3124.220033,-518.144159,-10066.800811,1225.752797
3124.220361,-444.123565,-7402.059420,0.000000
3124.220688,-1036.288319,-9770.718434,-842.705048
3124.221016,-1480.411884,-11251.130318,0.000000
3124.221344,74.020594,-7624.121203,-1838.629195
3124.221671,740.205942,-8882.471304,-2528.115143
3124.221999,74.020594,-11325.150913,306.438199
3124.222327,1702.473667,-9030.512492,0.000000
3124.222654,1554.432478,-8364.327145,-919.314598
3124.222982,1406.391290,-10362.883188,1378.971896
3124.223310,1702.473667,-9178.553681,1608.800546
3124.223637,2220.617826,-9474.636058,0.000000
3124.223965,-592.164754,-13027.624579,1225.752797
3124.224293,-1554.432478,-11177.109724,-306.438199
3124.224620,74.020594,-9326.594869,-2987.772442
3124.224948,-1924.535449,-11251.130318,-1225.752797
3124.225276,-2368.659014,-8808.450710,0.000000
3124.225603,814.226536,-6883.915261,-1072.533697
3124.225931,1258.350101,-9474.636058,0.000000
3124.226259,0.000000,-9548.656652,1072.533697
3124.226587,444.123565,-8216.285956,306.438199
3124.226914,1036.288319,-9326.594869,459.657299
3124.227242,370.102971,-11325.150913,842.705048
3124.227570,3108.864956,-10732.986159,-842.705048
3124.227897,2442.679609,-11251.130318,-1302.362347
3124.228225,296.082377,-13027.624579,842.705048
3124.228553,592.164754,-9474.636058,-383.047749
3124.228880,-1036.288319,-8734.430116,-1225.752797
3124.229208,-3775.050304,-10510.924376,459.657299
3124.229536,-1702.473667,-7179.997637,-919.314598
3124.229863,-370.102971,-7105.977043,-2145.067394
3124.230191,-444.123565,-11103.089130,229.828649
3124.230519,740.205942,-9400.615463,1072.533697
3124.230846,2738.761985,-7550.100608,0.000000
3124.231172,2886.803174,-10140.821405,459.657299
3124.231500,2664.741391,-11251.130318,1149.143247
3124.231827,3478.967927,-10066.800811,-1149.143247
3124.232155,1406.391290,-10807.006753,-766.095498
3124.232483,-444.123565,-10066.800811,0.000000
3124.232810,-370.102971,-8660.409521,-1608.800546
3124.233138,-2220.617826,-10807.006753,-766.095498
3124.233466,-2294.638420,-11103.089130,383.047749
3124.233794,-888.247130,-7402.059420,-1378.971896
3124.234121,148.041188,-9252.574275,-2757.943793
3124.234449,-962.267725,-9474.636058,919.314598
3124.234777,888.247130,-6143.709319,76.609550
3124.235104,1406.391290,-7254.018232,306.438199
3124.235432,666.185348,-10140.821405,1608.800546
3124.235760,1998.556043,-10066.800811,459.657299
3124.236088,2664.741391,-10510.924376,-1072.533697
3124.236415,1184.329507,-12287.418637,306.438199
3124.236743,1480.411884,-11399.171507,-536.266849
3124.237071,518.144159,-11251.130318,-1685.410096
3124.237399,-1924.535449,-12287.418637,0.000000
3124.237726,-1480.411884,-7846.182985,-459.657299
3124.238054,0.000000,-7105.977043,-1991.848295
3124.238382,-1332.370696,-10436.903782,2145.067394
3124.238709,-444.123565,-9030.512492,1915.238745
3124.239037,74.020594,-5329.482782,-306.438199
3124.239365,74.020594,-9030.512492,0.000000
3124.239693,0.000000,-10288.862594,383.047749
3124.240020,2294.638420,-8882.471304,-1608.800546
3124.240348,1036.288319,-11695.253884,-536.266849
3124.240676,-222.061783,-12805.562797,459.657299
3124.241003,1406.391290,-9252.574275,-1608.800546
3124.241331,1702.473667,-11177.109724,-1378.971896
3124.241659,-296.082377,-12139.377449,1991.848295
3124.241987,222.061783,-8364.327145,1072.533697
3124.242314,0.000000,-8734.430116,0.000000
3124.242642,-2368.659014,-10658.965565,1225.752797
3124.242970,-2442.679609,-6587.832884,-612.876398
3124.243297,-814.226536,-5995.668130,-2451.505594
3124.243625,-814.226536,-9548.656652,76.609550
3124.243953,1628.453072,-9992.780217,153.219100
3124.244281,3108.864956,-10658.965565,-1532.190996
3124.244608,1628.453072,-13693.809927,0.000000
3124.244936,1184.329507,-10658.965565,0.000000
3124.245264,2146.597232,-9030.512492,-2451.505594
3124.245591,-1110.308913,-10881.027347,76.609550
3124.245919,-1110.308913,-9844.739029,612.876398
3124.246247,814.226536,-7550.100608,-919.314598
3124.246575,-518.144159,-9474.636058,383.047749
3124.246902,-1332.370696,-9474.636058,2528.115143
3124.247230,1036.288319,-6809.894666,0.000000
3124.247558,0.000000,-8956.491898,-919.314598
3124.247885,-444.123565,-11473.192101,689.485948
3124.248213,2516.700203,-8438.347739,-2757.943793
3124.248541,2220.617826,-10214.842000,-2451.505594
3124.248869,518.144159,-12435.459826,1225.752797
3124.249196,2220.617826,-8808.450710,229.828649
3124.249524,2294.638420,-8882.471304,0.000000
3124.249852,592.164754,-12287.418637,1378.971896
3124.250179,518.144159,-9696.697840,536.266849
3124.250507,518.144159,-8808.450710,-1608.800546
3124.250835,-2146.597232,-10362.883188,919.314598
3124.251163,-1924.535449,-7772.162391,229.828649
3124.251490,-1110.308913,-5699.585753,-1072.533697
3124.251818,-740.205942,-8586.388927,612.876398
3124.252146,0.000000,-9326.594869,229.828649
3124.252474,2590.720797,-10658.965565,-1762.019645
3124.252801,2072.576638,-13101.645173,-612.876398
3124.253129,1480.411884,-11917.315666,306.438199
3124.253457,3182.885551,-8808.450710,-1378.971896
3124.253784,1184.329507,-10881.027347,-536.266849
3124.254112,74.020594,-11843.295072,1608.800546
3124.254440,962.267725,-8660.409521,-153.219100
3124.254768,-296.082377,-9474.636058,-842.705048
3124.255095,-2664.741391,-9622.677246,1072.533697
3124.255423,-2442.679609,-7031.956449,-153.219100
3124.255751,-1776.494261,-8512.368333,-1225.752797
3124.256078,-1702.473667,-11473.192101,0.000000
3124.256406,962.267725,-9400.615463,-1838.629195
3124.256734,2442.679609,-9548.656652,-2145.067394
3124.257062,2072.576638,-13027.624579,-842.705048
3124.257389,2220.617826,-10362.883188,-536.266849
3124.257717,2220.617826,-8290.306550,-1532.190996
3124.258045,74.020594,-11547.212695,689.485948
3124.258372,296.082377,-10584.944971,1455.581446
3124.258700,1332.370696,-8438.347739,-459.657299
3124.259028,-1554.432478,-10140.821405,153.219100
3124.259356,-3330.926739,-9696.697840,1072.533697
3124.259683,-1184.329507,-7624.121203,-1991.848295
3124.260011,-1184.329507,-9844.739029,-689.485948
3124.260339,-1554.432478,-9622.677246,536.266849
3124.260666,222.061783,-6365.771101,-1302.362347
3124.260994,1184.329507,-9400.615463,-919.314598
3124.261322,814.226536,-10807.006753,459.657299
3124.261650,2442.679609,-8216.285956,-612.876398
3124.261977,1776.494261,-9326.594869,-383.047749
3124.262305,74.020594,-11843.295072,1225.752797
3124.262633,1776.494261,-10140.821405,306.438199
3124.262960,1406.391290,-9622.677246,-536.266849
3124.263288,-888.247130,-10807.006753,1991.848295
3124.263616,-740.205942,-9030.512492,1072.533697
3124.263944,0.000000,-8438.347739,-1149.143247
3124.264271,-962.267725,-10881.027347,459.657299
3124.264599,-740.205942,-8808.450710,0.000000
3124.264927,666.185348,-7179.997637,-2145.067394
3124.265254,-370.102971,-11325.150913,-229.828649
3124.265582,666.185348,-9622.677246,76.609550
3124.265910,2220.617826,-6883.915261,-2374.896044
3124.266238,1332.370696,-10584.944971,-766.095498
3124.266565,814.226536,-11177.109724,1838.629195
3124.266893,2220.617826,-10140.821405,0.000000
3124.267221,1406.391290,-12065.356855,0.000000
3124.267549,-148.041188,-11547.212695,995.924147
3124.267876,74.020594,-9178.553681,76.609550
3124.268204,666.185348,-10362.883188,-229.828649
3124.268532,-1036.288319,-11177.109724,1072.533697
3124.268859,-296.082377,-7402.059420,-612.876398
3124.269187,-1480.411884,-8882.471304,-2298.286494
3124.269515,-2960.823768,-11843.295072,-1302.362347
3124.269843,-370.102971,-7402.059420,-3600.648841
3124.270170,1110.308913,-7402.059420,-4213.525239
3124.270498,222.061783,-11325.150913,1149.143247
3124.270826,2442.679609,-9622.677246,2221.676944
3124.271153,3330.926739,-8734.430116,612.876398
3124.271481,518.144159,-11843.295072,2451.505594
3124.271809,74.020594,-9770.718434,1072.533697
3124.272137,518.144159,-9326.594869,-1225.752797
3124.272464,-962.267725,-10881.027347,612.876398
3124.272792,-962.267725,-9030.512492,536.266849
3124.273120,148.041188,-6735.874072,-1072.533697
3124.273447,-148.041188,-10584.944971,229.828649
3124.273775,296.082377,-10436.903782,229.828649
3124.274103,2516.700203,-7846.182985,-2834.553343
3124.274431,1110.308913,-9400.615463,-1608.800546
3124.274758,592.164754,-10362.883188,995.924147
3124.275086,2738.761985,-7550.100608,-229.828649
3124.275414,2294.638420,-9030.512492,1378.971896
3124.275741,296.082377,-10510.924376,4826.401637
3124.276069,444.123565,-8438.347739,1991.848295
3124.276397,0.000000,-11251.130318,-612.876398
3124.276725,-1776.494261,-13471.748144,-459.657299
3124.277052,-1110.308913,-9252.574275,-2987.772442
3124.277380,-1036.288319,-8956.491898,-3294.210641
3124.277708,-2146.597232,-11177.109724,-459.657299
3124.278035,1702.473667,-7698.141797,-1225.752797
3124.278363,2590.720797,-6957.935855,-2068.457845
3124.278691,-592.164754,-10955.047942,1455.581446
3124.279019,74.020594,-9918.759623,1532.190996
3124.279346,2812.782580,-8216.285956,-995.924147
3124.279674,740.205942,-10955.047942,689.485948
3124.280002,74.020594,-11325.150913,2221.676944
3124.280329,1554.432478,-9622.677246,-536.266849
3124.280657,370.102971,-12287.418637,-229.828649
3124.280985,-666.185348,-11177.109724,0.000000
3124.281313,-592.164754,-8216.285956,-2604.724693
3124.281640,-2738.761985,-11621.233289,-1378.971896
3124.281968,-2368.659014,-11177.109724,-536.266849
3124.282296,1554.432478,-6735.874072,-3753.867940
3124.282624,814.226536,-9622.677246,-2604.724693
3124.282951,-148.041188,-11103.089130,2221.676944
3124.283279,3182.885551,-7105.977043,229.828649
3124.283607,2738.761985,-8438.347739,-383.047749
3124.283934,-148.041188,-11695.253884,2681.334243
3124.284262,814.226536,-8438.347739,1378.971896
3124.284590,1110.308913,-8364.327145,-383.047749
3124.284918,0.000000,-11769.274478,842.705048
3124.285245,222.061783,-11029.068536,0.000000
3124.285573,-370.102971,-10288.862594,-1762.019645
3124.285901,-2442.679609,-12361.439231,-536.266849
3124.286228,-888.247130,-9474.636058,-2221.676944
3124.286556,518.144159,-6069.688724,-4443.353888
3124.286884,-962.267725,-8660.409521,306.438199
3124.287212,1332.370696,-7402.059420,1302.362347
3124.287539,3256.906145,-6513.812290,459.657299
3124.287867,1184.329507,-10955.047942,2987.772442
3124.288195,-296.082377,-9474.636058,3140.991542
3124.288522,1036.288319,-6365.771101,-459.657299
3124.288850,222.061783,-10807.006753,-383.047749
3124.289178,-370.102971,-13397.727550,842.705048
3124.289506,1258.350101,-10584.944971,-1302.362347
3124.289833,370.102971,-12139.377449,-1532.190996
3124.290161,-1406.391290,-12509.480420,153.219100
3124.290489,296.082377,-7254.018232,-2374.896044
3124.290816,-222.061783,-8142.265362,-2451.505594
3124.291144,-1702.473667,-10807.006753,459.657299
3124.291472,888.247130,-5995.668130,-229.828649
3124.291800,1850.514855,-7105.977043,-766.095498
3124.292127,-814.226536,-10362.883188,2451.505594
3124.292455,-518.144159,-7031.956449,1378.971896
3124.292783,1184.329507,-7698.141797,-995.924147
3124.293110,0.000000,-13841.851115,1072.533697
3124.293438,1406.391290,-13619.789333,0.000000
3124.293766,3627.009116,-10732.986159,-2068.457845
3124.294094,1110.308913,-12953.603985,-153.219100
3124.294421,-888.247130,-10807.006753,842.705048
3124.294749,-1184.329507,-7254.018232,-1915.238745
3124.295077,-2886.803174,-9326.594869,-1915.238745
3124.295404,-1850.514855,-8956.491898,-1838.629195
3124.295732,1406.391290,-6513.812290,-3140.991542
3124.296060,1258.350101,-9400.615463,76.609550
3124.296388,222.061783,-10140.821405,4826.401637
3124.296715,1924.535449,-6217.729913,1838.629195
3124.297043,1110.308913,-9622.677246,0.000000
3124.297371,-148.041188,-13767.830521,383.047749
3124.297699,1258.350101,-10807.006753,-1915.238745
3124.298026,1110.308913,-10066.800811,-2987.772442
3124.298354,-1036.288319,-11843.295072,383.047749
3124.298682,-222.061783,-8808.450710,0.000000
3124.299009,-370.102971,-8142.265362,-1532.190996
3124.299337,-1480.411884,-10807.006753,536.266849
3124.299665,888.247130,-8586.388927,-842.705048
3124.299993,2294.638420,-7179.997637,-2068.457845
3124.300320,-666.185348,-9178.553681,1838.629195
3124.300648,-296.082377,-6735.874072,1915.238745
3124.300976,814.226536,-6143.709319,0.000000
3124.301303,814.226536,-11325.150913,1991.848295
3124.301631,2146.597232,-12213.398043,2145.067394
3124.301959,3552.988522,-9696.697840,-1149.143247
3124.302287,222.061783,-12583.501014,0.000000
3124.302614,-1110.308913,-13101.645173,1149.143247
3124.302942,-370.102971,-8512.368333,-2528.115143
3124.303270,-2294.638420,-9252.574275,-2834.553343
3124.303597,-1480.411884,-9400.615463,-766.095498
3124.303925,1480.411884,-6439.791695,-1915.238745
3124.304253,370.102971,-9104.533087,-536.266849
3124.304581,-1924.535449,-10436.903782,2681.334243
3124.304908,1184.329507,-6587.832884,536.266849
3124.305236,1924.535449,-8660.409521,0.000000
3124.305564,518.144159,-13619.789333,2528.115143
3124.305891,2812.782580,-11103.089130,0.000000
3124.306219,3330.926739,-10066.800811,-2528.115143
3124.306547,74.020594,-13915.871710,0.000000
3124.306875,-370.102971,-10955.047942,-306.438199
3124.307202,-1258.350101,-7624.121203,-2528.115143
3124.307530,-3627.009116,-10140.821405,0.000000
3124.307858,-1036.288319,-9622.677246,-2145.067394
3124.308185,1850.514855,-7994.224174,-3447.429741
3124.308513,0.000000,-9474.636058,612.876398
3124.308841,-370.102971,-9030.512492,3524.039291
3124.309169,1850.514855,-6661.853478,306.438199
3124.309496,444.123565,-10140.821405,689.485948
3124.309824,740.205942,-12213.398043,995.924147
3124.310152,2442.679609,-8512.368333,-1991.848295
3124.310479,666.185348,-11843.295072,0.000000
3124.310807,-1184.329507,-13545.768739,1762.019645
3124.311135,148.041188,-9548.656652,-1762.019645
3124.311463,-1332.370696,-9474.636058,-2068.457845
3124.311790,-2738.761985,-10658.965565,0.000000
3124.312118,222.061783,-7846.182985,-2221.676944
3124.312446,1702.473667,-7328.038826,-2145.067394
3124.312774,-444.123565,-8734.430116,1685.410096
3124.313101,74.020594,-5921.647536,2451.505594
3124.313429,1406.391290,-6439.791695,1225.752797
3124.313757,222.061783,-11103.089130,2298.286494
3124.314084,1998.556043,-10140.821405,306.438199
3124.314412,2368.659014,-9326.594869,-1762.019645
3124.314740,0.000000,-13693.809927,919.314598
3124.315068,740.205942,-11843.295072,1072.533697
3124.315395,1628.453072,-8808.450710,-2451.505594
3124.315723,-962.267725,-12435.459826,-459.657299
3124.316051,-444.123565,-11029.068536,-383.047749
3124.316378,1480.411884,-6883.915261,-2757.943793
3124.316706,-1110.308913,-9474.636058,-306.438199
3124.317034,-1850.514855,-7846.182985,1991.848295
3124.317362,222.061783,-4663.297435,-306.438199
3124.317689,0.000000,-8660.409521,229.828649
3124.318017,-370.102971,-11547.212695,1608.800546
3124.318345,2072.576638,-9104.533087,-1608.800546
3124.318672,1406.391290,-11177.109724,-1302.362347
3124.319000,-222.061783,-14285.974681,459.657299
3124.319328,1628.453072,-10658.965565,-1608.800546
3124.319656,888.247130,-10214.842000,-2451.505594
3124.319983,0.000000,-13249.686362,536.266849
3124.320311,1258.350101,-9252.574275,-383.047749
3124.320639,518.144159,-7550.100608,-919.314598
3124.320966,-2590.720797,-9474.636058,1225.752797
3124.321294,-1850.514855,-7476.080014,229.828649
3124.321622,-370.102971,-6291.750507,-2604.724693
3124.321950,-962.267725,-9696.697840,-612.876398
3124.322277,148.041188,-9696.697840,842.705048
3124.322605,2738.761985,-9178.553681,-612.876398
3124.322933,962.267725,-12805.562797,1149.143247
3124.323260,0.000000,-11621.233289,2145.067394
3124.323588,1184.329507,-8586.388927,-1532.190996
3124.323916,-962.267725,-11103.089130,-1455.581446
3124.324244,-1110.308913,-10881.027347,766.095498
3124.324571,888.247130,-6883.915261,-1378.971896
3124.324899,-962.267725,-8142.265362,459.657299
3124.325227,-1554.432478,-9696.697840,2834.553343
3124.325554,814.226536,-6291.750507,76.609550
3124.325882,1036.288319,-8068.244768,-612.876398
3124.326210,-370.102971,-10436.903782,1532.190996
3124.326538,1998.556043,-7920.203579,-1608.800546
3124.326865,2368.659014,-9696.697840,-2298.286494
3124.327193,-222.061783,-12583.501014,1455.581446
3124.327521,1332.370696,-9770.718434,995.924147
3124.327849,2294.638420,-9326.594869,-536.266849
3124.328176,0.000000,-13175.665768,689.485948
3124.328504,0.000000,-11177.109724,0.000000
3124.328832,444.123565,-9104.533087,-2451.505594
3124.329159,-1998.556043,-10436.903782,0.000000
3124.329487,-1110.308913,-7994.224174,229.828649
3124.329815,0.000000,-5921.647536,-1149.143247
3124.330142,-740.205942,-8734.430116,766.095498
3124.330470,222.061783,-10066.800811,995.924147
3124.330797,2442.679609,-9696.697840,-1378.971896
3124.331125,1110.308913,-13027.624579,0.000000
3124.331453,740.205942,-12435.459826,1149.143247
3124.331780,2664.741391,-8438.347739,-1302.362347
3124.332108,888.247130,-10436.903782,-612.876398
3124.332436,-444.123565,-11621.233289,1302.362347
3124.332763,666.185348,-7402.059420,-1455.581446
3124.333091,0.000000,-9104.533087,-1608.800546
3124.333418,-2442.679609,-11251.130318,1302.362347
3124.333746,-1184.329507,-7698.141797,-306.438199
3124.334074,222.061783,-7550.100608,-1378.971896
3124.334401,-296.082377,-10732.986159,766.095498
3124.334729,1850.514855,-9104.533087,-306.438199
3124.335057,2664.741391,-8586.388927,-1532.190996
3124.335384,1258.350101,-12065.356855,612.876398
3124.335712,1998.556043,-10807.006753,-229.828649
3124.336039,2146.597232,-8734.430116,-1225.752797
3124.336367,-444.123565,-10881.027347,842.705048
3124.336695,296.082377,-9696.697840,919.314598
3124.337022,814.226536,-8364.327145,-995.924147
3124.337350,-2146.597232,-11695.253884,536.266849
3124.337677,-2220.617826,-11769.274478,153.219100
3124.338005,370.102971,-6735.874072,-2911.162892
3124.338333,-222.061783,-8364.327145,-1532.190996
3124.338660,-1110.308913,-9770.718434,1302.362347
3124.338988,1628.453072,-7772.162391,-306.438199
3124.339316,2590.720797,-9622.677246,-1072.533697
3124.339643,666.185348,-11473.192101,1072.533697
3124.339971,1998.556043,-8808.450710,306.438199
3124.340298,814.226536,-8882.471304,0.000000
3124.340626,-814.226536,-11251.130318,1455.581446
3124.340954,666.185348,-9770.718434,-766.095498
3124.341281,518.144159,-10436.903782,-1838.629195
3124.341609,-1480.411884,-12435.459826,766.095498
3124.341937,-296.082377,-8512.368333,306.438199
3124.342264,814.226536,-7550.100608,-1608.800546
3124.342592,-1406.391290,-10658.965565,919.314598
3124.342919,0.000000,-8882.471304,1149.143247
3124.343247,1554.432478,-7031.956449,-2145.067394
3124.343575,-444.123565,-10436.903782,0.000000
3124.343902,-592.164754,-9178.553681,1072.533697
3124.344230,740.205942,-7550.100608,-2221.676944
3124.344557,-222.061783,-11029.068536,-229.828649
3124.344885,-370.102971,-11177.109724,612.876398
3124.345213,1554.432478,-9030.512492,-1378.971896
3124.345540,148.041188,-11843.295072,0.000000
3124.345868,-222.061783,-12361.439231,1378.971896
3124.346196,1406.391290,-7846.182985,-459.657299
3124.346523,-518.144159,-8216.285956,0.000000
3124.346851,-2368.659014,-9992.780217,2374.896044
3124.347178,74.020594,-8364.327145,-1532.190996
3124.347506,592.164754,-9400.615463,-3370.820191
3124.347834,-1110.308913,-11251.130318,-689.485948
3124.348161,592.164754,-8808.450710,-689.485948
3124.348489,1850.514855,-9252.574275,-1149.143247
3124.348817,0.000000,-11991.336260,1532.190996
3124.349144,2072.576638,-9844.739029,0.000000
3124.349472,2368.659014,-9548.656652,-2374.896044
3124.349799,0.000000,-12953.603985,1149.143247
3124.350127,0.000000,-9252.574275,612.876398
3124.350455,0.000000,-7105.977043,-766.095498
3124.350782,-1850.514855,-10436.903782,2528.115143
3124.351110,370.102971,-10288.862594,2145.067394
3124.351437,3256.906145,-8142.265362,-1608.800546
3124.351765,370.102971,-10658.965565,-459.657299
3124.352093,-962.267725,-10140.821405,0.000000
3124.352420,1258.350101,-6587.832884,-2298.286494
3124.352748,592.164754,-9326.594869,-689.485948
3124.353076,148.041188,-10510.924376,2221.676944
3124.353403,2516.700203,-7772.162391,1608.800546
3124.353731,1628.453072,-9474.636058,2145.067394
3124.354058,296.082377,-11991.336260,2451.505594
3124.354386,518.144159,-8808.450710,-306.438199
3124.354714,-962.267725,-8660.409521,-766.095498
3124.355041,-1332.370696,-10658.965565,229.828649
3124.355369,2220.617826,-8512.368333,-1685.410096
3124.355697,1702.473667,-8142.265362,-1608.800546
3124.356024,0.000000,-11103.089130,1302.362347
3124.356352,-148.041188,-8438.347739,-536.266849
3124.356679,370.102971,-8660.409521,-2604.724693
3124.357007,0.000000,-12731.542202,-459.657299
3124.357335,1702.473667,-11325.150913,689.485948
3124.357662,2368.659014,-9030.512492,-612.876398
3124.357990,1258.350101,-11843.295072,1225.752797
3124.358317,1184.329507,-11103.089130,1072.533697
3124.358645,74.020594,-7179.997637,-766.095498
3124.358973,-2590.720797,-10732.986159,76.609550
3124.359300,-2664.741391,-11177.109724,-612.876398
3124.359628,0.000000,-8364.327145,-3983.696590
3124.359956,-74.020594,-11843.295072,-3217.601092
3124.360283,-1258.350101,-11547.212695,383.047749
3124.360611,888.247130,-7698.141797,-612.876398
3124.360938,2072.576638,-9548.656652,-1302.362347
3124.361266,1258.350101,-11621.233289,383.047749
3124.361594,2368.659014,-8956.491898,-306.438199
3124.361921,1258.350101,-9400.615463,306.438199
3124.362249,-1702.473667,-11103.089130,3600.648841
3124.362577,-518.144159,-7476.080014,1685.410096
3124.362904,-1036.288319,-7105.977043,-1072.533697
3124.363232,-2738.761985,-12953.603985,459.657299
3124.363559,-740.205942,-11399.171507,-1532.190996
3124.363887,1184.329507,-8586.388927,-3753.867940
3124.364215,-1480.411884,-10140.821405,-1225.752797
3124.364542,-814.226536,-8586.388927,0.000000
3124.364870,1332.370696,-6217.729913,-383.047749
3124.365197,444.123565,-9252.574275,1378.971896
3124.365525,1258.350101,-8290.306550,2298.286494
3124.365853,2886.803174,-7031.956449,-459.657299
3124.366180,444.123565,-10807.006753,1532.190996
3124.366508,-666.185348,-11103.089130,3064.381992
3124.366836,444.123565,-7624.121203,-306.438199
3124.367163,-1036.288319,-10807.006753,-612.876398
3124.367491,-592.164754,-12805.562797,-306.438199
3124.367818,1554.432478,-8808.450710,-2604.724693
3124.368146,962.267725,-10881.027347,-1915.238745
3124.368474,-1258.350101,-12953.603985,1302.362347
3124.368801,74.020594,-7402.059420,-612.876398
3124.369129,148.041188,-6069.688724,-2604.724693
3124.369457,-1184.329507,-10362.883188,0.000000
3124.369784,222.061783,-8438.347739,0.000000
3124.370112,2368.659014,-8216.285956,229.828649
3124.370439,518.144159,-11917.315666,2374.896044
3124.370767,1332.370696,-10807.006753,1762.019645
3124.371095,1702.473667,-9030.512492,-689.485948
3124.371422,0.000000,-13471.748144,229.828649
3124.371750,962.267725,-13101.645173,-306.438199
3124.372077,2368.659014,-9474.636058,-3294.210641
3124.372405,-370.102971,-10881.027347,-612.876398
3124.372733,-1036.288319,-10510.924376,1149.143247
3124.373060,888.247130,-6661.853478,-1302.362347
3124.373388,74.020594,-8216.285956,-536.266849
3124.373716,-1998.556043,-8290.306550,1608.800546
3124.374043,-518.144159,-6365.771101,-153.219100
3124.374371,-1850.514855,-9178.553681,-536.266849
3124.374698,-2368.659014,-10658.965565,1302.362347
3124.375026,296.082377,-7550.100608,-383.047749
3124.375354,1332.370696,-11029.068536,-383.047749
3124.375681,592.164754,-14582.057057,2834.553343
3124.376009,2294.638420,-11029.068536,842.705048
3124.376337,1776.494261,-9548.656652,-995.924147
3124.376664,-814.226536,-12361.439231,0.000000
3124.376992,0.000000,-7550.100608,-1455.581446
3124.377319,0.000000,-5255.462188,-2834.553343
3124.377647,-2294.638420,-8882.471304,689.485948
3124.377975,-222.061783,-7105.977043,766.095498
3124.378302,1998.556043,-7105.977043,-842.705048
3124.378630,592.164754,-11695.253884,1762.019645
3124.378957,888.247130,-10140.821405,1532.190996
3124.379285,2146.597232,-7328.038826,-689.485948
3124.379613,296.082377,-11621.233289,153.219100
3124.379940,444.123565,-13101.645173,919.314598
3124.380268,1480.411884,-9844.739029,-1532.190996
3124.380596,-296.082377,-11177.109724,-1225.752797
3124.380923,-1036.288319,-12139.377449,-1072.533697
3124.381251,962.267725,-8882.471304,-3753.867940
3124.381578,74.020594,-9770.718434,-2757.943793
3124.381906,-1184.329507,-11029.068536,-306.438199
3124.382234,2072.576638,-6365.771101,-1455.581446
3124.382561,2664.741391,-7772.162391,-536.266849
3124.382889,814.226536,-10140.821405,3677.258390
3124.383217,2590.720797,-6365.771101,3140.991542
3124.383544,1998.556043,-7402.059420,1302.362347
3124.383872,0.000000,-13249.686362,1991.848295
3124.384199,962.267725,-11695.253884,-153.219100
3124.384527,2590.720797,-9770.718434,-2681.334243
3124.384855,0.000000,-13767.830521,-536.266849
3124.385182,-296.082377,-12361.439231,-689.485948
3124.385510,2368.659014,-8364.327145,-4060.306139
3124.385837,0.000000,-10436.903782,-2068.457845
3124.386165,-666.185348,-8956.491898,612.876398
3124.386493,296.082377,-5255.462188,-919.314598
3124.386820,-740.205942,-7846.182985,1762.019645
3124.387148,0.000000,-9622.677246,3447.429741
3124.387476,2294.638420,-7476.080014,612.876398
3124.387803,592.164754,-9622.677246,2068.457845
3124.388131,74.020594,-11547.212695,3753.867940
3124.388458,1258.350101,-9178.553681,-1532.190996
3124.388786,-1184.329507,-11843.295072,-2604.724693
3124.389114,-3997.112087,-13249.686362,-612.876398
3124.389441,-1184.329507,-8216.285956,-3677.258390
3124.389769,0.000000,-9474.636058,-4290.134789
3124.390097,-1554.432478,-12361.439231,153.219100
3124.390424,0.000000,-8290.306550,-459.657299
3124.390752,1036.288319,-7031.956449,-995.924147
3124.391079,-740.205942,-10214.842000,2298.286494
3124.391407,-148.041188,-7105.977043,1302.362347
3124.391735,518.144159,-5477.523971,-153.219100
3124.392062,-1184.329507,-11029.068536,2604.724693
3124.392390,148.041188,-11769.274478,1762.019645
3124.392717,1554.432478,-9844.739029,-1302.362347
3124.393045,-1480.411884,-13619.789333,-229.828649
3124.393373,-1332.370696,-12139.377449,-1225.752797
3124.393700,888.247130,-8142.265362,-4519.963438
3124.394028,-1184.329507,-10955.047942,-1762.019645
3124.394356,-1184.329507,-10362.883188,306.438199
3124.394683,1184.329507,-5847.626942,-1302.362347
3124.395011,296.082377,-8290.306550,995.924147
3124.395338,-1628.453072,-9474.636058,3907.087040
3124.395666,518.144159,-5995.668130,1455.581446
3124.395994,148.041188,-7402.059420,-306.438199
3124.396321,-592.164754,-12509.480420,995.924147
3124.396649,962.267725,-10732.986159,-995.924147
3124.396977,1036.288319,-10732.986159,-1838.629195
3124.397304,-962.267725,-13323.706956,306.438199
3124.397632,740.205942,-9622.677246,-766.095498
3124.397959,1480.411884,-8364.327145,-1991.848295
3124.398287,-296.082377,-11325.150913,383.047749
3124.398615,1406.391290,-8660.409521,-919.314598
3124.398942,1998.556043,-7105.977043,-1915.238745
3124.399270,-1184.329507,-10066.800811,2145.067394
3124.399597,-1332.370696,-7994.224174,2298.286494
3124.399925,0.000000,-5921.647536,-612.876398
3124.400253,-370.102971,-10362.883188,-689.485948
3124.400580,888.247130,-12213.398043,0.000000
3124.400908,3627.009116,-11917.315666,-1838.629195
3124.401236,2664.741391,-14211.954086,0.000000
3124.401563,1332.370696,-12805.562797,689.485948
3124.401891,2516.700203,-7772.162391,-1455.581446
3124.402218,1480.411884,-9548.656652,-689.485948
3124.402546,-666.185348,-10584.944971,612.876398
3124.402874,888.247130,-6217.729913,-842.705048
3124.403201,1036.288319,-7179.997637,-1455.581446
3124.403529,-296.082377,-10066.800811,1685.410096
3124.403857,666.185348,-6957.935855,1532.190996
3124.404184,1554.432478,-6957.935855,1532.190996
3124.404512,1406.391290,-11843.295072,1532.190996
3124.404839,2368.659014,-10881.027347,153.219100
3124.405167,2072.576638,-10362.883188,-1685.410096
3124.405495,-740.205942,-12731.542202,1302.362347
3124.405822,-296.082377,-9992.780217,612.876398
3124.406150,296.082377,-7254.018232,-1991.848295
3124.406477,-1628.453072,-11251.130318,-306.438199
3124.406805,-1924.535449,-9622.677246,153.219100
3124.407133,1406.391290,-7624.121203,-2451.505594
3124.407460,0.000000,-10140.821405,-842.705048
3124.407788,-1110.308913,-8586.388927,1225.752797
3124.408116,74.020594,-4737.318029,0.000000
3124.408443,-370.102971,-7994.224174,995.924147
3124.408771,-518.144159,-12139.377449,2221.676944
3124.409098,888.247130,-11695.253884,229.828649
3124.409426,592.164754,-12065.356855,-459.657299
3124.409754,-444.123565,-13027.624579,1072.533697
3124.410081,814.226536,-9474.636058,-919.314598
3124.410409,-592.164754,-9622.677246,-1685.410096
3124.410737,-2368.659014,-12287.418637,-229.828649
3124.411064,0.000000,-7698.141797,-2834.553343
3124.411392,222.061783,-8068.244768,-3524.039291
3124.411719,-2220.617826,-10658.965565,76.609550
3124.412047,-1924.535449,-7772.162391,1378.971896
3124.412375,814.226536,-6661.853478,0.000000
3124.412702,1184.329507,-12361.439231,1072.533697
3124.413030,2072.576638,-13175.665768,1685.410096
3124.413357,3182.885551,-9474.636058,-995.924147
3124.413685,888.247130,-10955.047942,1378.971896
3124.414013,-296.082377,-10066.800811,459.657299
3124.414340,-592.164754,-7846.182985,-1762.019645
3124.414668,-2146.597232,-10214.842000,-689.485948
3124.414996,-1480.411884,-10214.842000,-306.438199
3124.415323,740.205942,-6735.874072,-2987.772442
3124.415651,222.061783,-9474.636058,-1225.752797
3124.415978,-1258.350101,-10362.883188,1838.629195
3124.416306,1480.411884,-6957.935855,0.000000
3124.416634,2442.679609,-7772.162391,-459.657299
3124.416961,1554.432478,-10881.027347,2298.286494
3124.417289,2664.741391,-8956.491898,1838.629195
3124.417617,3330.926739,-9622.677246,1378.971896
3124.417944,1036.288319,-12509.480420,2528.115143
3124.418272,74.020594,-9030.512492,536.266849
3124.418599,-518.144159,-7772.162391,-2528.115143
3124.418927,-2590.720797,-11473.192101,-1762.019645
3124.419255,-370.102971,-9326.594869,-2451.505594
3124.419582,1406.391290,-7624.121203,-3447.429741
3124.419910,-222.061783,-11251.130318,76.609550
3124.420237,0.000000,-8882.471304,2298.286494
3124.420565,2590.720797,-6217.729913,-612.876398
3124.420893,2294.638420,-10140.821405,766.095498
3124.421220,1184.329507,-11843.295072,1838.629195
3124.421548,2812.782580,-9474.636058,-459.657299
3124.421876,1184.329507,-11917.315666,0.000000
3124.422203,-592.164754,-12213.398043,536.266849
3124.422531,296.082377,-8512.368333,-2451.505594
3124.422858,-222.061783,-11325.150913,-1838.629195
3124.423186,-814.226536,-12953.603985,-383.047749
3124.423514,1554.432478,-8734.430116,-2145.067394
3124.423841,1110.308913,-8808.450710,-1608.800546
3124.424169,-1258.350101,-10658.965565,2145.067394
3124.424497,444.123565,-6735.874072,1149.143247
3124.424824,0.000000,-5477.523971,0.000000
3124.425152,-1332.370696,-9992.780217,2298.286494
3124.425479,0.000000,-9474.636058,153.219100
3124.425807,222.061783,-9474.636058,-1991.848295
3124.426135,-296.082377,-13323.706956,229.828649
3124.426462,814.226536,-11399.171507,-306.438199
3124.426790,1406.391290,-9252.574275,-1149.143247
3124.427117,-518.144159,-12139.377449,459.657299
3124.427445,-740.205942,-9770.718434,306.438199
3124.427773,518.144159,-6291.750507,-2221.676944
3124.428100,-740.205942,-9400.615463,0.000000
3124.428428,-1480.411884,-8512.368333,2068.457845
3124.428756,444.123565,-4071.132681,229.828649
3124.429083,444.123565,-7179.997637,689.485948
3124.429411,-666.185348,-10881.027347,2451.505594
3124.429738,1924.535449,-9844.739029,-766.095498
3124.430066,2072.576638,-11251.130318,-1915.238745
3124.430394,74.020594,-13027.624579,153.219100
3124.430721,0.000000,-10066.800811,-1608.800546
3124.431049,0.000000,-10584.944971,-1915.238745
3124.431376,-2072.576638,-11769.274478,459.657299
3124.431704,0.000000,-8586.388927,-383.047749
3124.432031,962.267725,-8438.347739,-1532.190996
3124.432359,-666.185348,-11177.109724,459.657299
3124.432687,222.061783,-8808.450710,0.000000
3124.433014,1776.494261,-7105.977043,-1991.848295
3124.433342,814.226536,-10362.883188,383.047749
3124.433669,1702.473667,-9474.636058,229.828649
3124.433997,2442.679609,-8216.285956,-1225.752797
3124.434324,74.020594,-12509.480420,306.438199
3124.434652,-592.164754,-13323.706956,383.047749
3124.434979,2146.597232,-9622.677246,-2604.724693
3124.435307,666.185348,-10658.965565,-919.314598
3124.435634,-222.061783,-10732.986159,2145.067394
3124.435962,1406.391290,-8142.265362,459.657299
3124.436289,888.247130,-9918.759623,-306.438199
3124.436617,-296.082377,-9474.636058,842.705048
3124.436945,-518.144159,-5181.441594,-1149.143247
3124.437272,-962.267725,-7402.059420,-459.657299
3124.437600,-962.267725,-11325.150913,1302.362347
3124.437927,1406.391290,-9400.615463,-919.314598
3124.438255,2146.597232,-10807.006753,-1532.190996
3124.438582,1850.514855,-14508.036463,1455.581446
3124.438910,2516.700203,-10584.944971,306.438199
3124.439237,1850.514855,-8364.327145,-1072.533697
3124.439565,-1110.308913,-9770.718434,689.485948
3124.439892,-1480.411884,-7698.141797,0.000000
3124.440220,-222.061783,-7772.162391,-1302.362347
3124.440547,-1406.391290,-10807.006753,995.924147
3124.440875,-2220.617826,-7920.203579,1072.533697
3124.441203,1036.288319,-7179.997637,-1838.629195
3124.441530,0.000000,-11029.068536,-1608.800546
3124.441858,74.020594,-12139.377449,-306.438199
3124.442185,1776.494261,-8734.430116,-2068.457845
3124.442513,1998.556043,-11103.089130,-842.705048
3124.442840,1554.432478,-13175.665768,1302.362347
3124.443168,1850.514855,-9400.615463,-229.828649
3124.443495,0.000000,-9622.677246,1455.581446
3124.443823,-1480.411884,-10436.903782,1302.362347
3124.444150,-444.123565,-8956.491898,-1455.581446
3124.444478,-1110.308913,-9696.697840,-1991.848295
3124.444805,-2442.679609,-9770.718434,229.828649
3124.445133,-1184.329507,-6291.750507,-459.657299
3124.445461,888.247130,-7476.080014,-766.095498
3124.445788,296.082377,-11843.295072,306.438199
3124.446116,1332.370696,-10436.903782,995.924147
3124.446443,1924.535449,-9326.594869,-689.485948
3124.446771,666.185348,-11991.336260,153.219100
3124.447098,0.000000,-10140.821405,459.657299
3124.447426,518.144159,-8290.306550,-689.485948
3124.447753,-222.061783,-9696.697840,1532.190996
3124.448081,-296.082377,-8808.450710,1149.143247
3124.448408,444.123565,-9030.512492,-383.047749
3124.448736,-592.164754,-11103.089130,689.485948
3124.449063,-1776.494261,-8734.430116,842.705048
3124.449391,0.000000,-6143.709319,-1225.752797
3124.449719,666.185348,-9622.677246,-536.266849
3124.450046,1480.411884,-11029.068536,842.705048
3124.450374,3108.864956,-9400.615463,76.609550
3124.450701,2516.700203,-10066.800811,0.000000
3124.451029,-740.205942,-10658.965565,842.705048
3124.451356,-592.164754,-9178.553681,-1455.581446
3124.451684,-1110.308913,-9622.677246,-1915.238745
3124.452011,-1110.308913,-11547.212695,-306.438199
3124.452339,888.247130,-8882.471304,-1225.752797
3124.452666,1628.453072,-10807.006753,306.438199
3124.452994,814.226536,-12583.501014,2834.553343
3124.453321,1036.288319,-8586.388927,459.657299
3124.453649,666.185348,-7328.038826,-1225.752797
3124.453977,518.144159,-11029.068536,0.000000
3124.454304,1850.514855,-10066.800811,-995.924147
3124.454632,2812.782580,-8216.285956,-1532.190996
3124.454959,962.267725,-11103.089130,1072.533697
3124.455287,0.000000,-10140.821405,1762.019645
3124.455614,1036.288319,-8068.244768,-766.095498
3124.455942,296.082377,-10732.986159,-995.924147
3124.456269,0.000000,-11251.130318,-536.266849
3124.456597,1332.370696,-8808.450710,-995.924147
3124.456924,222.061783,-10658.965565,919.314598
3124.457252,-1850.514855,-9770.718434,2757.943793
3124.457579,-444.123565,-5921.647536,919.314598
3124.457907,0.000000,-7846.182985,842.705048
3124.458235,-148.041188,-11177.109724,1149.143247
3124.458562,1998.556043,-9474.636058,-2145.067394
3124.458890,2590.720797,-10362.883188,-2911.162892
3124.459217,740.205942,-11325.150913,-1072.533697
3124.459545,592.164754,-7476.080014,-689.485948
3124.459872,0.000000,-7105.977043,0.000000
3124.460200,-1406.391290,-10140.821405,919.314598
3124.460527,-962.267725,-9104.533087,-153.219100
3124.460855,518.144159,-10140.821405,-612.876398
3124.461182,0.000000,-12509.480420,1915.238745
3124.461510,0.000000,-9844.739029,2451.505594
3124.461837,666.185348,-7476.080014,689.485948
3124.462165,592.164754,-10732.986159,-536.266849
3124.462493,296.082377,-10214.842000,-1225.752797
3124.462820,888.247130,-8142.265362,-2604.724693
3124.463148,-666.185348,-10955.047942,-2145.067394
3124.463475,-1110.308913,-11547.212695,-1302.362347
3124.463803,-296.082377,-8882.471304,-2528.115143
3124.464130,0.000000,-10066.800811,-1302.362347
3124.464458,0.000000,-11325.150913,1225.752797
3124.464785,1406.391290,-9696.697840,383.047749
3124.465113,592.164754,-10140.821405,536.266849
3124.465440,-888.247130,-9844.739029,2298.286494
3124.465768,-962.267725,-7105.977043,1149.143247
3124.466096,-444.123565,-7920.203579,689.485948
3124.466423,-1776.494261,-11177.109724,1302.362347
3124.466751,666.185348,-9178.553681,-919.314598
3124.467078,1554.432478,-9548.656652,-3370.820191
3124.467406,-222.061783,-12213.398043,-1302.362347
3124.467733,-370.102971,-10436.903782,-1762.019645
3124.468061,1036.288319,-8512.368333,-2681.334243
3124.468388,444.123565,-9992.780217,229.828649
3124.468716,592.164754,-9252.574275,1455.581446
3124.469043,1110.308913,-8216.285956,1762.019645
3124.469371,1258.350101,-9474.636058,3524.039291
3124.469698,-296.082377,-8438.347739,3753.867940
3124.470026,-444.123565,-8216.285956,1915.238745
3124.470354,-1406.391290,-9918.759623,536.266849
3124.470681,0.000000,-10288.862594,-1302.362347
3124.471009,1184.329507,-7994.224174,-3600.648841
3124.471336,888.247130,-10955.047942,-3524.039291
3124.471664,-296.082377,-11621.233289,-459.657299
3124.471991,1480.411884,-8364.327145,-1762.019645
3124.472319,1110.308913,-9548.656652,-1378.971896
3124.472646,370.102971,-11251.130318,842.705048
3124.472974,740.205942,-7624.121203,612.876398
3124.473301,1110.308913,-7698.141797,1072.533697
3124.473629,296.082377,-10955.047942,2604.724693
3124.473956,222.061783,-9770.718434,1302.362347
3124.474284,222.061783,-9474.636058,76.609550
3124.474612,74.020594,-11917.315666,-153.219100
3124.474939,74.020594,-10288.862594,-2221.676944
3124.475267,1110.308913,-9992.780217,-3370.820191
3124.475594,740.205942,-12657.521608,-1608.800546
3124.475922,444.123565,-9622.677246,-1378.971896
3124.476249,2368.659014,-8882.471304,-2145.067394
3124.476577,666.185348,-9992.780217,0.000000
3124.476904,-1332.370696,-8586.388927,1838.629195
3124.477232,-888.247130,-6365.771101,229.828649
3124.477559,-1036.288319,-10140.821405,0.000000
3124.477887,-1406.391290,-11029.068536,689.485948
3124.478214,518.144159,-8512.368333,459.657299
3124.478542,666.185348,-11325.150913,1608.800546
3124.478870,1554.432478,-13767.830521,2298.286494
3124.479197,2368.659014,-10214.842000,-1149.143247
3124.479525,814.226536,-10140.821405,-2451.505594
3124.479852,-296.082377,-10436.903782,-1762.019645
3124.480180,222.061783,-6809.894666,-2451.505594
3124.480507,592.164754,-7698.141797,-1149.143247
3124.480835,-1554.432478,-9030.512492,1455.581446
3124.481162,-74.020594,-6661.853478,1378.971896
3124.481490,888.247130,-7476.080014,995.924147
3124.481817,0.000000,-11547.212695,2374.896044
3124.482145,-814.226536,-9548.656652,1608.800546
3124.482472,962.267725,-8068.244768,76.609550
3124.482800,1110.308913,-11621.233289,76.609550
3124.483128,74.020594,-11695.253884,383.047749
3124.483455,444.123565,-8956.491898,-689.485948
3124.483783,370.102971,-11843.295072,-306.438199
3124.484110,0.000000,-11843.295072,-689.485948
3124.484438,592.164754,-8808.450710,-3524.039291
3124.484765,-1110.308913,-9696.697840,-2834.553343
3124.485093,-814.226536,-9104.533087,-842.705048
3124.485420,740.205942,-6143.709319,-383.047749
3124.485748,444.123565,-8438.347739,1072.533697
3124.486075,-1702.473667,-10732.986159,2757.943793
3124.486403,-888.247130,-8956.491898,1072.533697
3124.486730,814.226536,-10066.800811,-536.266849
3124.487058,1628.453072,-12805.562797,536.266849
3124.487386,1924.535449,-11325.150913,536.266849
3124.487713,1850.514855,-11473.192101,76.609550
3124.488041,1258.350101,-12139.377449,-383.047749
3124.488368,1554.432478,-9326.594869,-2757.943793
3124.488696,370.102971,-7994.224174,-3830.477490
3124.489023,-2442.679609,-9400.615463,-1225.752797
3124.489351,-2294.638420,-7402.059420,0.000000
3124.489678,-592.164754,-7105.977043,-1225.752797
3124.490006,-370.102971,-10658.965565,612.876398
3124.490333,-592.164754,-9474.636058,2068.457845
3124.490661,814.226536,-7920.203579,2068.457845
3124.490988,1554.432478,-11103.089130,2374.896044
3124.491316,1998.556043,-12139.377449,1378.971896
3124.491644,2294.638420,-9252.574275,-995.924147
3124.491971,0.000000,-10584.944971,229.828649
3124.492299,-666.185348,-10436.903782,-459.657299
3124.492626,0.000000,-7920.203579,-3140.991542
3124.492954,-888.247130,-9770.718434,-2451.505594
3124.493281,-2146.597232,-9992.780217,-1225.752797
3124.493609,-592.164754,-7179.997637,-2681.334243
3124.493936,74.020594,-7846.182985,-536.266849
3124.494264,444.123565,-10288.862594,1991.848295
3124.494591,962.267725,-8216.285956,1991.848295
3124.494919,1776.494261,-8364.327145,2145.067394
3124.495246,1258.350101,-11695.253884,2757.943793
3124.495574,2146.597232,-11917.315666,1072.533697
3124.495902,2368.659014,-10732.986159,-612.876398
3124.496229,222.061783,-13027.624579,-612.876398
3124.496557,-370.102971,-10362.883188,-1608.800546
3124.496884,-222.061783,-8882.471304,-4443.353888
3124.497212,-1628.453072,-10362.883188,-2834.553343
3124.497539,-1110.308913,-8808.450710,-1915.238745
3124.497867,222.061783,-7402.059420,-1532.190996
3124.498194,-518.144159,-10362.883188,842.705048
3124.498522,-1332.370696,-9474.636058,2604.724693
3124.498849,296.082377,-6587.832884,1378.971896
3124.499177,1554.432478,-9252.574275,842.705048
3124.499504,1406.391290,-11917.315666,1838.629195
3124.499832,1776.494261,-10362.883188,1225.752797
3124.500160,1998.556043,-10881.027347,0.000000
3124.500487,592.164754,-11991.336260,-306.438199
3124.500815,222.061783,-9844.739029,-2068.457845
3124.501142,-1480.411884,-8734.430116,-2221.676944
3124.501470,-444.123565,-9992.780217,-995.924147
3124.501797,222.061783,-8068.244768,-1072.533697
3124.502125,-296.082377,-8660.409521,76.609550
3124.502452,-3034.844362,-8956.491898,2298.286494
3124.502780,-2738.761985,-6143.709319,842.705048
3124.503107,-666.185348,-6661.853478,-842.705048
3124.503435,888.247130,-11325.150913,383.047749
3124.503762,1776.494261,-10955.047942,995.924147
3124.504090,2664.741391,-10732.986159,766.095498
3124.504418,2368.659014,-13693.809927,766.095498
3124.504745,2072.576638,-12953.603985,-1072.533697
3124.505073,296.082377,-9770.718434,-2528.115143
3124.505400,-740.205942,-9992.780217,-2221.676944
3124.505728,-1110.308913,-8660.409521,-2528.115143
3124.506055,0.000000,-7698.141797,-2604.724693
3124.506383,0.000000,-9474.636058,536.266849
3124.506710,-148.041188,-8956.491898,2681.334243
3124.507038,962.267725,-6661.853478,1991.848295
3124.507365,1628.453072,-9030.512492,229.828649
3124.507693,1332.370696,-12065.356855,229.828649
3124.508020,1554.432478,-9548.656652,-995.924147
3124.508348,2072.576638,-10658.965565,-689.485948
3124.508676,1184.329507,-12805.562797,153.219100
3124.509003,592.164754,-10214.842000,-689.485948
3124.509331,222.061783,-10214.842000,-842.705048
3124.509658,-444.123565,-11695.253884,-306.438199
3124.509986,0.000000,-9696.697840,-2451.505594
3124.510313,0.000000,-7402.059420,-2451.505594
3124.510641,-666.185348,-8586.388927,0.000000
3124.510968,0.000000,-6513.812290,919.314598
3124.511296,740.205942,-4959.379811,1762.019645
3124.511623,666.185348,-9474.636058,2757.943793
3124.511951,296.082377,-11621.233289,2145.067394
3124.512278,1702.473667,-10140.821405,-383.047749
3124.512606,1702.473667,-12213.398043,-919.314598
3124.512934,814.226536,-12657.521608,-306.438199
3124.513261,1036.288319,-9326.594869,-1302.362347
3124.513589,1036.288319,-10658.965565,-1302.362347
3124.513916,370.102971,-10658.965565,-612.876398
3124.514244,814.226536,-7624.121203,-1378.971896
3124.514571,-814.226536,-8882.471304,-689.485948
3124.514899,-2516.700203,-8808.450710,459.657299
3124.515226,-1184.329507,-6661.853478,-689.485948
3124.515554,0.000000,-8216.285956,-1072.533697
3124.515881,296.082377,-11843.295072,689.485948
3124.516209,1628.453072,-10436.903782,919.314598
3124.516536,2664.741391,-10362.883188,229.828649
3124.516864,1036.288319,-12287.418637,1378.971896
3124.517192,1110.308913,-10584.944971,-689.485948
3124.517519,148.041188,-8734.430116,-1378.971896
3124.517847,-666.185348,-11399.171507,-995.924147
3124.518174,-962.267725,-10288.862594,-919.314598
3124.518502,-814.226536,-8438.347739,-1838.629195
3124.518829,-1628.453072,-9770.718434,-536.266849
3124.519157,-1850.514855,-7920.203579,306.438199
3124.519484,-1036.288319,-6217.729913,-1762.019645
3124.519812,-296.082377,-10214.842000,383.047749
3124.520139,1702.473667,-11177.109724,1378.971896
3124.520467,2664.741391,-8956.491898,919.314598
3124.520794,1036.288319,-10214.842000,1532.190996
3124.521122,222.061783,-11547.212695,1762.019645
3124.521450,592.164754,-9474.636058,-229.828649
3124.521777,222.061783,-9474.636058,-842.705048
3124.522105,-222.061783,-10807.006753,-383.047749
3124.522432,518.144159,-8808.450710,-1225.752797
3124.522760,296.082377,-7994.224174,-1225.752797
3124.523087,-1702.473667,-9622.677246,612.876398
3124.523415,-1480.411884,-6439.791695,0.000000
3124.523742,0.000000,-6957.935855,-1225.752797
3124.524070,592.164754,-11029.068536,536.266849
3124.524397,1110.308913,-9326.594869,229.828649
3124.524725,1998.556043,-9178.553681,153.219100
3124.525053,1702.473667,-12731.542202,1685.410096
3124.525380,962.267725,-11399.171507,536.266849
3124.525708,1110.308913,-9030.512492,-1532.190996
3124.526035,370.102971,-10362.883188,-1225.752797
3124.526363,74.020594,-9844.739029,-766.095498
3124.526690,444.123565,-9252.574275,-1762.019645
3124.527018,518.144159,-10288.862594,-612.876398
3124.527345,-1332.370696,-9104.533087,536.266849
3124.527673,-888.247130,-7328.038826,76.609550
3124.528000,-1406.391290,-9770.718434,0.000000
3124.528328,-1776.494261,-10955.047942,-306.438199
3124.528655,740.205942,-8438.347739,-2451.505594
3124.528983,2072.576638,-10362.883188,-1302.362347
3124.529311,1480.411884,-13767.830521,1762.019645
3124.529638,2294.638420,-10732.986159,689.485948
3124.529966,1480.411884,-10140.821405,0.000000
3124.530293,-370.102971,-10955.047942,383.047749
3124.530621,-444.123565,-9844.739029,-3064.381992
3124.530948,-1110.308913,-8438.347739,-1532.190996
3124.531276,-1480.411884,-9252.574275,-229.828649
3124.531603,-592.164754,-8142.265362,0.000000
3124.531931,74.020594,-7402.059420,842.705048
3124.532258,1036.288319,-9770.718434,2374.896044
3124.532586,2442.679609,-9252.574275,1762.019645
3124.532914,3034.844362,-8290.306550,-612.876398
3124.533241,1036.288319,-11103.089130,306.438199
3124.533569,444.123565,-9770.718434,-153.219100
3124.533896,740.205942,-7846.182985,-1225.752797
3124.534224,1036.288319,-11029.068536,0.000000
3124.534552,222.061783,-10807.006753,1149.143247
3124.534879,74.020594,-8660.409521,1225.752797
3124.535207,0.000000,-11103.089130,-229.828649
3124.535535,-592.164754,-11547.212695,0.000000
3124.535862,-888.247130,-7254.018232,-1608.800546
3124.536190,-666.185348,-7402.059420,-1762.019645
3124.536517,518.144159,-8660.409521,0.000000
3124.536845,1776.494261,-6883.915261,76.609550
3124.537173,518.144159,-9918.759623,766.095498
3124.537500,-888.247130,-14137.933492,1455.581446
3124.537828,962.267725,-10732.986159,-2681.334243
3124.538155,1554.432478,-9696.697840,-3217.601092
3124.538483,518.144159,-13101.645173,-1149.143247
3124.538811,74.020594,-11843.295072,0.000000
3124.539138,962.267725,-10288.862594,-306.438199
3124.539466,666.185348,-10584.944971,306.438199
3124.539793,-296.082377,-9178.553681,-306.438199
3124.540121,-1258.350101,-6809.894666,0.000000
3124.540449,-2146.597232,-7624.121203,612.876398
3124.540776,-1406.391290,-9326.594869,0.000000
3124.541104,1036.288319,-8364.327145,-2298.286494
3124.541432,1184.329507,-11029.068536,-459.657299
3124.541759,518.144159,-11843.295072,1225.752797
3124.542087,1258.350101,-9252.574275,76.609550
3124.542414,1776.494261,-10955.047942,-1915.238745
3124.542742,444.123565,-11621.233289,-612.876398
3124.543070,222.061783,-8882.471304,-383.047749
3124.543397,148.041188,-8808.450710,689.485948
3124.543725,-592.164754,-9696.697840,2451.505594
3124.544052,-962.267725,-8068.244768,1608.800546
3124.544380,-1776.494261,-7846.182985,153.219100
3124.544708,-1184.329507,-8808.450710,-766.095498
3124.545035,148.041188,-6439.791695,-2451.505594
3124.545363,1110.308913,-8142.265362,-2298.286494
3124.545691,444.123565,-11621.233289,-153.219100
3124.546018,222.061783,-9770.718434,229.828649
3124.546346,1258.350101,-8438.347739,-383.047749
3124.546673,1258.350101,-11325.150913,459.657299
3124.547001,444.123565,-11473.192101,1378.971896
3124.547329,1184.329507,-9844.739029,0.000000
3124.547656,296.082377,-11917.315666,383.047749
3124.547984,-222.061783,-10658.965565,0.000000
3124.548311,-888.247130,-7105.977043,-995.924147
3124.548639,-592.164754,-8438.347739,-536.266849
3124.548967,-740.205942,-10066.800811,0.000000
3124.549294,222.061783,-9844.739029,-1532.190996
3124.549622,-296.082377,-10362.883188,-1762.019645
3124.549950,-1036.288319,-10658.965565,-842.705048
3124.550277,296.082377,-8660.409521,-1532.190996
3124.550605,888.247130,-9770.718434,-995.924147
3124.550932,962.267725,-11473.192101,459.657299
3124.551260,1776.494261,-9696.697840,0.000000
3124.551588,1406.391290,-10584.944971,1302.362347
3124.551915,2146.597232,-11991.336260,2604.724693
3124.552243,666.185348,-9252.574275,1149.143247
3124.552570,444.123565,-7254.018232,0.000000
3124.552898,-148.041188,-9326.594869,536.266849
3124.553226,-296.082377,-9770.718434,0.000000
3124.553553,0.000000,-8956.491898,-1762.019645
3124.553881,-1258.350101,-11177.109724,-1149.143247
3124.554209,-592.164754,-7624.121203,-2298.286494
3124.554536,666.185348,-7328.038826,-2528.115143
3124.554864,370.102971,-11473.192101,306.438199
3124.555191,2072.576638,-10955.047942,2068.457845
3124.555519,2294.638420,-8808.450710,1072.533697
3124.555847,1110.308913,-11251.130318,1378.971896
3124.556174,0.000000,-10288.862594,612.876398
3124.556502,-222.061783,-7179.997637,-459.657299
3124.556829,-888.247130,-8142.265362,-383.047749
3124.557157,-592.164754,-10288.862594,0.000000
3124.557485,1628.453072,-9770.718434,-1072.533697
3124.557812,2220.617826,-11251.130318,-612.876398
3124.558140,592.164754,-11473.192101,229.828649
3124.558468,0.000000,-7254.018232,-766.095498
3124.558795,0.000000,-7402.059420,-2221.676944
3124.559123,-962.267725,-10658.965565,-383.047749
3124.559450,-1036.288319,-9252.574275,0.000000
3124.559778,74.020594,-9178.553681,689.485948
3124.560106,666.185348,-11843.295072,2221.676944
3124.560433,518.144159,-11621.233289,1608.800546
3124.560761,222.061783,-9104.533087,-1149.143247
3124.561088,148.041188,-10732.986159,-689.485948
3124.561416,1406.391290,-10955.047942,-1302.362347
3124.561744,2220.617826,-8882.471304,-1762.019645
3124.562071,814.226536,-9844.739029,766.095498
3124.562399,-888.247130,-8068.244768,1455.581446
3124.562726,-1258.350101,-6069.688724,-536.266849
3124.563054,-2368.659014,-9252.574275,-2451.505594
3124.563382,-1998.556043,-10658.965565,-1991.848295
3124.563709,-148.041188,-8142.265362,-995.924147
3124.564037,1332.370696,-10732.986159,995.924147
3124.564365,814.226536,-12583.501014,2451.505594
3124.564692,888.247130,-9104.533087,1149.143247
3124.565020,814.226536,-8808.450710,0.000000
3124.565347,666.185348,-10214.842000,76.609550
3124.565675,740.205942,-9474.636058,-1455.581446
3124.566003,814.226536,-9104.533087,-1532.190996
3124.566330,296.082377,-10807.006753,-383.047749
3124.566658,0.000000,-8808.450710,-995.924147
3124.566985,444.123565,-7846.182985,-1838.629195
3124.567313,-296.082377,-9696.697840,0.000000
3124.567641,0.000000,-9622.677246,-995.924147
3124.567968,-370.102971,-8956.491898,-1072.533697
3124.568296,-1406.391290,-11103.089130,842.705048
3124.568624,-592.164754,-9474.636058,919.314598
3124.568951,444.123565,-8216.285956,919.314598
3124.569279,1628.453072,-11769.274478,2068.457845
3124.569606,2886.803174,-12731.542202,1225.752797
3124.569934,2590.720797,-10658.965565,-459.657299
3124.570262,1406.391290,-11103.089130,-2068.457845
3124.570589,444.123565,-9844.739029,-1762.019645
3124.570917,-296.082377,-6365.771101,-2298.286494
3124.571244,-1036.288319,-9178.553681,-1762.019645
3124.571572,-1480.411884,-11547.212695,-306.438199
3124.571900,-296.082377,-7846.182985,-689.485948
3124.572227,222.061783,-9030.512492,153.219100
3124.572555,-1184.329507,-10807.006753,2451.505594
3124.572883,444.123565,-8586.388927,1608.800546
3124.573210,962.267725,-9104.533087,1225.752797
3124.573538,1850.514855,-12065.356855,1378.971896
3124.573865,2516.700203,-9696.697840,306.438199
3124.574193,2294.638420,-8068.244768,-689.485948
3124.574521,0.000000,-11177.109724,919.314598
3124.574848,-814.226536,-9474.636058,-919.314598
3124.575176,-962.267725,-7105.977043,-3064.381992
3124.575503,-1776.494261,-10510.924376,-2374.896044
3124.575831,-2220.617826,-9992.780217,-1915.238745
3124.576159,-1258.350101,-7105.977043,-1608.800546
3124.576486,-296.082377,-9474.636058,1302.362347
3124.576814,-222.061783,-9548.656652,2528.115143
3124.577142,1110.308913,-8142.265362,2221.676944
3124.577469,1036.288319,-10214.842000,2145.067394
3124.577797,1850.514855,-11843.295072,1838.629195
3124.578124,3478.967927,-10066.800811,-1608.800546
3124.578452,1628.453072,-10807.006753,-1225.752797
3124.578780,888.247130,-11547.212695,-766.095498
3124.579107,-740.205942,-7402.059420,-995.924147
3124.579435,-1258.350101,-9400.615463,-2145.067394
3124.579762,-2590.720797,-11769.274478,-2451.505594
3124.580090,-2664.741391,-9474.636058,-2987.772442
3124.580418,-1554.432478,-7698.141797,-2681.334243
3124.580745,-592.164754,-10362.883188,0.000000
3124.581073,444.123565,-10140.821405,2604.724693
3124.581400,1702.473667,-8586.388927,3140.991542
3124.581728,2664.741391,-10510.924376,2987.772442
3124.582056,3997.112087,-11029.068536,919.314598
3124.582383,3256.906145,-9474.636058,-689.485948
3124.582711,592.164754,-11029.068536,-229.828649
3124.583039,-1332.370696,-9844.739029,-1302.362347
3124.583366,-1036.288319,-7994.224174,-3524.039291
3124.583694,-222.061783,-10066.800811,-1608.800546
3124.584021,-518.144159,-9770.718434,-1302.362347
3124.584349,444.123565,-7698.141797,0.000000
3124.584677,814.226536,-10140.821405,842.705048
3124.585004,-148.041188,-10066.800811,2068.457845
3124.585332,-148.041188,-5773.606348,1072.533697
3124.585659,370.102971,-6365.771101,1149.143247
3124.585987,2072.576638,-9548.656652,3064.381992
3124.586315,2886.803174,-9696.697840,1991.848295
3124.586642,2368.659014,-11177.109724,1072.533697
3124.586970,1332.370696,-13323.706956,-306.438199
3124.587298,1184.329507,-11325.150913,-2987.772442
3124.587625,962.267725,-9252.574275,-3983.696590
3124.587953,-444.123565,-9696.697840,-2221.676944
3124.588280,-666.185348,-7550.100608,-689.485948
3124.588608,74.020594,-6439.791695,76.609550
3124.588936,-1332.370696,-9178.553681,2221.676944
3124.589263,-2368.659014,-8438.347739,2298.286494
3124.589591,-1850.514855,-7254.018232,766.095498
3124.589918,-592.164754,-10584.944971,459.657299
3124.590246,1406.391290,-11843.295072,-229.828649
3124.590574,3034.844362,-11029.068536,-995.924147
3124.590901,3256.906145,-12213.398043,-306.438199
3124.591229,2738.761985,-13027.624579,-306.438199
3124.591557,1406.391290,-10584.944971,-1225.752797
3124.591884,-740.205942,-10807.006753,-1991.848295
3124.592212,-2220.617826,-9474.636058,-2451.505594
3124.592539,-1776.494261,-6291.750507,-3217.601092
3124.592867,-370.102971,-9400.615463,-2145.067394
3124.593195,-888.247130,-11029.068536,1149.143247
3124.593522,-1110.308913,-8438.347739,2528.115143
3124.593850,0.000000,-7994.224174,1762.019645
3124.594177,444.123565,-10732.986159,612.876398
3124.594505,1184.329507,-9622.677246,-689.485948
3124.594833,1480.411884,-8882.471304,0.000000
3124.595160,888.247130,-12435.459826,919.314598
3124.595488,666.185348,-11251.130318,-766.095498
3124.595816,592.164754,-9770.718434,-1991.848295
3124.596143,-370.102971,-9622.677246,-1838.629195
3124.596471,-518.144159,-10066.800811,-2298.286494
3124.596798,0.000000,-9992.780217,-2221.676944
3124.597126,-740.205942,-9770.718434,-383.047749
3124.597454,-1332.370696,-7624.121203,76.609550
3124.597781,-1332.370696,-5329.482782,1225.752797
3124.598109,-666.185348,-9104.533087,1991.848295
3124.598436,0.000000,-9770.718434,2528.115143
3124.598764,518.144159,-8882.471304,1378.971896
3124.599092,1628.453072,-11695.253884,0.000000
3124.599419,2072.576638,-12287.418637,-689.485948
3124.599747,1702.473667,-8438.347739,-995.924147
3124.600075,814.226536,-8512.368333,-536.266849
3124.600402,0.000000,-10436.903782,-612.876398
3124.600730,148.041188,-8734.430116,-1991.848295
3124.601057,-1258.350101,-9252.574275,-1838.629195
3124.601385,-1184.329507,-11029.068536,-383.047749
3124.601713,148.041188,-8290.306550,-536.266849
3124.602040,-222.061783,-7846.182985,306.438199
3124.602368,-148.041188,-10584.944971,1455.581446
3124.602695,1998.556043,-10066.800811,612.876398
3124.603023,3182.885551,-9548.656652,306.438199
3124.603351,2368.659014,-12805.562797,919.314598
3124.603678,2294.638420,-11917.315666,76.609550
3124.604006,2664.741391,-7846.182985,-1149.143247
3124.604333,740.205942,-10066.800811,-612.876398
3124.604661,0.000000,-11029.068536,-1225.752797
3124.604989,-296.082377,-8808.450710,-2451.505594
3124.605316,-296.082377,-10510.924376,-1762.019645
3124.605644,-740.205942,-10066.800811,-612.876398
3124.605972,-814.226536,-7105.977043,-306.438199
3124.606299,-1628.453072,-8586.388927,1149.143247
3124.606627,-592.164754,-11621.233289,1532.190996
3124.606954,1628.453072,-10140.821405,-689.485948
3124.607282,2738.761985,-10140.821405,-536.266849
3124.607610,2294.638420,-11843.295072,1532.190996
3124.607937,2590.720797,-9400.615463,1608.800546
3124.608265,1036.288319,-9178.553681,1072.533697
3124.608592,814.226536,-10881.027347,153.219100
3124.608920,0.000000,-9030.512492,-2145.067394
3124.609248,-1258.350101,-7624.121203,-2145.067394
3124.609575,-2812.782580,-8586.388927,0.000000
3124.609903,-2072.576638,-7254.018232,-459.657299
3124.610231,-1258.350101,-7179.997637,76.609550
3124.610558,222.061783,-11695.253884,1915.238745
3124.610886,1036.288319,-10658.965565,2451.505594
3124.611213,2442.679609,-8808.450710,1685.410096
3124.611541,1258.350101,-9844.739029,1915.238745
3124.611869,-296.082377,-9844.739029,536.266849
3124.612196,-1332.370696,-7105.977043,-1302.362347
3124.612524,-592.164754,-9252.574275,-1762.019645
3124.612851,-814.226536,-10436.903782,-1072.533697
3124.613179,148.041188,-9844.739029,-1915.238745
3124.613507,0.000000,-12065.356855,-1455.581446
3124.613834,-1258.350101,-11547.212695,-383.047749
3124.614162,-518.144159,-7402.059420,-2451.505594
3124.614490,-148.041188,-7402.059420,-1072.533697
3124.614817,74.020594,-10807.006753,1455.581446
3124.615145,814.226536,-9178.553681,2604.724693
3124.615472,1332.370696,-8068.244768,2068.457845
3124.615800,-740.205942,-11695.253884,689.485948
3124.616128,-1406.391290,-11029.068536,-1072.533697
3124.616455,0.000000,-10140.821405,-2834.553343
3124.616783,814.226536,-11843.295072,-1991.848295
3124.617110,1480.411884,-11621.233289,-2145.067394
3124.617438,1850.514855,-10584.944971,-1915.238745
3124.617766,1184.329507,-11621.233289,-612.876398
3124.618093,296.082377,-9030.512492,306.438199
3124.618421,-518.144159,-5551.544565,0.000000
3124.618749,-1406.391290,-8290.306550,612.876398
3124.619076,222.061783,-10214.842000,1072.533697
3124.619404,1110.308913,-8956.491898,229.828649
3124.619731,518.144159,-10288.862594,1762.019645
3124.620059,592.164754,-11473.192101,1991.848295
3124.620387,888.247130,-8216.285956,0.000000
3124.620714,370.102971,-8734.430116,-1532.190996
3124.621042,-222.061783,-10066.800811,-2068.457845
3124.621369,-296.082377,-7846.182985,-1838.629195
3124.621697,444.123565,-9104.533087,-766.095498
3124.622025,1036.288319,-10658.965565,919.314598
3124.622352,888.247130,-7846.182985,536.266849
3124.622680,888.247130,-9474.636058,306.438199
3124.623008,1332.370696,-11695.253884,0.000000
3124.623335,1480.411884,-9918.759623,-995.924147
3124.623663,1184.329507,-8734.430116,-995.924147
3124.623990,-222.061783,-10807.006753,1149.143247
3124.624318,-1110.308913,-9474.636058,1685.410096
3124.624646,296.082377,-8660.409521,0.000000
3124.624973,666.185348,-10881.027347,-1225.752797
3124.625301,-518.144159,-9844.739029,-919.314598
3124.625628,666.185348,-7920.203579,-1532.190996
3124.625956,666.185348,-10584.944971,-689.485948
3124.626284,518.144159,-10881.027347,-995.924147
3124.626611,222.061783,-7254.018232,-1149.143247
3124.626939,-370.102971,-9104.533087,536.266849
3124.627266,888.247130,-11399.171507,1762.019645
3124.627594,1776.494261,-10658.965565,306.438199
3124.627922,592.164754,-10658.965565,995.924147
3124.628249,-740.205942,-11103.089130,766.095498
3124.628577,592.164754,-9474.636058,-995.924147
3124.628905,370.102971,-9474.636058,-689.485948
3124.629232,-148.041188,-10881.027347,0.000000
3124.629560,0.000000,-8068.244768,0.000000
3124.629887,962.267725,-8734.430116,-689.485948
3124.630215,-444.123565,-10362.883188,536.266849
3124.630543,-666.185348,-7624.121203,0.000000
3124.630870,-518.144159,-6809.894666,-306.438199
3124.631198,814.226536,-9770.718434,-153.219100
3124.631525,296.082377,-9992.780217,0.000000
3124.631853,-370.102971,-9326.594869,383.047749
3124.632181,-962.267725,-11325.150913,383.047749
3124.632508,-1110.308913,-11177.109724,-536.266849
3124.632836,-370.102971,-9178.553681,-2451.505594
3124.633164,-888.247130,-9992.780217,-1378.971896
3124.633491,74.020594,-9770.718434,306.438199
3124.633819,1406.391290,-8882.471304,459.657299
3124.634146,1036.288319,-10881.027347,1608.800546
3124.634474,370.102971,-9474.636058,612.876398
3124.634801,148.041188,-7105.977043,-1532.190996
3124.635129,-370.102971,-8586.388927,-1225.752797
3124.635457,0.000000,-9770.718434,-842.705048
3124.635784,0.000000,-8882.471304,-383.047749
3124.636112,444.123565,-10436.903782,995.924147
3124.636439,1850.514855,-12287.418637,1072.533697
3124.636767,2664.741391,-11917.315666,-229.828649
3124.637094,1702.473667,-10658.965565,-153.219100
3124.637422,222.061783,-10658.965565,153.219100
3124.637749,-370.102971,-7476.080014,-689.485948
3124.638077,-666.185348,-7179.997637,-1378.971896
3124.638404,-518.144159,-9548.656652,-766.095498
3124.638732,444.123565,-9474.636058,229.828649
3124.639060,1480.411884,-8660.409521,306.438199
3124.639387,1628.453072,-11621.233289,459.657299
3124.639715,1850.514855,-11621.233289,-766.095498
3124.640042,2812.782580,-9400.615463,-1991.848295
3124.640370,1850.514855,-10881.027347,-229.828649
3124.640697,1258.350101,-9844.739029,1072.533697
3124.641025,74.020594,-6735.874072,1072.533697
3124.641352,-2368.659014,-10214.842000,2374.896044
3124.641680,-1776.494261,-11547.212695,-612.876398
3124.642008,-666.185348,-8290.306550,-2451.505594
3124.642335,-666.185348,-7846.182985,-1302.362347
3124.642663,-740.205942,-10436.903782,0.000000
3124.642990,370.102971,-8734.430116,-689.485948
3124.643318,2368.659014,-7994.224174,-612.876398
3124.643645,2146.597232,-10436.903782,-306.438199
3124.643973,1702.473667,-10732.986159,0.000000
3124.644300,1554.432478,-10288.862594,306.438199
3124.644628,592.164754,-12361.439231,1378.971896
3124.644955,962.267725,-10362.883188,229.828649
3124.645283,666.185348,-8882.471304,-306.438199
3124.645611,0.000000,-11103.089130,612.876398
3124.645938,-296.082377,-9030.512492,0.000000
3124.646266,-740.205942,-8438.347739,-766.095498
3124.646593,-2220.617826,-9696.697840,0.000000
3124.646921,-1702.473667,-9178.553681,-1149.143247
3124.647248,-1184.329507,-7328.038826,-1838.629195
3124.647576,-666.185348,-9474.636058,-459.657299
3124.647903,1184.329507,-11399.171507,229.828649
3124.648231,2442.679609,-10584.944971,0.000000
3124.648558,2516.700203,-12287.418637,0.000000
3124.648886,1554.432478,-12287.418637,76.609550
3124.649214,814.226536,-8586.388927,-459.657299
3124.649541,-962.267725,-8364.327145,0.000000
3124.649869,-1776.494261,-9992.780217,919.314598
3124.650196,-1184.329507,-8956.491898,0.000000
3124.650524,-1554.432478,-9104.533087,-383.047749
3124.650851,-2516.700203,-9992.780217,536.266849
3124.651179,-1110.308913,-8068.244768,0.000000
3124.651506,0.000000,-7328.038826,-1378.971896
3124.651834,740.205942,-9474.636058,-459.657299
3124.652162,1850.514855,-10362.883188,-306.438199
3124.652489,2886.803174,-9474.636058,0.000000
3124.652817,3034.844362,-11769.274478,1072.533697
3124.653144,1850.514855,-10955.047942,459.657299
3124.653472,0.000000,-8808.450710,229.828649
3124.653799,-1406.391290,-10658.965565,229.828649
3124.654127,-518.144159,-10362.883188,-1302.362347
3124.654454,-592.164754,-8586.388927,-1762.019645
3124.654782,0.000000,-9474.636058,-536.266849
3124.655109,0.000000,-9622.677246,689.485948
3124.655437,518.144159,-7179.997637,229.828649
3124.655765,518.144159,-7698.141797,919.314598
3124.656092,888.247130,-10732.986159,689.485948
3124.656420,2368.659014,-9622.677246,-766.095498
3124.656747,3034.844362,-10881.027347,-919.314598
3124.657075,1702.473667,-12287.418637,153.219100
3124.657402,296.082377,-9548.656652,-1302.362347
3124.657730,-962.267725,-9548.656652,-459.657299
3124.658057,-1924.535449,-11991.336260,-612.876398
3124.658385,-1258.350101,-9770.718434,-2221.676944
3124.658712,-666.185348,-8956.491898,-1991.848295
3124.659040,-518.144159,-10510.924376,536.266849
3124.659368,444.123565,-8660.409521,1991.848295
3124.659695,1628.453072,-7254.018232,1072.533697
3124.660023,1702.473667,-8734.430116,1685.410096
3124.660350,1776.494261,-9622.677246,306.438199
3124.660678,1776.494261,-9252.574275,-1608.800546
3124.661005,1184.329507,-10955.047942,-1455.581446
3124.661333,0.000000,-9770.718434,-919.314598
3124.661660,-592.164754,-7179.997637,-919.314598
3124.661988,-444.123565,-10658.965565,-536.266849
3124.662316,-148.041188,-11769.274478,76.609550
3124.662643,370.102971,-9844.739029,-153.219100
3124.662971,0.000000,-10214.842000,1149.143247
3124.663298,-592.164754,-9696.697840,2221.676944
3124.663626,-666.185348,-5625.565159,919.314598
3124.663953,-296.082377,-5699.585753,1149.143247
3124.664281,592.164754,-9178.553681,842.705048
3124.664608,2368.659014,-9770.718434,536.266849
3124.664936,2664.741391,-10584.944971,-612.876398
3124.665263,1036.288319,-13471.748144,-306.438199
3124.665591,296.082377,-11251.130318,-2374.896044
3124.665919,-592.164754,-8808.450710,-2681.334243
3124.666246,-1480.411884,-10510.924376,-1225.752797
3124.666574,-1184.329507,-9030.512492,153.219100
3124.666901,-1406.391290,-8512.368333,1302.362347
3124.667229,-2516.700203,-10732.986159,2145.067394
3124.667556,-2812.782580,-9548.656652,1302.362347
3124.667884,-2072.576638,-6513.812290,-306.438199
3124.668211,-962.267725,-7624.121203,-229.828649
3124.668539,814.226536,-10066.800811,-383.047749
3124.668866,3627.009116,-10658.965565,-1838.629195
3124.669194,3701.029710,-11843.295072,-1378.971896
3124.669522,2664.741391,-13249.686362,0.000000
3124.669849,1998.556043,-10214.842000,-1072.533697
3124.670177,518.144159,-9548.656652,-1302.362347
3124.670504,-1406.391290,-10288.862594,76.609550
3124.670832,-1110.308913,-8882.471304,-459.657299
3124.671159,-666.185348,-9030.512492,459.657299
3124.671487,222.061783,-9326.594869,1762.019645
3124.671814,-444.123565,-7698.141797,2451.505594
3124.672142,0.000000,-8142.265362,1762.019645
3124.672470,888.247130,-9770.718434,229.828649
3124.672797,1776.494261,-9474.636058,-2528.115143
3124.673125,1776.494261,-9326.594869,-2145.067394
3124.673452,1776.494261,-11103.089130,-1378.971896
3124.673780,2590.720797,-10362.883188,-612.876398
3124.674107,3256.906145,-10436.903782,-842.705048
3124.674435,1998.556043,-12509.480420,76.609550
3124.674762,962.267725,-10436.903782,-306.438199
3124.675090,370.102971,-8068.244768,-229.828649
3124.675417,-518.144159,-9844.739029,76.609550
3124.675745,-1036.288319,-8882.471304,1762.019645
3124.676073,-1628.453072,-6217.729913,612.876398
3124.676400,-1332.370696,-7846.182985,842.705048
3124.676728,518.144159,-10214.842000,0.000000
3124.677055,1776.494261,-9844.739029,-1378.971896
3124.677383,1628.453072,-10140.821405,-1072.533697
3124.677710,1406.391290,-10362.883188,-1532.190996
3124.678038,2220.617826,-10140.821405,-2374.896044
3124.678365,1554.432478,-10214.842000,-1455.581446
3124.678693,-222.061783,-11473.192101,76.609550
3124.679021,-740.205942,-8734.430116,536.266849
3124.679348,-444.123565,-9474.636058,153.219100
3124.679676,-962.267725,-11621.233289,1608.800546
3124.680003,-1480.411884,-8438.347739,2757.943793
3124.680331,-1036.288319,-7179.997637,1608.800546
3124.680658,222.061783,-10066.800811,306.438199
3124.680986,1406.391290,-10955.047942,-153.219100
3124.681313,1332.370696,-9326.594869,-919.314598
3124.681641,444.123565,-10436.903782,-612.876398
3124.681968,814.226536,-10955.047942,-842.705048
3124.682296,1702.473667,-9326.594869,-2528.115143
3124.682624,518.144159,-10362.883188,-1608.800546
3124.682951,-222.061783,-9622.677246,-536.266849
3124.683279,-740.205942,-7254.018232,-766.095498
3124.683606,-2368.659014,-9622.677246,306.438199
3124.683934,-2738.761985,-10807.006753,1072.533697
3124.684261,-2146.597232,-7920.203579,-306.438199
3124.684589,-666.185348,-9474.636058,-766.095498
3124.684916,1184.329507,-11399.171507,153.219100
3124.685244,2812.782580,-9844.739029,0.000000
3124.685571,3701.029710,-10362.883188,536.266849
3124.685899,2664.741391,-11029.068536,919.314598
3124.686227,1406.391290,-9844.739029,-1225.752797
3124.686554,370.102971,-8808.450710,-2757.943793
3124.686882,-1406.391290,-9770.718434,-2451.505594
3124.687209,-2072.576638,-7254.018232,-1915.238745
3124.687537,-2442.679609,-7920.203579,-689.485948
3124.687864,-1850.514855,-11843.295072,766.095498
3124.688192,-296.082377,-10584.944971,995.924147
3124.688519,444.123565,-9178.553681,1532.190996
3124.688847,1628.453072,-10436.903782,1838.629195
3124.689175,2664.741391,-10140.821405,1455.581446
3124.689502,2590.720797,-7550.100608,842.705048
3124.689830,1332.370696,-8882.471304,459.657299
3124.690157,1110.308913,-10214.842000,-229.828649
3124.690485,2146.597232,-9104.533087,-1685.410096
3124.690812,1184.329507,-10362.883188,-1378.971896
3124.691140,74.020594,-11251.130318,-459.657299
3124.691467,0.000000,-9030.512492,-1378.971896
3124.691795,-296.082377,-8956.491898,-1302.362347
3124.692122,-1036.288319,-8956.491898,689.485948
3124.692450,-740.205942,-6513.812290,1378.971896
3124.692778,-1036.288319,-8364.327145,2757.943793
3124.693105,-1184.329507,-11029.068536,3294.210641
3124.693433,444.123565,-9696.697840,689.485948
3124.693760,1998.556043,-8956.491898,-1915.238745
3124.694088,2442.679609,-11695.253884,-689.485948
3124.694415,2220.617826,-10807.006753,-229.828649
3124.694743,3108.864956,-9918.759623,-1455.581446
3124.695070,1776.494261,-11621.233289,-1685.410096
3124.695398,666.185348,-10510.924376,-2451.505594
3124.695725,-370.102971,-8290.306550,-2068.457845
3124.696053,-1628.453072,-10140.821405,612.876398
3124.696381,-1480.411884,-9030.512492,1149.143247
3124.696708,-296.082377,-8216.285956,229.828649
3124.697036,-518.144159,-9918.759623,1915.238745
3124.697363,1184.329507,-10584.944971,2374.896044
3124.697691,2294.638420,-9474.636058,1149.143247
3124.698018,2146.597232,-10807.006753,306.438199
3124.698346,518.144159,-11399.171507,-459.657299
3124.698673,0.000000,-8660.409521,-3064.381992
3124.699001,-444.123565,-8290.306550,-3830.477490
3124.699329,-222.061783,-11695.253884,-2451.505594
3124.699656,0.000000,-10140.821405,-612.876398
3124.699984,518.144159,-9474.636058,229.828649
3124.700311,74.020594,-10881.027347,689.485948
3124.700639,444.123565,-8956.491898,0.000000
3124.700966,-814.226536,-7624.121203,1378.971896
3124.701294,-962.267725,-9104.533087,2681.334243
3124.701621,-222.061783,-7920.203579,1149.143247
3124.701949,592.164754,-9548.656652,229.828649
3124.702276,148.041188,-11843.295072,306.438199
3124.702604,-296.082377,-11251.130318,-383.047749
3124.702932,-666.185348,-8364.327145,-1838.629195
3124.703259,-370.102971,-9326.594869,-2834.553343
3124.703587,-1554.432478,-9844.739029,-2374.896044
3124.703914,-1110.308913,-7328.038826,-1378.971896
3124.704242,-592.164754,-9326.594869,229.828649
3124.704569,518.144159,-9844.739029,1915.238745
3124.704897,370.102971,-8438.347739,1532.190996
3124.705224,0.000000,-9252.574275,2911.162892
3124.705552,592.164754,-9844.739029,2451.505594
3124.705880,1924.535449,-9326.594869,0.000000
3124.706207,1480.411884,-10362.883188,-842.705048
3124.706535,666.185348,-11991.336260,-383.047749
3124.706862,1184.329507,-9918.759623,-1302.362347
3124.707190,1628.453072,-9326.594869,-1455.581446
3124.707517,74.020594,-11251.130318,-1532.190996
3124.707845,74.020594,-10436.903782,-1762.019645
3124.708172,444.123565,-9252.574275,-1455.581446
3124.708500,-148.041188,-9548.656652,-995.924147
3124.708827,-666.185348,-8364.327145,76.609550
3124.709155,-296.082377,-8438.347739,919.314598
3124.709483,0.000000,-10288.862594,1685.410096
3124.709810,888.247130,-10436.903782,1225.752797
3124.710138,1480.411884,-9992.780217,-919.314598
3124.710465,1554.432478,-12287.418637,0.000000
3124.710793,2368.659014,-12139.377449,-306.438199
3124.711120,1776.494261,-8438.347739,-1225.752797
3124.711448,814.226536,-9548.656652,-919.314598
3124.711775,888.247130,-10140.821405,-689.485948
3124.712103,0.000000,-8956.491898,-689.485948
3124.712430,-1110.308913,-9400.615463,536.266849
3124.712758,-1850.514855,-8512.368333,612.876398
3124.713086,-2442.679609,-5847.626942,-1072.533697
3124.713413,-2072.576638,-7846.182985,-612.876398
3124.713741,148.041188,-11177.109724,383.047749
3124.714068,2294.638420,-10658.965565,1149.143247
3124.714396,2590.720797,-11177.109724,1762.019645
3124.714723,2368.659014,-11695.253884,2298.286494
3124.715051,2294.638420,-9400.615463,-383.047749
3124.715378,814.226536,-8364.327145,-459.657299
3124.715706,518.144159,-8882.471304,0.000000
3124.716034,222.061783,-8290.306550,-459.657299
3124.716361,888.247130,-8438.347739,-612.876398
3124.716689,518.144159,-10732.986159,766.095498
3124.717016,148.041188,-9548.656652,153.219100
3124.717344,-518.144159,-7031.956449,-229.828649
3124.717671,-962.267725,-9326.594869,229.828649
3124.717999,74.020594,-10955.047942,0.000000
3124.718326,296.082377,-9474.636058,0.000000
3124.718654,-444.123565,-11547.212695,1072.533697
3124.718981,-222.061783,-11251.130318,612.876398
3124.719309,0.000000,-9696.697840,-766.095498
3124.719637,-370.102971,-10362.883188,-1608.800546
3124.719964,-888.247130,-10066.800811,-2451.505594
3124.720292,0.000000,-9474.636058,-2604.724693
3124.720619,666.185348,-10288.862594,-1225.752797
3124.720947,592.164754,-10658.965565,0.000000
3124.721274,74.020594,-7105.977043,536.266849
3124.721602,-962.267725,-7476.080014,612.876398
3124.721929,0.000000,-12287.418637,919.314598
3124.722257,1406.391290,-11103.089130,0.000000
3124.722584,2442.679609,-10066.800811,-229.828649
3124.722912,1776.494261,-11103.089130,995.924147
3124.723240,888.247130,-10807.006753,919.314598
3124.723567,1036.288319,-9622.677246,-306.438199
3124.723895,222.061783,-10288.862594,-995.924147
3124.724222,-666.185348,-9474.636058,-1915.238745
3124.724550,-1628.453072,-8586.388927,-2068.457845
3124.724877,-1332.370696,-9770.718434,-1378.971896
3124.725205,-444.123565,-8734.430116,-1072.533697
3124.725532,666.185348,-7550.100608,-919.314598
3124.725860,1628.453072,-9696.697840,76.609550
3124.726188,2664.741391,-10658.965565,383.047749
3124.726515,3775.050304,-10436.903782,1762.019645
3124.726843,3330.926739,-11399.171507,1608.800546
3124.727170,1776.494261,-10288.862594,1225.752797
3124.727498,-592.164754,-7550.100608,-383.047749
3124.727825,-1036.288319,-9104.533087,-995.924147
3124.728153,-1554.432478,-11029.068536,-1072.533697
3124.728480,-1258.350101,-9770.718434,-1991.848295
3124.728808,-1628.453072,-9030.512492,-2681.334243
3124.729135,-1776.494261,-9548.656652,-1991.848295
3124.729463,-1110.308913,-8364.327145,-919.314598
3124.729791,-444.123565,-7994.224174,459.657299
3124.730118,1110.308913,-10658.965565,1991.848295
3124.730446,2146.597232,-9622.677246,1532.190996
3124.730773,2664.741391,-8734.430116,919.314598
3124.731101,1406.391290,-11029.068536,1455.581446
3124.731428,1332.370696,-11325.150913,1378.971896
3124.731756,666.185348,-9400.615463,153.219100
3124.732083,-370.102971,-9844.739029,-919.314598
3124.732411,-1036.288319,-10214.842000,-1532.190996
3124.732739,-592.164754,-9400.615463,-2221.676944
3124.733066,-1110.308913,-10732.986159,0.000000
3124.733394,-1332.370696,-9992.780217,0.000000
3124.733721,0.000000,-7328.038826,-842.705048
3124.734049,444.123565,-8216.285956,76.609550
3124.734376,666.185348,-9474.636058,995.924147
3124.734704,592.164754,-8216.285956,919.314598
3124.735032,1480.411884,-8956.491898,0.000000
3124.735359,1554.432478,-10955.047942,-1149.143247
3124.735687,444.123565,-9992.780217,-766.095498
3124.736014,74.020594,-10066.800811,-306.438199
3124.736342,0.000000,-11917.315666,-536.266849
3124.736669,222.061783,-10955.047942,-1915.238745
3124.736997,0.000000,-9992.780217,-1149.143247
3124.737324,-370.102971,-10288.862594,0.000000
3124.737652,296.082377,-7920.203579,229.828649
3124.737980,-1036.288319,-7772.162391,383.047749
3124.738307,-592.164754,-10658.965565,1072.533697
3124.738635,74.020594,-9622.677246,-766.095498
3124.738962,1110.308913,-8364.327145,-1991.848295
3124.739290,1036.288319,-10066.800811,-995.924147
3124.739617,1480.411884,-12435.459826,229.828649
3124.739945,740.205942,-10584.944971,76.609550
3124.740273,296.082377,-10140.821405,612.876398
3124.740600,814.226536,-10807.006753,-919.314598
3124.740928,666.185348,-9030.512492,-995.924147
3124.741255,-814.226536,-9030.512492,459.657299
3124.741583,0.000000,-9474.636058,1302.362347
3124.741910,1036.288319,-7402.059420,689.485948
3124.742238,740.205942,-7550.100608,459.657299
3124.742566,1110.308913,-10066.800811,995.924147
3124.742893,1924.535449,-9474.636058,229.828649
3124.743221,2220.617826,-9104.533087,0.000000
3124.743548,666.185348,-10955.047942,153.219100
3124.743876,0.000000,-10140.821405,-842.705048
3124.744203,-1184.329507,-9104.533087,-229.828649
3124.744531,-1258.350101,-10807.006753,-383.047749
3124.744859,-1184.329507,-9770.718434,-689.485948
3124.745186,-1110.308913,-9178.553681,-306.438199
3124.745514,-962.267725,-10066.800811,229.828649
3124.745841,-222.061783,-9030.512492,0.000000
3124.746169,962.267725,-7550.100608,306.438199
3124.746496,1702.473667,-8216.285956,536.266849
3124.746824,2072.576638,-10658.965565,842.705048
3124.747152,1480.411884,-9252.574275,153.219100
3124.747479,1480.411884,-10214.842000,-459.657299
3124.747807,1628.453072,-12065.356855,-1455.581446
3124.748134,1850.514855,-9770.718434,-1608.800546
3124.748462,74.020594,-9474.636058,229.828649
3124.748789,-370.102971,-10807.006753,612.876398
3124.749117,444.123565,-9622.677246,-306.438199
3124.749445,0.000000,-10140.821405,-459.657299
3124.749772,-814.226536,-10658.965565,-766.095498
3124.750100,-1628.453072,-8438.347739,-689.485948
3124.750427,-1258.350101,-7994.224174,-612.876398
3124.750755,0.000000,-9622.677246,-919.314598
3124.751082,1332.370696,-10436.903782,-766.095498
3124.751410,2812.782580,-9770.718434,-612.876398
3124.751737,3478.967927,-12361.439231,0.000000
3124.752065,2368.659014,-11103.089130,-536.266849
3124.752393,1036.288319,-9474.636058,-306.438199
3124.752720,-666.185348,-9770.718434,229.828649
3124.753048,-1480.411884,-9030.512492,0.000000
3124.753375,-1702.473667,-9030.512492,-306.438199
3124.753703,-2294.638420,-10732.986159,76.609550
3124.754030,-1924.535449,-10362.883188,229.828649
3124.754358,-2368.659014,-6735.874072,306.438199
3124.754686,-2220.617826,-6735.874072,-689.485948
3124.755013,-888.247130,-9252.574275,-229.828649
3124.755341,592.164754,-8956.491898,-766.095498
3124.755668,1998.556043,-9770.718434,306.438199
3124.755996,2294.638420,-10436.903782,459.657299
3124.756323,2072.576638,-8660.409521,306.438199
3124.756651,0.000000,-8882.471304,1762.019645
3124.756979,370.102971,-10066.800811,1455.581446
3124.757306,222.061783,-9622.677246,0.000000
3124.757634,-1110.308913,-8956.491898,0.000000
3124.757961,-1628.453072,-10214.842000,459.657299
3124.758289,-888.247130,-8882.471304,0.000000
3124.758616,-814.226536,-7031.956449,-689.485948
3124.758944,-518.144159,-10584.944971,229.828649
3124.759272,370.102971,-10881.027347,-229.828649
3124.759599,2368.659014,-9622.677246,-766.095498
3124.759927,1998.556043,-10732.986159,-842.705048
3124.760254,592.164754,-11029.068536,-536.266849
3124.760582,0.000000,-8216.285956,-1838.629195
3124.760909,-518.144159,-9326.594869,-1378.971896
3124.761237,0.000000,-11177.109724,-995.924147
3124.761565,0.000000,-10362.883188,-1225.752797
3124.761892,-296.082377,-11917.315666,459.657299
3124.762220,222.061783,-11917.315666,995.924147
3124.762547,592.164754,-8660.409521,-153.219100
3124.762875,666.185348,-8586.388927,-612.876398
3124.763202,814.226536,-10140.821405,995.924147
3124.763530,1850.514855,-9252.574275,842.705048
3124.763857,1924.535449,-9918.759623,0.000000
3124.764185,814.226536,-11177.109724,-383.047749
3124.764513,148.041188,-8734.430116,-1915.238745
3124.764840,-1332.370696,-7254.018232,-1532.190996
3124.765168,-1480.411884,-9770.718434,-995.924147
3124.765495,-296.082377,-10288.862594,-766.095498
3124.765823,0.000000,-9622.677246,-689.485948
3124.766150,-444.123565,-10362.883188,536.266849
3124.766478,296.082377,-9252.574275,459.657299
3124.766806,222.061783,-6957.935855,689.485948
3124.767133,0.000000,-7698.141797,1685.410096
3124.767461,444.123565,-9474.636058,1991.848295
3124.767788,2442.679609,-8734.430116,306.438199
