#time,accel_x,accel_y,accel_z
2937.460326,222.061783,-9844.739029,0.000000
2937.460654,592.164754,-9548.656652,229.828649
2937.460981,592.164754,-9104.533087,76.609550
2937.461309,296.082377,-9252.574275,536.266849
2937.461637,518.144159,-9178.553681,459.657299
2937.461965,0.000000,-8956.491898,0.000000
2937.462292,0.000000,-9030.512492,0.000000
2937.462620,-222.061783,-9326.594869,0.000000
2937.462948,-148.041188,-9326.594869,-306.438199
2937.463275,-222.061783,-9400.615463,-536.266849
2937.463603,370.102971,-9844.739029,-536.266849
2937.463931,740.205942,-10288.862594,-689.485948
2937.464259,518.144159,-9918.759623,76.609550
2937.464586,592.164754,-9992.780217,0.000000
2937.464914,740.205942,-9770.718434,229.828649
2937.465242,814.226536,-9992.780217,153.219100
2937.465570,0.000000,-9918.759623,153.219100
2937.465897,370.102971,-9770.718434,-536.266849
2937.466225,0.000000,-9548.656652,-689.485948
2937.466553,0.000000,-9770.718434,-842.705048
2937.466880,74.020594,-9992.780217,-995.924147
2937.467208,222.061783,-10288.862594,-842.705048
2937.467536,740.205942,-10510.924376,-766.095498
2937.467864,962.267725,-10436.903782,-766.095498
2937.468191,592.164754,-9918.759623,-229.828649
2937.468519,1332.370696,-10066.800811,-536.266849
2937.468847,666.185348,-9770.718434,-229.828649
2937.469175,518.144159,-9844.739029,0.000000
2937.469502,74.020594,-9474.636058,-229.828649
2937.469830,0.000000,-9622.677246,76.609550
2937.470158,-296.082377,-9400.615463,383.047749
2937.470486,0.000000,-9326.594869,0.000000
2937.470813,0.000000,-9474.636058,-383.047749
2937.471141,74.020594,-9844.739029,-306.438199
2937.471469,370.102971,-9770.718434,0.000000
2937.471796,592.164754,-9548.656652,229.828649
2937.472124,666.185348,-9770.718434,689.485948
2937.472452,370.102971,-9252.574275,459.657299
2937.472780,592.164754,-9104.533087,0.000000
2937.473107,296.082377,-8660.409521,0.000000
2937.473435,-222.061783,-8882.471304,0.000000
2937.473763,-296.082377,-9104.533087,-306.438199
2937.474091,0.000000,-9252.574275,-536.266849
2937.474418,222.061783,-9474.636058,-536.266849
2937.474746,296.082377,-9696.697840,-459.657299
2937.475074,370.102971,-9622.677246,0.000000
2937.475401,888.247130,-9992.780217,0.000000
2937.475729,592.164754,-9844.739029,-153.219100
2937.476057,740.205942,-10140.821405,76.609550
2937.476385,740.205942,-9770.718434,0.000000
2937.476712,814.226536,-9770.718434,229.828649
2937.477040,814.226536,-9548.656652,-536.266849
2937.477368,1258.350101,-9474.636058,-612.876398
2937.477696,2590.720797,-9030.512492,-842.705048
2937.478023,3256.906145,-9178.553681,-919.314598
2937.478351,4219.173869,-9770.718434,-919.314598
2937.478679,5033.400406,-10510.924376,-689.485948
2937.479006,6587.832884,-10214.842000,-842.705048
2937.479334,7624.121203,-9622.677246,-306.438199
2937.479662,7994.224174,-10584.944971,0.000000
2937.479990,8512.368333,-10584.944971,229.828649
2937.480317,8660.409521,-10658.965565,0.000000
2937.480645,7846.182985,-9844.739029,306.438199
2937.480973,7920.203579,-8882.471304,0.000000
2937.481301,8586.388927,-9030.512492,-229.828649
2937.481628,8956.491898,-8956.491898,0.000000
2937.481956,9696.697840,-8882.471304,306.438199
2937.482284,11029.068536,-8956.491898,0.000000
2937.482611,11325.150913,-9178.553681,306.438199
2937.482939,11695.253884,-9622.677246,842.705048
2937.483267,10732.986159,-9400.615463,995.924147
2937.483595,10881.027347,-9326.594869,1149.143247
2937.483922,12287.418637,-9326.594869,153.219100
2937.484250,12509.480420,-9474.636058,0.000000
2937.484578,13767.830521,-9622.677246,229.828649
2937.484906,14137.933492,-9474.636058,919.314598
2937.485233,14211.954086,-8660.409521,766.095498
2937.485561,13841.851115,-8586.388927,229.828649
2937.485889,13101.645173,-9400.615463,689.485948
2937.486216,12139.377449,-9992.780217,1225.752797
2937.486544,13471.748144,-10214.842000,229.828649
2937.486872,13101.645173,-9178.553681,919.314598
2937.487200,13249.686362,-9844.739029,689.485948
2937.487527,12361.439231,-9696.697840,1685.410096
2937.487855,12139.377449,-9622.677246,1302.362347
2937.488183,11325.150913,-8956.491898,153.219100
2937.488511,9992.780217,-10510.924376,-766.095498
2937.488838,9474.636058,-10214.842000,153.219100
2937.489166,8438.347739,-9622.677246,-995.924147
2937.489494,6661.853478,-8882.471304,-383.047749
2937.489822,7624.121203,-9548.656652,-689.485948
2937.490149,8364.327145,-9992.780217,-842.705048
2937.490477,9030.512492,-11177.109724,0.000000
2937.490805,8142.265362,-12583.501014,1225.752797
2937.491132,6883.915261,-11473.192101,153.219100
2937.491460,4589.276840,-9104.533087,-612.876398
2937.491788,2738.761985,-8068.244768,-459.657299
2937.492116,2442.679609,-7550.100608,0.000000
2937.492443,3404.947333,-8586.388927,306.438199
2937.492771,3775.050304,-10510.924376,919.314598
2937.493099,3849.070898,-10066.800811,536.266849
2937.493427,2664.741391,-8290.306550,-766.095498
2937.493754,1110.308913,-8290.306550,-612.876398
2937.494082,592.164754,-9474.636058,-842.705048
2937.494410,1184.329507,-11621.233289,-995.924147
2937.494737,2146.597232,-11177.109724,-689.485948
2937.495065,4071.132681,-8512.368333,-689.485948
2937.495393,4441.235652,-8660.409521,153.219100
2937.495721,1184.329507,-10066.800811,3140.991542
2937.496048,-1184.329507,-9474.636058,2528.115143
2937.496376,0.000000,-7994.224174,-383.047749
2937.496704,1554.432478,-8142.265362,-2528.115143
2937.497032,1480.411884,-9844.739029,-1608.800546
2937.497359,222.061783,-9918.759623,1149.143247
2937.497687,-1258.350101,-8882.471304,995.924147
2937.498015,-296.082377,-8660.409521,-842.705048
2937.498342,370.102971,-9844.739029,-3064.381992
2937.498670,74.020594,-11399.171507,-1685.410096
2937.498998,-370.102971,-9474.636058,153.219100
2937.499326,666.185348,-9178.553681,0.000000
2937.499653,1480.411884,-10881.027347,-1455.581446
2937.499981,740.205942,-10658.965565,-919.314598
2937.500309,-444.123565,-8512.368333,-1302.362347
2937.500637,-740.205942,-8216.285956,-459.657299
2937.500964,1258.350101,-9844.739029,-1149.143247
2937.501292,3034.844362,-11399.171507,-1225.752797
2937.501620,2590.720797,-11251.130318,0.000000
2937.501947,1702.473667,-8808.450710,1072.533697
2937.502275,1702.473667,-8142.265362,995.924147
2937.502603,2516.700203,-10584.944971,76.609550
2937.502931,3627.009116,-11029.068536,-1302.362347
2937.503258,3627.009116,-8438.347739,-1455.581446
2937.503586,3552.988522,-9400.615463,0.000000
2937.503914,3997.112087,-11325.150913,1762.019645
2937.504242,3775.050304,-11769.274478,1685.410096
2937.504569,2294.638420,-10140.821405,1072.533697
2937.504897,1628.453072,-8216.285956,-1072.533697
2937.505225,2072.576638,-9548.656652,-1532.190996
2937.505552,1258.350101,-11325.150913,0.000000
2937.505880,148.041188,-9474.636058,2451.505594
2937.506208,666.185348,-6957.935855,1455.581446
2937.506536,592.164754,-8438.347739,306.438199
2937.506863,0.000000,-11547.212695,459.657299
2937.507191,-962.267725,-9844.739029,306.438199
2937.507519,0.000000,-7624.121203,-842.705048
2937.507847,370.102971,-9474.636058,-1608.800546
2937.508174,0.000000,-12139.377449,0.000000
2937.508502,-666.185348,-10140.821405,1532.190996
2937.508830,74.020594,-8438.347739,842.705048
2937.509158,74.020594,-9844.739029,-766.095498
2937.509485,-370.102971,-11695.253884,-995.924147
2937.509813,-2368.659014,-9918.759623,1149.143247
2937.510141,-1924.535449,-7105.977043,766.095498
2937.510468,-296.082377,-5995.668130,-1149.143247
2937.510796,-740.205942,-9104.533087,-383.047749
2937.511124,-2368.659014,-11547.212695,1838.629195
2937.511452,-888.247130,-9622.677246,1378.971896
2937.511779,1036.288319,-7402.059420,-383.047749
2937.512107,-444.123565,-10732.986159,-2145.067394
2937.512435,-2442.679609,-13175.665768,0.000000
2937.512763,-2072.576638,-10584.944971,153.219100
2937.513090,0.000000,-8956.491898,-1455.581446
2937.513418,0.000000,-10955.047942,-2068.457845
2937.513746,-1480.411884,-12435.459826,0.000000
2937.514073,-1554.432478,-9326.594869,153.219100
2937.514401,-592.164754,-6069.688724,-536.266849
2937.514729,-888.247130,-8290.306550,-1991.848295
2937.515057,-2960.823768,-10584.944971,-153.219100
2937.515384,-3256.906145,-8290.306550,536.266849
2937.515712,-222.061783,-6069.688724,-766.095498
2937.516040,1406.391290,-8216.285956,-1225.752797
2937.516368,814.226536,-12361.439231,1072.533697
2937.516695,296.082377,-11769.274478,2145.067394
2937.517023,1924.535449,-8808.450710,-459.657299
2937.517351,2516.700203,-10214.842000,-2757.943793
2937.517678,74.020594,-13841.851115,-1532.190996
2937.518006,-592.164754,-11695.253884,-153.219100
2937.518334,962.267725,-7846.182985,-919.314598
2937.518662,2368.659014,-8956.491898,-1915.238745
2937.518989,1110.308913,-10732.986159,-995.924147
2937.519317,444.123565,-10658.965565,1072.533697
2937.519645,666.185348,-7328.038826,536.266849
2937.519973,2072.576638,-7624.121203,-1149.143247
2937.520300,1406.391290,-10658.965565,-383.047749
2937.520628,0.000000,-10584.944971,2298.286494
2937.520956,1184.329507,-6735.874072,1685.410096
2937.521283,2886.803174,-6957.935855,-1225.752797
2937.521611,2220.617826,-11473.192101,-612.876398
2937.521939,814.226536,-12805.562797,842.705048
2937.522267,1110.308913,-9696.697840,-229.828649
2937.522594,2664.741391,-9030.512492,-2221.676944
2937.522922,2812.782580,-11621.233289,-1991.848295
2937.523250,1702.473667,-12139.377449,612.876398
2937.523578,1406.391290,-9992.780217,1225.752797
2937.523905,2886.803174,-8512.368333,612.876398
2937.524233,2368.659014,-9770.718434,-153.219100
2937.524561,-148.041188,-9992.780217,1762.019645
2937.524888,-370.102971,-7846.182985,2221.676944
2937.525216,1110.308913,-6957.935855,0.000000
2937.525544,74.020594,-8512.368333,-153.219100
2937.525871,-1406.391290,-10955.047942,842.705048
2937.526199,-2368.659014,-9030.512492,919.314598
2937.526526,-518.144159,-7476.080014,-1532.190996
2937.526853,444.123565,-9622.677246,-2451.505594
2937.527181,-814.226536,-12139.377449,0.000000
2937.527508,-592.164754,-10807.006753,1149.143247
2937.527836,0.000000,-7846.182985,0.000000
2937.528163,814.226536,-9400.615463,-1455.581446
2937.528491,-518.144159,-11473.192101,-995.924147
2937.528818,-2368.659014,-10066.800811,76.609550
2937.529145,-2072.576638,-7920.203579,0.000000
2937.529473,-814.226536,-8956.491898,-1762.019645
2937.529800,-1036.288319,-10584.944971,-919.314598
2937.530128,-2368.659014,-9696.697840,536.266849
2937.530455,-1258.350101,-7402.059420,459.657299
2937.530783,888.247130,-9326.594869,-766.095498
2937.531110,-518.144159,-11843.295072,0.000000
2937.531438,-2072.576638,-11473.192101,919.314598
2937.531765,-1258.350101,-7772.162391,-612.876398
2937.532092,74.020594,-7772.162391,-2451.505594
2937.532420,0.000000,-10807.006753,-1838.629195
2937.532747,-666.185348,-11843.295072,766.095498
2937.533075,-222.061783,-9326.594869,0.000000
2937.533402,1184.329507,-8586.388927,-1762.019645
2937.533730,1628.453072,-11029.068536,-2451.505594
2937.534057,-296.082377,-11917.315666,0.000000
2937.534385,-740.205942,-10362.883188,153.219100
2937.534712,222.061783,-8068.244768,-383.047749
2937.535039,1332.370696,-10214.842000,-1762.019645
2937.535367,370.102971,-10658.965565,459.657299
2937.535694,1258.350101,-8882.471304,1302.362347
2937.536022,2368.659014,-8068.244768,766.095498
2937.536349,2146.597232,-10436.903782,842.705048
2937.536677,222.061783,-10732.986159,1149.143247
2937.537004,-296.082377,-8438.347739,306.438199
2937.537331,1406.391290,-6809.894666,-1455.581446
2937.537659,2442.679609,-8882.471304,-2451.505594
2937.537986,2146.597232,-12879.583391,-306.438199
2937.538314,1850.514855,-11843.295072,1991.848295
2937.538641,3478.967927,-8068.244768,766.095498
2937.538969,4515.256246,-9178.553681,-612.876398
2937.539296,1406.391290,-11325.150913,76.609550
2937.539624,-222.061783,-10955.047942,919.314598
2937.539951,0.000000,-7105.977043,-459.657299
2937.540278,666.185348,-7254.018232,-1149.143247
2937.540606,0.000000,-9696.697840,0.000000
2937.540933,-296.082377,-9474.636058,2451.505594
2937.541261,592.164754,-7772.162391,2221.676944
2937.541588,1628.453072,-9474.636058,0.000000
2937.541916,1110.308913,-12953.603985,-766.095498
2937.542243,-1258.350101,-11177.109724,229.828649
2937.542570,-222.061783,-8364.327145,-612.876398
2937.542898,740.205942,-8438.347739,-1838.629195
2937.543225,592.164754,-12139.377449,-612.876398
2937.543553,0.000000,-12731.542202,1149.143247
2937.543880,-296.082377,-8882.471304,536.266849
2937.544208,1110.308913,-7254.018232,-1608.800546
2937.544535,222.061783,-10510.924376,-2068.457845
2937.544863,-2294.638420,-11399.171507,229.828649
2937.545190,-2294.638420,-9252.574275,689.485948
2937.545517,-592.164754,-7476.080014,-1149.143247
2937.545845,592.164754,-9178.553681,-995.924147
2937.546172,0.000000,-9918.759623,459.657299
2937.546500,-888.247130,-9178.553681,1838.629195
2937.546827,0.000000,-8660.409521,0.000000
2937.547155,-148.041188,-10584.944971,-689.485948
2937.547482,-2442.679609,-11843.295072,-689.485948
2937.547809,-3108.864956,-8808.450710,0.000000
2937.548137,-888.247130,-7105.977043,-1991.848295
2937.548464,370.102971,-9770.718434,-2604.724693
2937.548792,-740.205942,-11843.295072,-995.924147
2937.549119,-1184.329507,-10362.883188,383.047749
2937.549447,592.164754,-7846.182985,-689.485948
2937.549774,1110.308913,-8438.347739,-1378.971896
2937.550102,-666.185348,-11325.150913,-153.219100
2937.550429,-1628.453072,-10658.965565,1225.752797
2937.550756,148.041188,-7624.121203,229.828649
2937.551084,2442.679609,-7254.018232,-2068.457845
2937.551411,1184.329507,-9548.656652,0.000000
2937.551739,0.000000,-10584.944971,2068.457845
2937.552066,888.247130,-8956.491898,689.485948
2937.552394,1776.494261,-9622.677246,-2068.457845
2937.552721,0.000000,-12139.377449,-2221.676944
2937.553048,-1924.535449,-11547.212695,-153.219100
2937.553376,-296.082377,-8660.409521,383.047749
2937.553703,2072.576638,-8216.285956,-1149.143247
2937.554031,1702.473667,-11399.171507,-536.266849
2937.554358,740.205942,-12805.562797,1915.238745
2937.554686,1480.411884,-9474.636058,1532.190996
2937.555013,2442.679609,-7031.956449,-919.314598
2937.555341,1332.370696,-9474.636058,-1685.410096
2937.555668,-1776.494261,-11325.150913,459.657299
2937.555995,-1036.288319,-8438.347739,689.485948
2937.556323,2368.659014,-6587.832884,-1915.238745
2937.556650,3034.844362,-9844.739029,-1149.143247
2937.556978,2072.576638,-11843.295072,1378.971896
2937.557305,2590.720797,-9918.759623,1991.848295
2937.557633,3182.885551,-9178.553681,-306.438199
2937.557960,1628.453072,-9992.780217,0.000000
2937.558288,-814.226536,-10288.862594,919.314598
2937.558615,-1480.411884,-8438.347739,1072.533697
2937.558942,0.000000,-6439.791695,-306.438199
2937.559270,1184.329507,-8882.471304,-1225.752797
2937.559597,0.000000,-12879.583391,612.876398
2937.559925,0.000000,-12213.398043,1685.410096
2937.560252,1406.391290,-9178.553681,-689.485948
2937.560580,1258.350101,-8364.327145,-2298.286494
2937.560907,-370.102971,-11325.150913,-612.876398
2937.561234,-1332.370696,-10732.986159,1149.143247
2937.561562,0.000000,-7105.977043,229.828649
2937.561889,1110.308913,-7476.080014,-995.924147
2937.562217,518.144159,-9992.780217,-536.266849
2937.562544,-740.205942,-10658.965565,612.876398
2937.562872,-740.205942,-8734.430116,76.609550
2937.563199,222.061783,-9400.615463,-2068.457845
2937.563527,-444.123565,-11769.274478,-1915.238745
2937.563854,-2294.638420,-10362.883188,0.000000
2937.564181,-888.247130,-7698.141797,153.219100
2937.564509,888.247130,-8364.327145,-459.657299
2937.564836,296.082377,-12953.603985,766.095498
2937.565164,-1184.329507,-13323.706956,1225.752797
2937.565491,592.164754,-9030.512492,-383.047749
2937.565819,1776.494261,-7772.162391,-2298.286494
2937.566146,148.041188,-10807.006753,-1302.362347
2937.566473,-2146.597232,-11991.336260,612.876398
2937.566801,-1406.391290,-8956.491898,842.705048
2937.567128,666.185348,-6883.915261,-1302.362347
2937.567456,592.164754,-8068.244768,-1225.752797
2937.567783,-592.164754,-10362.883188,1378.971896
2937.568111,-1258.350101,-9474.636058,2528.115143
2937.568438,-370.102971,-8734.430116,153.219100
2937.568766,-592.164754,-10214.842000,-1915.238745
2937.569093,-2072.576638,-10362.883188,-689.485948
2937.569420,-1702.473667,-8586.388927,689.485948
2937.569748,296.082377,-7179.997637,76.609550
2937.570075,2072.576638,-10436.903782,0.000000
2937.570403,1184.329507,-13175.665768,1149.143247
2937.570730,1036.288319,-11695.253884,995.924147
2937.571058,2220.617826,-7772.162391,-766.095498
2937.571385,2664.741391,-8586.388927,-1608.800546
2937.571712,1036.288319,-12065.356855,0.000000
2937.572040,148.041188,-11621.233289,612.876398
2937.572367,2220.617826,-8586.388927,0.000000
2937.572695,3182.885551,-7476.080014,-919.314598
2937.573022,1776.494261,-9770.718434,612.876398
2937.573350,-148.041188,-10436.903782,1991.848295
2937.573677,-444.123565,-8068.244768,919.314598
2937.574005,-1036.288319,-6439.791695,-1991.848295
2937.574332,-1480.411884,-9474.636058,-3140.991542
2937.574659,-1998.556043,-10214.842000,-1149.143247
2937.574987,-592.164754,-7476.080014,612.876398
2937.575314,2220.617826,-9178.553681,229.828649
2937.575642,2294.638420,-13471.748144,229.828649
2937.575969,1480.411884,-13619.789333,536.266849
2937.576297,2220.617826,-9992.780217,0.000000
2937.576624,2368.659014,-7920.203579,-919.314598
2937.576952,1036.288319,-10436.903782,0.000000
2937.577279,0.000000,-11991.336260,459.657299
2937.577606,-370.102971,-9178.553681,383.047749
2937.577934,444.123565,-6735.874072,-689.485948
2937.578261,1332.370696,-8882.471304,-995.924147
2937.578589,-296.082377,-10584.944971,1685.410096
2937.578916,-1776.494261,-9326.594869,2068.457845
2937.579244,0.000000,-7328.038826,306.438199
2937.579571,592.164754,-8956.491898,-995.924147
2937.579898,74.020594,-10288.862594,383.047749
2937.580226,-1184.329507,-7624.121203,1608.800546
2937.580553,-296.082377,-6587.832884,2451.505594
2937.580881,222.061783,-10955.047942,153.219100
2937.581208,222.061783,-14211.954086,-995.924147
2937.581536,-888.247130,-12065.356855,-383.047749
2937.581863,296.082377,-7698.141797,-1532.190996
2937.582191,1110.308913,-9770.718434,-1762.019645
2937.582518,-444.123565,-12657.521608,-689.485948
2937.582845,-2294.638420,-11029.068536,536.266849
2937.583173,-962.267725,-7254.018232,-1302.362347
2937.583500,962.267725,-7402.059420,-2068.457845
2937.583828,222.061783,-9326.594869,383.047749
2937.584155,-740.205942,-9770.718434,2681.334243
2937.584483,0.000000,-8438.347739,2145.067394
2937.584810,592.164754,-7994.224174,-995.924147
2937.585137,74.020594,-10140.821405,-2451.505594
2937.585465,-1850.514855,-10807.006753,-766.095498
2937.585792,-740.205942,-8512.368333,-383.047749
2937.586120,1110.308913,-9326.594869,-2145.067394
2937.586447,518.144159,-12953.603985,-1608.800546
2937.586775,-296.082377,-13915.871710,0.000000
2937.587102,1258.350101,-10436.903782,459.657299
2937.587430,2738.761985,-8512.368333,-306.438199
2937.587757,1406.391290,-10807.006753,-766.095498
2937.588084,-296.082377,-12213.398043,-306.438199
2937.588412,-814.226536,-9178.553681,153.219100
2937.588739,444.123565,-5921.647536,-459.657299
2937.589067,1258.350101,-7772.162391,-766.095498
2937.589394,444.123565,-10881.027347,1149.143247
2937.589722,0.000000,-9400.615463,2221.676944
2937.590049,1406.391290,-7105.977043,-383.047749
2937.590376,2220.617826,-9474.636058,-2298.286494
2937.590704,1110.308913,-11843.295072,-306.438199
2937.591031,962.267725,-9252.574275,1072.533697
2937.591359,2146.597232,-8216.285956,612.876398
2937.591686,2516.700203,-10807.006753,0.000000
2937.592014,1998.556043,-12657.521608,306.438199
2937.592341,814.226536,-9770.718434,842.705048
2937.592669,1406.391290,-7031.956449,459.657299
2937.592996,1554.432478,-9030.512492,-995.924147
2937.593323,296.082377,-12583.501014,-612.876398
2937.593651,-888.247130,-11547.212695,536.266849
2937.593978,296.082377,-7031.956449,-689.485948
2937.594306,1184.329507,-6883.915261,-1149.143247
2937.594633,888.247130,-11103.089130,1149.143247
2937.594961,-148.041188,-10214.842000,2221.676944
2937.595288,-296.082377,-7624.121203,689.485948
2937.595616,222.061783,-8438.347739,-1838.629195
2937.595943,222.061783,-10436.903782,-2068.457845
2937.596270,-1924.535449,-10510.924376,-689.485948
2937.596598,-1702.473667,-9178.553681,0.000000
2937.596925,888.247130,-8734.430116,-1608.800546
2937.597253,1628.453072,-11843.295072,-1378.971896
2937.597580,0.000000,-13471.748144,612.876398
2937.597908,962.267725,-9622.677246,995.924147
2937.598235,2368.659014,-8142.265362,-459.657299
2937.598562,814.226536,-12361.439231,-919.314598
2937.598890,-1184.329507,-12805.562797,0.000000
2937.599217,-1554.432478,-7920.203579,0.000000
2937.599545,-888.247130,-5995.668130,-689.485948
2937.599872,444.123565,-9252.574275,-1149.143247
2937.600200,-592.164754,-10658.965565,-306.438199
2937.600527,-1480.411884,-8808.450710,842.705048
2937.600855,-740.205942,-7550.100608,0.000000
2937.601182,888.247130,-9474.636058,-1685.410096
2937.601509,-1110.308913,-10066.800811,-995.924147
2937.601837,-2368.659014,-9178.553681,689.485948
2937.602164,-962.267725,-7698.141797,0.000000
2937.602492,74.020594,-10288.862594,-766.095498
2937.602819,0.000000,-11991.336260,-153.219100
2937.603147,0.000000,-10436.903782,229.828649
2937.603474,1332.370696,-7920.203579,-842.705048
2937.603801,1776.494261,-9548.656652,-459.657299
2937.604129,1036.288319,-13545.768739,0.000000
2937.604456,0.000000,-11251.130318,612.876398
2937.604784,1184.329507,-7179.997637,-766.095498
2937.605111,2368.659014,-7994.224174,-1302.362347
2937.605439,2072.576638,-11399.171507,0.000000
2937.605766,1554.432478,-11029.068536,1608.800546
2937.606094,1628.453072,-8438.347739,1608.800546
2937.606421,1776.494261,-8438.347739,-76.609550
2937.606748,370.102971,-10362.883188,-689.485948
2937.607076,-1924.535449,-10214.842000,306.438199
2937.607403,-2886.803174,-7105.977043,-536.266849
2937.607731,-1554.432478,-7179.997637,-2298.286494
2937.608058,-962.267725,-10732.986159,-1991.848295
2937.608386,-592.164754,-11843.295072,0.000000
2937.608713,222.061783,-8660.409521,689.485948
2937.609040,1850.514855,-7994.224174,0.000000
2937.609368,1998.556043,-12435.459826,-689.485948
2937.609695,592.164754,-14063.912898,0.000000
2937.610023,222.061783,-9696.697840,919.314598
2937.610350,1480.411884,-6587.832884,0.000000
2937.610678,1850.514855,-8882.471304,-612.876398
2937.611005,296.082377,-11029.068536,689.485948
2937.611333,-370.102971,-8808.450710,1149.143247
2937.611660,0.000000,-7179.997637,76.609550
2937.611987,-370.102971,-8882.471304,-1378.971896
2937.612315,-1332.370696,-10510.924376,-612.876398
2937.612642,-1776.494261,-8808.450710,919.314598
2937.612970,-518.144159,-6513.812290,153.219100
2937.613297,962.267725,-7846.182985,0.000000
2937.613625,1702.473667,-11843.295072,229.828649
2937.613952,666.185348,-10140.821405,1302.362347
2937.614279,1036.288319,-8660.409521,0.000000
2937.614607,1332.370696,-10955.047942,-1762.019645
2937.614934,888.247130,-14508.036463,-2068.457845
2937.615262,-962.267725,-12139.377449,-842.705048
2937.615589,-148.041188,-8216.285956,-766.095498
2937.615917,592.164754,-8660.409521,-1225.752797
2937.616244,1110.308913,-11769.274478,-1378.971896
2937.616572,370.102971,-10807.006753,383.047749
2937.616899,0.000000,-7328.038826,995.924147
2937.617226,222.061783,-6661.853478,-229.828649
2937.617554,-370.102971,-9326.594869,0.000000
2937.617881,-2664.741391,-9178.553681,919.314598
2937.618209,-1480.411884,-6735.874072,842.705048
2937.618536,888.247130,-7402.059420,-995.924147
2937.618864,1554.432478,-12065.356855,-1072.533697
2937.619191,222.061783,-13545.768739,229.828649
2937.619519,592.164754,-10066.800811,0.000000
2937.619846,1776.494261,-9400.615463,-1838.629195
2937.620173,1776.494261,-12287.418637,-1838.629195
2937.620501,-444.123565,-12583.501014,0.000000
2937.620828,74.020594,-9548.656652,919.314598
2937.621156,1480.411884,-7105.977043,153.219100
2937.621483,2072.576638,-8586.388927,306.438199
2937.621811,148.041188,-10214.842000,1991.848295
2937.622138,-1184.329507,-7698.141797,3064.381992
2937.622465,370.102971,-6217.729913,536.266849
2937.622793,296.082377,-7476.080014,-1608.800546
2937.623120,-1702.473667,-9918.759623,-612.876398
2937.623448,-1702.473667,-8808.450710,842.705048
2937.623775,518.144159,-7772.162391,0.000000
2937.624103,1702.473667,-9918.759623,-1378.971896
2937.624431,1850.514855,-13619.789333,-459.657299
2937.624758,1406.391290,-11991.336260,383.047749
2937.625086,1924.535449,-8956.491898,-459.657299
2937.625414,2220.617826,-10732.986159,-1838.629195
2937.625741,222.061783,-13101.645173,-1072.533697
2937.626069,-814.226536,-11103.089130,383.047749
2937.626397,222.061783,-7179.997637,0.000000
2937.626724,1850.514855,-7772.162391,-153.219100
2937.627052,296.082377,-10584.944971,76.609550
2937.627380,-814.226536,-10510.924376,766.095498
2937.627707,-518.144159,-7920.203579,153.219100
2937.628035,666.185348,-7550.100608,-1225.752797
2937.628362,74.020594,-10066.800811,-842.705048
2937.628690,-888.247130,-11769.274478,919.314598
2937.629018,0.000000,-8808.450710,612.876398
2937.629345,1258.350101,-8216.285956,-1302.362347
2937.629673,814.226536,-11621.233289,-1991.848295
2937.630001,-814.226536,-12287.418637,-306.438199
2937.630328,-1480.411884,-9178.553681,-383.047749
2937.630656,592.164754,-8364.327145,-2068.457845
2937.630984,1110.308913,-11325.150913,-1685.410096
2937.631311,740.205942,-12805.562797,229.828649
2937.631639,740.205942,-8586.388927,1302.362347
2937.631967,2220.617826,-6143.709319,1072.533697
2937.632294,2072.576638,-8808.450710,689.485948
2937.632622,814.226536,-11325.150913,1838.629195
2937.632950,-148.041188,-8882.471304,2145.067394
2937.633277,148.041188,-6217.729913,76.609550
2937.633605,370.102971,-8586.388927,-995.924147
2937.633932,-1554.432478,-10436.903782,-306.438199
2937.634260,-1850.514855,-8956.491898,-153.219100
2937.634588,74.020594,-7846.182985,-842.705048
2937.634915,1184.329507,-10066.800811,-1838.629195
2937.635243,0.000000,-11991.336260,-229.828649
2937.635571,-740.205942,-11473.192101,1149.143247
2937.635898,0.000000,-8808.450710,0.000000
2937.636226,740.205942,-9770.718434,-1225.752797
2937.636554,444.123565,-12213.398043,-1991.848295
2937.636881,-1184.329507,-10732.986159,0.000000
2937.637209,296.082377,-7772.162391,536.266849
2937.637537,1332.370696,-8438.347739,-306.438199
2937.637864,1258.350101,-11843.295072,0.000000
2937.638192,740.205942,-12287.418637,-229.828649
2937.638520,370.102971,-8586.388927,-1225.752797
2937.638847,1036.288319,-8068.244768,-2374.896044
2937.639175,74.020594,-10732.986159,-1455.581446
2937.639502,-1406.391290,-10584.944971,612.876398
2937.639830,222.061783,-8068.244768,1072.533697
2937.640158,3330.926739,-8438.347739,153.219100
2937.640485,3330.926739,-11843.295072,-229.828649
2937.640813,296.082377,-13027.624579,842.705048
2937.641141,-370.102971,-9696.697840,-612.876398
2937.641468,-370.102971,-7698.141797,-1991.848295
2937.641796,-888.247130,-10807.006753,-2451.505594
2937.642124,-2072.576638,-11325.150913,-459.657299
2937.642451,-1110.308913,-8216.285956,76.609550
2937.642779,1776.494261,-7105.977043,0.000000
2937.643107,2220.617826,-11325.150913,-536.266849
2937.643434,222.061783,-11325.150913,1991.848295
2937.643762,0.000000,-7772.162391,1685.410096
2937.644090,888.247130,-6513.812290,-306.438199
2937.644417,1628.453072,-9030.512492,-1072.533697
2937.644745,370.102971,-10732.986159,76.609550
2937.645072,-148.041188,-8882.471304,1532.190996
2937.645400,222.061783,-6439.791695,766.095498
2937.645728,740.205942,-9696.697840,-842.705048
2937.646055,-592.164754,-13397.727550,306.438199
2937.646383,-1406.391290,-10955.047942,0.000000
2937.646711,592.164754,-7994.224174,-1838.629195
2937.647038,1554.432478,-9030.512492,-1838.629195
2937.647366,666.185348,-11177.109724,612.876398
2937.647694,-1184.329507,-9622.677246,2221.676944
2937.648021,-1036.288319,-7105.977043,1302.362347
2937.648349,74.020594,-8438.347739,-1072.533697
2937.648677,740.205942,-12731.542202,-2374.896044
2937.649004,518.144159,-11843.295072,-919.314598
2937.649332,444.123565,-8660.409521,0.000000
2937.649660,1628.453072,-9918.759623,-842.705048
2937.649987,0.000000,-12287.418637,-1685.410096
2937.650315,-1702.473667,-11547.212695,-689.485948
2937.650642,-1184.329507,-8216.285956,-995.924147
2937.650970,74.020594,-7402.059420,-1532.190996
2937.651298,74.020594,-10732.986159,-612.876398
2937.651625,-296.082377,-11991.336260,919.314598
2937.651953,0.000000,-8586.388927,1838.629195
2937.652281,1776.494261,-7105.977043,-229.828649
2937.652608,2664.741391,-10214.842000,-1072.533697
2937.652936,444.123565,-12657.521608,-536.266849
2937.653264,222.061783,-9474.636058,0.000000
2937.653591,1258.350101,-7550.100608,-1455.581446
2937.653919,1406.391290,-10214.842000,-766.095498
2937.654247,962.267725,-11547.212695,612.876398
2937.654574,296.082377,-9178.553681,1532.190996
2937.654902,296.082377,-6957.935855,-383.047749
2937.655230,518.144159,-9474.636058,-1455.581446
2937.655557,-814.226536,-10732.986159,-919.314598
2937.655885,-2294.638420,-7846.182985,689.485948
2937.656212,-666.185348,-5329.482782,919.314598
2937.656540,1110.308913,-7328.038826,76.609550
2937.656868,962.267725,-11917.315666,612.876398
2937.657195,444.123565,-10955.047942,1149.143247
2937.657523,1628.453072,-7920.203579,-459.657299
2937.657851,2960.823768,-9548.656652,-1838.629195
2937.658178,2220.617826,-13397.727550,-766.095498
2937.658506,148.041188,-12583.501014,612.876398
2937.658834,1332.370696,-8364.327145,-153.219100
2937.659161,1998.556043,-8882.471304,-1838.629195
2937.659489,1258.350101,-11917.315666,-919.314598
2937.659817,0.000000,-10732.986159,995.924147
2937.660144,-740.205942,-7105.977043,1225.752797
2937.660472,0.000000,-6957.935855,-459.657299
2937.660800,0.000000,-10658.965565,-1838.629195
2937.661127,-1480.411884,-11251.130318,153.219100
2937.661455,-1702.473667,-7254.018232,842.705048
2937.661782,444.123565,-6291.750507,-612.876398
2937.662110,888.247130,-11029.068536,-766.095498
2937.662438,296.082377,-14211.954086,919.314598
2937.662765,1702.473667,-10807.006753,536.266849
2937.663093,2664.741391,-8216.285956,-306.438199
2937.663421,2072.576638,-10881.027347,-1378.971896
2937.663748,-888.247130,-12879.583391,-229.828649
2937.664076,-2590.720797,-8586.388927,919.314598
2937.664404,-1332.370696,-6957.935855,-1378.971896
2937.664731,-814.226536,-10066.800811,-1685.410096
2937.665059,-1554.432478,-10510.924376,459.657299
2937.665387,-740.205942,-7031.956449,1072.533697
2937.665714,1036.288319,-5773.606348,229.828649
2937.666042,518.144159,-9252.574275,0.000000
2937.666370,-740.205942,-11843.295072,919.314598
2937.666697,-1110.308913,-9178.553681,919.314598
2937.667025,148.041188,-7179.997637,-612.876398
2937.667352,814.226536,-10066.800811,-1685.410096
2937.667680,0.000000,-13619.789333,-383.047749
2937.668008,-296.082377,-11769.274478,153.219100
2937.668335,1332.370696,-8364.327145,-536.266849
2937.668663,1924.535449,-9252.574275,-1378.971896
2937.668991,-222.061783,-12139.377449,-306.438199
2937.669318,-1998.556043,-10510.924376,383.047749
2937.669646,-962.267725,-7402.059420,-842.705048
2937.669974,444.123565,-8142.265362,-2298.286494
2937.670301,-222.061783,-9992.780217,-536.266849
2937.670629,-592.164754,-8808.450710,1455.581446
2937.670957,222.061783,-7550.100608,1072.533697
2937.671284,1628.453072,-9696.697840,-919.314598
2937.671612,1036.288319,-12879.583391,-1991.848295
2937.671940,-1184.329507,-12361.439231,-766.095498
2937.672267,0.000000,-8438.347739,-919.314598
2937.672595,1406.391290,-7550.100608,-1991.848295
2937.672922,1258.350101,-11547.212695,76.609550
2937.673250,1258.350101,-12657.521608,1532.190996
2937.673578,3034.844362,-9252.574275,1455.581446
2937.673905,3923.091493,-8438.347739,459.657299
2937.674233,3330.926739,-10584.944971,229.828649
2937.674561,518.144159,-11325.150913,919.314598
2937.674888,-370.102971,-8290.306550,842.705048
2937.675216,-370.102971,-7254.018232,-612.876398
2937.675544,0.000000,-8882.471304,-1455.581446
2937.675871,-518.144159,-9548.656652,383.047749
2937.676199,-1036.288319,-8142.265362,1225.752797
2937.676527,0.000000,-8956.491898,0.000000
2937.676854,0.000000,-10881.027347,-1532.190996
2937.677182,-1554.432478,-11029.068536,-766.095498
2937.677510,-2738.761985,-7994.224174,306.438199
2937.677837,0.000000,-6217.729913,-306.438199
2937.678165,1702.473667,-9030.512492,-919.314598
2937.678492,1554.432478,-12805.562797,459.657299
2937.678820,1258.350101,-12213.398043,1838.629195
2937.679148,2590.720797,-8956.491898,536.266849
2937.679475,2146.597232,-9474.636058,-689.485948
2937.679803,0.000000,-11177.109724,-383.047749
2937.680131,-1406.391290,-11103.089130,306.438199
2937.680458,-1110.308913,-7920.203579,-612.876398
2937.680786,-148.041188,-7402.059420,-1378.971896
2937.681114,-666.185348,-9770.718434,-383.047749
2937.681441,-1258.350101,-9622.677246,1225.752797
2937.681769,-1332.370696,-8290.306550,2068.457845
2937.682097,0.000000,-9030.512492,-919.314598
2937.682424,0.000000,-12139.377449,-2911.162892
2937.682752,-1258.350101,-11991.336260,-1072.533697
2937.683080,-222.061783,-8660.409521,-612.876398
2937.683407,1258.350101,-8290.306550,-612.876398
2937.683735,1924.535449,-12213.398043,0.000000
2937.684062,518.144159,-13101.645173,612.876398
2937.684390,0.000000,-9844.739029,919.314598
2937.684718,1406.391290,-7994.224174,-612.876398
2937.685045,1110.308913,-10510.924376,-1532.190996
2937.685373,-1702.473667,-11325.150913,229.828649
2937.685701,-2590.720797,-7698.141797,1072.533697
2937.686028,0.000000,-6513.812290,-919.314598
2937.686356,1110.308913,-8808.450710,-919.314598
2937.686684,370.102971,-9844.739029,612.876398
2937.687011,740.205942,-7920.203579,1455.581446
2937.687339,1628.453072,-7772.162391,0.000000
2937.687667,1628.453072,-11177.109724,-612.876398
2937.687994,-296.082377,-13175.665768,0.000000
2937.688322,-1628.453072,-9918.759623,153.219100
2937.688650,370.102971,-7105.977043,-1915.238745
2937.688977,2072.576638,-9770.718434,-1532.190996
2937.689305,962.267725,-12805.562797,459.657299
2937.689632,0.000000,-10658.965565,2145.067394
2937.689960,1850.514855,-7476.080014,229.828649
2937.690288,1776.494261,-8956.491898,-1149.143247
2937.690615,-222.061783,-11547.212695,0.000000
2937.690943,-1184.329507,-9400.615463,536.266849
2937.691271,-222.061783,-6217.729913,229.828649
2937.691598,1110.308913,-8586.388927,-612.876398
2937.691926,2072.576638,-10881.027347,-689.485948
2937.692254,1258.350101,-10214.842000,536.266849
2937.692581,666.185348,-9326.594869,689.485948
2937.692909,1110.308913,-10436.903782,-919.314598
2937.693237,0.000000,-12879.583391,-1915.238745
2937.693564,-1850.514855,-10732.986159,-1532.190996
2937.693892,-1036.288319,-6809.894666,-306.438199
2937.694220,1110.308913,-6957.935855,-919.314598
2937.694547,814.226536,-11769.274478,1072.533697
2937.694875,-444.123565,-12953.603985,2068.457845
2937.695202,0.000000,-8438.347739,536.266849
2937.695530,1406.391290,-7254.018232,-1072.533697
2937.695858,1110.308913,-10510.924376,-1838.629195
2937.696185,-1036.288319,-11399.171507,0.000000
2937.696513,-814.226536,-8956.491898,766.095498
2937.696841,1406.391290,-8068.244768,-842.705048
2937.697168,1702.473667,-10881.027347,-1378.971896
2937.697496,518.144159,-11251.130318,0.000000
2937.697824,74.020594,-8586.388927,1455.581446
2937.698151,296.082377,-8364.327145,153.219100
2937.698479,-148.041188,-11029.068536,-612.876398
2937.698807,-2294.638420,-10881.027347,0.000000
2937.699134,-2664.741391,-7105.977043,766.095498
2937.699462,-1184.329507,-5033.400406,0.000000
2937.699790,-444.123565,-8734.430116,0.000000
2937.700117,-518.144159,-12435.459826,306.438199
2937.700445,-222.061783,-10510.924376,-229.828649
2937.700772,1554.432478,-8142.265362,-842.705048
2937.701100,1924.535449,-10066.800811,-1532.190996
2937.701428,444.123565,-13619.789333,-612.876398
2937.701755,-370.102971,-12435.459826,459.657299
2937.702083,592.164754,-8956.491898,0.000000
2937.702411,1480.411884,-8512.368333,-1762.019645
2937.702738,814.226536,-10807.006753,-1302.362347
2937.703066,-814.226536,-9844.739029,842.705048
2937.703394,-592.164754,-7031.956449,689.485948
2937.703721,222.061783,-7550.100608,-1685.410096
2937.704049,-444.123565,-10807.006753,-1378.971896
2937.704377,-1184.329507,-9474.636058,76.609550
2937.704704,-370.102971,-6513.812290,459.657299
2937.705032,1850.514855,-7994.224174,0.000000
2937.705360,1998.556043,-13175.665768,-612.876398
2937.705687,888.247130,-14285.974681,0.000000
2937.706015,962.267725,-10214.842000,-306.438199
2937.706342,2368.659014,-8882.471304,-1915.238745
2937.706670,2442.679609,-12435.459826,-2068.457845
2937.706998,592.164754,-12731.542202,1225.752797
2937.707325,-444.123565,-8068.244768,1915.238745
2937.707653,1184.329507,-6291.750507,-766.095498
2937.707981,1628.453072,-8142.265362,-919.314598
2937.708308,0.000000,-9474.636058,153.219100
2937.708636,-962.267725,-6735.874072,1532.190996
2937.708964,0.000000,-6587.832884,383.047749
2937.709291,1924.535449,-9696.697840,-842.705048
2937.709619,962.267725,-11843.295072,-383.047749
2937.709947,222.061783,-9622.677246,2145.067394
2937.710274,1258.350101,-8660.409521,536.266849
2937.710602,1480.411884,-10955.047942,-995.924147
2937.710930,0.000000,-13323.706956,-919.314598
2937.711257,-1258.350101,-10658.965565,0.000000
2937.711585,296.082377,-7550.100608,-459.657299
2937.711912,1554.432478,-9178.553681,-1915.238745
2937.712240,222.061783,-12213.398043,-383.047749
2937.712568,-1258.350101,-10658.965565,842.705048
2937.712895,148.041188,-7476.080014,229.828649
2937.713223,1850.514855,-8142.265362,-766.095498
2937.713551,1702.473667,-10658.965565,153.219100
2937.713878,296.082377,-9844.739029,2145.067394
2937.714206,814.226536,-7179.997637,2068.457845
2937.714534,1332.370696,-7624.121203,-536.266849
2937.714861,-962.267725,-11325.150913,-306.438199
2937.715189,-3256.906145,-10955.047942,306.438199
2937.715517,-1924.535449,-7550.100608,-995.924147
2937.715844,0.000000,-8068.244768,-2451.505594
2937.716172,0.000000,-13249.686362,-1378.971896
2937.716500,-1036.288319,-12805.562797,689.485948
2937.716827,74.020594,-8882.471304,995.924147
2937.717155,1406.391290,-7698.141797,-1302.362347
2937.717482,1258.350101,-11325.150913,-1685.410096
2937.717810,-1036.288319,-11843.295072,306.438199
2937.718138,-1258.350101,-9104.533087,1455.581446
2937.718465,814.226536,-7624.121203,-536.266849
2937.718793,1480.411884,-9918.759623,-1378.971896
2937.719121,-1702.473667,-9992.780217,1302.362347
2937.719448,-2220.617826,-7846.182985,1149.143247
2937.719776,-666.185348,-7328.038826,-1838.629195
2937.720104,148.041188,-9844.739029,-3217.601092
2937.720431,-518.144159,-10732.986159,-1685.410096
2937.720759,-666.185348,-8512.368333,76.609550
2937.721087,0.000000,-7105.977043,842.705048
2937.721414,1924.535449,-10288.862594,0.000000
2937.721742,1702.473667,-13471.748144,-459.657299
2937.722070,1258.350101,-11843.295072,-153.219100
2937.722397,1776.494261,-9400.615463,-766.095498
2937.722725,2294.638420,-10214.842000,-1532.190996
2937.723052,666.185348,-12287.418637,-153.219100
2937.723380,-1850.514855,-11399.171507,1455.581446
2937.723708,-814.226536,-7772.162391,536.266849
2937.724035,148.041188,-7476.080014,-1685.410096
2937.724363,-296.082377,-10214.842000,-919.314598
2937.724691,-222.061783,-9844.739029,1149.143247
2937.725018,592.164754,-7402.059420,1225.752797
2937.725346,2146.597232,-7476.080014,612.876398
2937.725674,1702.473667,-9992.780217,612.876398
2937.726001,1554.432478,-9918.759623,1072.533697
2937.726329,1924.535449,-7846.182985,842.705048
2937.726657,2220.617826,-9252.574275,-306.438199
2937.726984,1628.453072,-13101.645173,-306.438199
2937.727312,1110.308913,-14285.974681,229.828649
2937.727640,1332.370696,-10214.842000,459.657299
2937.727967,888.247130,-7994.224174,0.000000
2937.728295,1110.308913,-11251.130318,-459.657299
2937.728623,-888.247130,-12213.398043,536.266849
2937.728950,-1480.411884,-8290.306550,1225.752797
2937.729278,0.000000,-5403.503377,76.609550
2937.729606,222.061783,-7105.977043,76.609550
2937.729933,-518.144159,-9030.512492,1532.190996
2937.730261,-666.185348,-8068.244768,1838.629195
2937.730589,1258.350101,-6883.915261,-766.095498
2937.730916,1258.350101,-10214.842000,-2145.067394
2937.731244,518.144159,-12139.377449,-1838.629195
2937.731572,0.000000,-10066.800811,-306.438199
2937.731899,0.000000,-9400.615463,-306.438199
2937.732227,814.226536,-11769.274478,-1378.971896
2937.732555,-222.061783,-12879.583391,-1149.143247
2937.732882,-962.267725,-10362.883188,76.609550
2937.733210,518.144159,-7624.121203,-153.219100
2937.733538,1332.370696,-9400.615463,-383.047749
2937.733865,-962.267725,-11621.233289,306.438199
2937.734193,-2294.638420,-10288.862594,306.438199
2937.734521,-888.247130,-7328.038826,-1072.533697
2937.734848,0.000000,-7920.203579,-2374.896044
2937.735176,0.000000,-10807.006753,-1225.752797
2937.735504,-740.205942,-11473.192101,919.314598
2937.735831,-1184.329507,-9178.553681,919.314598
2937.736159,0.000000,-9770.718434,-2145.067394
2937.736487,-296.082377,-11695.253884,-2757.943793
2937.736814,-2072.576638,-9844.739029,-995.924147
2937.737142,-814.226536,-6957.935855,0.000000
2937.737470,296.082377,-7476.080014,459.657299
2937.737797,1110.308913,-10658.965565,689.485948
2937.738125,518.144159,-10732.986159,1685.410096
2937.738453,814.226536,-8290.306550,1532.190996
2937.738780,1702.473667,-8512.368333,-383.047749
2937.739108,1332.370696,-11695.253884,-1532.190996
2937.739436,-962.267725,-12213.398043,153.219100
2937.739764,-1258.350101,-9104.533087,0.000000
2937.740091,1480.411884,-7328.038826,-689.485948
2937.740419,2590.720797,-10362.883188,0.000000
2937.740747,1110.308913,-11177.109724,2221.676944
2937.741074,296.082377,-8290.306550,2451.505594
2937.741402,1406.391290,-6661.853478,-689.485948
2937.741730,1628.453072,-8364.327145,-2528.115143
2937.742057,-296.082377,-9400.615463,-383.047749
2937.742385,-1110.308913,-8290.306550,1378.971896
2937.742713,1036.288319,-7328.038826,612.876398
2937.743040,2960.823768,-10288.862594,-1378.971896
2937.743368,2294.638420,-13619.789333,-766.095498
2937.743696,1628.453072,-11547.212695,689.485948
2937.744023,2146.597232,-8734.430116,-229.828649
2937.744351,1776.494261,-9770.718434,-2298.286494
2937.744679,-444.123565,-13693.809927,-1302.362347
2937.745006,-1998.556043,-11103.089130,-459.657299
2937.745334,-666.185348,-7550.100608,-1378.971896
2937.745662,1036.288319,-9030.512492,-2068.457845
2937.745989,888.247130,-11547.212695,-306.438199
2937.746317,444.123565,-10955.047942,689.485948
2937.746645,370.102971,-8512.368333,229.828649
2937.746972,1036.288319,-8438.347739,-1072.533697
2937.747300,814.226536,-9992.780217,-1302.362347
2937.747628,-1184.329507,-10214.842000,1378.971896
2937.747955,-444.123565,-7698.141797,2145.067394
2937.748283,666.185348,-6069.688724,536.266849
2937.748611,518.144159,-10288.862594,0.000000
2937.748938,-1850.514855,-12361.439231,1225.752797
2937.749266,-962.267725,-9252.574275,-229.828649
2937.749594,1480.411884,-8216.285956,-2451.505594
2937.749921,1036.288319,-12583.501014,-1762.019645
2937.750249,-962.267725,-13619.789333,0.000000
2937.750577,-444.123565,-9030.512492,1149.143247
2937.750904,1036.288319,-6883.915261,-612.876398
2937.751232,1332.370696,-9178.553681,0.000000
2937.751560,-1110.308913,-9474.636058,1455.581446
2937.751887,-1776.494261,-7624.121203,2374.896044
2937.752215,-666.185348,-6661.853478,0.000000
2937.752543,-296.082377,-9400.615463,-1608.800546
2937.752870,-2368.659014,-10732.986159,-766.095498
2937.753198,-2294.638420,-8216.285956,536.266849
2937.753526,-592.164754,-7105.977043,-1149.143247
2937.753853,814.226536,-9844.739029,-2451.505594
2937.754181,1258.350101,-13027.624579,-1302.362347
2937.754509,1480.411884,-11177.109724,76.609550
2937.754836,2812.782580,-8808.450710,0.000000
2937.755164,2738.761985,-10584.944971,-229.828649
2937.755492,296.082377,-13101.645173,0.000000
2937.755819,-1184.329507,-11843.295072,153.219100
2937.756147,-592.164754,-8364.327145,-1915.238745
2937.756475,592.164754,-8512.368333,-2451.505594
2937.756802,222.061783,-11325.150913,-1149.143247
2937.757130,-1258.350101,-10807.006753,1149.143247
2937.757458,-1332.370696,-7698.141797,229.828649
2937.757785,74.020594,-7920.203579,-1838.629195
2937.758113,0.000000,-10362.883188,-1991.848295
2937.758441,-1258.350101,-9548.656652,536.266849
2937.758768,0.000000,-6957.935855,919.314598
2937.759096,1850.514855,-7254.018232,76.609550
2937.759424,2590.720797,-11177.109724,-306.438199
2937.759751,2368.659014,-12805.562797,766.095498
2937.760079,2442.679609,-9474.636058,919.314598
2937.760407,2738.761985,-9548.656652,-536.266849
2937.760734,2368.659014,-12065.356855,-1532.190996
2937.761062,-444.123565,-12509.480420,-536.266849
2937.761390,-1480.411884,-8956.491898,306.438199
2937.761717,518.144159,-7031.956449,76.609550
2937.762045,1110.308913,-8808.450710,383.047749
2937.762373,-740.205942,-9844.739029,1915.238745
2937.762700,-1406.391290,-7772.162391,2451.505594
2937.763028,-148.041188,-5847.626942,689.485948
2937.763356,296.082377,-8364.327145,-1072.533697
2937.763683,-666.185348,-10436.903782,-153.219100
2937.764011,-1184.329507,-8438.347739,995.924147
2937.764339,444.123565,-7624.121203,0.000000
2937.764666,2072.576638,-11251.130318,-1991.848295
2937.764994,1036.288319,-13619.789333,-919.314598
2937.765322,518.144159,-11991.336260,76.609550
2937.765649,2072.576638,-9474.636058,-536.266849
2937.765977,2812.782580,-11473.192101,-1225.752797
2937.766305,1258.350101,-13027.624579,0.000000
2937.766632,-370.102971,-10140.821405,1225.752797
2937.766960,148.041188,-6587.832884,0.000000
2937.767288,0.000000,-7105.977043,-153.219100
2937.767615,-1110.308913,-9918.759623,0.000000
2937.767943,-3256.906145,-9844.739029,536.266849
2937.768271,-2664.741391,-7624.121203,-459.657299
2937.768599,-1258.350101,-8142.265362,-2681.334243
2937.768926,-740.205942,-11177.109724,-3217.601092
2937.769254,-1332.370696,-11621.233289,-153.219100
2937.769582,-740.205942,-9178.553681,459.657299
2937.769909,518.144159,-8438.347739,-459.657299
2937.770237,1406.391290,-11843.295072,-1378.971896
2937.770565,0.000000,-12583.501014,0.000000
2937.770892,74.020594,-9770.718434,689.485948
2937.771220,1702.473667,-7179.997637,-766.095498
2937.771548,1628.453072,-10288.862594,-1149.143247
2937.771875,-518.144159,-11769.274478,1225.752797
2937.772203,-444.123565,-7698.141797,1378.971896
2937.772531,888.247130,-6883.915261,-612.876398
2937.772858,444.123565,-10066.800811,-612.876398
2937.773186,-518.144159,-11177.109724,76.609550
2937.773514,-1110.308913,-9030.512492,995.924147
2937.773841,-666.185348,-7031.956449,0.000000
2937.774169,1258.350101,-9696.697840,-1762.019645
2937.774497,222.061783,-12065.356855,-153.219100
2937.774824,-370.102971,-9844.739029,1762.019645
2937.775152,1332.370696,-7772.162391,0.000000
2937.775480,2294.638420,-9252.574275,-1608.800546
2937.775807,444.123565,-11547.212695,-995.924147
2937.776135,888.247130,-10881.027347,-229.828649
2937.776463,2072.576638,-7698.141797,383.047749
2937.776790,3034.844362,-9030.512492,-689.485948
2937.777118,2442.679609,-12583.501014,536.266849
2937.777446,814.226536,-11399.171507,1838.629195
2937.777773,1258.350101,-9104.533087,995.924147
2937.778101,2368.659014,-9252.574275,-1072.533697
2937.778429,296.082377,-10584.944971,-536.266849
2937.778756,-1258.350101,-10214.842000,536.266849
2937.779084,-1036.288319,-7994.224174,-306.438199
2937.779412,-222.061783,-8586.388927,-1532.190996
2937.779739,-518.144159,-11103.089130,-1225.752797
2937.780067,-1480.411884,-11103.089130,76.609550
2937.780395,0.000000,-8142.265362,0.000000
2937.780722,1776.494261,-7328.038826,-1608.800546
2937.781050,2146.597232,-10807.006753,-229.828649
2937.781378,1554.432478,-12509.480420,1762.019645
2937.781705,1776.494261,-9548.656652,2374.896044
2937.782033,2812.782580,-6439.791695,536.266849
2937.782361,518.144159,-9178.553681,0.000000
2937.782688,-2294.638420,-11769.274478,0.000000
2937.783016,-1702.473667,-9474.636058,383.047749
2937.783344,148.041188,-7698.141797,-1149.143247
2937.783671,444.123565,-10955.047942,-1608.800546
2937.783999,-962.267725,-12213.398043,306.438199
2937.784327,-1406.391290,-8364.327145,459.657299
2937.784654,0.000000,-7476.080014,-842.705048
2937.784982,74.020594,-8956.491898,-1455.581446
2937.785310,-1554.432478,-10881.027347,-153.219100
2937.785637,-2294.638420,-9400.615463,1455.581446
2937.785965,0.000000,-7328.038826,-306.438199
2937.786293,740.205942,-9178.553681,-1302.362347
2937.786620,0.000000,-12879.583391,76.609550
2937.786948,-888.247130,-11473.192101,1072.533697
2937.787276,1258.350101,-8586.388927,-1302.362347
2937.787603,2220.617826,-9474.636058,-2145.067394
2937.787931,962.267725,-12509.480420,-842.705048
2937.788259,222.061783,-11325.150913,919.314598
2937.788586,888.247130,-7624.121203,919.314598
2937.788914,1554.432478,-8438.347739,-306.438199
2937.789242,666.185348,-11473.192101,0.000000
2937.789569,0.000000,-10732.986159,536.266849
2937.789897,-962.267725,-7550.100608,-153.219100
2937.790225,0.000000,-7920.203579,-2451.505594
2937.790552,-592.164754,-10288.862594,-1149.143247
2937.790880,-2294.638420,-10732.986159,306.438199
2937.791208,-1924.535449,-7994.224174,459.657299
2937.791535,0.000000,-7846.182985,-1302.362347
2937.791863,1036.288319,-11473.192101,-1378.971896
2937.792191,296.082377,-11769.274478,229.828649
2937.792518,1110.308913,-8512.368333,919.314598
2937.792846,2960.823768,-7476.080014,153.219100
2937.793174,3108.864956,-11251.130318,0.000000
2937.793501,1850.514855,-12065.356855,612.876398
2937.793829,888.247130,-8660.409521,536.266849
2937.794157,1850.514855,-7031.956449,-689.485948
2937.794484,1480.411884,-10140.821405,-995.924147
2937.794812,-296.082377,-12065.356855,612.876398
2937.795140,-592.164754,-9918.759623,229.828649
2937.795467,74.020594,-7920.203579,-612.876398
2937.795795,370.102971,-9992.780217,-1378.971896
2937.796123,-1258.350101,-11621.233289,-689.485948
2937.796450,-1924.535449,-9104.533087,306.438199
2937.796778,-962.267725,-6513.812290,153.219100
2937.797106,0.000000,-8586.388927,-1378.971896
2937.797434,592.164754,-11917.315666,-689.485948
2937.797761,814.226536,-10955.047942,536.266849
2937.798089,1924.535449,-8290.306550,-153.219100
2937.798417,2516.700203,-10066.800811,-1378.971896
2937.798744,1702.473667,-13841.851115,-1072.533697
2937.799072,444.123565,-12361.439231,536.266849
2937.799400,592.164754,-8068.244768,229.828649
2937.799727,1702.473667,-9178.553681,-842.705048
2937.800055,1258.350101,-11695.253884,0.000000
2937.800383,0.000000,-9696.697840,1838.629195
2937.800710,-888.247130,-6661.853478,1762.019645
2937.801038,0.000000,-7031.956449,153.219100
2937.801366,-518.144159,-9400.615463,-383.047749
2937.801693,-1924.535449,-9474.636058,995.924147
2937.802021,-2664.741391,-6661.853478,612.876398
2937.802349,-888.247130,-7402.059420,-766.095498
2937.802676,-222.061783,-11621.233289,-1225.752797
2937.803004,-1184.329507,-12287.418637,0.000000
2937.803332,-962.267725,-9178.553681,612.876398
2937.803659,962.267725,-8882.471304,-1685.410096
2937.803987,2072.576638,-11325.150913,-2298.286494
2937.804315,962.267725,-12657.521608,-919.314598
2937.804642,444.123565,-9474.636058,1225.752797
2937.804970,1406.391290,-7846.182985,919.314598
2937.805298,1998.556043,-9474.636058,153.219100
2937.805625,1258.350101,-10140.821405,0.000000
2937.805953,-518.144159,-7772.162391,1149.143247
2937.806281,-148.041188,-6661.853478,0.000000
2937.806608,0.000000,-8734.430116,-2145.067394
2937.806936,-592.164754,-11843.295072,-1685.410096
2937.807264,-1776.494261,-9696.697840,-306.438199
2937.807591,-444.123565,-8290.306550,-383.047749
2937.807919,1480.411884,-10214.842000,-1149.143247
2937.808247,1628.453072,-13471.748144,-1915.238745
2937.808574,666.185348,-12435.459826,0.000000
2937.808902,1554.432478,-8882.471304,-995.924147
2937.809230,2664.741391,-9844.739029,-2451.505594
2937.809557,1850.514855,-12731.542202,-1608.800546
2937.809885,0.000000,-10881.027347,919.314598
2937.810213,0.000000,-7402.059420,1762.019645
2937.810540,1332.370696,-8068.244768,536.266849
2937.810868,1628.453072,-10066.800811,0.000000
2937.811196,296.082377,-9844.739029,1532.190996
2937.811523,-296.082377,-7031.956449,1532.190996
2937.811851,444.123565,-8290.306550,153.219100
2937.812179,666.185348,-11621.233289,-612.876398
2937.812506,-592.164754,-10732.986159,536.266849
2937.812834,-370.102971,-8438.347739,306.438199
2937.813162,814.226536,-7846.182985,-1608.800546
2937.813489,1184.329507,-10732.986159,-1455.581446
2937.813817,518.144159,-12805.562797,459.657299
2937.814145,592.164754,-9252.574275,383.047749
2937.814472,2368.659014,-7328.038826,-536.266849
2937.814800,2294.638420,-10066.800811,0.000000
2937.815128,0.000000,-10807.006753,2298.286494
2937.815455,-1036.288319,-8290.306550,3140.991542
2937.815783,222.061783,-5329.482782,153.219100
2937.816111,444.123565,-7698.141797,-919.314598
2937.816438,-1110.308913,-10510.924376,76.609550
2937.816766,-1628.453072,-9696.697840,1455.581446
2937.817094,0.000000,-8586.388927,0.000000
2937.817421,1702.473667,-11029.068536,-2451.505594
2937.817749,-518.144159,-12879.583391,-1915.238745
2937.818077,-2294.638420,-10066.800811,76.609550
2937.818404,-888.247130,-7402.059420,-689.485948
2937.818732,740.205942,-9770.718434,-1532.190996
2937.819060,296.082377,-13249.686362,-1072.533697
2937.819387,-296.082377,-11621.233289,-229.828649
2937.819715,666.185348,-8882.471304,-383.047749
2937.820043,1036.288319,-8956.491898,-2068.457845
2937.820370,-444.123565,-11991.336260,-1072.533697
2937.820698,-2664.741391,-11029.068536,229.828649
2937.821026,-592.164754,-7846.182985,-689.485948
2937.821353,2220.617826,-8364.327145,-1915.238745
2937.821681,2590.720797,-10955.047942,-1378.971896
2937.822009,444.123565,-10362.883188,1608.800546
2937.822336,444.123565,-8882.471304,1915.238745
2937.822664,1258.350101,-9030.512492,-689.485948
2937.822992,370.102971,-11769.274478,-1915.238745
2937.823319,-2072.576638,-10732.986159,-536.266849
2937.823647,-1554.432478,-7624.121203,-306.438199
2937.823975,0.000000,-7476.080014,-842.705048
2937.824302,370.102971,-10807.006753,0.000000
2937.824630,370.102971,-12213.398043,1378.971896
2937.824958,74.020594,-9104.533087,1302.362347
2937.825286,1776.494261,-7179.997637,-689.485948
2937.825613,1924.535449,-9918.759623,-919.314598
2937.825941,0.000000,-11547.212695,1302.362347
2937.826269,-666.185348,-8216.285956,2298.286494
2937.826596,1258.350101,-6069.688724,306.438199
2937.826924,1776.494261,-8586.388927,0.000000
2937.827251,1554.432478,-11325.150913,306.438199
2937.827579,592.164754,-10140.821405,842.705048
2937.827907,888.247130,-8438.347739,0.000000
2937.828234,1110.308913,-9918.759623,-2145.067394
2937.828562,-74.020594,-11695.253884,-1608.800546
2937.828889,-1554.432478,-8882.471304,1149.143247
2937.829217,-518.144159,-6291.750507,1072.533697
2937.829545,1110.308913,-8956.491898,612.876398
2937.829872,1406.391290,-13693.809927,-229.828649
2937.830200,518.144159,-12213.398043,76.609550
2937.830527,518.144159,-7772.162391,-306.438199
2937.830855,888.247130,-8512.368333,-1762.019645
2937.831183,740.205942,-12583.501014,-1532.190996
2937.831510,-962.267725,-11843.295072,-306.438199
2937.831838,222.061783,-8142.265362,-995.924147
2937.832165,1406.391290,-8068.244768,-1608.800546
2937.832493,1924.535449,-11843.295072,-1455.581446
2937.832821,666.185348,-11621.233289,383.047749
2937.833148,0.000000,-8734.430116,842.705048
2937.833476,814.226536,-8364.327145,-766.095498
2937.833803,666.185348,-10362.883188,-1455.581446
2937.834131,-1258.350101,-10066.800811,76.609550
2937.834459,-2590.720797,-6513.812290,1838.629195
2937.834786,-962.267725,-7031.956449,689.485948
2937.835114,740.205942,-11843.295072,-842.705048
2937.835441,0.000000,-12879.583391,-383.047749
2937.835769,-888.247130,-8956.491898,536.266849
2937.836097,666.185348,-7254.018232,0.000000
2937.836424,1702.473667,-10288.862594,-229.828649
2937.836752,-888.247130,-12657.521608,229.828649
2937.837079,-2738.761985,-8956.491898,1532.190996
2937.837407,-1554.432478,-5625.565159,-383.047749
2937.837735,296.082377,-8364.327145,-1915.238745
2937.838062,0.000000,-10881.027347,-1302.362347
2937.838390,-962.267725,-9326.594869,612.876398
2937.838718,-370.102971,-7994.224174,1685.410096
2937.839045,1258.350101,-10066.800811,0.000000
2937.839373,962.267725,-11843.295072,-612.876398
2937.839700,-592.164754,-9474.636058,1072.533697
2937.840028,74.020594,-6587.832884,383.047749
2937.840356,1554.432478,-9252.574275,-536.266849
2937.840683,1850.514855,-12879.583391,-919.314598
2937.841011,370.102971,-11251.130318,612.876398
2937.841338,1332.370696,-8364.327145,536.266849
2937.841666,2072.576638,-9770.718434,-766.095498
2937.841994,1258.350101,-13323.706956,-1455.581446
2937.842321,-296.082377,-11917.315666,-766.095498
2937.842649,-592.164754,-7550.100608,-766.095498
2937.842976,1406.391290,-7624.121203,-1915.238745
2937.843304,2812.782580,-10584.944971,-1532.190996
2937.843632,74.020594,-10510.924376,1685.410096
2937.843959,-222.061783,-8512.368333,2451.505594
2937.844287,814.226536,-8364.327145,0.000000
2937.844614,814.226536,-9918.759623,-1532.190996
2937.844942,-296.082377,-9696.697840,-919.314598
2937.845270,-1110.308913,-7846.182985,995.924147
2937.845597,592.164754,-8068.244768,0.000000
2937.845925,1998.556043,-11621.233289,-1532.190996
2937.846252,888.247130,-13249.686362,-383.047749
2937.846580,592.164754,-10214.842000,229.828649
2937.846908,2072.576638,-8512.368333,-766.095498
2937.847235,2664.741391,-11547.212695,-1455.581446
2937.847563,1406.391290,-12435.459826,-842.705048
2937.847890,0.000000,-9474.636058,536.266849
2937.848218,1258.350101,-7031.956449,76.609550
2937.848546,2442.679609,-9030.512492,-612.876398
2937.848873,1258.350101,-10584.944971,536.266849
2937.849201,-1184.329507,-7994.224174,1915.238745
2937.849528,-1258.350101,-6439.791695,689.485948
2937.849856,0.000000,-7179.997637,-1149.143247
2937.850184,-1036.288319,-10362.883188,-2068.457845
2937.850511,-2960.823768,-9622.677246,306.438199
2937.850839,-962.267725,-7994.224174,306.438199
2937.851166,1480.411884,-10658.965565,-919.314598
2937.851494,1998.556043,-14730.098246,-995.924147
2937.851822,444.123565,-12879.583391,612.876398
2937.852149,518.144159,-8290.306550,766.095498
2937.852477,1480.411884,-8364.327145,-919.314598
2937.852804,518.144159,-12731.542202,-842.705048
2937.853132,-2664.741391,-11177.109724,229.828649
2937.853460,-2220.617826,-7031.956449,0.000000
2937.853787,-518.144159,-7402.059420,-1225.752797
2937.854115,-222.061783,-9770.718434,-1149.143247
2937.854442,-1036.288319,-10214.842000,1072.533697
2937.854770,-1184.329507,-7179.997637,1378.971896
2937.855098,518.144159,-7550.100608,-995.924147
2937.855425,1110.308913,-10362.883188,-1762.019645
2937.855753,-666.185348,-9844.739029,0.000000
2937.856080,-1628.453072,-7624.121203,1838.629195
2937.856408,222.061783,-7994.224174,383.047749
2937.856736,1628.453072,-12361.439231,-995.924147
2937.857063,222.061783,-13915.871710,-383.047749
2937.857391,222.061783,-9844.739029,-536.266849
2937.857718,1332.370696,-8364.327145,-1378.971896
2937.858046,1776.494261,-11251.130318,-1915.238745
2937.858374,0.000000,-12361.439231,-306.438199
2937.858701,-1628.453072,-9104.533087,919.314598
2937.859029,0.000000,-5625.565159,689.485948
2937.859357,1332.370696,-7402.059420,-153.219100
2937.859684,1258.350101,-10362.883188,995.924147
2937.860012,-888.247130,-8808.450710,1838.629195
2937.860339,0.000000,-7254.018232,612.876398
2937.860667,1850.514855,-9400.615463,-2374.896044
2937.860995,1258.350101,-11769.274478,-2681.334243
2937.861322,-666.185348,-9622.677246,-612.876398
2937.861650,74.020594,-7328.038826,229.828649
2937.861977,2072.576638,-11325.150913,-612.876398
2937.862305,2516.700203,-14359.995275,-459.657299
2937.862633,888.247130,-11769.274478,383.047749
2937.862960,814.226536,-7550.100608,612.876398
2937.863288,2516.700203,-9326.594869,-229.828649
2937.863615,1258.350101,-13471.748144,0.000000
2937.863943,-814.226536,-10807.006753,1149.143247
2937.864271,-1332.370696,-5995.668130,229.828649
2937.864598,74.020594,-5699.585753,-842.705048
2937.864926,666.185348,-11029.068536,-766.095498
2937.865253,-222.061783,-11029.068536,612.876398
2937.865581,-740.205942,-7698.141797,459.657299
2937.865909,1184.329507,-8216.285956,-1685.410096
2937.866236,1554.432478,-10955.047942,-2221.676944
2937.866564,0.000000,-11177.109724,0.000000
2937.866891,-1110.308913,-7550.100608,2374.896044
2937.867219,592.164754,-7254.018232,766.095498
2937.867547,2442.679609,-11251.130318,-1302.362347
2937.867874,592.164754,-12435.459826,0.000000
2937.868202,-592.164754,-8956.491898,1838.629195
2937.868529,814.226536,-7031.956449,842.705048
2937.868857,1702.473667,-10732.986159,-1302.362347
2937.869185,-962.267725,-13249.686362,-612.876398
2937.869512,-2146.597232,-9474.636058,-153.219100
2937.869840,-148.041188,-6513.812290,-306.438199
2937.870167,2072.576638,-9104.533087,-1072.533697
2937.870495,888.247130,-11547.212695,383.047749
2937.870823,-1776.494261,-9474.636058,2451.505594
2937.871150,-2590.720797,-6365.771101,76.609550
2937.871478,-1924.535449,-8438.347739,-3064.381992
2937.871805,-2516.700203,-10658.965565,-4443.353888
2937.872133,-2960.823768,-9548.656652,-2298.286494
2937.872461,-1406.391290,-8142.265362,0.000000
2937.872788,1480.411884,-10214.842000,-1302.362347
2937.873116,2516.700203,-13323.706956,-153.219100
2937.873443,1332.370696,-12139.377449,919.314598
2937.873771,962.267725,-8512.368333,383.047749
2937.874099,2590.720797,-10140.821405,-1302.362347
2937.874426,2220.617826,-13841.851115,-1455.581446
2937.874754,148.041188,-11621.233289,383.047749
2937.875081,-444.123565,-6883.915261,1532.190996
2937.875409,962.267725,-6957.935855,1149.143247
2937.875737,1628.453072,-10881.027347,-612.876398
2937.876064,0.000000,-11177.109724,0.000000
2937.876392,-1258.350101,-7920.203579,-306.438199
2937.876719,74.020594,-7328.038826,-1915.238745
2937.877047,962.267725,-10288.862594,-1608.800546
2937.877375,-592.164754,-10140.821405,995.924147
2937.877702,-1702.473667,-7105.977043,3217.601092
2937.878030,1554.432478,-7476.080014,1915.238745
2937.878357,2664.741391,-11547.212695,-842.705048
2937.878685,1184.329507,-12435.459826,-153.219100
2937.879013,666.185348,-8216.285956,1072.533697
2937.879340,1850.514855,-7105.977043,766.095498
2937.879668,1258.350101,-11103.089130,536.266849
2937.879996,370.102971,-12435.459826,0.000000
2937.880323,-296.082377,-8438.347739,229.828649
2937.880651,1776.494261,-7105.977043,-842.705048
2937.880978,2960.823768,-11177.109724,-1072.533697
2937.881306,1998.556043,-12435.459826,383.047749
2937.881634,0.000000,-9030.512492,2221.676944
2937.881961,0.000000,-6513.812290,153.219100
2937.882289,444.123565,-8586.388927,-2757.943793
2937.882616,-518.144159,-10510.924376,-1685.410096
2937.882944,-1924.535449,-8808.450710,842.705048
2937.883272,-740.205942,-7031.956449,919.314598
2937.883599,962.267725,-9400.615463,-919.314598
2937.883927,148.041188,-11843.295072,-1149.143247
2937.884254,-962.267725,-11769.274478,0.000000
2937.884582,370.102971,-10066.800811,-1225.752797
2937.884910,2960.823768,-11177.109724,-2681.334243
2937.885237,2886.803174,-14137.933492,-1838.629195
2937.885565,592.164754,-12361.439231,919.314598
2937.885892,444.123565,-7624.121203,1838.629195
2937.886220,1258.350101,-7476.080014,306.438199
2937.886548,370.102971,-11473.192101,-995.924147
2937.886875,-2072.576638,-10288.862594,-766.095498
2937.887203,-2960.823768,-6587.832884,-1532.190996
2937.887530,-1924.535449,-6957.935855,-2068.457845
2937.887858,-1258.350101,-10881.027347,-1532.190996
2937.888186,-2516.700203,-11177.109724,1072.533697
2937.888513,-2960.823768,-7698.141797,2068.457845
2937.888841,0.000000,-6957.935855,-919.314598
2937.889168,1554.432478,-9844.739029,-1991.848295
2937.889496,2072.576638,-12213.398043,-689.485948
2937.889824,1258.350101,-9030.512492,1762.019645
2937.890151,1480.411884,-8290.306550,1532.190996
2937.890479,1702.473667,-11843.295072,153.219100
2937.890806,148.041188,-13175.665768,0.000000
2937.891134,-592.164754,-9326.594869,-689.485948
2937.891462,0.000000,-7031.956449,-1302.362347
2937.891789,814.226536,-9252.574275,-1302.362347
2937.892117,888.247130,-11399.171507,76.609550
2937.892444,-666.185348,-8364.327145,2145.067394
2937.892772,-740.205942,-6069.688724,1149.143247
2937.893100,740.205942,-7772.162391,-459.657299
2937.893427,0.000000,-9548.656652,-612.876398
2937.893755,-1184.329507,-9178.553681,995.924147
2937.894082,-1110.308913,-7402.059420,1225.752797
2937.894410,1258.350101,-9474.636058,-459.657299
2937.894738,1924.535449,-13619.789333,-1378.971896
2937.895065,1258.350101,-12583.501014,-919.314598
2937.895393,1776.494261,-10362.883188,-1685.410096
2937.895720,3034.844362,-11547.212695,-2068.457845
2937.896048,1184.329507,-13767.830521,-1685.410096
2937.896376,0.000000,-11843.295072,306.438199
2937.896703,0.000000,-7476.080014,1225.752797
2937.897031,888.247130,-6809.894666,1302.362347
2937.897358,518.144159,-9696.697840,229.828649
2937.897686,-518.144159,-10066.800811,536.266849
2937.898014,-1258.350101,-6809.894666,689.485948
2937.898341,-74.020594,-6513.812290,0.000000
2937.898669,592.164754,-10288.862594,-612.876398
2937.898996,-888.247130,-11177.109724,0.000000
2937.899324,-1332.370696,-9030.512492,766.095498
2937.899652,1110.308913,-9104.533087,-1149.143247
2937.899979,2886.803174,-12287.418637,-1762.019645
2937.900307,2220.617826,-12953.603985,0.000000
2937.900635,1036.288319,-9770.718434,1302.362347
2937.900962,1036.288319,-8142.265362,612.876398
2937.901290,2294.638420,-11103.089130,0.000000
2937.901617,222.061783,-11325.150913,0.000000
2937.901945,-1258.350101,-7994.224174,1072.533697
2937.902273,-592.164754,-6513.812290,612.876398
2937.902600,1036.288319,-8956.491898,-612.876398
2937.902928,222.061783,-10732.986159,306.438199
2937.903255,-1776.494261,-8660.409521,1685.410096
2937.903583,-740.205942,-7328.038826,0.000000
2937.903911,962.267725,-9770.718434,-1225.752797
2937.904238,222.061783,-11325.150913,-919.314598
2937.904566,-888.247130,-10288.862594,842.705048
2937.904893,-1184.329507,-7105.977043,1378.971896
2937.905221,444.123565,-9030.512492,-766.095498
2937.905549,370.102971,-11843.295072,-1915.238745
2937.905876,-1702.473667,-11547.212695,0.000000
2937.906204,-2294.638420,-7846.182985,-306.438199
2937.906531,-888.247130,-8734.430116,-2451.505594
2937.906859,-518.144159,-11843.295072,-2911.162892
2937.907187,-962.267725,-11917.315666,-995.924147
2937.907514,74.020594,-8364.327145,1149.143247
2937.907842,2146.597232,-8586.388927,1455.581446
2937.908169,2960.823768,-12287.418637,0.000000
2937.908497,1702.473667,-12361.439231,459.657299
2937.908825,0.000000,-8660.409521,1149.143247
2937.909152,0.000000,-7402.059420,-842.705048
2937.909480,518.144159,-10436.903782,-2528.115143
2937.909807,-1776.494261,-10066.800811,-229.828649
2937.910135,-2368.659014,-6957.935855,383.047749
2937.910463,296.082377,-7476.080014,-153.219100
2937.910790,1998.556043,-11029.068536,-766.095498
2937.911118,814.226536,-12139.377449,306.438199
2937.911445,148.041188,-9400.615463,383.047749
2937.911773,1406.391290,-7920.203579,-383.047749
2937.912101,2442.679609,-9992.780217,-1532.190996
2937.912428,1184.329507,-10955.047942,459.657299
2937.912756,-296.082377,-8512.368333,2451.505594
2937.913083,1036.288319,-6439.791695,1762.019645
2937.913411,2442.679609,-10807.006753,-459.657299
2937.913739,1110.308913,-13249.686362,-536.266849
2937.914066,-296.082377,-9474.636058,-76.609550
2937.914394,-148.041188,-7105.977043,-1378.971896
2937.914721,2146.597232,-9104.533087,-2221.676944
2937.915049,1480.411884,-11769.274478,-612.876398
2937.915377,0.000000,-9474.636058,1838.629195
2937.915704,962.267725,-6735.874072,1685.410096
2937.916032,2442.679609,-8660.409521,0.000000
2937.916359,1258.350101,-12805.562797,-306.438199
2937.916687,-1406.391290,-10881.027347,229.828649
2937.917015,-740.205942,-7698.141797,0.000000
2937.917342,1332.370696,-8734.430116,-2911.162892
2937.917670,1332.370696,-12139.377449,-2068.457845
2937.917997,370.102971,-11695.253884,1225.752797
2937.918325,1258.350101,-8438.347739,1608.800546
2937.918653,1924.535449,-9030.512492,766.095498
2937.918980,518.144159,-10658.965565,-383.047749
2937.919308,-2220.617826,-9844.739029,0.000000
2937.919635,-2516.700203,-7402.059420,-536.266849
2937.919963,0.000000,-7328.038826,-1455.581446
2937.920291,1332.370696,-10881.027347,-1302.362347
2937.920618,-740.205942,-12213.398043,1302.362347
2937.920946,-1702.473667,-8364.327145,2068.457845
2937.921274,-444.123565,-7031.956449,-612.876398
2937.921601,0.000000,-10140.821405,-2604.724693
2937.921929,-2220.617826,-12213.398043,-1072.533697
2937.922256,-2368.659014,-8586.388927,0.000000
2937.922584,444.123565,-7846.182985,-689.485948
2937.922912,2368.659014,-11695.253884,-459.657299
2937.923239,962.267725,-12583.501014,1378.971896
2937.923567,296.082377,-10066.800811,1915.238745
2937.923894,666.185348,-7179.997637,-459.657299
2937.924222,1628.453072,-9992.780217,-2757.943793
2937.924550,222.061783,-11843.295072,-2298.286494
2937.924877,-1554.432478,-8290.306550,536.266849
2937.925205,-814.226536,-6513.812290,459.657299
2937.925532,888.247130,-9918.759623,-229.828649
2937.925860,0.000000,-12879.583391,-612.876398
2937.926188,-1850.514855,-10881.027347,612.876398
2937.926515,-1110.308913,-7179.997637,-842.705048
2937.926843,296.082377,-7624.121203,-1991.848295
2937.927170,1628.453072,-10955.047942,-995.924147
2937.927498,0.000000,-10436.903782,1915.238745
2937.927826,962.267725,-7328.038826,2068.457845
2937.928153,2664.741391,-8068.244768,-383.047749
2937.928481,2664.741391,-11917.315666,-2374.896044
2937.928808,444.123565,-11991.336260,-306.438199
2937.929136,444.123565,-8068.244768,689.485948
2937.929464,1998.556043,-9030.512492,-919.314598
2937.929791,2146.597232,-12435.459826,-1149.143247
2937.930119,1332.370696,-11621.233289,229.828649
2937.930446,222.061783,-7179.997637,1225.752797
2937.930774,444.123565,-7254.018232,383.047749
2937.931102,1332.370696,-10288.862594,0.000000
2937.931429,-814.226536,-10140.821405,459.657299
2937.931757,-2368.659014,-7254.018232,1378.971896
2937.932084,-592.164754,-7105.977043,76.609550
2937.932412,1628.453072,-10288.862594,-995.924147
2937.932740,740.205942,-12657.521608,-689.485948
2937.933067,148.041188,-10288.862594,306.438199
2937.933395,1554.432478,-8364.327145,-1378.971896
2937.933722,3108.864956,-11843.295072,-1608.800546
2937.934050,2220.617826,-12953.603985,0.000000
2937.934378,444.123565,-9918.759623,1378.971896
2937.934705,740.205942,-7846.182985,919.314598
2937.935033,1184.329507,-9622.677246,153.219100
2937.935360,74.020594,-10732.986159,-842.705048
2937.935688,-1554.432478,-8290.306550,306.438199
2937.936016,-1702.473667,-5995.668130,153.219100
2937.936343,-222.061783,-8512.368333,-919.314598
2937.936671,0.000000,-11621.233289,-1072.533697
2937.936999,-1554.432478,-10732.986159,689.485948
2937.937326,-1110.308913,-7920.203579,383.047749
2937.937654,1554.432478,-9030.512492,-612.876398
2937.937981,888.247130,-12509.480420,-383.047749
2937.938309,-592.164754,-11399.171507,459.657299
2937.938637,-444.123565,-8512.368333,0.000000
2937.938964,444.123565,-9548.656652,-1072.533697
2937.939292,666.185348,-11547.212695,-1685.410096
2937.939619,-1850.514855,-10362.883188,229.828649
2937.939947,-2738.761985,-7105.977043,612.876398
2937.940275,-1332.370696,-7476.080014,-1149.143247
2937.940602,-1036.288319,-10066.800811,-2451.505594
2937.940930,-888.247130,-9844.739029,-1072.533697
2937.941257,-592.164754,-7846.182985,842.705048
2937.941585,1110.308913,-8512.368333,1149.143247
2937.941913,2294.638420,-11177.109724,-153.219100
2937.942240,814.226536,-12139.377449,842.705048
2937.942568,-296.082377,-8956.491898,1378.971896
2937.942895,0.000000,-7402.059420,-842.705048
2937.943223,1110.308913,-11029.068536,-2145.067394
2937.943551,444.123565,-11843.295072,-1608.800546
2937.943878,-444.123565,-9326.594869,-383.047749
2937.944206,1480.411884,-8364.327145,229.828649
2937.944533,2738.761985,-11547.212695,-459.657299
2937.944861,1406.391290,-13175.665768,76.609550
2937.945189,-444.123565,-9326.594869,1072.533697
2937.945516,0.000000,-6217.729913,0.000000
2937.945844,1554.432478,-8216.285956,-1608.800546
2937.946171,666.185348,-9918.759623,-306.438199
2937.946499,-592.164754,-7920.203579,2451.505594
2937.946827,518.144159,-7179.997637,1762.019645
2937.947154,1924.535449,-10362.883188,-766.095498
2937.947482,740.205942,-13249.686362,-1762.019645
2937.947809,-518.144159,-10955.047942,-229.828649
2937.948137,814.226536,-8068.244768,-459.657299
2937.948465,2368.659014,-9992.780217,-2068.457845
2937.948792,2220.617826,-12509.480420,-306.438199
2937.949120,1480.411884,-10807.006753,1378.971896
2937.949448,2294.638420,-7254.018232,1149.143247
2937.949775,2590.720797,-9400.615463,0.000000
2937.950103,592.164754,-11399.171507,0.000000
2937.950430,-2590.720797,-9696.697840,1455.581446
2937.950758,-2886.803174,-7031.956449,459.657299
2937.951086,-740.205942,-6809.894666,-1915.238745
2937.951413,888.247130,-9326.594869,-1915.238745
2937.951741,962.267725,-9992.780217,536.266849
2937.952068,592.164754,-8660.409521,2298.286494
2937.952396,1998.556043,-8512.368333,612.876398
2937.952724,1184.329507,-10288.862594,-1302.362347
2937.953051,-1850.514855,-10658.965565,-689.485948
2937.953379,-1776.494261,-8808.450710,689.485948
2937.953706,888.247130,-8068.244768,-612.876398
2937.954034,2960.823768,-12139.377449,-1149.143247
2937.954362,1184.329507,-13545.768739,612.876398
2937.954689,370.102971,-10436.903782,842.705048
2937.955017,888.247130,-8438.347739,-612.876398
2937.955344,592.164754,-9844.739029,-2145.067394
2937.955672,-2072.576638,-11103.089130,-1532.190996
2937.956000,-2960.823768,-8364.327145,-229.828649
2937.956327,-1480.411884,-6883.915261,-689.485948
2937.956655,1036.288319,-9844.739029,-1149.143247
2937.956982,1110.308913,-11399.171507,0.000000
2937.957310,-592.164754,-9622.677246,1762.019645
2937.957638,-296.082377,-8142.265362,-612.876398
2937.957965,592.164754,-9844.739029,-3600.648841
2937.958293,-814.226536,-12287.418637,-2068.457845
2937.958620,-1702.473667,-9992.780217,0.000000
2937.958948,-814.226536,-7179.997637,536.266849
2937.959276,1110.308913,-10732.986159,76.609550
2937.959603,592.164754,-14211.954086,383.047749
2937.959931,-444.123565,-11843.295072,229.828649
2937.960259,-666.185348,-7105.977043,-689.485948
2937.960586,518.144159,-7550.100608,-842.705048
2937.960914,444.123565,-10436.903782,383.047749
2937.961241,-1036.288319,-9770.718434,2681.334243
2937.961569,-1258.350101,-7105.977043,2451.505594
2937.961897,1036.288319,-6809.894666,-1225.752797
2937.962224,1776.494261,-9178.553681,-1608.800546
2937.962552,518.144159,-10807.006753,1149.143247
2937.962879,0.000000,-8956.491898,919.314598
2937.963207,1184.329507,-8734.430116,-459.657299
2937.963535,1110.308913,-10584.944971,-2298.286494
2937.963862,-222.061783,-11917.315666,0.000000
2937.964190,0.000000,-8364.327145,1608.800546
2937.964517,1850.514855,-6883.915261,766.095498
2937.964845,2220.617826,-10881.027347,-459.657299
2937.965173,740.205942,-13101.645173,-459.657299
2937.965500,74.020594,-9474.636058,536.266849
2937.965828,666.185348,-7031.956449,-536.266849
2937.966155,888.247130,-9770.718434,-2145.067394
2937.966483,592.164754,-13397.727550,-1378.971896
2937.966811,-148.041188,-10955.047942,0.000000
2937.967138,1480.411884,-8364.327145,-612.876398
2937.967466,2960.823768,-10288.862594,-1149.143247
2937.967793,2442.679609,-11843.295072,-766.095498
2937.968121,-592.164754,-10066.800811,1302.362347
2937.968449,-962.267725,-7402.059420,0.000000
2937.968776,740.205942,-9252.574275,-2451.505594
2937.969104,0.000000,-11991.336260,-1608.800546
2937.969431,-1110.308913,-9474.636058,995.924147
2937.969759,-740.205942,-6291.750507,1455.581446
2937.970087,1184.329507,-9400.615463,0.000000
2937.970414,1110.308913,-12805.562797,-766.095498
2937.970742,444.123565,-12213.398043,0.000000
2937.971069,888.247130,-8364.327145,0.000000
2937.971397,2516.700203,-8734.430116,-612.876398
2937.971725,1406.391290,-11991.336260,842.705048
2937.972052,-1924.535449,-11251.130318,1991.848295
2937.972380,-2442.679609,-6291.750507,1225.752797
2937.972708,-518.144159,-6291.750507,-1608.800546
2937.973035,0.000000,-9622.677246,-1991.848295
2937.973363,-1850.514855,-9622.677246,383.047749
2937.973690,-2072.576638,-6661.853478,1685.410096
2937.974018,0.000000,-6439.791695,0.000000
2937.974346,814.226536,-10955.047942,-995.924147
2937.974673,-518.144159,-10510.924376,919.314598
2937.975001,-1110.308913,-7402.059420,1302.362347
2937.975328,1480.411884,-8068.244768,76.609550
2937.975656,2442.679609,-12583.501014,-995.924147
2937.975984,962.267725,-13767.830521,76.609550
2937.976311,0.000000,-9918.759623,1378.971896
2937.976639,-370.102971,-8142.265362,-229.828649
2937.976966,-592.164754,-11547.212695,-1838.629195
2937.977294,-2960.823768,-13693.809927,-2451.505594
2937.977622,-3404.947333,-10066.800811,-2298.286494
2937.977949,-1406.391290,-7179.997637,-2987.772442
2937.978277,592.164754,-10214.842000,-2451.505594
2937.978604,296.082377,-11769.274478,689.485948
2937.978932,-1036.288319,-9252.574275,2528.115143
2937.979260,-370.102971,-6735.874072,76.609550
2937.979587,1332.370696,-9400.615463,-2451.505594
2937.979915,0.000000,-11251.130318,-1915.238745
2937.980242,-1036.288319,-9178.553681,306.438199
2937.980570,0.000000,-7402.059420,842.705048
2937.980898,1850.514855,-10140.821405,0.000000
2937.981225,1776.494261,-13619.789333,-766.095498
2937.981553,1628.453072,-12583.501014,612.876398
2937.981880,2442.679609,-8660.409521,-383.047749
2937.982208,4071.132681,-9400.615463,-1149.143247
2937.982536,3108.864956,-12731.542202,0.000000
2937.982863,814.226536,-10658.965565,1838.629195
2937.983191,740.205942,-5329.482782,1532.190996
2937.983518,814.226536,-5773.606348,76.609550
2937.983846,740.205942,-9400.615463,0.000000
2937.984174,-518.144159,-10066.800811,1225.752797
2937.984501,-1258.350101,-7179.997637,995.924147
2937.984829,296.082377,-7254.018232,-1149.143247
2937.985157,1406.391290,-10807.006753,-2068.457845
2937.985484,962.267725,-10732.986159,459.657299
2937.985812,370.102971,-6365.771101,2528.115143
2937.986139,1702.473667,-7179.997637,1378.971896
2937.986467,2886.803174,-11769.274478,-306.438199
2937.986795,2590.720797,-12805.562797,0.000000
2937.987122,2072.576638,-9844.739029,689.485948
2937.987450,2072.576638,-8216.285956,0.000000
2937.987777,1554.432478,-11547.212695,-842.705048
2937.988105,666.185348,-13175.665768,-1762.019645
2937.988433,-1628.453072,-9770.718434,-689.485948
2937.988760,-518.144159,-7920.203579,-1378.971896
2937.989088,1184.329507,-10214.842000,-1608.800546
2937.989415,666.185348,-11325.150913,153.219100
2937.989743,-1036.288319,-8660.409521,2068.457845
2937.990071,-370.102971,-6809.894666,1149.143247
2937.990398,-666.185348,-8512.368333,-1455.581446
2937.990726,-1628.453072,-11029.068536,-2298.286494
2937.991053,-1924.535449,-9474.636058,-383.047749
2937.991381,-222.061783,-8216.285956,306.438199
2937.991709,1776.494261,-10955.047942,-459.657299
2937.992036,1554.432478,-13545.768739,-612.876398
2937.992364,148.041188,-12657.521608,-229.828649
2937.992691,888.247130,-9844.739029,-306.438199
2937.993019,814.226536,-9474.636058,-2068.457845
2937.993347,-1480.411884,-11177.109724,-1532.190996
2937.993674,-3775.050304,-10288.862594,689.485948
2937.994002,-2812.782580,-7105.977043,1532.190996
2937.994329,-518.144159,-7105.977043,536.266849
2937.994657,444.123565,-9548.656652,536.266849
2937.994985,-1184.329507,-9326.594869,1532.190996
2937.995312,-2738.761985,-5921.647536,1225.752797
2937.995640,-1406.391290,-6439.791695,-1378.971896
2937.995967,-148.041188,-9326.594869,-2757.943793
2937.996295,-1036.288319,-10214.842000,-459.657299
2937.996623,-1258.350101,-8956.491898,1838.629195
2937.996950,1184.329507,-9622.677246,459.657299
2937.997278,3108.864956,-13693.809927,-1685.410096
2937.997606,2294.638420,-13323.706956,0.000000
2937.997933,666.185348,-9400.615463,76.609550
2937.998261,1110.308913,-8142.265362,0.000000
2937.998588,1406.391290,-10362.883188,-612.876398
2937.998916,-296.082377,-11029.068536,383.047749
2937.999244,-1480.411884,-8586.388927,689.485948
2937.999571,-666.185348,-6217.729913,-383.047749
2937.999899,1036.288319,-7994.224174,-1378.971896
2938.000226,370.102971,-11621.233289,-995.924147
2938.000554,-296.082377,-11029.068536,76.609550
2938.000882,740.205942,-7846.182985,-1149.143247
2938.001209,2664.741391,-9104.533087,-2911.162892
2938.001537,2368.659014,-11769.274478,-1302.362347
2938.001864,666.185348,-10584.944971,1378.971896
2938.002192,814.226536,-7476.080014,1608.800546
2938.002520,2368.659014,-10066.800811,-383.047749
2938.002847,2220.617826,-14211.954086,-995.924147
2938.003175,1702.473667,-12435.459826,153.219100
2938.003502,1184.329507,-7031.956449,383.047749
2938.003830,2220.617826,-9252.574275,-459.657299
2938.004158,1702.473667,-12879.583391,-306.438199
2938.004485,148.041188,-11399.171507,1302.362347
2938.004813,0.000000,-6883.915261,1991.848295
2938.005140,1184.329507,-7105.977043,153.219100
2938.005468,1702.473667,-11325.150913,-1149.143247
2938.005796,-962.267725,-10807.006753,919.314598
2938.006123,-2368.659014,-6661.853478,1838.629195
2938.006451,-888.247130,-5847.626942,-1072.533697
2938.006778,296.082377,-9770.718434,-2681.334243
2938.007106,-1554.432478,-10955.047942,0.000000
2938.007434,-2146.597232,-7550.100608,1608.800546
2938.007761,444.123565,-7254.018232,536.266849
2938.008089,2072.576638,-11695.253884,-689.485948
2938.008416,814.226536,-12509.480420,919.314598
2938.008744,148.041188,-8586.388927,2068.457845
2938.009072,1850.514855,-7328.038826,0.000000
2938.009399,1998.556043,-11621.233289,-1072.533697
2938.009727,0.000000,-12805.562797,-229.828649
2938.010055,-1332.370696,-9178.553681,842.705048
2938.010382,-1110.308913,-7254.018232,0.000000
2938.010710,0.000000,-9992.780217,-2298.286494
2938.011037,-962.267725,-12509.480420,-2221.676944
2938.011365,-2886.803174,-9918.759623,-842.705048
2938.011693,-1628.453072,-6735.874072,-1762.019645
2938.012020,0.000000,-8808.450710,-2757.943793
2938.012348,-592.164754,-11991.336260,-842.705048
2938.012675,-1184.329507,-10510.924376,1532.190996
2938.013003,222.061783,-7402.059420,1149.143247
2938.013331,666.185348,-8586.388927,-689.485948
2938.013658,814.226536,-12657.521608,-1455.581446
2938.013986,-148.041188,-11843.295072,229.828649
2938.014313,0.000000,-7994.224174,0.000000
2938.014641,2072.576638,-9178.553681,-1685.410096
2938.014969,2294.638420,-13841.851115,-1149.143247
2938.015296,296.082377,-12731.542202,1149.143247
2938.015624,740.205942,-7846.182985,1838.629195
2938.015951,1776.494261,-7846.182985,-766.095498
2938.016279,1480.411884,-10288.862594,-1225.752797
2938.016607,74.020594,-9844.739029,229.828649
2938.016934,-888.247130,-6365.771101,1225.752797
2938.017262,-518.144159,-5551.544565,0.000000
2938.017589,222.061783,-9622.677246,-1685.410096
2938.017917,-1776.494261,-10732.986159,229.828649
2938.018245,-2368.659014,-7624.121203,1685.410096
2938.018572,592.164754,-7402.059420,-689.485948
2938.018900,2368.659014,-11547.212695,-1991.848295
2938.019227,1924.535449,-13693.809927,153.219100
2938.019555,2294.638420,-9622.677246,1302.362347
2938.019883,3775.050304,-8142.265362,1149.143247
2938.020210,4145.153275,-11695.253884,383.047749
2938.020538,2442.679609,-12583.501014,1072.533697
2938.020865,370.102971,-9918.759623,1072.533697
2938.021193,-296.082377,-6513.812290,0.000000
2938.021521,962.267725,-9178.553681,-2145.067394
2938.021848,666.185348,-11473.192101,-1532.190996
2938.022176,-1184.329507,-9844.739029,1072.533697
2938.022504,-518.144159,-7105.977043,1072.533697
2938.022831,1628.453072,-9178.553681,-1685.410096
2938.023159,-370.102971,-10955.047942,-2068.457845
2938.023486,-2442.679609,-10658.965565,689.485948
2938.023814,-1110.308913,-6883.915261,842.705048
2938.024142,1998.556043,-7994.224174,-995.924147
2938.024469,2442.679609,-13175.665768,-995.924147
2938.024797,1480.411884,-12805.562797,1608.800546
2938.025124,1850.514855,-9252.574275,2145.067394
2938.025452,2886.803174,-9104.533087,-995.924147
2938.025780,518.144159,-12879.583391,-1378.971896
2938.026107,-2368.659014,-11843.295072,0.000000
2938.026435,-2368.659014,-7179.997637,0.000000
2938.026763,148.041188,-7328.038826,-612.876398
2938.027090,518.144159,-11251.130318,-1149.143247
2938.027418,-814.226536,-11103.089130,1378.971896
2938.027746,-2072.576638,-7254.018232,2681.334243
2938.028073,-518.144159,-6513.812290,-612.876398
2938.028401,-1036.288319,-8808.450710,-1838.629195
2938.028728,-3034.844362,-9178.553681,-459.657299
2938.029056,-3108.864956,-6661.853478,1302.362347
2938.029384,0.000000,-7105.977043,-995.924147
2938.029711,1628.453072,-11399.171507,-1838.629195
2938.030039,740.205942,-13989.892304,-536.266849
2938.030366,370.102971,-10955.047942,76.609550
2938.030694,1998.556043,-9178.553681,-995.924147
2938.031021,2442.679609,-11399.171507,-1455.581446
2938.031349,74.020594,-11991.336260,612.876398
2938.031677,-1258.350101,-8586.388927,1685.410096
2938.032004,296.082377,-7105.977043,1532.190996
2938.032332,518.144159,-8734.430116,-459.657299
2938.032659,-666.185348,-10510.924376,0.000000
2938.032987,-2812.782580,-9104.533087,306.438199
2938.033314,-1406.391290,-7105.977043,-995.924147
2938.033642,222.061783,-9252.574275,-3217.601092
2938.033970,-370.102971,-11843.295072,-2604.724693
2938.034297,-666.185348,-10584.944971,-383.047749
2938.034625,1184.329507,-8068.244768,153.219100
2938.034952,2812.782580,-9696.697840,-995.924147
2938.035280,2886.803174,-12213.398043,-919.314598
2938.035608,2072.576638,-10955.047942,612.876398
2938.035935,2590.720797,-8512.368333,1225.752797
2938.036263,2960.823768,-10362.883188,-459.657299
2938.036590,1924.535449,-13323.706956,-842.705048
2938.036918,-148.041188,-10807.006753,306.438199
2938.037245,-888.247130,-6883.915261,76.609550
2938.037573,592.164754,-8290.306550,-612.876398
2938.037901,2368.659014,-11843.295072,-306.438199
2938.038228,962.267725,-10955.047942,1532.190996
2938.038556,-444.123565,-6439.791695,2298.286494
2938.038883,370.102971,-7328.038826,-612.876398
2938.039211,592.164754,-10436.903782,-1838.629195
2938.039538,-2294.638420,-10362.883188,229.828649
2938.039866,-2960.823768,-6883.915261,536.266849
2938.040194,-222.061783,-7179.997637,-919.314598
2938.040521,2294.638420,-11621.233289,-1915.238745
2938.040849,1332.370696,-12435.459826,536.266849
2938.041176,0.000000,-9252.574275,995.924147
2938.041504,1332.370696,-8364.327145,229.828649
2938.041832,2738.761985,-11843.295072,-919.314598
2938.042159,962.267725,-12361.439231,383.047749
2938.042487,-444.123565,-8216.285956,1915.238745
2938.042814,222.061783,-6735.874072,1149.143247
2938.043142,2442.679609,-10510.924376,0.000000
2938.043469,1036.288319,-10955.047942,-229.828649
2938.043797,-2590.720797,-8364.327145,1072.533697
2938.044125,-3627.009116,-6957.935855,0.000000
2938.044452,-1924.535449,-9178.553681,-3064.381992
2938.044780,-1332.370696,-11769.274478,-3907.087040
2938.045107,-2442.679609,-10584.944971,-766.095498
2938.045435,-888.247130,-8068.244768,689.485948
2938.045763,2146.597232,-9622.677246,-383.047749
2938.046090,2590.720797,-13545.768739,-612.876398
2938.046418,518.144159,-12287.418637,383.047749
2938.046745,222.061783,-8438.347739,229.828649
2938.047073,666.185348,-8290.306550,-842.705048
2938.047400,222.061783,-10732.986159,-1072.533697
2938.047728,-1406.391290,-10140.821405,-383.047749
2938.048056,-2590.720797,-6957.935855,919.314598
2938.048383,0.000000,-8364.327145,229.828649
2938.048711,1554.432478,-11917.315666,-1149.143247
2938.049038,444.123565,-11917.315666,-153.219100
2938.049366,-888.247130,-8586.388927,536.266849
2938.049693,222.061783,-7254.018232,-1149.143247
2938.050021,1184.329507,-9326.594869,-1915.238745
2938.050349,148.041188,-10214.842000,76.609550
2938.050676,-1110.308913,-7254.018232,2221.676944
2938.051004,444.123565,-6809.894666,919.314598
2938.051331,2442.679609,-11251.130318,-1685.410096
2938.051659,1332.370696,-13471.748144,-1532.190996
2938.051987,222.061783,-10436.903782,0.000000
2938.052314,1628.453072,-8142.265362,-1532.190996
2938.052642,3108.864956,-10214.842000,-1455.581446
2938.052969,1998.556043,-11843.295072,306.438199
2938.053297,592.164754,-9622.677246,2145.067394
2938.053624,1406.391290,-7550.100608,1762.019645
2938.053952,2812.782580,-8808.450710,-306.438199
2938.054280,1702.473667,-11695.253884,-1225.752797
2938.054607,-1332.370696,-9696.697840,1378.971896
2938.054935,-888.247130,-7031.956449,306.438199
2938.055262,444.123565,-8512.368333,-2681.334243
2938.055590,1258.350101,-12435.459826,-2145.067394
2938.055917,-1036.288319,-11251.130318,842.705048
2938.056245,-592.164754,-7550.100608,1225.752797
2938.056573,518.144159,-8438.347739,-1225.752797
2938.056900,370.102971,-12657.521608,-1608.800546
2938.057228,-370.102971,-12287.418637,0.000000
2938.057555,518.144159,-7698.141797,536.266849
2938.057883,2960.823768,-8068.244768,0.000000
2938.058211,2590.720797,-12509.480420,383.047749
2938.058538,0.000000,-11399.171507,1762.019645
2938.058866,-1480.411884,-6587.832884,1225.752797
2938.059193,296.082377,-7254.018232,-1762.019645
2938.059521,1110.308913,-11325.150913,-2834.553343
2938.059848,-888.247130,-11769.274478,-153.219100
2938.060176,-2294.638420,-8216.285956,1532.190996
2938.060504,-296.082377,-7994.224174,-383.047749
2938.060831,1110.308913,-11547.212695,-2068.457845
2938.061159,-1332.370696,-11325.150913,383.047749
2938.061486,-2220.617826,-8142.265362,1838.629195
2938.061814,-444.123565,-6291.750507,0.000000
2938.062142,74.020594,-9030.512492,-1149.143247
2938.062469,-962.267725,-11621.233289,0.000000
2938.062797,-1110.308913,-9030.512492,919.314598
2938.063124,962.267725,-7698.141797,-459.657299
2938.063452,2590.720797,-11621.233289,-1991.848295
2938.063779,1776.494261,-14211.954086,-2604.724693
2938.064107,0.000000,-10436.903782,-383.047749
2938.064435,814.226536,-7624.121203,229.828649
2938.064762,1850.514855,-9548.656652,-229.828649
2938.065090,888.247130,-11325.150913,689.485948
2938.065417,-1480.411884,-8808.450710,2068.457845
2938.065745,-1554.432478,-6809.894666,1838.629195
2938.066072,74.020594,-8586.388927,-1072.533697
2938.066400,-1332.370696,-11325.150913,-1608.800546
2938.066728,-3330.926739,-9622.677246,306.438199
2938.067055,-2516.700203,-6661.853478,383.047749
2938.067383,296.082377,-8882.471304,-1915.238745
2938.067710,1184.329507,-12953.603985,-1991.848295
2938.068038,666.185348,-11769.274478,76.609550
2938.068366,1924.535449,-8512.368333,612.876398
2938.068693,3997.112087,-9474.636058,-306.438199
2938.069021,3552.988522,-12213.398043,-995.924147
2938.069348,666.185348,-11103.089130,842.705048
2938.069676,148.041188,-8364.327145,1149.143247
2938.070003,1406.391290,-8734.430116,-383.047749
2938.070331,1998.556043,-10807.006753,-1225.752797
2938.070659,-222.061783,-9844.739029,153.219100
2938.070986,-1406.391290,-7550.100608,2068.457845
2938.071314,518.144159,-7476.080014,536.266849
2938.071641,1850.514855,-10140.821405,-1225.752797
2938.071969,-148.041188,-11547.212695,536.266849
2938.072297,-1258.350101,-7920.203579,1608.800546
2938.072624,518.144159,-6513.812290,0.000000
2938.072952,1406.391290,-10584.944971,-1991.848295
2938.073279,-444.123565,-12805.562797,229.828649
2938.073607,0.000000,-9622.677246,0.000000
2938.073934,1998.556043,-8068.244768,-1455.581446
2938.074262,2590.720797,-11399.171507,-2145.067394
2938.074590,592.164754,-12361.439231,-919.314598
2938.074917,-962.267725,-9178.553681,1072.533697
2938.075245,444.123565,-7254.018232,0.000000
2938.075572,2368.659014,-8586.388927,-1225.752797
2938.075900,1554.432478,-11325.150913,0.000000
2938.076227,-888.247130,-9326.594869,3064.381992
2938.076555,-222.061783,-7105.977043,1991.848295
2938.076883,962.267725,-8734.430116,-1072.533697
2938.077210,-962.267725,-10732.986159,-995.924147
2938.077538,-4071.132681,-9400.615463,1149.143247
2938.077865,-2960.823768,-7328.038826,-153.219100
2938.078193,0.000000,-10288.862594,-3677.258390
2938.078521,1628.453072,-14211.954086,-3064.381992
2938.078848,222.061783,-12287.418637,0.000000
2938.079176,1406.391290,-8734.430116,1225.752797
2938.079503,2886.803174,-9252.574275,153.219100
2938.079831,2368.659014,-12805.562797,-536.266849
2938.080158,-740.205942,-11843.295072,1149.143247
2938.080486,-1332.370696,-7031.956449,1302.362347
2938.080814,-518.144159,-4885.359217,-766.095498
2938.081141,-370.102971,-8586.388927,-1225.752797
2938.081469,-1998.556043,-10140.821405,919.314598
2938.081796,-2072.576638,-8808.450710,2145.067394
2938.082124,888.247130,-8882.471304,-995.924147
2938.082451,2072.576638,-11843.295072,-2451.505594
2938.082779,0.000000,-13767.830521,0.000000
2938.083107,-814.226536,-9252.574275,1378.971896
2938.083434,592.164754,-6217.729913,-383.047749
2938.083762,1850.514855,-10214.842000,-1762.019645
2938.084089,962.267725,-12879.583391,0.000000
2938.084417,518.144159,-9548.656652,1225.752797
2938.084745,1850.514855,-6365.771101,0.000000
2938.085072,2664.741391,-10584.944971,-2374.896044
2938.085400,-222.061783,-13027.624579,-383.047749
2938.085727,-2072.576638,-9622.677246,689.485948
2938.086055,0.000000,-6439.791695,-612.876398
2938.086382,2442.679609,-8364.327145,-2451.505594
2938.086710,1332.370696,-10807.006753,0.000000
2938.087038,370.102971,-9474.636058,2987.772442
2938.087365,666.185348,-7476.080014,1762.019645
2938.087693,2146.597232,-9622.677246,-1149.143247
2938.088020,296.082377,-11843.295072,-1455.581446
2938.088348,-2072.576638,-9844.739029,0.000000
2938.088676,-1480.411884,-6883.915261,0.000000
2938.089003,1554.432478,-8956.491898,-1608.800546
2938.089331,1850.514855,-13323.706956,-1072.533697
2938.089658,296.082377,-11843.295072,306.438199
2938.089986,148.041188,-8290.306550,76.609550
2938.090313,2072.576638,-9474.636058,-1608.800546
2938.090641,1924.535449,-12583.501014,-1455.581446
2938.090969,0.000000,-10955.047942,612.876398
2938.091296,-888.247130,-6365.771101,1991.848295
2938.091624,1258.350101,-6513.812290,842.705048
2938.091951,2590.720797,-10732.986159,76.609550
2938.092279,518.144159,-10436.903782,612.876398
2938.092606,-1480.411884,-7994.224174,383.047749
2938.092934,-518.144159,-8586.388927,-1302.362347
2938.093262,888.247130,-11251.130318,-2834.553343
2938.093589,-518.144159,-12361.439231,-689.485948
2938.093917,-2368.659014,-9178.553681,1378.971896
2938.094244,296.082377,-7920.203579,459.657299
2938.094572,1480.411884,-11399.171507,-1149.143247
2938.094900,1036.288319,-13397.727550,-383.047749
2938.095227,-888.247130,-8956.491898,842.705048
2938.095555,296.082377,-5921.647536,459.657299
2938.095882,1258.350101,-8068.244768,-536.266849
2938.096210,-148.041188,-12583.501014,1072.533697
2938.096537,-2220.617826,-9474.636058,1762.019645
2938.096865,-740.205942,-6957.935855,-153.219100
2938.097193,1702.473667,-9844.739029,-2374.896044
2938.097520,2146.597232,-11991.336260,-2374.896044
2938.097848,-444.123565,-9326.594869,689.485948
2938.098175,-222.061783,-7772.162391,1991.848295
2938.098503,1480.411884,-8216.285956,-459.657299
2938.098830,740.205942,-10658.965565,-1532.190996
2938.099158,-2368.659014,-9622.677246,919.314598
2938.099486,-2368.659014,-7402.059420,1608.800546
2938.099813,74.020594,-8586.388927,0.000000
2938.100141,1184.329507,-12731.542202,-1838.629195
2938.100468,-740.205942,-11991.336260,-459.657299
2938.100796,-444.123565,-8216.285956,-383.047749
2938.101124,1776.494261,-8364.327145,-1991.848295
2938.101451,2220.617826,-12953.603985,-1532.190996
2938.101779,592.164754,-13101.645173,229.828649
2938.102106,-518.144159,-7846.182985,1149.143247
2938.102434,1110.308913,-6291.750507,383.047749
2938.102761,3182.885551,-9918.759623,-1915.238745
2938.103089,1036.288319,-11251.130318,-306.438199
2938.103417,-666.185348,-8364.327145,306.438199
2938.103744,0.000000,-6883.915261,-1149.143247
2938.104072,1702.473667,-11029.068536,-2987.772442
2938.104399,74.020594,-12139.377449,-383.047749
2938.104727,-2294.638420,-7624.121203,2451.505594
2938.105055,0.000000,-6587.832884,766.095498
2938.105382,3108.864956,-11843.295072,-1149.143247
2938.105710,2294.638420,-13989.892304,-842.705048
2938.106037,740.205942,-9992.780217,612.876398
2938.106365,1332.370696,-7402.059420,536.266849
2938.106692,2442.679609,-10436.903782,-383.047749
2938.107020,888.247130,-13027.624579,0.000000
2938.107348,-1184.329507,-9474.636058,229.828649
2938.107675,-1110.308913,-5847.626942,-919.314598
2938.108003,1258.350101,-7994.224174,-2374.896044
2938.108330,1332.370696,-11399.171507,-1762.019645
2938.108658,-888.247130,-9622.677246,1072.533697
2938.108985,-666.185348,-7105.977043,1455.581446
2938.109313,296.082377,-8216.285956,0.000000
2938.109641,740.205942,-11103.089130,-995.924147
2938.109968,-888.247130,-9548.656652,995.924147
2938.110296,-740.205942,-6735.874072,1838.629195
2938.110623,1258.350101,-8734.430116,536.266849
2938.110951,1480.411884,-13323.706956,0.000000
2938.111279,-370.102971,-12583.501014,536.266849
2938.111606,-1332.370696,-8142.265362,0.000000
2938.111934,74.020594,-9474.636058,-1762.019645
2938.112261,592.164754,-12657.521608,-2987.772442
2938.112589,-740.205942,-12287.418637,-1608.800546
2938.112916,-1184.329507,-8512.368333,536.266849
2938.113244,1258.350101,-7328.038826,229.828649
2938.113572,2516.700203,-9918.759623,0.000000
2938.113899,592.164754,-10436.903782,1378.971896
2938.114227,-1628.453072,-7476.080014,1149.143247
2938.114554,-1480.411884,-6291.750507,-2298.286494
2938.114882,0.000000,-8956.491898,-3140.991542
2938.115210,-1554.432478,-9844.739029,-1685.410096
2938.115537,-2886.803174,-8660.409521,1915.238745
2938.115865,-1110.308913,-9030.512492,1991.848295
2938.116192,2368.659014,-12509.480420,-612.876398
2938.116520,2368.659014,-13619.789333,-1991.848295
2938.116847,370.102971,-10658.965565,-459.657299
2938.117175,1258.350101,-8068.244768,-612.876398
2938.117503,2738.761985,-10510.924376,-995.924147
2938.117830,1776.494261,-12435.459826,-229.828649
2938.118158,-740.205942,-9326.594869,995.924147
2938.118485,-370.102971,-6365.771101,1302.362347
2938.118813,1184.329507,-8808.450710,-919.314598
2938.119140,592.164754,-11769.274478,-995.924147
2938.119468,-1332.370696,-9696.697840,689.485948
2938.119796,-1332.370696,-6291.750507,0.000000
2938.120123,666.185348,-7031.956449,-1532.190996
2938.120451,1036.288319,-10288.862594,-383.047749
2938.120778,74.020594,-10140.821405,2298.286494
2938.121106,222.061783,-7476.080014,2757.943793
2938.121434,2146.597232,-9252.574275,383.047749
2938.121761,2072.576638,-11843.295072,-689.485948
2938.122089,148.041188,-11769.274478,0.000000
2938.122416,222.061783,-7698.141797,383.047749
2938.122744,2368.659014,-8734.430116,-1225.752797
2938.123071,2442.679609,-13323.706956,-1532.190996
2938.123399,1036.288319,-12435.459826,-689.485948
2938.123727,-1332.370696,-7031.956449,536.266849
2938.124054,0.000000,-7179.997637,0.000000
2938.124382,1036.288319,-10955.047942,-1532.190996
2938.124709,-222.061783,-11251.130318,0.000000
2938.125037,-1406.391290,-7920.203579,1455.581446
2938.125364,1036.288319,-6957.935855,0.000000
2938.125692,2442.679609,-9400.615463,-1762.019645
2938.126020,592.164754,-11473.192101,0.000000
2938.126347,-1998.556043,-8142.265362,2221.676944
2938.126675,-1036.288319,-7698.141797,306.438199
2938.127002,1406.391290,-11843.295072,-2834.553343
2938.127330,962.267725,-14434.015869,-2374.896044
2938.127658,-666.185348,-10955.047942,-383.047749
2938.127985,518.144159,-8438.347739,0.000000
2938.128313,1480.411884,-11473.192101,0.000000
2938.128640,222.061783,-12509.480420,-459.657299
2938.128968,-1850.514855,-9326.594869,383.047749
2938.129296,-1184.329507,-5995.668130,689.485948
2938.129623,814.226536,-7994.224174,-995.924147
2938.129951,666.185348,-10807.006753,-459.657299
2938.130279,-2516.700203,-8438.347739,1302.362347
2938.130606,-3108.864956,-6217.729913,766.095498
2938.130934,1036.288319,-8660.409521,-2374.896044
2938.131261,1924.535449,-12139.377449,-2528.115143
2938.131589,-888.247130,-11325.150913,459.657299
2938.131917,-444.123565,-7698.141797,1762.019645
2938.132244,1924.535449,-8438.347739,-229.828649
2938.132572,2442.679609,-11843.295072,-306.438199
2938.132900,0.000000,-10436.903782,995.924147
2938.133227,-888.247130,-7105.977043,995.924147
2938.133555,518.144159,-8808.450710,-383.047749
2938.133883,1258.350101,-12435.459826,-1608.800546
2938.134210,-1406.391290,-11547.212695,-229.828649
2938.134538,-2294.638420,-7994.224174,919.314598
2938.134865,0.000000,-8068.244768,-229.828649
2938.135193,2072.576638,-10214.842000,-1915.238745
2938.135521,296.082377,-10732.986159,-306.438199
2938.135848,-1036.288319,-7624.121203,995.924147
2938.136176,740.205942,-6809.894666,0.000000
2938.136504,2442.679609,-10584.944971,-1685.410096
2938.136831,222.061783,-11325.150913,-536.266849
2938.137159,-1924.535449,-8068.244768,536.266849
2938.137486,-296.082377,-7402.059420,-383.047749
2938.137814,2294.638420,-11769.274478,-1991.848295
2938.138142,1184.329507,-14137.933492,-995.924147
2938.138469,444.123565,-10214.842000,536.266849
2938.138797,1554.432478,-7698.141797,536.266849
2938.139125,2886.803174,-11473.192101,-229.828649
2938.139452,1776.494261,-13619.789333,306.438199
2938.139780,-1258.350101,-9696.697840,995.924147
2938.140108,-1332.370696,-7402.059420,459.657299
2938.140435,1776.494261,-9548.656652,-2298.286494
2938.140763,2146.597232,-11325.150913,-1149.143247
2938.141090,-370.102971,-9252.574275,1378.971896
2938.141418,-1258.350101,-7031.956449,1455.581446
2938.141746,1110.308913,-8512.368333,-995.924147
2938.142073,1110.308913,-10658.965565,-2451.505594
2938.142401,-1776.494261,-8734.430116,459.657299
2938.142729,-2146.597232,-6661.853478,1378.971896
2938.143056,74.020594,-7994.224174,229.828649
2938.143384,2146.597232,-11769.274478,-306.438199
2938.143711,666.185348,-10881.027347,766.095498
2938.144039,666.185348,-8512.368333,1149.143247
2938.144367,2072.576638,-9104.533087,1225.752797
2938.144694,1924.535449,-13027.624579,0.000000
2938.145022,-962.267725,-12509.480420,-612.876398
2938.145350,-2664.741391,-8438.347739,-689.485948
2938.145677,-888.247130,-8290.306550,-1685.410096
2938.146005,1850.514855,-11547.212695,-2451.505594
2938.146333,1184.329507,-11029.068536,-766.095498
2938.146660,-666.185348,-7994.224174,1685.410096
2938.146988,740.205942,-7476.080014,766.095498
2938.147315,2442.679609,-9548.656652,-1762.019645
2938.147643,-370.102971,-9918.759623,-842.705048
2938.147971,-3404.947333,-7254.018232,1532.190996
2938.148298,-2294.638420,-6809.894666,0.000000
2938.148626,1110.308913,-10214.842000,-1915.238745
2938.148954,888.247130,-12509.480420,-995.924147
2938.149281,-444.123565,-10658.965565,1302.362347
2938.149609,1258.350101,-10288.862594,1225.752797
2938.149936,3182.885551,-12065.356855,-1302.362347
2938.150264,1258.350101,-13027.624579,-2145.067394
2938.150592,-1258.350101,-9844.739029,-459.657299
2938.150919,-518.144159,-6735.874072,612.876398
2938.151247,1998.556043,-8586.388927,-459.657299
2938.151575,2294.638420,-10362.883188,0.000000
2938.151902,-148.041188,-9548.656652,2221.676944
2938.152230,-740.205942,-7550.100608,1302.362347
2938.152558,222.061783,-8586.388927,-1608.800546
2938.152885,0.000000,-9992.780217,-2451.505594
2938.153213,-2220.617826,-8438.347739,-306.438199
2938.153540,-2812.782580,-6513.812290,1302.362347
2938.153868,222.061783,-7920.203579,536.266849
2938.154196,2812.782580,-11991.336260,229.828649
2938.154523,1258.350101,-11843.295072,1532.190996
2938.154851,518.144159,-8808.450710,1302.362347
2938.155179,1480.411884,-9474.636058,-612.876398
2938.155506,1998.556043,-11843.295072,-1838.629195
2938.155834,370.102971,-12139.377449,-689.485948
2938.156162,-1036.288319,-8734.430116,689.485948
2938.156489,814.226536,-7254.018232,0.000000
2938.156817,2960.823768,-11769.274478,-1225.752797
2938.157144,1332.370696,-11917.315666,766.095498
2938.157472,-1554.432478,-7254.018232,1455.581446
2938.157800,-1036.288319,-6661.853478,0.000000
2938.158127,370.102971,-9622.677246,-2834.553343
2938.158455,-1332.370696,-9770.718434,-536.266849
2938.158783,-2738.761985,-8438.347739,2145.067394
2938.159110,-740.205942,-7550.100608,1685.410096
2938.159438,2738.761985,-11177.109724,-1149.143247
2938.159765,2664.741391,-13175.665768,-1455.581446
2938.160093,518.144159,-10214.842000,-306.438199
2938.160421,1110.308913,-9104.533087,-229.828649
2938.160748,2442.679609,-11547.212695,-1838.629195
2938.161076,814.226536,-12805.562797,-1225.752797
2938.161404,-1184.329507,-10214.842000,0.000000
2938.161731,-222.061783,-7772.162391,842.705048
2938.162059,2294.638420,-10066.800811,0.000000
2938.162387,2368.659014,-11917.315666,0.000000
2938.162714,-518.144159,-9326.594869,383.047749
2938.163042,-2664.741391,-5181.441594,459.657299
2938.163369,-962.267725,-6217.729913,-1685.410096
2938.163697,-222.061783,-9622.677246,-2298.286494
2938.164025,-2664.741391,-9474.636058,689.485948
2938.164352,-2220.617826,-7920.203579,1685.410096
2938.164680,1998.556043,-10066.800811,-229.828649
2938.165008,3997.112087,-12953.603985,-1685.410096
2938.165335,2442.679609,-12731.542202,-383.047749
2938.165663,0.000000,-8068.244768,1455.581446
2938.165990,1554.432478,-8438.347739,-459.657299
2938.166318,2294.638420,-12361.439231,-1455.581446
2938.166646,-740.205942,-11917.315666,0.000000
2938.166973,-2664.741391,-6809.894666,1838.629195
2938.167301,-592.164754,-6809.894666,536.266849
2938.167629,1924.535449,-10881.027347,-1302.362347
2938.167956,-444.123565,-11399.171507,0.000000
2938.168284,-2664.741391,-8142.265362,842.705048
2938.168612,-1258.350101,-6217.729913,-689.485948
2938.168939,1998.556043,-9622.677246,-2834.553343
2938.169267,296.082377,-11843.295072,-306.438199
2938.169594,-1702.473667,-9104.533087,2221.676944
2938.169922,-518.144159,-6217.729913,1685.410096
2938.170250,2960.823768,-10955.047942,-1608.800546
2938.170577,1924.535449,-14359.995275,-1762.019645
2938.170905,-518.144159,-11029.068536,-229.828649
2938.171233,296.082377,-8364.327145,-536.266849
2938.171560,1406.391290,-10658.965565,-1915.238745
2938.171888,518.144159,-13545.768739,-842.705048
2938.172215,-814.226536,-9400.615463,1455.581446
2938.172543,148.041188,-6143.709319,1455.581446
2938.172871,2960.823768,-9178.553681,-459.657299
2938.173198,2590.720797,-12361.439231,536.266849
2938.173526,-1036.288319,-9622.677246,2145.067394
2938.173854,-1924.535449,-6365.771101,1072.533697
2938.174181,814.226536,-7772.162391,-1302.362347
2938.174509,1036.288319,-11621.233289,-2068.457845
2938.174837,-2146.597232,-10732.986159,842.705048
2938.175164,-1628.453072,-6957.935855,1838.629195
2938.175492,1258.350101,-8882.471304,-919.314598
2938.175819,1924.535449,-12657.521608,-1378.971896
2938.176147,-666.185348,-11325.150913,612.876398
2938.176475,-1036.288319,-5995.668130,1455.581446
2938.176802,814.226536,-7254.018232,-766.095498
2938.177130,2220.617826,-12213.398043,-1838.629195
2938.177458,444.123565,-11621.233289,536.266849
2938.177785,-888.247130,-7031.956449,2528.115143
2938.178113,888.247130,-7846.182985,1378.971896
2938.178440,1850.514855,-12731.542202,-919.314598
2938.178768,-666.185348,-12509.480420,-1225.752797
2938.179096,-2590.720797,-7698.141797,-612.876398
2938.179423,-888.247130,-7476.080014,-2374.896044
2938.179751,1776.494261,-11843.295072,-3064.381992
2938.180079,814.226536,-12435.459826,0.000000
2938.180406,-888.247130,-8660.409521,2374.896044
2938.180734,666.185348,-7105.977043,689.485948
2938.181062,2368.659014,-10732.986159,-1378.971896
2938.181389,296.082377,-12213.398043,-2145.067394
2938.181717,-1924.535449,-8364.327145,-306.438199
2938.182044,-740.205942,-6291.750507,-1149.143247
2938.182372,888.247130,-10066.800811,-1685.410096
2938.182700,1332.370696,-13397.727550,-229.828649
2938.183027,444.123565,-11547.212695,2528.115143
2938.183355,1110.308913,-7994.224174,1532.190996
2938.183683,3478.967927,-9992.780217,-1225.752797
2938.184010,2368.659014,-12287.418637,-1302.362347
2938.184338,-1184.329507,-8882.471304,995.924147
2938.184666,-1554.432478,-5403.503377,1225.752797
2938.184993,962.267725,-7698.141797,-689.485948
2938.185321,1332.370696,-11695.253884,-995.924147
2938.185648,-740.205942,-10214.842000,1225.752797
2938.185976,-1554.432478,-7328.038826,1225.752797
2938.186304,444.123565,-8808.450710,-1149.143247
2938.186631,2072.576638,-12509.480420,-2757.943793
2938.186959,0.000000,-11029.068536,-229.828649
2938.187287,-1850.514855,-6661.853478,1685.410096
2938.187614,1110.308913,-7920.203579,306.438199
2938.187942,3034.844362,-12583.501014,-995.924147
2938.188269,1258.350101,-12065.356855,689.485948
2938.188597,-666.185348,-8364.327145,1915.238745
2938.188925,518.144159,-6809.894666,-229.828649
2938.189252,1702.473667,-11103.089130,-2221.676944
2938.189580,444.123565,-11991.336260,-1225.752797
2938.189908,-1776.494261,-7031.956449,459.657299
2938.190235,0.000000,-6217.729913,-306.438199
2938.190563,2368.659014,-11177.109724,-1455.581446
2938.190891,592.164754,-12435.459826,0.000000
2938.191218,-2738.761985,-9178.553681,1532.190996
2938.191546,-1110.308913,-7920.203579,-306.438199
2938.191873,2072.576638,-10658.965565,-3140.991542
2938.192201,1480.411884,-12213.398043,-1149.143247
2938.192529,-666.185348,-9992.780217,1455.581446
2938.192856,444.123565,-7994.224174,1378.971896
2938.193184,2294.638420,-9474.636058,-842.705048
2938.193512,2072.576638,-12065.356855,-1685.410096
2938.193839,-1776.494261,-9474.636058,229.828649
2938.194167,-1554.432478,-7031.956449,229.828649
2938.194494,1110.308913,-9400.615463,-1378.971896
2938.194822,1702.473667,-12361.439231,-919.314598
2938.195150,-370.102971,-11029.068536,459.657299
2938.195477,0.000000,-7624.121203,1072.533697
2938.195805,1480.411884,-8438.347739,-306.438199
2938.196133,740.205942,-11769.274478,-1378.971896
2938.196460,-2368.659014,-10362.883188,459.657299
2938.196788,-3256.906145,-5625.565159,919.314598
2938.197116,-296.082377,-6957.935855,-919.314598
2938.197443,1406.391290,-12213.398043,-919.314598
2938.197771,-296.082377,-12139.377449,536.266849
2938.198098,-592.164754,-8808.450710,919.314598
2938.198426,1850.514855,-9474.636058,-1072.533697
2938.198754,3701.029710,-12583.501014,-2374.896044
2938.199081,1406.391290,-11177.109724,-229.828649
2938.199409,-296.082377,-7179.997637,1532.190996
2938.199737,666.185348,-7550.100608,76.609550
2938.200064,1776.494261,-11473.192101,-995.924147
2938.200392,0.000000,-11251.130318,0.000000
2938.200719,-1998.556043,-7328.038826,536.266849
2938.201047,-740.205942,-6735.874072,-459.657299
2938.201375,1110.308913,-10732.986159,-2528.115143
2938.201702,-370.102971,-12509.480420,-919.314598
2938.202030,-3034.844362,-9326.594869,1378.971896
2938.202358,-1184.329507,-5699.585753,-153.219100
2938.202685,1924.535449,-9918.759623,-1378.971896
2938.203013,1998.556043,-13101.645173,229.828649
2938.203341,1110.308913,-10362.883188,1915.238745
2938.203668,1628.453072,-7772.162391,459.657299
2938.203996,3923.091493,-11103.089130,-1915.238745
2938.204323,2072.576638,-13323.706956,-1455.581446
2938.204651,-1406.391290,-9844.739029,459.657299
2938.204979,-1776.494261,-7031.956449,306.438199
2938.205306,666.185348,-9992.780217,-1455.581446
2938.205634,1998.556043,-12213.398043,-1762.019645
2938.205962,148.041188,-8956.491898,995.924147
2938.206289,-740.205942,-5995.668130,3217.601092
2938.206617,666.185348,-8068.244768,536.266849
2938.206945,814.226536,-10955.047942,-1149.143247
2938.207272,-1850.514855,-9918.759623,-306.438199
2938.207600,-1776.494261,-6217.729913,612.876398
2938.207927,1184.329507,-8216.285956,-459.657299
2938.208255,2664.741391,-13249.686362,-229.828649
2938.208583,1036.288319,-12731.542202,459.657299
2938.208910,444.123565,-8660.409521,0.000000
2938.209238,2368.659014,-9696.697840,-2757.943793
2938.209566,2368.659014,-12879.583391,-2374.896044
2938.209893,0.000000,-11103.089130,0.000000
2938.210221,-1480.411884,-6735.874072,1608.800546
2938.210548,-518.144159,-5995.668130,766.095498
2938.210876,1258.350101,-9770.718434,0.000000
2938.211204,-888.247130,-9474.636058,689.485948
2938.211531,-3701.029710,-6513.812290,1302.362347
2938.211859,-2812.782580,-6957.935855,-766.095498
2938.212187,-444.123565,-11029.068536,-3753.867940
2938.212514,-1184.329507,-12879.583391,-2681.334243
2938.212842,-1480.411884,-10584.944971,229.828649
2938.213170,1036.288319,-9178.553681,536.266849
2938.213497,3552.988522,-12435.459826,-612.876398
2938.213825,3701.029710,-15100.201217,-919.314598
2938.214152,962.267725,-10881.027347,1072.533697
2938.214480,1332.370696,-7031.956449,306.438199
2938.214808,2146.597232,-9474.636058,-1608.800546
2938.215135,1184.329507,-11399.171507,-1225.752797
2938.215463,-2442.679609,-7476.080014,766.095498
2938.215791,-2960.823768,-5255.462188,1532.190996
2938.216118,962.267725,-8438.347739,-1225.752797
2938.216446,1480.411884,-12435.459826,-1225.752797
2938.216773,-1184.329507,-10214.842000,1072.533697
2938.217101,-740.205942,-6809.894666,612.876398
2938.217429,2220.617826,-7994.224174,-1072.533697
2938.217756,2146.597232,-11547.212695,-459.657299
2938.218084,-666.185348,-10807.006753,1915.238745
2938.218412,-740.205942,-7031.956449,2068.457845
2938.218739,2368.659014,-8438.347739,0.000000
2938.219067,3182.885551,-13027.624579,-1455.581446
2938.219395,148.041188,-12435.459826,0.000000
2938.219722,-666.185348,-7624.121203,306.438199
2938.220050,1702.473667,-7920.203579,-1915.238745
2938.220377,2072.576638,-11769.274478,-2681.334243
2938.220705,-1332.370696,-10881.027347,919.314598
2938.221033,-1480.411884,-7550.100608,2604.724693
2938.221360,518.144159,-6735.874072,1072.533697
2938.221688,2220.617826,-10362.883188,-1225.752797
2938.222016,370.102971,-11843.295072,153.219100
2938.222343,-814.226536,-8142.265362,919.314598
2938.222671,0.000000,-6365.771101,-536.266849
2938.222998,1480.411884,-10288.862594,-2451.505594
2938.223326,-370.102971,-12435.459826,-1608.800546
2938.223654,-2368.659014,-9178.553681,1302.362347
2938.223981,222.061783,-7772.162391,0.000000
2938.224309,2294.638420,-11103.089130,-2451.505594
2938.224637,740.205942,-14804.118840,-1302.362347
2938.224964,-370.102971,-12139.377449,536.266849
2938.225292,1036.288319,-7846.182985,229.828649
2938.225620,3182.885551,-9548.656652,-1838.629195
2938.225947,1110.308913,-12361.439231,536.266849
2938.226275,-2516.700203,-9474.636058,3217.601092
2938.226602,-666.185348,-5995.668130,1915.238745
2938.226930,1184.329507,-7846.182985,-1991.848295
2938.227258,0.000000,-10881.027347,-2221.676944
2938.227585,-2368.659014,-9474.636058,0.000000
2938.227913,-1480.411884,-6661.853478,153.219100
2938.228241,1406.391290,-9030.512492,-1838.629195
2938.228568,1776.494261,-12731.542202,-1302.362347
2938.228896,0.000000,-11325.150913,1455.581446
2938.229223,0.000000,-7105.977043,1608.800546
2938.229551,1480.411884,-8364.327145,-536.266849
2938.229879,888.247130,-11473.192101,-1225.752797
2938.230206,-1406.391290,-11029.068536,919.314598
2938.230534,-1998.556043,-6883.915261,1225.752797
2938.230861,1110.308913,-7994.224174,-1838.629195
2938.231189,2072.576638,-12657.521608,-1532.190996
2938.231516,222.061783,-12879.583391,76.609550
2938.231844,-1332.370696,-8364.327145,919.314598
2938.232172,1628.453072,-7031.956449,-995.924147
2938.232499,3256.906145,-10140.821405,-2374.896044
2938.232827,1110.308913,-10510.924376,0.000000
2938.233154,-962.267725,-7994.224174,2528.115143
2938.233482,296.082377,-7179.997637,0.000000
2938.233809,1998.556043,-10807.006753,-2374.896044
2938.234137,-962.267725,-11695.253884,-612.876398
2938.234464,-2368.659014,-9178.553681,1455.581446
2938.234792,-666.185348,-7698.141797,0.000000
2938.235120,1332.370696,-11399.171507,-2145.067394
2938.235447,370.102971,-13619.789333,-1225.752797
2938.235775,-518.144159,-9474.636058,1072.533697
2938.236102,1554.432478,-6587.832884,1149.143247
2938.236430,3330.926739,-10658.965565,-459.657299
2938.236757,1554.432478,-13767.830521,612.876398
2938.237085,-370.102971,-10140.821405,1915.238745
2938.237412,296.082377,-6291.750507,229.828649
2938.237740,1702.473667,-8734.430116,-2298.286494
2938.238068,1554.432478,-12361.439231,-1149.143247
2938.238395,-962.267725,-9252.574275,1225.752797
2938.238723,-1258.350101,-5699.585753,766.095498
2938.239050,1332.370696,-8808.450710,-2145.067394
2938.239378,1406.391290,-11991.336260,-1608.800546
2938.239705,-1702.473667,-10362.883188,1532.190996
2938.240033,-1554.432478,-6957.935855,2298.286494
2938.240360,1110.308913,-7698.141797,-1149.143247
2938.240688,1702.473667,-11769.274478,-689.485948
2938.241016,740.205942,-12657.521608,459.657299
2938.241343,0.000000,-7994.224174,1378.971896
2938.241671,2220.617826,-8734.430116,-919.314598
2938.241998,2220.617826,-12953.603985,-1838.629195
2938.242326,-888.247130,-12139.377449,-229.828649
2938.242653,-1998.556043,-7994.224174,536.266849
2938.242981,518.144159,-7624.121203,-383.047749
2938.243308,1998.556043,-10066.800811,-2374.896044
2938.243636,0.000000,-10732.986159,-612.876398
2938.243964,-2146.597232,-7698.141797,1532.190996
2938.244291,0.000000,-6069.688724,-229.828649
2938.244619,1110.308913,-9178.553681,-1608.800546
2938.244946,-1036.288319,-10955.047942,383.047749
2938.245274,-2812.782580,-8882.471304,2298.286494
2938.245601,-1406.391290,-7254.018232,229.828649
2938.245929,962.267725,-10881.027347,-3830.477490
2938.246256,0.000000,-14137.933492,-2604.724693
2938.246584,-962.267725,-12583.501014,76.609550
2938.246912,888.247130,-9252.574275,0.000000
2938.247239,3330.926739,-11103.089130,-1762.019645
2938.247567,1850.514855,-12879.583391,-1072.533697
2938.247894,-740.205942,-9844.739029,1762.019645
2938.248222,0.000000,-6883.915261,1378.971896
2938.248549,1628.453072,-7254.018232,-1072.533697
2938.248877,518.144159,-9474.636058,-1762.019645
2938.249204,-2294.638420,-8808.450710,766.095498
2938.249532,-1776.494261,-5995.668130,1991.848295
2938.249860,1850.514855,-7328.038826,-995.924147
2938.250187,2220.617826,-12287.418637,-1302.362347
2938.250515,-296.082377,-11621.233289,2145.067394
2938.250842,-962.267725,-6809.894666,919.314598
2938.251170,1702.473667,-8068.244768,-1225.752797
2938.251497,2516.700203,-12361.439231,-1685.410096
2938.251825,370.102971,-12731.542202,1455.581446
2938.252152,222.061783,-8808.450710,2298.286494
2938.252480,2368.659014,-9400.615463,-842.705048
2938.252808,3034.844362,-13397.727550,-2298.286494
2938.253135,444.123565,-12435.459826,-229.828649
2938.253463,-1554.432478,-7105.977043,1302.362347
2938.253790,222.061783,-6217.729913,-689.485948
2938.254118,1998.556043,-9400.615463,-1762.019645
2938.254445,-444.123565,-11177.109724,612.876398
2938.254773,-1332.370696,-8438.347739,2451.505594
2938.255100,888.247130,-5995.668130,306.438199
2938.255428,2516.700203,-9918.759623,-1838.629195
2938.255756,0.000000,-11917.315666,153.219100
2938.256083,-1184.329507,-8956.491898,1455.581446
2938.256411,1110.308913,-7476.080014,0.000000
2938.256738,2590.720797,-10584.944971,-2068.457845
2938.257066,1110.308913,-12657.521608,-1149.143247
2938.257393,-666.185348,-9770.718434,1149.143247
2938.257721,-296.082377,-8808.450710,153.219100
2938.258048,222.061783,-12213.398043,-2068.457845
2938.258376,0.000000,-13471.748144,-1991.848295
2938.258704,-1184.329507,-10288.862594,0.000000
2938.259031,-592.164754,-7179.997637,0.000000
2938.259359,2146.597232,-8808.450710,-229.828649
2938.259686,740.205942,-10658.965565,459.657299
2938.260014,-2368.659014,-8882.471304,2145.067394
2938.260341,-2516.700203,-5847.626942,383.047749
2938.260669,-518.144159,-6291.750507,-2528.115143
2938.260996,0.000000,-9696.697840,-2068.457845
2938.261324,-1332.370696,-10140.821405,1685.410096
2938.261652,-666.185348,-8512.368333,2451.505594
2938.261979,2220.617826,-9770.718434,-383.047749
2938.262307,2368.659014,-12657.521608,-2145.067394
2938.262634,814.226536,-12213.398043,-689.485948
2938.262962,222.061783,-8734.430116,689.485948
2938.263289,1110.308913,-9178.553681,-536.266849
2938.263617,1776.494261,-12879.583391,-766.095498
2938.263944,0.000000,-12731.542202,842.705048
2938.264272,-1998.556043,-8068.244768,1608.800546
2938.264600,-740.205942,-8068.244768,0.000000
2938.264927,962.267725,-10955.047942,-2374.896044
2938.265255,-370.102971,-10807.006753,-1532.190996
