#time,accel_x,accel_y,accel_z
2955.560517,0.000000,-9474.636058,-153.219100
2955.560845,-222.061783,-9252.574275,0.000000
2955.561172,-444.123565,-9178.553681,0.000000
2955.561500,-222.061783,-9474.636058,-229.828649
2955.561828,-296.082377,-9178.553681,153.219100
2955.562155,518.144159,-10066.800811,153.219100
2955.562483,666.185348,-9844.739029,612.876398
2955.562810,814.226536,-9622.677246,0.000000
2955.563138,814.226536,-9548.656652,153.219100
2955.563465,592.164754,-9178.553681,536.266849
2955.563793,592.164754,-9178.553681,306.438199
2955.564120,222.061783,-9252.574275,306.438199
2955.564448,222.061783,-9030.512492,1149.143247
2955.564776,222.061783,-9030.512492,-766.095498
2955.565103,0.000000,-9252.574275,-612.876398
2955.565431,148.041188,-9770.718434,-536.266849
2955.565758,370.102971,-9992.780217,-612.876398
2955.566086,814.226536,-10214.842000,-612.876398
2955.566413,814.226536,-10436.903782,-383.047749
2955.566741,222.061783,-10214.842000,0.000000
2955.567068,1184.329507,-9770.718434,-229.828649
2955.567396,666.185348,-9770.718434,-536.266849
2955.567724,370.102971,-9844.739029,-153.219100
2955.568051,0.000000,-9770.718434,-153.219100
2955.568379,0.000000,-9696.697840,-536.266849
2955.568706,0.000000,-9474.636058,-689.485948
2955.569034,-296.082377,-9622.677246,-995.924147
2955.569361,0.000000,-10288.862594,-612.876398
2955.569689,296.082377,-10288.862594,-306.438199
2955.570016,592.164754,-10140.821405,-229.828649
2955.570344,592.164754,-10066.800811,0.000000
2955.570671,518.144159,-9918.759623,76.609550
2955.570999,444.123565,-9400.615463,76.609550
2955.571327,592.164754,-9252.574275,76.609550
2955.571654,0.000000,-9400.615463,0.000000
2955.571982,0.000000,-9178.553681,-383.047749
2955.572309,-222.061783,-9474.636058,-229.828649
2955.572637,0.000000,-9474.636058,-306.438199
2955.572964,-148.041188,-9548.656652,-229.828649
2955.573292,296.082377,-9622.677246,-536.266849
2955.573619,222.061783,-9622.677246,766.095498
2955.573947,888.247130,-9622.677246,459.657299
2955.574275,1332.370696,-9178.553681,0.000000
2955.574602,1776.494261,-9030.512492,536.266849
2955.574930,2368.659014,-9104.533087,459.657299
2955.575257,2886.803174,-8734.430116,306.438199
2955.575585,3404.947333,-8364.327145,-153.219100
2955.575912,3627.009116,-8808.450710,-153.219100
2955.576240,5033.400406,-9918.759623,-1072.533697
2955.576567,5995.668130,-9474.636058,-1149.143247
2955.576895,6735.874072,-10140.821405,-612.876398
2955.577223,7698.141797,-11029.068536,-153.219100
2955.577550,9104.533087,-11177.109724,0.000000
2955.577878,8586.388927,-10510.924376,229.828649
2955.578205,8660.409521,-9992.780217,536.266849
2955.578533,8956.491898,-9326.594869,0.000000
2955.578860,8882.471304,-8586.388927,-383.047749
2955.579188,9252.574275,-8734.430116,0.000000
2955.579515,10214.842000,-8586.388927,0.000000
2955.579843,11177.109724,-9474.636058,-229.828649
2955.580171,11177.109724,-9696.697840,306.438199
2955.580498,11251.130318,-10436.903782,0.000000
2955.580826,9992.780217,-9844.739029,-229.828649
2955.581153,11325.150913,-9252.574275,-612.876398
2955.581481,12657.521608,-9992.780217,-229.828649
2955.581808,13989.892304,-10732.986159,536.266849
2955.582136,14878.139434,-9992.780217,1608.800546
2955.582463,15766.386565,-8660.409521,2298.286494
2955.582791,14508.036463,-7846.182985,383.047749
2955.583118,13397.727550,-8956.491898,842.705048
2955.583446,12213.398043,-8660.409521,459.657299
2955.583774,12361.439231,-9548.656652,-229.828649
2955.584101,12657.521608,-10584.944971,0.000000
2955.584429,13027.624579,-10214.842000,229.828649
2955.584756,13249.686362,-9548.656652,1685.410096
2955.585084,12657.521608,-9326.594869,2145.067394
2955.585411,11917.315666,-8586.388927,1685.410096
2955.585739,11769.274478,-9474.636058,383.047749
2955.586066,10362.883188,-9548.656652,306.438199
2955.586394,9104.533087,-9252.574275,306.438199
2955.586722,7328.038826,-8216.285956,383.047749
2955.587049,6661.853478,-7994.224174,76.609550
2955.587377,6735.874072,-8290.306550,-536.266849
2955.587704,8290.306550,-9696.697840,-1532.190996
2955.588032,8290.306550,-12139.377449,-459.657299
2955.588359,7550.100608,-12953.603985,0.000000
2955.588687,6809.894666,-11177.109724,-383.047749
2955.589014,5255.462188,-9178.553681,-153.219100
2955.589342,4959.379811,-8364.327145,-306.438199
2955.589670,5033.400406,-9104.533087,766.095498
2955.589997,4589.276840,-10584.944971,1455.581446
2955.590325,4515.256246,-11325.150913,1532.190996
2955.590652,2886.803174,-8808.450710,-536.266849
2955.590980,1036.288319,-7846.182985,-2068.457845
2955.591307,-740.205942,-9622.677246,-1455.581446
2955.591635,-592.164754,-10436.903782,-1608.800546
2955.591962,1036.288319,-10436.903782,-1991.848295
2955.592290,3182.885551,-10288.862594,-2068.457845
2955.592617,5255.462188,-9400.615463,-995.924147
2955.592945,4219.173869,-9178.553681,1455.581446
2955.593273,740.205942,-9030.512492,3677.258390
2955.593600,592.164754,-9400.615463,2068.457845
2955.593928,2294.638420,-8364.327145,-1762.019645
2955.594255,2960.823768,-9252.574275,-3370.820191
2955.594583,2072.576638,-10214.842000,-766.095498
2955.594910,0.000000,-9474.636058,1378.971896
2955.595238,-370.102971,-8660.409521,1455.581446
2955.595565,0.000000,-9770.718434,-919.314598
2955.595893,-296.082377,-10584.944971,-1915.238745
2955.596221,-1480.411884,-8808.450710,-612.876398
2955.596548,-370.102971,-7328.038826,0.000000
2955.596876,1332.370696,-8586.388927,153.219100
2955.597203,1110.308913,-9770.718434,995.924147
2955.597531,370.102971,-9252.574275,919.314598
2955.597858,518.144159,-8068.244768,459.657299
2955.598186,1628.453072,-9400.615463,-1302.362347
2955.598513,2516.700203,-11769.274478,-1762.019645
2955.598841,1258.350101,-10881.027347,-995.924147
2955.599169,0.000000,-8882.471304,-229.828649
2955.599496,592.164754,-9622.677246,-1072.533697
2955.599824,1850.514855,-11547.212695,-1149.143247
2955.600151,2812.782580,-12139.377449,0.000000
2955.600479,3034.844362,-9844.739029,76.609550
2955.600806,3552.988522,-8512.368333,-1072.533697
2955.601134,3478.967927,-10214.842000,0.000000
2955.601461,2886.803174,-10955.047942,842.705048
2955.601789,1110.308913,-8216.285956,995.924147
2955.602116,1998.556043,-7254.018232,-306.438199
2955.602444,2812.782580,-9178.553681,-1302.362347
2955.602772,1776.494261,-11695.253884,-612.876398
2955.603099,1850.514855,-11473.192101,536.266849
2955.603427,2516.700203,-9474.636058,-919.314598
2955.603754,2146.597232,-11177.109724,-459.657299
2955.604082,0.000000,-12953.603985,76.609550
2955.604409,-888.247130,-10510.924376,612.876398
2955.604737,222.061783,-8438.347739,0.000000
2955.605064,148.041188,-9326.594869,-612.876398
2955.605392,-1776.494261,-10140.821405,0.000000
2955.605720,-2368.659014,-8586.388927,766.095498
2955.606047,-1110.308913,-5921.647536,612.876398
2955.606375,-444.123565,-8216.285956,-536.266849
2955.606702,-1924.535449,-10436.903782,0.000000
2955.607030,-1850.514855,-9474.636058,612.876398
2955.607357,370.102971,-7402.059420,0.000000
2955.607685,2294.638420,-8290.306550,-1608.800546
2955.608012,814.226536,-11917.315666,842.705048
2955.608340,-1480.411884,-11547.212695,2604.724693
2955.608668,-148.041188,-9474.636058,919.314598
2955.608995,-814.226536,-9622.677246,-995.924147
2955.609323,-2590.720797,-11103.089130,-766.095498
2955.609650,-3552.988522,-10807.006753,229.828649
2955.609978,-2368.659014,-7846.182985,-766.095498
2955.610305,-296.082377,-7994.224174,-1378.971896
2955.610633,-1406.391290,-10436.903782,-306.438199
2955.610960,-2368.659014,-9918.759623,995.924147
2955.611288,-592.164754,-8068.244768,383.047749
2955.611615,592.164754,-8438.347739,-1532.190996
2955.611943,-370.102971,-10807.006753,-1225.752797
2955.612271,-1554.432478,-10732.986159,-153.219100
2955.612598,370.102971,-8734.430116,-383.047749
2955.612926,1110.308913,-8882.471304,-689.485948
2955.613253,0.000000,-12139.377449,0.000000
2955.613581,-592.164754,-11917.315666,0.000000
2955.613908,666.185348,-9770.718434,-1455.581446
2955.614236,1258.350101,-9326.594869,-2604.724693
2955.614563,740.205942,-11029.068536,-1608.800546
2955.614891,74.020594,-10807.006753,919.314598
2955.615219,814.226536,-8734.430116,1455.581446
2955.615546,1924.535449,-7920.203579,-612.876398
2955.615874,962.267725,-9400.615463,-1378.971896
2955.616201,-296.082377,-9918.759623,-459.657299
2955.616529,1332.370696,-9178.553681,-995.924147
2955.616856,1998.556043,-9178.553681,-1149.143247
2955.617184,518.144159,-11843.295072,-689.485948
2955.617511,-666.185348,-11325.150913,919.314598
2955.617839,1036.288319,-8882.471304,-383.047749
2955.618167,2516.700203,-8512.368333,-2145.067394
2955.618494,1776.494261,-10732.986159,-919.314598
2955.618822,592.164754,-10362.883188,1455.581446
2955.619149,2442.679609,-7254.018232,1302.362347
2955.619477,3701.029710,-7105.977043,459.657299
2955.619804,3256.906145,-10214.842000,1225.752797
2955.620132,2072.576638,-10584.944971,2298.286494
2955.620459,2368.659014,-8512.368333,1302.362347
2955.620787,2442.679609,-8660.409521,-689.485948
2955.621114,888.247130,-10955.047942,-1455.581446
2955.621442,-1480.411884,-10658.965565,0.000000
2955.621770,-1184.329507,-9178.553681,1072.533697
2955.622097,296.082377,-9992.780217,-766.095498
2955.622425,74.020594,-10732.986159,-766.095498
2955.622752,-962.267725,-10955.047942,689.485948
2955.623080,-666.185348,-8142.265362,1149.143247
2955.623407,592.164754,-7476.080014,-536.266849
2955.623735,370.102971,-9918.759623,-766.095498
2955.624063,-962.267725,-9844.739029,1608.800546
2955.624390,444.123565,-7698.141797,76.609550
2955.624718,2442.679609,-7698.141797,-1455.581446
2955.625045,2220.617826,-11177.109724,-919.314598
2955.625373,0.000000,-12361.439231,842.705048
2955.625701,0.000000,-11029.068536,612.876398
2955.626028,962.267725,-9992.780217,-842.705048
2955.626356,148.041188,-10140.821405,-1838.629195
2955.626683,-2220.617826,-10584.944971,-306.438199
2955.627011,-2738.761985,-8734.430116,689.485948
2955.627339,-1480.411884,-8290.306550,-919.314598
2955.627666,-2442.679609,-9474.636058,-995.924147
2955.627994,-4811.338623,-9474.636058,842.705048
2955.628321,-3330.926739,-6809.894666,0.000000
2955.628649,-666.185348,-6587.832884,-2528.115143
2955.628977,0.000000,-11103.089130,-2221.676944
2955.629304,0.000000,-11547.212695,-459.657299
2955.629632,1702.473667,-9474.636058,0.000000
2955.629959,3108.864956,-9400.615463,-536.266849
2955.630287,2368.659014,-11769.274478,-995.924147
2955.630615,74.020594,-12583.501014,612.876398
2955.630942,-740.205942,-10807.006753,229.828649
2955.631270,814.226536,-8956.491898,-1685.410096
2955.631597,74.020594,-9326.594869,-1455.581446
2955.631925,-2146.597232,-9326.594869,306.438199
2955.632253,-2516.700203,-7624.121203,1455.581446
2955.632580,-370.102971,-7105.977043,-766.095498
2955.632908,-296.082377,-9548.656652,-1378.971896
2955.633235,-1184.329507,-9474.636058,995.924147
2955.633563,370.102971,-7105.977043,1302.362347
2955.633891,2812.782580,-8882.471304,-459.657299
2955.634218,3478.967927,-11917.315666,-383.047749
2955.634546,2664.741391,-12805.562797,689.485948
2955.634873,2442.679609,-11399.171507,689.485948
2955.635201,3330.926739,-10288.862594,-1302.362347
2955.635529,2664.741391,-10658.965565,-2451.505594
2955.635856,-592.164754,-11843.295072,-612.876398
2955.636184,-1332.370696,-9918.759623,919.314598
2955.636511,1184.329507,-7920.203579,-153.219100
2955.636839,1628.453072,-7402.059420,0.000000
2955.637167,-444.123565,-8438.347739,2528.115143
2955.637494,296.082377,-7550.100608,2681.334243
2955.637822,1628.453072,-6809.894666,1608.800546
2955.638149,1184.329507,-9400.615463,-383.047749
2955.638477,-592.164754,-10658.965565,612.876398
2955.638805,0.000000,-8734.430116,459.657299
2955.639132,1554.432478,-8882.471304,-1608.800546
2955.639460,2072.576638,-12361.439231,-2221.676944
2955.639787,814.226536,-13693.809927,76.609550
2955.640115,962.267725,-11251.130318,0.000000
2955.640443,1998.556043,-9548.656652,-1302.362347
2955.640770,1036.288319,-11325.150913,-2604.724693
2955.641098,-1850.514855,-11399.171507,-383.047749
2955.641425,-1554.432478,-8660.409521,689.485948
2955.641753,444.123565,-6291.750507,-306.438199
2955.642081,962.267725,-7031.956449,306.438199
2955.642408,-518.144159,-8808.450710,2681.334243
2955.642736,-666.185348,-8808.450710,2987.772442
2955.643063,148.041188,-8290.306550,-919.314598
2955.643391,-962.267725,-9844.739029,-2834.553343
2955.643719,-3034.844362,-11547.212695,-1302.362347
2955.644046,-2368.659014,-10510.924376,-536.266849
2955.644374,1110.308913,-10140.821405,-2145.067394
2955.644701,1480.411884,-12435.459826,-1915.238745
2955.645029,-296.082377,-12731.542202,229.828649
2955.645357,222.061783,-10732.986159,459.657299
2955.645684,518.144159,-8216.285956,76.609550
2955.646012,-962.267725,-9030.512492,-919.314598
2955.646339,-2812.782580,-9622.677246,-306.438199
2955.646667,-3182.885551,-7550.100608,689.485948
2955.646995,-296.082377,-6291.750507,-229.828649
2955.647322,1554.432478,-6957.935855,0.000000
2955.647650,-148.041188,-9474.636058,1685.410096
2955.647977,-296.082377,-9770.718434,1991.848295
2955.648305,2664.741391,-9770.718434,-612.876398
2955.648633,1702.473667,-10732.986159,-1378.971896
2955.648960,-1258.350101,-11029.068536,842.705048
2955.649288,-1554.432478,-9252.574275,1378.971896
2955.649615,-148.041188,-9030.512492,-1302.362347
2955.649943,-296.082377,-10658.965565,-1915.238745
2955.650271,-962.267725,-11473.192101,-306.438199
2955.650598,-666.185348,-9622.677246,1302.362347
2955.650926,888.247130,-8364.327145,-306.438199
2955.651253,1258.350101,-9178.553681,-1302.362347
2955.651581,-962.267725,-10732.986159,459.657299
2955.651909,666.185348,-9104.533087,766.095498
2955.652236,2960.823768,-7031.956449,0.000000
2955.652564,3923.091493,-8364.327145,0.000000
2955.652891,2294.638420,-9770.718434,1762.019645
2955.653219,1702.473667,-10658.965565,2145.067394
2955.653547,1702.473667,-10732.986159,153.219100
2955.653874,740.205942,-11029.068536,-2221.676944
2955.654202,-1776.494261,-10732.986159,-612.876398
2955.654529,-1924.535449,-8956.491898,-459.657299
2955.654857,888.247130,-8512.368333,-2374.896044
2955.655185,1924.535449,-10732.986159,-1608.800546
2955.655512,222.061783,-11399.171507,1225.752797
2955.655840,1258.350101,-9474.636058,2834.553343
2955.656167,3034.844362,-7920.203579,-306.438199
2955.656495,2294.638420,-9622.677246,-689.485948
2955.656822,0.000000,-11399.171507,0.000000
2955.657150,296.082377,-10214.842000,0.000000
2955.657478,2294.638420,-8512.368333,-1532.190996
2955.657805,3404.947333,-9030.512492,-1302.362347
2955.658133,1184.329507,-9474.636058,1455.581446
2955.658460,0.000000,-10066.800811,1991.848295
2955.658788,1480.411884,-9548.656652,-689.485948
2955.659116,1554.432478,-9770.718434,-2221.676944
2955.659443,-1554.432478,-10140.821405,306.438199
2955.659771,-1850.514855,-7698.141797,1455.581446
2955.660098,296.082377,-6439.791695,612.876398
2955.660426,518.144159,-9252.574275,919.314598
2955.660754,-1184.329507,-10955.047942,995.924147
2955.661081,-1628.453072,-9400.615463,995.924147
2955.661409,-888.247130,-7994.224174,-1378.971896
2955.661736,-370.102971,-10584.944971,-2757.943793
2955.662064,-1702.473667,-12435.459826,-1378.971896
2955.662392,-1184.329507,-11399.171507,0.000000
2955.662719,1702.473667,-9992.780217,-306.438199
2955.663047,3849.070898,-10881.027347,-536.266849
2955.663374,1850.514855,-10066.800811,689.485948
2955.663702,-592.164754,-10140.821405,2987.772442
2955.664030,-888.247130,-8512.368333,995.924147
2955.664357,-1332.370696,-7624.121203,-995.924147
2955.664685,-3701.029710,-8660.409521,0.000000
2955.665012,-4293.194464,-7624.121203,842.705048
2955.665340,-1184.329507,-6735.874072,-1608.800546
2955.665668,444.123565,-9770.718434,-1455.581446
2955.665995,-1480.411884,-12731.542202,-306.438199
2955.666323,-1258.350101,-11769.274478,229.828649
2955.666650,1702.473667,-9400.615463,-1915.238745
2955.666978,2146.597232,-11547.212695,-2374.896044
2955.667306,1406.391290,-13101.645173,-689.485948
2955.667633,0.000000,-10807.006753,919.314598
2955.667961,1776.494261,-8512.368333,612.876398
2955.668288,2368.659014,-7476.080014,-1072.533697
2955.668616,592.164754,-9474.636058,0.000000
2955.668944,-1184.329507,-8808.450710,2068.457845
2955.669271,-370.102971,-7105.977043,766.095498
2955.669599,666.185348,-7402.059420,-1378.971896
2955.669926,-1184.329507,-8660.409521,76.609550
2955.670254,-2146.597232,-7846.182985,1991.848295
2955.670582,814.226536,-7105.977043,536.266849
2955.670909,2368.659014,-10510.924376,-1072.533697
2955.671237,1184.329507,-13471.748144,306.438199
2955.671564,1554.432478,-11991.336260,1072.533697
2955.671892,2812.782580,-9178.553681,-842.705048
2955.672220,3256.906145,-11325.150913,-2221.676944
2955.672547,1110.308913,-13545.768739,-1915.238745
2955.672875,-962.267725,-10584.944971,-766.095498
2955.673202,1184.329507,-7772.162391,-1225.752797
2955.673530,3034.844362,-8512.368333,-1762.019645
2955.673858,1554.432478,-9474.636058,0.000000
2955.674185,-740.205942,-8882.471304,2987.772442
2955.674513,0.000000,-7476.080014,1838.629195
2955.674840,1258.350101,-7476.080014,-1302.362347
2955.675168,-370.102971,-9770.718434,-383.047749
2955.675496,-592.164754,-9178.553681,1302.362347
2955.675823,1110.308913,-8142.265362,689.485948
2955.676151,2368.659014,-11325.150913,-612.876398
2955.676478,962.267725,-13471.748144,0.000000
2955.676806,-518.144159,-11843.295072,-459.657299
2955.677134,740.205942,-9030.512492,-1455.581446
2955.677461,888.247130,-11325.150913,-3064.381992
2955.677789,-666.185348,-12805.562797,-1915.238745
2955.678116,-2072.576638,-10955.047942,0.000000
2955.678444,-370.102971,-7772.162391,536.266849
2955.678772,1406.391290,-6661.853478,-229.828649
2955.679099,0.000000,-7179.997637,1225.752797
2955.679427,-2294.638420,-8068.244768,2298.286494
2955.679754,-518.144159,-7179.997637,1378.971896
2955.680082,1184.329507,-7328.038826,-842.705048
2955.680410,-666.185348,-9030.512492,0.000000
2955.680737,-2294.638420,-9178.553681,1838.629195
2955.681065,666.185348,-8734.430116,-383.047749
2955.681392,2368.659014,-12065.356855,-2221.676944
2955.681720,740.205942,-14211.954086,-689.485948
2955.682048,-1184.329507,-11621.233289,689.485948
2955.682375,148.041188,-9400.615463,-689.485948
2955.682703,0.000000,-10436.903782,-2298.286494
2955.683030,-1406.391290,-11399.171507,-1991.848295
2955.683358,-2294.638420,-10066.800811,-459.657299
2955.683686,-1554.432478,-7994.224174,153.219100
2955.684013,1110.308913,-7402.059420,0.000000
2955.684341,1036.288319,-8882.471304,-459.657299
2955.684668,-1184.329507,-9548.656652,1608.800546
2955.684996,148.041188,-8586.388927,766.095498
2955.685324,2368.659014,-8734.430116,-1455.581446
2955.685651,740.205942,-9992.780217,-306.438199
2955.685979,-370.102971,-9770.718434,1149.143247
2955.686306,1850.514855,-9104.533087,995.924147
2955.686634,2368.659014,-10732.986159,-1149.143247
2955.686962,814.226536,-13175.665768,-306.438199
2955.687289,0.000000,-11251.130318,-153.219100
2955.687617,666.185348,-8660.409521,-995.924147
2955.687944,1480.411884,-9474.636058,-1608.800546
2955.688272,518.144159,-11473.192101,-1072.533697
2955.688600,-1110.308913,-10658.965565,1225.752797
2955.688927,370.102971,-7698.141797,612.876398
2955.689255,2072.576638,-7328.038826,-612.876398
2955.689582,1110.308913,-9770.718434,-229.828649
2955.689910,0.000000,-9770.718434,1455.581446
2955.690238,1036.288319,-7698.141797,459.657299
2955.690565,3108.864956,-8364.327145,-1532.190996
2955.690893,2294.638420,-9918.759623,-536.266849
2955.691220,222.061783,-9474.636058,1302.362347
2955.691548,592.164754,-8808.450710,536.266849
2955.691876,1850.514855,-9992.780217,-1378.971896
2955.692203,1036.288319,-11917.315666,-1378.971896
2955.692531,0.000000,-10955.047942,0.000000
2955.692858,962.267725,-9326.594869,689.485948
2955.693186,2146.597232,-9474.636058,-919.314598
2955.693514,74.020594,-11251.130318,-459.657299
2955.693841,-2368.659014,-10140.821405,459.657299
2955.694169,-2516.700203,-7476.080014,0.000000
2955.694496,-666.185348,-7550.100608,-1915.238745
2955.694824,222.061783,-9696.697840,-2298.286494
2955.695152,0.000000,-10881.027347,76.609550
2955.695479,1184.329507,-9474.636058,689.485948
2955.695807,3182.885551,-9548.656652,-459.657299
2955.696134,1924.535449,-11029.068536,-995.924147
2955.696462,0.000000,-11029.068536,0.000000
2955.696790,-518.144159,-10066.800811,0.000000
2955.697117,666.185348,-9400.615463,-1455.581446
2955.697445,0.000000,-10362.883188,-383.047749
2955.697772,-1998.556043,-9696.697840,1532.190996
2955.698100,-1776.494261,-8290.306550,1762.019645
2955.698428,0.000000,-9030.512492,-1149.143247
2955.698755,-1110.308913,-11769.274478,-2145.067394
2955.699083,-3256.906145,-11103.089130,-1608.800546
2955.699410,-2072.576638,-7698.141797,-1225.752797
2955.699738,518.144159,-7476.080014,-1915.238745
2955.700066,1702.473667,-10362.883188,-459.657299
2955.700393,1110.308913,-11103.089130,1915.238745
2955.700721,1924.535449,-10140.821405,2221.676944
2955.701048,2886.803174,-9104.533087,306.438199
2955.701376,1406.391290,-9474.636058,-689.485948
2955.701703,-2294.638420,-9326.594869,689.485948
2955.702031,-2812.782580,-7179.997637,689.485948
2955.702359,-740.205942,-6809.894666,-536.266849
2955.702686,-592.164754,-9104.533087,0.000000
2955.703014,-1702.473667,-9992.780217,1455.581446
2955.703341,-148.041188,-8216.285956,1378.971896
2955.703669,1184.329507,-8734.430116,-766.095498
2955.703997,518.144159,-12879.583391,-1455.581446
2955.704324,-1036.288319,-13027.624579,-459.657299
2955.704652,-666.185348,-8734.430116,-459.657299
2955.704979,2442.679609,-7698.141797,-2451.505594
2955.705307,2368.659014,-11177.109724,-1302.362347
2955.705635,814.226536,-12065.356855,459.657299
2955.705962,888.247130,-9770.718434,1455.581446
2955.706290,1702.473667,-8438.347739,0.000000
2955.706617,814.226536,-9474.636058,-1991.848295
2955.706945,-2072.576638,-10066.800811,-766.095498
2955.707273,-1702.473667,-8512.368333,76.609550
2955.707600,74.020594,-7402.059420,-1149.143247
2955.707928,1036.288319,-9252.574275,-536.266849
2955.708255,888.247130,-11621.233289,1762.019645
2955.708583,2516.700203,-10214.842000,2068.457845
2955.708911,3997.112087,-9992.780217,-229.828649
2955.709238,2220.617826,-12953.603985,-1149.143247
2955.709566,-148.041188,-12657.521608,-1532.190996
2955.709893,-740.205942,-9474.636058,-1225.752797
2955.710221,296.082377,-8512.368333,-1991.848295
2955.710549,1628.453072,-10658.965565,-1762.019645
2955.710876,888.247130,-11103.089130,76.609550
2955.711204,518.144159,-9400.615463,1149.143247
2955.711531,962.267725,-7105.977043,1149.143247
2955.711859,148.041188,-6883.915261,689.485948
2955.712187,-2664.741391,-7772.162391,1762.019645
2955.712514,-2220.617826,-6291.750507,1838.629195
2955.712842,1184.329507,-5921.647536,-459.657299
2955.713169,2220.617826,-9770.718434,0.000000
2955.713497,888.247130,-11547.212695,2145.067394
2955.713825,1406.391290,-9918.759623,1838.629195
2955.714152,1406.391290,-10362.883188,-842.705048
2955.714480,74.020594,-14063.912898,-2451.505594
2955.714807,-1924.535449,-14285.974681,-2604.724693
2955.715135,-2442.679609,-10510.924376,-2528.115143
2955.715463,0.000000,-8364.327145,-2528.115143
2955.715790,1628.453072,-9400.615463,-1378.971896
2955.716118,-296.082377,-10066.800811,2374.896044
2955.716445,-1184.329507,-8068.244768,4136.915689
2955.716773,592.164754,-7105.977043,1149.143247
2955.717101,-148.041188,-7624.121203,-1378.971896
2955.717428,-3256.906145,-8512.368333,-995.924147
2955.717756,-2516.700203,-7994.224174,0.000000
2955.718083,0.000000,-7994.224174,-1302.362347
2955.718411,1110.308913,-10732.986159,-766.095498
2955.718739,1924.535449,-13841.851115,536.266849
2955.719066,1554.432478,-12583.501014,919.314598
2955.719394,2368.659014,-12139.377449,-842.705048
2955.719721,1184.329507,-12361.439231,-2451.505594
2955.720049,-2368.659014,-11621.233289,-2374.896044
2955.720377,-3775.050304,-8290.306550,-1608.800546
2955.720704,-888.247130,-6587.832884,-153.219100
2955.721032,592.164754,-7105.977043,689.485948
2955.721359,370.102971,-9696.697840,2528.115143
2955.721687,74.020594,-7846.182985,3294.210641
2955.722015,1184.329507,-7031.956449,383.047749
2955.722342,592.164754,-9770.718434,-1455.581446
2955.722670,-1924.535449,-10584.944971,-459.657299
2955.722997,-1110.308913,-7772.162391,0.000000
2955.723325,2664.741391,-8586.388927,-1532.190996
2955.723653,3701.029710,-11029.068536,-383.047749
2955.723980,2516.700203,-11991.336260,1532.190996
2955.724308,2072.576638,-11399.171507,1838.629195
2955.724635,1998.556043,-10807.006753,0.000000
2955.724963,1776.494261,-11547.212695,-3140.991542
2955.725291,-1258.350101,-10288.862594,-1302.362347
2955.725618,-1554.432478,-7846.182985,306.438199
2955.725946,1702.473667,-7031.956449,-229.828649
2955.726274,2590.720797,-8734.430116,842.705048
2955.726601,888.247130,-9474.636058,2681.334243
2955.726929,-370.102971,-8438.347739,2451.505594
2955.727256,296.082377,-8808.450710,-612.876398
2955.727584,740.205942,-9918.759623,-2911.162892
2955.727912,-666.185348,-11547.212695,-1838.629195
2955.728239,-222.061783,-10732.986159,306.438199
2955.728567,2294.638420,-8956.491898,0.000000
2955.728895,4071.132681,-11029.068536,-919.314598
2955.729222,1702.473667,-12361.439231,0.000000
2955.729550,148.041188,-11473.192101,536.266849
2955.729877,1110.308913,-10436.903782,-1378.971896
2955.730205,0.000000,-10510.924376,-1762.019645
2955.730533,-2368.659014,-9844.739029,-689.485948
2955.730860,-1924.535449,-7994.224174,153.219100
2955.731188,-518.144159,-7402.059420,689.485948
2955.731516,444.123565,-8808.450710,0.000000
2955.731843,-814.226536,-9252.574275,0.000000
2955.732171,-1702.473667,-8956.491898,689.485948
2955.732498,-888.247130,-7254.018232,-306.438199
2955.732826,0.000000,-9474.636058,-2298.286494
2955.733154,-1554.432478,-11399.171507,-153.219100
2955.733481,-518.144159,-10510.924376,766.095498
2955.733809,1776.494261,-9030.512492,-306.438199
2955.734137,2442.679609,-10140.821405,-612.876398
2955.734464,0.000000,-12213.398043,842.705048
2955.734792,-666.185348,-10214.842000,1532.190996
2955.735119,-814.226536,-7402.059420,153.219100
2955.735447,-814.226536,-8660.409521,-689.485948
2955.735775,-2590.720797,-8956.491898,0.000000
2955.736102,-2960.823768,-7846.182985,612.876398
2955.736430,-740.205942,-6587.832884,153.219100
2955.736758,1554.432478,-9622.677246,-766.095498
2955.737085,0.000000,-11399.171507,689.485948
2955.737413,-148.041188,-10288.862594,842.705048
2955.737740,1628.453072,-9104.533087,-995.924147
2955.738068,2442.679609,-11769.274478,-2374.896044
2955.738396,518.144159,-12657.521608,-612.876398
2955.738723,222.061783,-9622.677246,1302.362347
2955.739051,1776.494261,-7402.059420,76.609550
2955.739379,2294.638420,-9696.697840,-536.266849
2955.739706,444.123565,-11843.295072,229.828649
2955.740034,-666.185348,-9696.697840,459.657299
2955.740361,888.247130,-8068.244768,-689.485948
2955.740689,1332.370696,-9326.594869,-2298.286494
2955.741017,222.061783,-10807.006753,-459.657299
2955.741344,444.123565,-8956.491898,1455.581446
2955.741672,2812.782580,-7550.100608,153.219100
2955.742000,3552.988522,-10732.986159,-689.485948
2955.742327,1332.370696,-11769.274478,689.485948
2955.742655,296.082377,-9770.718434,842.705048
2955.742982,888.247130,-8956.491898,-612.876398
2955.743310,1258.350101,-9992.780217,-1149.143247
2955.743638,-962.267725,-10658.965565,-689.485948
2955.743965,-1850.514855,-9104.533087,0.000000
2955.744293,-222.061783,-7179.997637,-459.657299
2955.744620,1628.453072,-8660.409521,-1225.752797
2955.744948,-444.123565,-10955.047942,919.314598
2955.745276,-1554.432478,-9622.677246,2298.286494
2955.745603,1036.288319,-6661.853478,0.000000
2955.745931,2294.638420,-8586.388927,-1149.143247
2955.746259,296.082377,-10807.006753,76.609550
2955.746586,740.205942,-9622.677246,766.095498
2955.746914,1998.556043,-8882.471304,612.876398
2955.747241,2072.576638,-10881.027347,-459.657299
2955.747569,0.000000,-12287.418637,-995.924147
2955.747897,-1850.514855,-10584.944971,-995.924147
2955.748224,0.000000,-9104.533087,-2834.553343
2955.748552,370.102971,-10140.821405,-3294.210641
2955.748880,-1554.432478,-11177.109724,-689.485948
2955.749207,-2590.720797,-9474.636058,1991.848295
2955.749535,0.000000,-6883.915261,1072.533697
2955.749862,962.267725,-8438.347739,-306.438199
2955.750190,-888.247130,-10732.986159,1378.971896
2955.750518,-1184.329507,-9252.574275,612.876398
2955.750845,148.041188,-7031.956449,0.000000
2955.751173,1776.494261,-10140.821405,-1378.971896
2955.751501,888.247130,-12731.542202,-842.705048
2955.751828,666.185348,-12361.439231,383.047749
2955.752156,2294.638420,-10362.883188,0.000000
2955.752483,2590.720797,-10955.047942,-459.657299
2955.752811,518.144159,-11103.089130,536.266849
2955.753139,-1702.473667,-8290.306550,2451.505594
2955.753466,-444.123565,-6587.832884,842.705048
2955.753794,-592.164754,-7476.080014,-536.266849
2955.754122,-3404.947333,-9474.636058,1072.533697
2955.754449,-4293.194464,-7402.059420,1838.629195
2955.754777,-1628.453072,-4885.359217,-229.828649
2955.755104,666.185348,-8364.327145,-2298.286494
2955.755432,962.267725,-12583.501014,-1915.238745
2955.755760,740.205942,-12065.356855,612.876398
2955.756087,2960.823768,-10807.006753,-229.828649
2955.756415,4737.318029,-11917.315666,-1532.190996
2955.756743,2812.782580,-13101.645173,-919.314598
2955.757070,814.226536,-10955.047942,842.705048
2955.757398,1480.411884,-8734.430116,689.485948
2955.757725,2812.782580,-8956.491898,-842.705048
2955.758053,1332.370696,-9178.553681,-536.266849
2955.758381,-666.185348,-8216.285956,1532.190996
2955.758708,74.020594,-6513.812290,919.314598
2955.759036,74.020594,-7846.182985,-536.266849
2955.759364,-1702.473667,-9696.697840,-1149.143247
2955.759691,-3182.885551,-9918.759623,0.000000
2955.760019,-1258.350101,-8660.409521,-1915.238745
2955.760346,1776.494261,-10140.821405,-2528.115143
2955.760674,1554.432478,-14285.974681,-536.266849
2955.761002,1036.288319,-13989.892304,842.705048
2955.761329,2590.720797,-11177.109724,0.000000
2955.761657,3849.070898,-10436.903782,-1838.629195
2955.761985,1036.288319,-10732.986159,-1685.410096
2955.762312,-962.267725,-9770.718434,-766.095498
2955.762640,-1110.308913,-7254.018232,689.485948
2955.762967,1036.288319,-7624.121203,0.000000
2955.763295,1258.350101,-9252.574275,766.095498
2955.763623,592.164754,-8882.471304,2451.505594
2955.763950,1554.432478,-8808.450710,2298.286494
2955.764278,2812.782580,-10807.006753,229.828649
2955.764606,-296.082377,-11251.130318,0.000000
2955.764933,-3701.029710,-8586.388927,306.438199
2955.765261,-2368.659014,-6809.894666,-1608.800546
2955.765588,-518.144159,-8882.471304,-2374.896044
2955.765916,-962.267725,-11843.295072,-1072.533697
2955.766244,-1776.494261,-11843.295072,1149.143247
2955.766571,-444.123565,-9474.636058,0.000000
2955.766899,1776.494261,-9474.636058,-2451.505594
2955.767227,0.000000,-11177.109724,-2374.896044
2955.767554,-2294.638420,-10066.800811,536.266849
2955.767882,-296.082377,-8586.388927,1762.019645
2955.768209,2442.679609,-7846.182985,842.705048
2955.768537,1258.350101,-7624.121203,689.485948
2955.768865,74.020594,-7698.141797,2834.553343
2955.769192,0.000000,-7328.038826,2681.334243
2955.769520,-222.061783,-8734.430116,459.657299
2955.769848,-1702.473667,-11621.233289,-2451.505594
2955.770175,-3182.885551,-11325.150913,-2451.505594
2955.770503,-1480.411884,-8586.388927,-2451.505594
2955.770830,1702.473667,-10362.883188,-2604.724693
2955.771158,1110.308913,-13841.851115,-229.828649
2955.771486,370.102971,-13027.624579,1455.581446
2955.771813,2442.679609,-9918.759623,0.000000
2955.772141,3330.926739,-9474.636058,-1378.971896
2955.772469,1184.329507,-10807.006753,-689.485948
2955.772796,-1776.494261,-9770.718434,1302.362347
2955.773124,-1850.514855,-7031.956449,1378.971896
2955.773451,888.247130,-7624.121203,-612.876398
2955.773779,814.226536,-8142.265362,-919.314598
2955.774107,-962.267725,-8808.450710,1149.143247
2955.774434,1110.308913,-9548.656652,1225.752797
2955.774762,2738.761985,-10584.944971,-995.924147
2955.775090,444.123565,-11695.253884,-1378.971896
2955.775417,-814.226536,-10807.006753,0.000000
2955.775745,1036.288319,-7476.080014,0.000000
2955.776072,1998.556043,-7476.080014,-536.266849
2955.776400,1776.494261,-11695.253884,536.266849
2955.776728,666.185348,-12361.439231,1762.019645
2955.777055,740.205942,-8956.491898,919.314598
2955.777383,1702.473667,-8290.306550,-1532.190996
2955.777711,74.020594,-10288.862594,-842.705048
2955.778038,-2442.679609,-9992.780217,0.000000
2955.778366,-1480.411884,-7476.080014,306.438199
2955.778693,444.123565,-7254.018232,-919.314598
2955.779021,1406.391290,-8364.327145,-1149.143247
2955.779349,1332.370696,-9474.636058,1225.752797
2955.779676,1406.391290,-9030.512492,2451.505594
2955.780004,1998.556043,-10436.903782,536.266849
2955.780332,296.082377,-11473.192101,-536.266849
2955.780659,-2220.617826,-9992.780217,-766.095498
2955.780987,-1406.391290,-8660.409521,-2068.457845
2955.781314,1036.288319,-9992.780217,-2834.553343
2955.781642,740.205942,-13915.871710,-1378.971896
2955.781970,-444.123565,-14063.912898,995.924147
2955.782297,666.185348,-10140.821405,306.438199
2955.782625,740.205942,-8808.450710,-689.485948
2955.782953,-592.164754,-10584.944971,-1762.019645
2955.783280,-3330.926739,-9474.636058,0.000000
2955.783608,-2442.679609,-6587.832884,0.000000
2955.783935,740.205942,-5921.647536,-1302.362347
2955.784263,1702.473667,-8216.285956,-306.438199
2955.784591,1110.308913,-9178.553681,2221.676944
2955.784918,1406.391290,-9178.553681,2681.334243
2955.785246,2294.638420,-11325.150913,153.219100
2955.785574,1406.391290,-12583.501014,-2068.457845
2955.785901,-1110.308913,-9770.718434,-1225.752797
2955.786229,-1406.391290,-7846.182985,153.219100
2955.786556,370.102971,-8882.471304,76.609550
2955.786884,444.123565,-11695.253884,766.095498
2955.787212,-2220.617826,-9770.718434,1762.019645
2955.787539,-1776.494261,-7105.977043,1072.533697
2955.787867,-518.144159,-6957.935855,-1455.581446
2955.788195,-740.205942,-9696.697840,-2221.676944
2955.788522,-2146.597232,-10140.821405,-766.095498
2955.788850,-296.082377,-8438.347739,0.000000
2955.789177,2960.823768,-8068.244768,-689.485948
2955.789505,4219.173869,-11325.150913,-1302.362347
2955.789833,3034.844362,-11843.295072,1225.752797
2955.790160,2368.659014,-11177.109724,1149.143247
2955.790488,2590.720797,-11103.089130,-383.047749
2955.790815,1776.494261,-11325.150913,-1532.190996
2955.791143,-592.164754,-9252.574275,-459.657299
2955.791471,0.000000,-6291.750507,919.314598
2955.791798,962.267725,-7031.956449,76.609550
2955.792126,370.102971,-10881.027347,-536.266849
2955.792454,-1850.514855,-11103.089130,689.485948
2955.792781,-962.267725,-8808.450710,-229.828649
2955.793109,1776.494261,-9104.533087,-1991.848295
2955.793436,1776.494261,-12879.583391,-1915.238745
2955.793764,0.000000,-13693.809927,0.000000
2955.794092,518.144159,-10584.944971,306.438199
2955.794419,2146.597232,-8142.265362,-1455.581446
2955.794747,2368.659014,-9030.512492,-2374.896044
2955.795075,-296.082377,-9918.759623,383.047749
2955.795402,-1184.329507,-8956.491898,2298.286494
2955.795730,0.000000,-8142.265362,536.266849
2955.796057,444.123565,-8438.347739,-1532.190996
2955.796385,-1332.370696,-8364.327145,-536.266849
2955.796713,-1036.288319,-7328.038826,1149.143247
2955.797040,1924.535449,-7920.203579,536.266849
2955.797368,2590.720797,-12213.398043,0.000000
2955.797696,666.185348,-13323.706956,689.485948
2955.798023,444.123565,-9474.636058,536.266849
2955.798351,740.205942,-7698.141797,-919.314598
2955.798678,-444.123565,-11251.130318,-459.657299
2955.799006,-3108.864956,-11843.295072,-306.438199
2955.799334,-2738.761985,-9474.636058,-995.924147
2955.799661,-222.061783,-8216.285956,-2757.943793
2955.799989,740.205942,-9548.656652,-2451.505594
2955.800317,-1554.432478,-9400.615463,842.705048
2955.800644,-1628.453072,-7624.121203,2221.676944
2955.800972,962.267725,-8438.347739,919.314598
2955.801299,1480.411884,-9622.677246,-612.876398
2955.801627,-1110.308913,-8216.285956,536.266849
2955.801955,-740.205942,-7402.059420,2451.505594
2955.802282,1702.473667,-8068.244768,612.876398
2955.802610,1702.473667,-12139.377449,-536.266849
2955.802938,-740.205942,-13397.727550,0.000000
2955.803265,-222.061783,-10066.800811,-919.314598
2955.803593,1480.411884,-9844.739029,-1991.848295
2955.803920,1184.329507,-12583.501014,-3064.381992
2955.804248,-1184.329507,-12805.562797,-1225.752797
2955.804576,-1258.350101,-9474.636058,306.438199
2955.804903,1480.411884,-7994.224174,76.609550
2955.805231,2442.679609,-8734.430116,-383.047749
2955.805559,148.041188,-8586.388927,1455.581446
2955.805886,-370.102971,-7698.141797,2757.943793
2955.806214,814.226536,-7476.080014,689.485948
2955.806541,962.267725,-8660.409521,-919.314598
2955.806869,-1776.494261,-8512.368333,536.266849
2955.807197,-1332.370696,-8068.244768,536.266849
2955.807524,1850.514855,-8438.347739,-1838.629195
2955.807852,2664.741391,-12583.501014,-2451.505594
2955.808180,518.144159,-13915.871710,0.000000
2955.808507,1332.370696,-9992.780217,229.828649
2955.808835,3256.906145,-8808.450710,-995.924147
2955.809162,2738.761985,-11843.295072,-1455.581446
2955.809490,-370.102971,-12139.377449,536.266849
2955.809818,-370.102971,-8734.430116,919.314598
2955.810145,1554.432478,-7105.977043,-153.219100
2955.810473,1258.350101,-8142.265362,-1455.581446
2955.810801,-1480.411884,-9104.533087,766.095498
2955.811128,-1998.556043,-7994.224174,1378.971896
2955.811456,0.000000,-8512.368333,-612.876398
2955.811783,888.247130,-10214.842000,-3064.381992
2955.812111,-148.041188,-10436.903782,-1225.752797
2955.812439,222.061783,-8586.388927,229.828649
2955.812766,1776.494261,-9030.512492,76.609550
2955.813094,1776.494261,-12139.377449,0.000000
2955.813422,148.041188,-13841.851115,459.657299
2955.813749,814.226536,-10658.965565,0.000000
2955.814077,2590.720797,-8808.450710,-1915.238745
2955.814404,1332.370696,-11473.192101,-1532.190996
2955.814732,-1480.411884,-13027.624579,306.438199
2955.815060,-2368.659014,-9770.718434,689.485948
2955.815387,-296.082377,-7254.018232,-1225.752797
2955.815715,0.000000,-7698.141797,-1915.238745
2955.816043,-2072.576638,-8216.285956,306.438199
2955.816370,-2664.741391,-6809.894666,2298.286494
2955.816698,-370.102971,-7254.018232,919.314598
2955.817025,1480.411884,-8808.450710,-919.314598
2955.817353,370.102971,-9326.594869,0.000000
2955.817681,370.102971,-8586.388927,1532.190996
2955.818008,2146.597232,-8586.388927,536.266849
2955.818336,2664.741391,-12361.439231,-1149.143247
2955.818664,1036.288319,-14434.015869,-536.266849
2955.818991,444.123565,-10955.047942,0.000000
2955.819319,1850.514855,-8142.265362,0.000000
2955.819646,1110.308913,-10288.862594,0.000000
2955.819974,-2294.638420,-11843.295072,1149.143247
2955.820302,-3849.070898,-8956.491898,1378.971896
2955.820629,-1998.556043,-5625.565159,-1225.752797
2955.820957,-814.226536,-7031.956449,-2451.505594
2955.821285,-1850.514855,-8956.491898,-306.438199
2955.821612,-1850.514855,-7772.162391,1149.143247
2955.821940,1776.494261,-7328.038826,0.000000
2955.822267,3775.050304,-10807.006753,-2298.286494
2955.822595,1776.494261,-12435.459826,-1225.752797
2955.822923,518.144159,-11325.150913,229.828649
2955.823250,2294.638420,-10658.965565,-612.876398
2955.823578,3478.967927,-13027.624579,-2221.676944
2955.823906,1406.391290,-13989.892304,-1072.533697
2955.824233,666.185348,-10807.006753,1225.752797
2955.824561,2368.659014,-7328.038826,766.095498
2955.824888,1998.556043,-8882.471304,-536.266849
2955.825216,-2072.576638,-10140.821405,76.609550
2955.825544,-4293.194464,-8882.471304,919.314598
2955.825871,-1924.535449,-6513.812290,-842.705048
2955.826199,1110.308913,-7920.203579,-2681.334243
2955.826526,222.061783,-10510.924376,-1378.971896
2955.826854,370.102971,-10807.006753,1455.581446
2955.827181,2220.617826,-9696.697840,1378.971896
2955.827509,3552.988522,-10732.986159,-1302.362347
2955.827836,888.247130,-10881.027347,-1302.362347
2955.828164,-1776.494261,-9178.553681,459.657299
2955.828491,-222.061783,-6883.915261,0.000000
2955.828818,1036.288319,-8734.430116,-383.047749
2955.829146,444.123565,-10881.027347,612.876398
2955.829473,74.020594,-8586.388927,2451.505594
2955.829801,2072.576638,-7476.080014,1225.752797
2955.830128,2664.741391,-10066.800811,-612.876398
2955.830456,0.000000,-12657.521608,-306.438199
2955.830783,-1036.288319,-10214.842000,-459.657299
2955.831111,592.164754,-7105.977043,-1149.143247
2955.831438,1924.535449,-8808.450710,-1762.019645
2955.831766,222.061783,-10510.924376,306.438199
2955.832093,-1332.370696,-10362.883188,2145.067394
2955.832421,74.020594,-10214.842000,76.609550
2955.832748,1184.329507,-10658.965565,-3370.820191
2955.833075,-1480.411884,-9992.780217,-2911.162892
2955.833403,-3478.967927,-8660.409521,0.000000
2955.833730,-1184.329507,-8290.306550,0.000000
2955.834058,1110.308913,-9918.759623,-766.095498
2955.834385,592.164754,-11177.109724,229.828649
2955.834713,0.000000,-9252.574275,1149.143247
2955.835040,1480.411884,-8660.409521,689.485948
2955.835368,2072.576638,-10140.821405,0.000000
2955.835695,0.000000,-13027.624579,-1838.629195
2955.836023,-2072.576638,-11769.274478,229.828649
2955.836350,0.000000,-8364.327145,-1225.752797
2955.836678,1480.411884,-8438.347739,-2911.162892
2955.837005,-222.061783,-11325.150913,-1302.362347
2955.837332,-1258.350101,-11473.192101,1302.362347
2955.837660,0.000000,-9030.512492,689.485948
2955.837987,888.247130,-9400.615463,-1608.800546
2955.838315,-518.144159,-9622.677246,-1608.800546
2955.838642,-2368.659014,-8512.368333,1225.752797
2955.838970,-518.144159,-6661.853478,1685.410096
2955.839297,1702.473667,-7698.141797,459.657299
2955.839625,962.267725,-9992.780217,766.095498
2955.839952,222.061783,-9622.677246,2221.676944
2955.840280,1332.370696,-8290.306550,612.876398
2955.840607,2294.638420,-9770.718434,-1149.143247
2955.840935,592.164754,-12879.583391,-1685.410096
2955.841262,-1184.329507,-11769.274478,-229.828649
2955.841589,592.164754,-8882.471304,-1225.752797
2955.841917,2812.782580,-9992.780217,-1838.629195
2955.842244,1776.494261,-10362.883188,-306.438199
2955.842572,222.061783,-9178.553681,1991.848295
2955.842899,296.082377,-7920.203579,2068.457845
2955.843227,888.247130,-8512.368333,-383.047749
2955.843554,-1702.473667,-8956.491898,-1532.190996
2955.843882,-2960.823768,-7920.203579,0.000000
2955.844209,-1036.288319,-7105.977043,153.219100
2955.844537,1702.473667,-9104.533087,-1302.362347
2955.844864,2368.659014,-11991.336260,-995.924147
2955.845192,1110.308913,-11991.336260,459.657299
2955.845519,2516.700203,-11251.130318,0.000000
2955.845846,2368.659014,-11843.295072,-1838.629195
2955.846174,444.123565,-13767.830521,-1838.629195
2955.846501,-1184.329507,-11843.295072,-383.047749
2955.846829,888.247130,-8364.327145,-842.705048
2955.847156,2812.782580,-8956.491898,-1685.410096
2955.847484,1258.350101,-10807.006753,383.047749
2955.847811,-888.247130,-9252.574275,2604.724693
2955.848139,-962.267725,-7402.059420,1838.629195
2955.848466,-666.185348,-7402.059420,-1225.752797
2955.848794,-2516.700203,-8734.430116,-2374.896044
2955.849121,-3997.112087,-7846.182985,-306.438199
2955.849449,-1924.535449,-6217.729913,-76.609550
2955.849776,2442.679609,-9548.656652,-842.705048
2955.850103,2812.782580,-12805.562797,383.047749
2955.850431,1776.494261,-11473.192101,2298.286494
2955.850758,3108.864956,-9918.759623,919.314598
2955.851086,3330.926739,-11399.171507,-1072.533697
2955.851413,962.267725,-12657.521608,-1532.190996
2955.851741,-2072.576638,-10288.862594,229.828649
2955.852068,-962.267725,-6291.750507,306.438199
2955.852396,1110.308913,-7994.224174,-689.485948
2955.852723,370.102971,-10732.986159,306.438199
2955.853051,-2146.597232,-9030.512492,2221.676944
2955.853378,-1184.329507,-6883.915261,1455.581446
2955.853706,370.102971,-7994.224174,-1225.752797
2955.854033,-1110.308913,-9622.677246,-2145.067394
2955.854360,-3478.967927,-8586.388927,153.219100
2955.854688,-1480.411884,-7105.977043,0.000000
2955.855015,2442.679609,-9770.718434,-1915.238745
2955.855343,2738.761985,-13323.706956,-1455.581446
2955.855670,1406.391290,-12879.583391,612.876398
2955.855998,2146.597232,-11399.171507,536.266849
2955.856325,3034.844362,-11843.295072,-1225.752797
2955.856653,1776.494261,-13767.830521,-2757.943793
2955.856980,-1776.494261,-10658.965565,0.000000
2955.857308,0.000000,-7105.977043,995.924147
2955.857635,2072.576638,-7328.038826,153.219100
2955.857963,1036.288319,-8586.388927,842.705048
2955.858290,-1924.535449,-7994.224174,3064.381992
2955.858617,-1998.556043,-7031.956449,2374.896044
2955.858945,518.144159,-8438.347739,-1149.143247
2955.859272,-370.102971,-10066.800811,-2681.334243
2955.859600,-2146.597232,-10362.883188,-1302.362347
2955.859927,-740.205942,-9400.615463,0.000000
2955.860255,3182.885551,-9918.759623,-1378.971896
2955.860582,3182.885551,-12287.418637,-612.876398
2955.860910,-370.102971,-11621.233289,459.657299
2955.861237,444.123565,-9770.718434,995.924147
2955.861565,2072.576638,-9696.697840,-995.924147
2955.861892,222.061783,-10658.965565,-1915.238745
2955.862220,-2294.638420,-9252.574275,766.095498
2955.862547,-740.205942,-7179.997637,1762.019645
2955.862874,2442.679609,-6365.771101,766.095498
2955.863202,1332.370696,-8956.491898,0.000000
2955.863529,-592.164754,-9770.718434,1608.800546
2955.863857,740.205942,-8438.347739,689.485948
2955.864184,2146.597232,-9474.636058,-1302.362347
2955.864512,740.205942,-11695.253884,-2451.505594
2955.864839,-1850.514855,-11399.171507,-383.047749
2955.865167,-666.185348,-9400.615463,153.219100
2955.865494,2146.597232,-9104.533087,-2451.505594
2955.865822,1258.350101,-11843.295072,-2681.334243
2955.866149,-962.267725,-11103.089130,76.609550
2955.866477,-1036.288319,-8734.430116,536.266849
2955.866804,592.164754,-8808.450710,-536.266849
2955.867131,296.082377,-10288.862594,-995.924147
2955.867459,-1110.308913,-9770.718434,1149.143247
2955.867786,-444.123565,-7846.182985,1455.581446
2955.868114,1628.453072,-8290.306550,76.609550
2955.868441,2220.617826,-10881.027347,-1225.752797
2955.868769,-444.123565,-11177.109724,1532.190996
2955.869096,-370.102971,-9252.574275,1991.848295
2955.869424,888.247130,-8364.327145,-306.438199
2955.869751,518.144159,-10658.965565,-2221.676944
2955.870079,-1554.432478,-10955.047942,0.000000
2955.870406,-1554.432478,-8142.265362,0.000000
2955.870734,370.102971,-7254.018232,-1378.971896
2955.871061,592.164754,-10732.986159,-1072.533697
2955.871388,-592.164754,-11103.089130,1072.533697
2955.871716,-296.082377,-8734.430116,1608.800546
2955.872043,1702.473667,-9030.512492,0.000000
2955.872371,2516.700203,-10807.006753,-1378.971896
2955.872698,-370.102971,-10584.944971,383.047749
2955.873026,-222.061783,-8216.285956,2451.505594
2955.873353,1332.370696,-7698.141797,383.047749
2955.873681,1850.514855,-10658.965565,-1378.971896
2955.874008,-518.144159,-11325.150913,-229.828649
2955.874336,-222.061783,-9474.636058,536.266849
2955.874663,518.144159,-9030.512492,-1225.752797
2955.874991,1110.308913,-11103.089130,-2604.724693
2955.875318,-1628.453072,-10510.924376,-919.314598
2955.875645,-1554.432478,-8956.491898,459.657299
2955.875973,592.164754,-7772.162391,-459.657299
2955.876300,1480.411884,-9918.759623,-995.924147
2955.876628,-222.061783,-10436.903782,383.047749
2955.876955,0.000000,-9622.677246,1378.971896
2955.877283,1554.432478,-9474.636058,-383.047749
2955.877610,1332.370696,-10807.006753,-1302.362347
2955.877938,-814.226536,-11621.233289,-1149.143247
2955.878265,-740.205942,-9622.677246,-229.828649
2955.878593,1480.411884,-8438.347739,-612.876398
2955.878920,1480.411884,-10436.903782,-1225.752797
2955.879248,-296.082377,-11843.295072,0.000000
2955.879575,-666.185348,-9252.574275,919.314598
2955.879902,1184.329507,-8438.347739,0.000000
2955.880230,1406.391290,-9548.656652,-995.924147
2955.880557,-740.205942,-9844.739029,842.705048
2955.880885,-1702.473667,-7846.182985,2068.457845
2955.881212,592.164754,-6809.894666,383.047749
2955.881540,1406.391290,-9400.615463,-1149.143247
2955.881867,-962.267725,-10510.924376,306.438199
2955.882195,-1332.370696,-8956.491898,689.485948
2955.882522,1184.329507,-9030.512492,-1455.581446
2955.882850,1924.535449,-11843.295072,-2451.505594
2955.883177,148.041188,-11621.233289,-536.266849
2955.883505,962.267725,-9474.636058,1532.190996
2955.883832,2516.700203,-9104.533087,1072.533697
2955.884159,2960.823768,-10436.903782,383.047749
2955.884487,296.082377,-10066.800811,919.314598
2955.884814,-592.164754,-7920.203579,1225.752797
2955.885142,0.000000,-8290.306550,0.000000
2955.885469,222.061783,-10214.842000,-1302.362347
2955.885797,-1628.453072,-9770.718434,0.000000
2955.886124,-2516.700203,-7550.100608,842.705048
2955.886452,-370.102971,-8438.347739,-995.924147
2955.886779,740.205942,-11177.109724,-3370.820191
2955.887107,-444.123565,-11695.253884,-995.924147
2955.887434,0.000000,-9918.759623,459.657299
2955.887762,2146.597232,-9178.553681,-536.266849
2955.888089,2812.782580,-11251.130318,-1378.971896
2955.888416,370.102971,-11399.171507,-612.876398
2955.888744,-1184.329507,-9400.615463,689.485948
2955.889071,814.226536,-8956.491898,-766.095498
2955.889399,1406.391290,-10584.944971,-1455.581446
2955.889726,222.061783,-10214.842000,-306.438199
2955.890054,-740.205942,-8808.450710,1225.752797
2955.890381,518.144159,-8512.368333,1378.971896
2955.890709,1406.391290,-9400.615463,1072.533697
2955.891036,-370.102971,-10140.821405,76.609550
2955.891364,-2368.659014,-7179.997637,1455.581446
2955.891691,-888.247130,-7179.997637,0.000000
2955.892019,370.102971,-9918.759623,-1455.581446
2955.892346,444.123565,-11473.192101,-459.657299
2955.892673,888.247130,-9622.677246,383.047749
2955.893001,2960.823768,-9400.615463,-229.828649
2955.893328,2368.659014,-11029.068536,-1455.581446
2955.893656,74.020594,-11917.315666,-1378.971896
2955.893983,-814.226536,-10214.842000,-306.438199
2955.894311,0.000000,-8660.409521,0.000000
2955.894638,888.247130,-9400.615463,-766.095498
2955.894966,592.164754,-9326.594869,612.876398
2955.895293,-666.185348,-8068.244768,3217.601092
2955.895621,0.000000,-8290.306550,2221.676944
2955.895948,962.267725,-10066.800811,-766.095498
2955.896276,-592.164754,-10732.986159,-1532.190996
2955.896603,-1554.432478,-8660.409521,-306.438199
2955.896930,814.226536,-8142.265362,-1225.752797
2955.897258,2072.576638,-10732.986159,-2068.457845
2955.897585,888.247130,-13027.624579,-766.095498
2955.897913,1776.494261,-11991.336260,0.000000
2955.898240,2886.803174,-11769.274478,-536.266849
2955.898568,3330.926739,-12213.398043,-1991.848295
2955.898895,444.123565,-11843.295072,-1532.190996
2955.899223,-2294.638420,-9400.615463,229.828649
2955.899550,-1554.432478,-7476.080014,612.876398
2955.899878,0.000000,-7624.121203,-766.095498
2955.900205,-814.226536,-7846.182985,0.000000
2955.900533,-3034.844362,-6587.832884,2145.067394
2955.900860,-1702.473667,-7476.080014,1378.971896
2955.901187,888.247130,-11029.068536,-1225.752797
2955.901515,222.061783,-11991.336260,-1225.752797
2955.901842,-1258.350101,-9252.574275,689.485948
2955.902170,814.226536,-7698.141797,383.047749
2955.902497,2960.823768,-11103.089130,-383.047749
2955.902825,1332.370696,-13101.645173,-612.876398
2955.903152,518.144159,-10584.944971,1225.752797
2955.903480,1924.535449,-8068.244768,536.266849
2955.903807,1998.556043,-10436.903782,-153.219100
2955.904135,-370.102971,-11843.295072,229.828649
2955.904462,-2664.741391,-8068.244768,842.705048
2955.904790,-1924.535449,-7179.997637,0.000000
2955.905117,1332.370696,-8660.409521,-1685.410096
2955.905444,222.061783,-8586.388927,-306.438199
2955.905772,-1554.432478,-8142.265362,1915.238745
2955.906099,592.164754,-8882.471304,1838.629195
2955.906427,2664.741391,-10436.903782,-153.219100
2955.906754,962.267725,-11325.150913,-689.485948
2955.907082,-962.267725,-10214.842000,0.000000
2955.907409,740.205942,-8734.430116,-995.924147
2955.907737,1924.535449,-11547.212695,-2451.505594
2955.908064,888.247130,-14804.118840,-1915.238745
2955.908392,0.000000,-11843.295072,-153.219100
2955.908719,1258.350101,-8734.430116,842.705048
2955.909047,1554.432478,-10510.924376,-306.438199
2955.909374,-666.185348,-11251.130318,-383.047749
2955.909701,-1702.473667,-8882.471304,229.828649
2955.910029,-148.041188,-6661.853478,612.876398
2955.910356,1776.494261,-7402.059420,0.000000
2955.910684,1406.391290,-8512.368333,229.828649
2955.911011,0.000000,-7920.203579,1991.848295
2955.911339,888.247130,-9326.594869,842.705048
2955.911666,1406.391290,-10807.006753,-919.314598
2955.911994,-592.164754,-11843.295072,-2374.896044
2955.912321,-3330.926739,-9844.739029,-1072.533697
2955.912649,-1406.391290,-8956.491898,-1532.190996
2955.912976,1406.391290,-10955.047942,-2451.505594
2955.913304,1036.288319,-13323.706956,-612.876398
2955.913631,74.020594,-10807.006753,1915.238745
2955.913958,1110.308913,-7920.203579,2298.286494
2955.914286,1702.473667,-8290.306550,0.000000
2955.914613,-222.061783,-9548.656652,-689.485948
2955.914941,-3108.864956,-8290.306550,536.266849
2955.915268,-1776.494261,-6291.750507,229.828649
2955.915596,2220.617826,-7254.018232,-1302.362347
2955.915923,2738.761985,-9252.574275,-995.924147
2955.916251,74.020594,-9918.759623,1455.581446
2955.916578,2294.638420,-10732.986159,995.924147
2955.916906,3256.906145,-12583.501014,-1302.362347
2955.917233,370.102971,-12361.439231,-1762.019645
2955.917561,-1628.453072,-8882.471304,-306.438199
2955.917888,-592.164754,-7105.977043,153.219100
2955.918215,296.082377,-9770.718434,383.047749
2955.918543,518.144159,-11547.212695,536.266849
2955.918870,-888.247130,-9400.615463,842.705048
2955.919198,-444.123565,-7994.224174,0.000000
2955.919525,296.082377,-9844.739029,-1991.848295
2955.919853,-592.164754,-11621.233289,-2145.067394
2955.920180,-1480.411884,-10288.862594,-1072.533697
2955.920508,1332.370696,-8142.265362,76.609550
2955.920835,4589.276840,-9400.615463,-1149.143247
2955.921163,4515.256246,-10362.883188,689.485948
2955.921490,2220.617826,-9992.780217,2145.067394
2955.921818,962.267725,-9622.677246,1991.848295
2955.922145,518.144159,-10881.027347,153.219100
2955.922472,-888.247130,-10288.862594,-1072.533697
2955.922800,-2960.823768,-7846.182985,-1608.800546
2955.923127,-2960.823768,-5403.503377,-306.438199
2955.923455,-962.267725,-8142.265362,306.438199
2955.923782,0.000000,-11843.295072,383.047749
2955.924110,74.020594,-9770.718434,919.314598
2955.924437,74.020594,-7920.203579,459.657299
2955.924765,1036.288319,-10436.903782,-689.485948
2955.925092,888.247130,-12361.439231,-1302.362347
2955.925420,518.144159,-11399.171507,-612.876398
2955.925747,1702.473667,-8660.409521,0.000000
2955.926074,2516.700203,-8808.450710,-229.828649
2955.926402,2442.679609,-10732.986159,-536.266849
2955.926729,0.000000,-10066.800811,459.657299
2955.927057,-1406.391290,-7994.224174,383.047749
2955.927384,-1258.350101,-8956.491898,-1532.190996
2955.927712,-1258.350101,-9622.677246,-2145.067394
2955.928039,-2368.659014,-7698.141797,0.000000
2955.928367,-1850.514855,-7846.182985,919.314598
2955.928694,666.185348,-10362.883188,1149.143247
2955.929021,2220.617826,-13175.665768,0.000000
2955.929349,1406.391290,-11991.336260,-612.876398
2955.929676,296.082377,-9252.574275,-536.266849
2955.930004,1110.308913,-9992.780217,-1532.190996
2955.930331,1258.350101,-12435.459826,-2451.505594
2955.930659,-370.102971,-11843.295072,-689.485948
2955.930986,148.041188,-8882.471304,0.000000
2955.931314,2146.597232,-9252.574275,-229.828649
2955.931641,2072.576638,-10807.006753,-689.485948
2955.931968,-148.041188,-9548.656652,612.876398
2955.932296,-370.102971,-7772.162391,1225.752797
2955.932623,148.041188,-6365.771101,612.876398
2955.932951,-444.123565,-7179.997637,536.266849
2955.933278,-2368.659014,-6439.791695,1532.190996
2955.933606,-2294.638420,-6217.729913,1685.410096
2955.933933,74.020594,-9400.615463,536.266849
2955.934261,666.185348,-12657.521608,-995.924147
2955.934588,740.205942,-12953.603985,-1149.143247
2955.934915,740.205942,-10288.862594,-919.314598
2955.935243,2368.659014,-11325.150913,-1455.581446
2955.935570,2220.617826,-13323.706956,-1378.971896
2955.935898,666.185348,-11399.171507,-153.219100
2955.936225,888.247130,-7846.182985,842.705048
2955.936553,2294.638420,-6883.915261,0.000000
2955.936880,1406.391290,-7920.203579,459.657299
2955.937208,-1184.329507,-7550.100608,1455.581446
2955.937535,-1998.556043,-7328.038826,1608.800546
2955.937862,-592.164754,-7698.141797,0.000000
2955.938190,74.020594,-8956.491898,-2221.676944
2955.938517,-962.267725,-9622.677246,-1225.752797
2955.938845,-962.267725,-9474.636058,306.438199
2955.939172,1480.411884,-11399.171507,-2145.067394
2955.939500,2886.803174,-14508.036463,-1378.971896
2955.939827,1480.411884,-13101.645173,-1149.143247
2955.940155,888.247130,-10584.944971,-612.876398
2955.940482,1480.411884,-10436.903782,-1072.533697
2955.940810,666.185348,-12805.562797,-1762.019645
2955.941137,-666.185348,-11917.315666,-1378.971896
2955.941464,-1998.556043,-7402.059420,306.438199
2955.941792,0.000000,-6513.812290,459.657299
2955.942119,296.082377,-8956.491898,-306.438199
2955.942447,-666.185348,-9178.553681,153.219100
2955.942774,-2146.597232,-7402.059420,995.924147
2955.943102,-814.226536,-7698.141797,536.266849
2955.943429,1554.432478,-9696.697840,-612.876398
2955.943757,-370.102971,-9474.636058,383.047749
2955.944084,0.000000,-8216.285956,2221.676944
2955.944411,1998.556043,-10066.800811,383.047749
2955.944739,2294.638420,-13397.727550,76.609550
2955.945066,0.000000,-12065.356855,0.000000
2955.945394,-1628.453072,-9030.512492,-536.266849
2955.945721,-666.185348,-9918.759623,-1225.752797
2955.946049,74.020594,-11843.295072,-2604.724693
2955.946376,-962.267725,-10881.027347,-766.095498
2955.946704,-1258.350101,-7994.224174,919.314598
2955.947031,962.267725,-6883.915261,1685.410096
2955.947358,2442.679609,-8142.265362,459.657299
2955.947686,-370.102971,-7994.224174,1302.362347
2955.948013,-1036.288319,-7402.059420,1225.752797
2955.948341,592.164754,-7698.141797,-536.266849
2955.948668,1776.494261,-8882.471304,-1991.848295
2955.948996,1110.308913,-10140.821405,-1608.800546
2955.949323,74.020594,-10732.986159,459.657299
2955.949651,1850.514855,-11547.212695,536.266849
2955.949978,2812.782580,-14063.912898,-919.314598
2955.950305,1850.514855,-12879.583391,-1915.238745
2955.950633,518.144159,-9992.780217,-2298.286494
2955.950960,1036.288319,-8660.409521,-459.657299
2955.951288,814.226536,-11029.068536,-153.219100
2955.951615,-444.123565,-10362.883188,383.047749
2955.951943,-1332.370696,-7105.977043,1455.581446
2955.952270,-370.102971,-6957.935855,612.876398
2955.952598,666.185348,-9474.636058,-689.485948
2955.952925,-296.082377,-9400.615463,-1608.800546
2955.953252,-1554.432478,-8068.244768,-536.266849
2955.953580,888.247130,-10140.821405,-383.047749
2955.953907,3182.885551,-11547.212695,-1532.190996
2955.954235,1776.494261,-10140.821405,-306.438199
2955.954562,74.020594,-9474.636058,1608.800546
2955.954890,1258.350101,-10214.842000,1838.629195
2955.955217,1924.535449,-11843.295072,536.266849
2955.955545,-296.082377,-10140.821405,-306.438199
2955.955872,-1332.370696,-6587.832884,-229.828649
2955.956199,-592.164754,-7328.038826,536.266849
2955.956527,296.082377,-10955.047942,306.438199
2955.956854,-888.247130,-9918.759623,0.000000
2955.957182,-1554.432478,-6513.812290,612.876398
2955.957509,148.041188,-6735.874072,0.000000
2955.957837,962.267725,-11177.109724,-842.705048
2955.958164,518.144159,-11251.130318,-306.438199
2955.958492,1036.288319,-9474.636058,-383.047749
2955.958819,2368.659014,-10066.800811,-536.266849
2955.959146,2442.679609,-11621.233289,-1149.143247
2955.959474,740.205942,-10658.965565,-153.219100
2955.959801,-1924.535449,-7254.018232,536.266849
2955.960129,-1628.453072,-8290.306550,383.047749
2955.960456,-888.247130,-11103.089130,-1608.800546
2955.960784,-1110.308913,-10288.862594,-1915.238745
2955.961111,-1258.350101,-7772.162391,-842.705048
2955.961439,296.082377,-9770.718434,229.828649
2955.961766,1036.288319,-13101.645173,229.828649
2955.962093,962.267725,-13175.665768,-919.314598
2955.962421,296.082377,-9326.594869,-919.314598
2955.962748,74.020594,-8734.430116,-536.266849
2955.963076,1258.350101,-10288.862594,-1455.581446
2955.963403,1036.288319,-10510.924376,-1915.238745
2955.963731,-444.123565,-9474.636058,0.000000
2955.964058,518.144159,-8808.450710,536.266849
2955.964386,1480.411884,-10955.047942,-689.485948
2955.964713,370.102971,-11029.068536,-1302.362347
2955.965040,-1998.556043,-8364.327145,76.609550
2955.965368,-962.267725,-7994.224174,153.219100
2955.965695,1110.308913,-8956.491898,306.438199
2955.966023,1110.308913,-8512.368333,842.705048
2955.966350,-444.123565,-7031.956449,2681.334243
2955.966678,0.000000,-8216.285956,2681.334243
2955.967005,1998.556043,-11547.212695,-153.219100
2955.967333,888.247130,-11917.315666,-1685.410096
2955.967660,-888.247130,-9474.636058,-995.924147
2955.967987,592.164754,-8438.347739,-459.657299
2955.968315,2812.782580,-11251.130318,-1149.143247
2955.968642,2294.638420,-12213.398043,-229.828649
2955.968970,666.185348,-9326.594869,919.314598
2955.969297,1258.350101,-7402.059420,1302.362347
2955.969625,1480.411884,-8808.450710,229.828649
2955.969952,-740.205942,-8364.327145,229.828649
2955.970280,-2368.659014,-6291.750507,1378.971896
2955.970607,-1480.411884,-6513.812290,1608.800546
2955.970934,74.020594,-8734.430116,153.219100
2955.971262,888.247130,-11325.150913,-766.095498
2955.971589,518.144159,-10658.965565,-689.485948
2955.971917,1480.411884,-10881.027347,-1149.143247
2955.972244,2072.576638,-13989.892304,-1838.629195
2955.972572,1184.329507,-14285.974681,-2145.067394
2955.972899,296.082377,-11399.171507,-919.314598
2955.973227,1110.308913,-9178.553681,-306.438199
2955.973554,1702.473667,-10510.924376,-459.657299
2955.973881,1332.370696,-11325.150913,-919.314598
2955.974209,-518.144159,-8068.244768,229.828649
2955.974536,-1332.370696,-6883.915261,919.314598
2955.974864,-888.247130,-7476.080014,0.000000
2955.975191,-2146.597232,-8068.244768,-1072.533697
2955.975519,-4367.215058,-7846.182985,153.219100
2955.975846,-2368.659014,-7550.100608,383.047749
2955.976174,666.185348,-9548.656652,-1225.752797
2955.976501,1776.494261,-11251.130318,-536.266849
2955.976828,1702.473667,-12287.418637,536.266849
2955.977156,2812.782580,-11843.295072,383.047749
2955.977483,2220.617826,-12361.439231,0.000000
2955.977811,-148.041188,-12139.377449,-383.047749
2955.978138,-2368.659014,-8364.327145,-383.047749
2955.978466,-2590.720797,-6513.812290,-383.047749
2955.978793,-370.102971,-9622.677246,-919.314598
2955.979121,-518.144159,-9770.718434,-689.485948
2955.979448,-1628.453072,-8068.244768,1072.533697
2955.979775,-148.041188,-7402.059420,1685.410096
2955.980103,518.144159,-8512.368333,229.828649
2955.980430,-1184.329507,-8438.347739,229.828649
2955.980758,-1850.514855,-7846.182985,0.000000
2955.981085,-370.102971,-7105.977043,383.047749
2955.981413,2664.741391,-9696.697840,-383.047749
2955.981740,3034.844362,-11991.336260,153.219100
2955.982068,2516.700203,-11843.295072,1149.143247
2955.982395,2960.823768,-11251.130318,536.266849
2955.982722,2516.700203,-13397.727550,-2374.896044
2955.983050,444.123565,-13323.706956,-2834.553343
2955.983377,-1776.494261,-9770.718434,-1455.581446
2955.983705,148.041188,-7254.018232,-689.485948
2955.984032,1406.391290,-8734.430116,0.000000
2955.984360,296.082377,-9622.677246,766.095498
2955.984687,-518.144159,-7550.100608,2068.457845
2955.985015,-296.082377,-5995.668130,1532.190996
2955.985342,444.123565,-7328.038826,-536.266849
2955.985669,-444.123565,-9992.780217,-2298.286494
2955.985997,-1332.370696,-9992.780217,-1225.752797
2955.986324,518.144159,-9400.615463,-306.438199
2955.986652,3849.070898,-11843.295072,-1455.581446
2955.986979,3923.091493,-13397.727550,-459.657299
2955.987307,2368.659014,-11843.295072,-306.438199
2955.987634,1258.350101,-10436.903782,0.000000
2955.987962,1110.308913,-11991.336260,-842.705048
2955.988289,0.000000,-11399.171507,-1378.971896
2955.988616,-2072.576638,-7328.038826,-383.047749
2955.988944,-1554.432478,-5477.523971,919.314598
2955.989271,0.000000,-7254.018232,1608.800546
2955.989599,296.082377,-9252.574275,0.000000
2955.989926,-666.185348,-7772.162391,842.705048
2955.990254,-1184.329507,-7179.997637,612.876398
2955.990581,-370.102971,-9622.677246,-1302.362347
2955.990909,-444.123565,-13545.768739,-1991.848295
2955.991236,-592.164754,-11547.212695,-459.657299
2955.991563,1184.329507,-8882.471304,0.000000
2955.991891,3108.864956,-10955.047942,689.485948
2955.992218,2812.782580,-13175.665768,-306.438199
2955.992546,740.205942,-10362.883188,536.266849
2955.992873,-814.226536,-7772.162391,0.000000
2955.993201,-1110.308913,-9030.512492,-766.095498
2955.993528,-1924.535449,-10140.821405,-1072.533697
2955.993856,-2738.761985,-7328.038826,-229.828649
2955.994183,-1332.370696,-7624.121203,1225.752797
2955.994511,1332.370696,-10140.821405,-383.047749
2955.994838,2146.597232,-11917.315666,-612.876398
2955.995165,296.082377,-10362.883188,76.609550
2955.995493,592.164754,-8364.327145,229.828649
2955.995820,1702.473667,-10214.842000,-1072.533697
2955.996148,222.061783,-11695.253884,-1685.410096
2955.996475,-1184.329507,-9992.780217,0.000000
2955.996803,74.020594,-7254.018232,766.095498
2955.997130,1480.411884,-9252.574275,-306.438199
2955.997458,888.247130,-12361.439231,-919.314598
2955.997785,-296.082377,-11399.171507,-766.095498
2955.998112,-814.226536,-9400.615463,-459.657299
2955.998440,296.082377,-8956.491898,-1762.019645
2955.998767,148.041188,-9178.553681,-1455.581446
2955.999095,-1036.288319,-8586.388927,919.314598
2955.999422,-148.041188,-7105.977043,2298.286494
2955.999750,1110.308913,-8808.450710,842.705048
2956.000077,1406.391290,-10584.944971,-919.314598
2956.000405,74.020594,-9326.594869,-689.485948
2956.000732,0.000000,-8438.347739,-306.438199
2956.001059,1702.473667,-11103.089130,-1149.143247
2956.001387,1184.329507,-12213.398043,-2451.505594
2956.001714,-148.041188,-9992.780217,-1455.581446
2956.002042,0.000000,-8364.327145,153.219100
2956.002369,2368.659014,-9844.739029,612.876398
2956.002697,1924.535449,-11103.089130,383.047749
2956.003024,-592.164754,-8956.491898,842.705048
2956.003352,-1036.288319,-7254.018232,995.924147
2956.003679,1406.391290,-9252.574275,-842.705048
2956.004006,888.247130,-10807.006753,76.609550
2956.004334,-1110.308913,-9326.594869,1302.362347
2956.004661,0.000000,-7994.224174,689.485948
2956.004989,1850.514855,-10584.944971,-1455.581446
2956.005316,1406.391290,-12583.501014,-1608.800546
2956.005644,0.000000,-10732.986159,-1225.752797
2956.005971,-222.061783,-8216.285956,153.219100
2956.006299,1776.494261,-10510.924376,-383.047749
2956.006626,814.226536,-12139.377449,-1149.143247
2956.006953,-1554.432478,-9400.615463,612.876398
2956.007281,-1332.370696,-5847.626942,1608.800546
2956.007608,1258.350101,-8068.244768,689.485948
2956.007936,222.061783,-10140.821405,0.000000
2956.008263,-1628.453072,-9474.636058,1378.971896
2956.008591,-1554.432478,-7920.203579,766.095498
2956.008918,370.102971,-9548.656652,-1225.752797
2956.009246,666.185348,-11769.274478,-2451.505594
2956.009573,-444.123565,-10807.006753,-919.314598
2956.009900,-666.185348,-9178.553681,689.485948
2956.010228,2368.659014,-10214.842000,-153.219100
2956.010555,2368.659014,-10807.006753,-1762.019645
2956.010883,-1480.411884,-9474.636058,383.047749
2956.011210,-1850.514855,-7476.080014,1225.752797
2956.011538,-962.267725,-9178.553681,-306.438199
2956.011865,-1332.370696,-10732.986159,-2221.676944
2956.012193,-2812.782580,-9178.553681,-1991.848295
2956.012520,-2368.659014,-7550.100608,-229.828649
2956.012847,222.061783,-9474.636058,0.000000
2956.013175,1332.370696,-11991.336260,0.000000
2956.013502,74.020594,-10807.006753,0.000000
2956.013830,666.185348,-9474.636058,0.000000
2956.014157,2960.823768,-10436.903782,-1072.533697
2956.014485,3034.844362,-11177.109724,-1378.971896
2956.014812,1036.288319,-10288.862594,459.657299
2956.015140,592.164754,-8882.471304,1532.190996
2956.015467,1998.556043,-9474.636058,689.485948
2956.015794,2146.597232,-11103.089130,-1072.533697
2956.016122,148.041188,-9548.656652,-842.705048
2956.016449,0.000000,-8068.244768,153.219100
2956.016777,740.205942,-8956.491898,459.657299
2956.017104,-222.061783,-10066.800811,612.876398
2956.017432,-1776.494261,-8438.347739,1225.752797
2956.017759,-1332.370696,-6587.832884,1225.752797
2956.018087,518.144159,-7624.121203,1225.752797
2956.018414,1776.494261,-10732.986159,0.000000
2956.018741,1036.288319,-11251.130318,153.219100
2956.019069,1332.370696,-9918.759623,383.047749
2956.019396,3256.906145,-9770.718434,0.000000
2956.019724,3404.947333,-12065.356855,-1915.238745
2956.020051,592.164754,-10140.821405,0.000000
2956.020379,0.000000,-8364.327145,689.485948
2956.020706,1258.350101,-9474.636058,76.609550
2956.021034,1554.432478,-10807.006753,-766.095498
2956.021361,-222.061783,-7772.162391,0.000000
2956.021688,-1702.473667,-6143.709319,1302.362347
2956.022016,-814.226536,-7846.182985,766.095498
2956.022343,296.082377,-9918.759623,-612.876398
2956.022671,-962.267725,-8512.368333,-766.095498
2956.022998,-814.226536,-7698.141797,842.705048
2956.023326,814.226536,-8956.491898,0.000000
2956.023653,666.185348,-12657.521608,-766.095498
2956.023981,-370.102971,-14063.912898,-1149.143247
2956.024308,74.020594,-11991.336260,-1532.190996
2956.024635,2590.720797,-11473.192101,-2757.943793
2956.024963,3034.844362,-13027.624579,-2987.772442
2956.025290,740.205942,-11843.295072,-383.047749
2956.025618,-1332.370696,-8660.409521,2068.457845
2956.025943,-296.082377,-7476.080014,1072.533697
2956.026270,-296.082377,-8142.265362,-383.047749
2956.026598,-2220.617826,-6957.935855,-1149.143247
2956.026925,-4071.132681,-5847.626942,536.266849
2956.027252,-1850.514855,-8808.450710,229.828649
2956.027580,74.020594,-11769.274478,-1149.143247
2956.027907,-518.144159,-11621.233289,-536.266849
2956.028235,-962.267725,-8956.491898,919.314598
2956.028562,1850.514855,-9400.615463,-1149.143247
2956.028890,2886.803174,-13027.624579,-1991.848295
2956.029217,1554.432478,-12657.521608,229.828649
2956.029545,1036.288319,-8734.430116,612.876398
2956.029872,2442.679609,-8586.388927,306.438199
2956.030199,2294.638420,-11473.192101,306.438199
2956.030527,-740.205942,-10955.047942,1072.533697
2956.030854,-2664.741391,-7624.121203,842.705048
2956.031182,-814.226536,-6291.750507,-1915.238745
2956.031509,-296.082377,-7105.977043,-2451.505594
2956.031837,-222.061783,-7846.182985,-1302.362347
2956.032164,-1184.329507,-6661.853478,2604.724693
2956.032492,-222.061783,-7698.141797,2834.553343
2956.032819,1406.391290,-10732.986159,-842.705048
2956.033146,666.185348,-11917.315666,-1532.190996
2956.033474,222.061783,-8808.450710,-153.219100
2956.033801,2072.576638,-9178.553681,0.000000
2956.034129,3404.947333,-13767.830521,-306.438199
2956.034456,2368.659014,-14063.912898,-766.095498
2956.034784,1406.391290,-9770.718434,-1149.143247
2956.035111,2072.576638,-9992.780217,-1302.362347
2956.035439,1776.494261,-11251.130318,-1532.190996
2956.035766,-1110.308913,-11029.068536,-383.047749
2956.036094,-1628.453072,-7624.121203,612.876398
2956.036421,148.041188,-7846.182985,766.095498
2956.036748,1776.494261,-9104.533087,0.000000
2956.037076,518.144159,-8290.306550,229.828649
2956.037403,-666.185348,-8364.327145,1455.581446
2956.037731,814.226536,-9326.594869,459.657299
2956.038058,1998.556043,-12361.439231,-2145.067394
2956.038386,0.000000,-12953.603985,-995.924147
2956.038713,-814.226536,-8808.450710,0.000000
2956.039041,1628.453072,-9474.636058,-536.266849
2956.039368,2590.720797,-13767.830521,-842.705048
2956.039695,444.123565,-13101.645173,-459.657299
2956.040023,0.000000,-9400.615463,-459.657299
2956.040350,222.061783,-8216.285956,459.657299
2956.040678,814.226536,-9696.697840,-306.438199
2956.041005,-888.247130,-8882.471304,919.314598
2956.041333,-2664.741391,-5921.647536,2528.115143
2956.041660,-1258.350101,-5847.626942,1455.581446
2956.041988,1776.494261,-9178.553681,-995.924147
2956.042315,1258.350101,-9400.615463,-1685.410096
2956.042642,-740.205942,-7772.162391,1838.629195
2956.042970,1110.308913,-9474.636058,306.438199
2956.043297,1850.514855,-11917.315666,-1762.019645
2956.043625,-148.041188,-11547.212695,-1302.362347
2956.043952,-666.185348,-8956.491898,0.000000
2956.044280,814.226536,-9474.636058,459.657299
2956.044607,1702.473667,-12509.480420,-153.219100
2956.044935,518.144159,-12435.459826,-919.314598
2956.045262,-1850.514855,-7846.182985,459.657299
2956.045589,-962.267725,-7476.080014,-919.314598
2956.045917,0.000000,-10362.883188,-1838.629195
2956.046244,-2738.761985,-10584.944971,-1072.533697
2956.046572,-3923.091493,-8290.306550,229.828649
2956.046899,-814.226536,-8068.244768,-689.485948
2956.047227,2072.576638,-10436.903782,-1991.848295
2956.047554,1554.432478,-10732.986159,-1608.800546
2956.047882,518.144159,-10214.842000,842.705048
2956.048209,1850.514855,-11029.068536,612.876398
2956.048536,2886.803174,-12879.583391,-1072.533697
2956.048864,814.226536,-11695.253884,-1455.581446
2956.049191,-1036.288319,-7994.224174,536.266849
2956.049519,-592.164754,-7550.100608,919.314598
2956.049846,74.020594,-9696.697840,0.000000
2956.050174,-666.185348,-11103.089130,-612.876398
2956.050501,-1702.473667,-8586.388927,842.705048
2956.050829,-148.041188,-6809.894666,306.438199
2956.051156,1332.370696,-9844.739029,-919.314598
2956.051483,962.267725,-11621.233289,0.000000
2956.051811,0.000000,-8882.471304,2145.067394
2956.052138,2220.617826,-7402.059420,1532.190996
2956.052466,3775.050304,-9104.533087,-536.266849
2956.052793,2368.659014,-9770.718434,-306.438199
2956.053121,0.000000,-8660.409521,1378.971896
2956.053448,74.020594,-8956.491898,1225.752797
2956.053776,1110.308913,-10658.965565,-1378.971896
2956.054103,-518.144159,-10584.944971,-1455.581446
2956.054430,-1406.391290,-8364.327145,-383.047749
2956.054758,-296.082377,-8068.244768,383.047749
2956.055085,1332.370696,-10362.883188,-306.438199
2956.055413,1110.308913,-11547.212695,-153.219100
2956.055740,222.061783,-9252.574275,1225.752797
2956.056068,1850.514855,-8438.347739,995.924147
2956.056395,1850.514855,-10807.006753,-766.095498
2956.056723,592.164754,-12583.501014,-689.485948
2956.057050,-296.082377,-10362.883188,0.000000
2956.057377,1776.494261,-8882.471304,-1072.533697
2956.057705,3034.844362,-11399.171507,-2604.724693
2956.058032,1110.308913,-11325.150913,-1685.410096
2956.058360,-1036.288319,-8438.347739,306.438199
2956.058687,-888.247130,-8068.244768,919.314598
2956.059015,-296.082377,-9474.636058,-842.705048
2956.059342,-2516.700203,-8808.450710,-689.485948
2956.059670,-3775.050304,-7254.018232,842.705048
2956.059997,-666.185348,-7328.038826,536.266849
2956.060324,2960.823768,-11325.150913,-919.314598
2956.060652,1554.432478,-12583.501014,76.609550
2956.060979,-296.082377,-10362.883188,1838.629195
2956.061307,1036.288319,-9548.656652,383.047749
2956.061634,2072.576638,-11917.315666,-2145.067394
2956.061962,-666.185348,-12435.459826,-1685.410096
2956.062289,-2442.679609,-9326.594869,0.000000
2956.062617,0.000000,-7476.080014,306.438199
2956.062944,2738.761985,-10288.862594,0.000000
2956.063272,962.267725,-10881.027347,0.000000
2956.063599,-1702.473667,-7624.121203,1532.190996
2956.063926,-1998.556043,-5625.565159,1072.533697
2956.064254,-1628.453072,-8290.306550,-2068.457845
2956.064581,-3034.844362,-9474.636058,-2298.286494
2956.064909,-4071.132681,-6735.874072,536.266849
2956.065236,-1332.370696,-6439.791695,1455.581446
2956.065564,2368.659014,-12139.377449,0.000000
2956.065891,1850.514855,-15174.221811,-536.266849
2956.066219,1258.350101,-11843.295072,-306.438199
2956.066546,2590.720797,-9992.780217,-1072.533697
2956.066873,3034.844362,-12139.377449,-2451.505594
2956.067201,888.247130,-12435.459826,-1225.752797
2956.067528,-666.185348,-8882.471304,1072.533697
2956.067856,444.123565,-7105.977043,1149.143247
2956.068183,1776.494261,-9770.718434,-766.095498
2956.068511,222.061783,-10436.903782,-1225.752797
2956.068838,-2590.720797,-7772.162391,766.095498
2956.069166,-1776.494261,-7105.977043,536.266849
2956.069493,888.247130,-8586.388927,-1608.800546
2956.069820,740.205942,-9918.759623,-766.095498
2956.070148,-370.102971,-8808.450710,1302.362347
2956.070475,1554.432478,-8586.388927,1302.362347
2956.070803,3775.050304,-12065.356855,0.000000
2956.071130,2294.638420,-14137.933492,-383.047749
2956.071458,148.041188,-10881.027347,383.047749
2956.071785,1776.494261,-8216.285956,-383.047749
2956.072113,2738.761985,-11103.089130,-1532.190996
2956.072440,1628.453072,-12805.562797,-995.924147
2956.072767,-296.082377,-10288.862594,1225.752797
2956.073095,-370.102971,-7550.100608,1149.143247
2956.073422,2146.597232,-8808.450710,-612.876398
2956.073750,148.041188,-8438.347739,0.000000
2956.074077,-2738.761985,-6069.688724,2145.067394
2956.074405,-1480.411884,-5699.585753,2298.286494
2956.074732,1258.350101,-8438.347739,76.609550
2956.075060,1110.308913,-10658.965565,-1685.410096
2956.075387,-518.144159,-9252.574275,229.828649
2956.075714,370.102971,-7994.224174,306.438199
2956.076042,1998.556043,-10955.047942,-1302.362347
2956.076369,1406.391290,-13841.851115,-1455.581446
2956.076697,74.020594,-11917.315666,-536.266849
2956.077024,740.205942,-9844.739029,0.000000
2956.077352,2590.720797,-11621.233289,-1455.581446
2956.077679,370.102971,-12731.542202,-1225.752797
2956.078007,-2664.741391,-9326.594869,995.924147
2956.078334,-1258.350101,-6661.853478,612.876398
2956.078661,0.000000,-7402.059420,-1072.533697
2956.078989,-1332.370696,-8586.388927,-1149.143247
2956.079316,-1554.432478,-8216.285956,0.000000
2956.079644,-1480.411884,-7254.018232,1149.143247
2956.079971,0.000000,-8956.491898,-536.266849
2956.080299,-518.144159,-11325.150913,-2451.505594
2956.080626,-2294.638420,-11399.171507,-1455.581446
2956.080954,-814.226536,-9770.718434,-1685.410096
2956.081281,2960.823768,-11917.315666,-1455.581446
2956.081608,2738.761985,-14211.954086,-842.705048
2956.081936,814.226536,-11769.274478,1991.848295
2956.082263,1702.473667,-9252.574275,1838.629195
2956.082591,1258.350101,-9622.677246,306.438199
2956.082918,-666.185348,-11251.130318,-153.219100
2956.083246,-3330.926739,-8586.388927,229.828649
2956.083573,-2664.741391,-4811.338623,689.485948
2956.083901,-962.267725,-5773.606348,-536.266849
2956.084228,592.164754,-8956.491898,0.000000
2956.084555,-1036.288319,-9252.574275,2145.067394
2956.084883,1110.308913,-8512.368333,2604.724693
2956.085210,4293.194464,-9178.553681,-153.219100
2956.085538,3182.885551,-11251.130318,-1991.848295
2956.085865,148.041188,-10288.862594,-153.219100
2956.086193,-740.205942,-7179.997637,1149.143247
2956.086520,1332.370696,-9030.512492,-383.047749
2956.086848,1406.391290,-12879.583391,0.000000
2956.087175,-296.082377,-11399.171507,76.609550
2956.087502,74.020594,-9178.553681,-229.828649
2956.087830,1110.308913,-10140.821405,-1225.752797
2956.088157,1110.308913,-12361.439231,-1991.848295
2956.088485,-1110.308913,-9326.594869,-459.657299
2956.088812,-1258.350101,-5847.626942,1991.848295
2956.089140,1184.329507,-8068.244768,229.828649
2956.089467,2886.803174,-11399.171507,-1072.533697
2956.089795,1332.370696,-10584.944971,0.000000
2956.090122,814.226536,-9178.553681,1149.143247
2956.090449,2516.700203,-9918.759623,-995.924147
2956.090777,1850.514855,-12065.356855,-2757.943793
2956.091104,-1332.370696,-10066.800811,-1532.190996
2956.091432,-1184.329507,-7846.182985,-229.828649
2956.091759,2294.638420,-9992.780217,-1455.581446
2956.092087,2664.741391,-11843.295072,-689.485948
2956.092414,-296.082377,-9992.780217,1378.971896
2956.092742,-888.247130,-8068.244768,2145.067394
2956.093069,814.226536,-10066.800811,-689.485948
2956.093397,1110.308913,-11917.315666,-2068.457845
2956.093724,-740.205942,-10140.821405,-842.705048
2956.094051,-740.205942,-7328.038826,1302.362347
2956.094379,2072.576638,-9474.636058,459.657299
2956.094706,2590.720797,-11325.150913,-766.095498
2956.095034,0.000000,-10658.965565,0.000000
2956.095361,-1406.391290,-7698.141797,995.924147
2956.095689,1184.329507,-8364.327145,-995.924147
2956.096016,74.020594,-10510.924376,-2298.286494
2956.096344,-3330.926739,-9178.553681,76.609550
2956.096671,-3108.864956,-6735.874072,1149.143247
2956.096998,-370.102971,-7920.203579,1225.752797
2956.097326,296.082377,-9918.759623,229.828649
2956.097653,-1184.329507,-9548.656652,229.828649
2956.097981,-1776.494261,-7179.997637,76.609550
2956.098308,-222.061783,-8364.327145,-1149.143247
2956.098636,-370.102971,-12213.398043,-2374.896044
2956.098963,-1554.432478,-12509.480420,-612.876398
2956.099291,-666.185348,-9992.780217,1225.752797
2956.099618,2812.782580,-10955.047942,0.000000
2956.099945,2812.782580,-13175.665768,-1685.410096
2956.100273,148.041188,-10881.027347,-766.095498
2956.100600,-518.144159,-7031.956449,0.000000
2956.100928,0.000000,-7179.997637,-612.876398
2956.101255,-814.226536,-9622.677246,-689.485948
2956.101583,-2368.659014,-8364.327145,306.438199
2956.101910,-2442.679609,-6735.874072,1991.848295
2956.102238,0.000000,-8438.347739,229.828649
2956.102565,2368.659014,-12065.356855,-1991.848295
2956.102892,444.123565,-11621.233289,-1225.752797
2956.103220,148.041188,-9992.780217,-76.609550
2956.103547,2072.576638,-10881.027347,-1532.190996
2956.103875,2812.782580,-13767.830521,-1685.410096
2956.104202,1036.288319,-12213.398043,306.438199
2956.104530,1184.329507,-9104.533087,1838.629195
2956.104857,2442.679609,-9326.594869,536.266849
2956.105185,1406.391290,-10436.903782,-1225.752797
2956.105512,-592.164754,-9992.780217,-842.705048
2956.105839,-1776.494261,-7031.956449,689.485948
2956.106167,-370.102971,-6661.853478,-306.438199
2956.106494,148.041188,-9030.512492,-689.485948
2956.106822,-1184.329507,-9252.574275,689.485948
2956.107149,-1480.411884,-5921.647536,2145.067394
2956.107477,2072.576638,-7698.141797,842.705048
2956.107804,3627.009116,-11917.315666,0.000000
2956.108132,2294.638420,-11695.253884,383.047749
2956.108459,2590.720797,-9326.594869,459.657299
2956.108786,2812.782580,-10066.800811,-153.219100
2956.109114,1998.556043,-13175.665768,-766.095498
2956.109441,0.000000,-12361.439231,0.000000
2956.109769,-740.205942,-8438.347739,0.000000
2956.110096,1110.308913,-8438.347739,-1302.362347
2956.110424,1850.514855,-10881.027347,-1608.800546
2956.110751,-1184.329507,-9622.677246,306.438199
2956.111079,-1702.473667,-6661.853478,2221.676944
2956.111406,-444.123565,-6291.750507,1149.143247
2956.111733,-296.082377,-8956.491898,-689.485948
2956.112061,-1480.411884,-9474.636058,-153.219100
2956.112388,-2146.597232,-6883.915261,1225.752797
2956.112716,-222.061783,-7846.182985,229.828649
2956.113043,1850.514855,-13249.686362,-1685.410096
2956.113371,1258.350101,-13767.830521,-2604.724693
2956.113698,148.041188,-11473.192101,-1225.752797
2956.114026,1850.514855,-11029.068536,-1991.848295
2956.114353,2442.679609,-13841.851115,-1608.800546
2956.114680,0.000000,-12509.480420,0.000000
2956.115008,-1406.391290,-8660.409521,1149.143247
2956.115335,-592.164754,-7550.100608,842.705048
2956.115663,-444.123565,-9104.533087,383.047749
2956.115990,-2294.638420,-7698.141797,229.828649
2956.116318,-3627.009116,-5107.421000,842.705048
2956.116645,-2516.700203,-6439.791695,229.828649
2956.116973,-296.082377,-9474.636058,-1532.190996
2956.117300,-1628.453072,-10066.800811,-1072.533697
2956.117627,-370.102971,-10066.800811,0.000000
2956.117955,2442.679609,-10066.800811,-536.266849
2956.118282,3627.009116,-12213.398043,-536.266849
2956.118610,1554.432478,-12213.398043,0.000000
2956.118937,888.247130,-9030.512492,536.266849
2956.119265,1480.411884,-8216.285956,383.047749
2956.119592,814.226536,-11325.150913,-536.266849
2956.119920,-1480.411884,-11029.068536,0.000000
2956.120247,-1998.556043,-7402.059420,306.438199
2956.120575,0.000000,-7994.224174,0.000000
2956.120902,888.247130,-10288.862594,-995.924147
2956.121229,-296.082377,-8808.450710,153.219100
2956.121557,-1110.308913,-7550.100608,1302.362347
2956.121884,740.205942,-7846.182985,842.705048
2956.122212,2664.741391,-10955.047942,-1532.190996
2956.122539,1554.432478,-11473.192101,-612.876398
2956.122867,518.144159,-8364.327145,1302.362347
2956.123194,2368.659014,-8512.368333,1149.143247
2956.123522,3256.906145,-11547.212695,-612.876398
2956.123849,1406.391290,-11547.212695,-995.924147
2956.124176,-222.061783,-9030.512492,-842.705048
2956.124504,148.041188,-8512.368333,-995.924147
2956.124831,148.041188,-11547.212695,-1302.362347
2956.125159,-666.185348,-11399.171507,0.000000
2956.125486,-444.123565,-8438.347739,919.314598
2956.125814,1628.453072,-7994.224174,1149.143247
2956.126141,3552.988522,-11251.130318,536.266849
2956.126469,2072.576638,-11029.068536,842.705048
2956.126796,-370.102971,-7550.100608,1455.581446
2956.127123,0.000000,-7105.977043,0.000000
2956.127451,518.144159,-9992.780217,-1685.410096
2956.127779,-1036.288319,-11103.089130,-1991.848295
2956.128106,-1184.329507,-9400.615463,-306.438199
2956.128434,740.205942,-9326.594869,-536.266849
2956.128761,2294.638420,-12213.398043,-1455.581446
2956.129089,592.164754,-12213.398043,-1532.190996
2956.129416,-1036.288319,-8586.388927,-612.876398
2956.129744,-814.226536,-7846.182985,-612.876398
2956.130071,518.144159,-9918.759623,76.609550
2956.130399,0.000000,-9622.677246,536.266849
2956.130726,-1332.370696,-7105.977043,2068.457845
2956.131054,-148.041188,-7179.997637,1838.629195
2956.131382,1332.370696,-10362.883188,0.000000
2956.131709,740.205942,-12361.439231,-995.924147
2956.132037,-1258.350101,-9770.718434,-919.314598
2956.132364,-814.226536,-8882.471304,-1762.019645
2956.132692,962.267725,-10955.047942,-2298.286494
2956.133019,74.020594,-11547.212695,-995.924147
2956.133347,-1332.370696,-8512.368333,1149.143247
2956.133674,-740.205942,-7105.977043,1762.019645
2956.134002,1036.288319,-9770.718434,-229.828649
2956.134329,740.205942,-11991.336260,-919.314598
2956.134657,-1184.329507,-8586.388927,0.000000
2956.134985,-740.205942,-7179.997637,229.828649
2956.135312,814.226536,-9992.780217,-229.828649
2956.135640,296.082377,-11695.253884,-995.924147
2956.135967,-1258.350101,-9696.697840,76.609550
2956.136295,74.020594,-9178.553681,919.314598
2956.136622,2072.576638,-10658.965565,-995.924147
2956.136950,666.185348,-11473.192101,-1378.971896
2956.137277,-1184.329507,-8660.409521,-306.438199
2956.137605,-370.102971,-7550.100608,459.657299
2956.137933,740.205942,-10066.800811,-306.438199
2956.138260,370.102971,-11251.130318,-766.095498
2956.138588,-962.267725,-8364.327145,229.828649
2956.138915,-666.185348,-7698.141797,536.266849
2956.139243,1184.329507,-9474.636058,-306.438199
2956.139570,222.061783,-10732.986159,-459.657299
2956.139898,-518.144159,-9474.636058,-153.219100
2956.140225,888.247130,-9474.636058,0.000000
2956.140553,2886.803174,-11991.336260,-1378.971896
2956.140880,2368.659014,-12065.356855,-1072.533697
2956.141208,1110.308913,-9622.677246,689.485948
2956.141536,1850.514855,-8142.265362,1838.629195
2956.141863,3108.864956,-10362.883188,-306.438199
2956.142191,1480.411884,-10955.047942,-766.095498
2956.142518,-148.041188,-7994.224174,0.000000
2956.142846,0.000000,-7179.997637,229.828649
2956.143173,666.185348,-9992.780217,-766.095498
2956.143501,74.020594,-10732.986159,-459.657299
2956.143828,-1628.453072,-8290.306550,1149.143247
2956.144156,-962.267725,-7179.997637,1149.143247
2956.144483,1702.473667,-10436.903782,-536.266849
2956.144811,666.185348,-11251.130318,-536.266849
2956.145139,-1702.473667,-8364.327145,842.705048
2956.145466,-1110.308913,-7846.182985,229.828649
2956.145794,1480.411884,-11029.068536,-2145.067394
2956.146121,1776.494261,-12435.459826,-2374.896044
2956.146449,370.102971,-10362.883188,-995.924147
2956.146776,1332.370696,-9474.636058,766.095498
2956.147104,3256.906145,-11621.233289,-229.828649
2956.147431,1998.556043,-11991.336260,-842.705048
2956.147759,-1110.308913,-8734.430116,229.828649
2956.148087,-1628.453072,-7105.977043,1149.143247
2956.148414,-740.205942,-8882.471304,-153.219100
2956.148742,-1406.391290,-9992.780217,-306.438199
2956.149069,-3627.009116,-7476.080014,919.314598
2956.149397,-3478.967927,-6365.771101,1685.410096
2956.149724,74.020594,-9918.759623,-459.657299
2956.150052,1406.391290,-13027.624579,-1762.019645
2956.150379,-370.102971,-11251.130318,-612.876398
2956.150707,666.185348,-8364.327145,0.000000
2956.151034,2960.823768,-9918.759623,-1991.848295
2956.151362,2220.617826,-13027.624579,-1302.362347
2956.151690,-518.144159,-10288.862594,1378.971896
2956.152017,-296.082377,-7402.059420,1991.848295
2956.152345,1850.514855,-10214.842000,0.000000
2956.152672,1480.411884,-11843.295072,-1149.143247
2956.153000,-1258.350101,-8142.265362,1762.019645
2956.153327,-1850.514855,-6439.791695,1378.971896
2956.153655,-666.185348,-8364.327145,0.000000
2956.153982,-814.226536,-10658.965565,-842.705048
2956.154310,-2590.720797,-8956.491898,689.485948
2956.154637,-1554.432478,-6143.709319,612.876398
2956.154965,1924.535449,-9622.677246,-1072.533697
2956.155293,2738.761985,-13693.809927,-1378.971896
2956.155620,1554.432478,-11917.315666,76.609550
2956.155948,2664.741391,-8882.471304,612.876398
2956.156275,4293.194464,-9474.636058,-766.095498
2956.156603,1776.494261,-11621.233289,-1302.362347
2956.156930,-740.205942,-9844.739029,229.828649
2956.157258,-1924.535449,-6957.935855,842.705048
2956.157585,296.082377,-9770.718434,-1225.752797
2956.157913,1480.411884,-11991.336260,-2221.676944
2956.158241,-296.082377,-9548.656652,0.000000
2956.158568,-1258.350101,-7179.997637,1685.410096
2956.158896,1850.514855,-10140.821405,153.219100
2956.159223,1480.411884,-11473.192101,-1455.581446
2956.159551,-1554.432478,-8956.491898,-306.438199
2956.159878,-740.205942,-7328.038826,612.876398
2956.160206,1924.535449,-9696.697840,0.000000
2956.160533,3034.844362,-13323.706956,-612.876398
2956.160861,1110.308913,-12213.398043,229.828649
2956.161188,1998.556043,-9770.718434,76.609550
2956.161516,3108.864956,-11325.150913,-1915.238745
2956.161844,1332.370696,-12657.521608,-2451.505594
2956.162171,-2146.597232,-9918.759623,-689.485948
2956.162499,-2368.659014,-5995.668130,919.314598
2956.162826,-148.041188,-7476.080014,-306.438199
2956.163154,296.082377,-9770.718434,229.828649
2956.163481,-1924.535449,-8216.285956,2298.286494
2956.163809,-1554.432478,-6809.894666,2451.505594
2956.164136,1702.473667,-9474.636058,-1149.143247
2956.164464,962.267725,-12509.480420,-1915.238745
2956.164791,-2516.700203,-9400.615463,-229.828649
2956.165119,-1406.391290,-7402.059420,0.000000
2956.165447,1554.432478,-10140.821405,-612.876398
2956.165774,1776.494261,-12657.521608,-1225.752797
2956.166102,518.144159,-11473.192101,0.000000
2956.166429,296.082377,-8364.327145,842.705048
2956.166757,2368.659014,-10362.883188,-919.314598
2956.167084,740.205942,-11769.274478,-1455.581446
2956.167412,-2738.761985,-8660.409521,842.705048
2956.167739,-2220.617826,-5699.585753,1532.190996
2956.168067,740.205942,-7254.018232,0.000000
2956.168394,592.164754,-9474.636058,-536.266849
2956.168722,-888.247130,-9252.574275,536.266849
2956.169050,-1110.308913,-7476.080014,536.266849
2956.169377,592.164754,-9622.677246,0.000000
2956.169705,666.185348,-11843.295072,-2681.334243
2956.170032,-1628.453072,-10584.944971,-1685.410096
2956.170360,-814.226536,-8734.430116,0.000000
2956.170687,2442.679609,-11251.130318,-536.266849
2956.171015,3775.050304,-13915.871710,-1378.971896
2956.171342,1110.308913,-11621.233289,459.657299
2956.171670,444.123565,-8068.244768,383.047749
2956.171998,1332.370696,-9104.533087,-919.314598
2956.172325,370.102971,-11547.212695,-1378.971896
2956.172653,-2294.638420,-9252.574275,153.219100
2956.172980,-2146.597232,-6957.935855,612.876398
2956.173308,1036.288319,-8068.244768,-536.266849
2956.173635,2368.659014,-10288.862594,-1608.800546
2956.173963,1110.308913,-9178.553681,919.314598
2956.174290,0.000000,-8290.306550,1608.800546
2956.174618,1480.411884,-9844.739029,76.609550
2956.174945,1850.514855,-11769.274478,-2068.457845
2956.175273,0.000000,-10584.944971,-459.657299
2956.175601,-444.123565,-7328.038826,1455.581446
2956.175928,888.247130,-9178.553681,1915.238745
2956.176256,1480.411884,-13027.624579,76.609550
2956.176583,222.061783,-10807.006753,-689.485948
2956.176911,-370.102971,-7772.162391,0.000000
2956.177238,814.226536,-8586.388927,0.000000
2956.177566,1036.288319,-10510.924376,0.000000
2956.177893,-1628.453072,-8734.430116,1762.019645
2956.178221,-1924.535449,-7031.956449,1915.238745
2956.178548,370.102971,-8364.327145,229.828649
2956.178876,2368.659014,-10214.842000,-2068.457845
2956.179204,962.267725,-9400.615463,-1455.581446
2956.179531,222.061783,-9252.574275,229.828649
2956.179859,1332.370696,-10955.047942,306.438199
2956.180186,1702.473667,-12583.501014,-995.924147
2956.180514,-1036.288319,-10140.821405,-383.047749
2956.180841,-1850.514855,-7550.100608,153.219100
2956.181169,-592.164754,-9326.594869,0.000000
2956.181496,296.082377,-11695.253884,-1149.143247
2956.181824,-370.102971,-10362.883188,-612.876398
2956.182152,-1110.308913,-7920.203579,383.047749
2956.182479,-444.123565,-8290.306550,919.314598
2956.182807,1184.329507,-11769.274478,-995.924147
2956.183134,814.226536,-11843.295072,-689.485948
2956.183462,148.041188,-8734.430116,0.000000
2956.183789,1332.370696,-7994.224174,-842.705048
2956.184117,2738.761985,-11029.068536,-1685.410096
2956.184444,1406.391290,-10362.883188,-689.485948
2956.184772,-814.226536,-8660.409521,1302.362347
2956.185099,-740.205942,-9400.615463,842.705048
2956.185427,0.000000,-11917.315666,-1455.581446
2956.185755,-1332.370696,-9992.780217,-1685.410096
2956.186082,-1850.514855,-7031.956449,-153.219100
2956.186410,-740.205942,-7624.121203,1685.410096
2956.186737,962.267725,-10955.047942,995.924147
2956.187065,962.267725,-10214.842000,306.438199
2956.187392,74.020594,-8512.368333,229.828649
2956.187720,1110.308913,-9326.594869,0.000000
2956.188047,2516.700203,-12509.480420,-1072.533697
2956.188375,1184.329507,-11991.336260,-229.828649
2956.188702,0.000000,-8438.347739,995.924147
2956.189030,1702.473667,-7550.100608,459.657299
2956.189358,3034.844362,-10436.903782,-459.657299
2956.189685,1258.350101,-9844.739029,-536.266849
2956.190013,-740.205942,-6439.791695,1072.533697
2956.190340,-1258.350101,-7105.977043,306.438199
2956.190668,-1036.288319,-10362.883188,-919.314598
2956.190995,-1702.473667,-10214.842000,-766.095498
2956.191323,-2146.597232,-7476.080014,612.876398
2956.191650,0.000000,-8068.244768,76.609550
2956.191978,2294.638420,-12509.480420,-995.924147
2956.192306,2590.720797,-13397.727550,-842.705048
2956.192633,1110.308913,-9548.656652,-229.828649
2956.192961,1184.329507,-8660.409521,306.438199
2956.193288,2072.576638,-12509.480420,-689.485948
2956.193616,1110.308913,-12805.562797,-995.924147
2956.193943,296.082377,-9104.533087,-306.438199
2956.194271,814.226536,-7846.182985,0.000000
2956.194598,1850.514855,-10955.047942,-1225.752797
2956.194926,148.041188,-11325.150913,-1149.143247
2956.195253,-1776.494261,-7179.997637,-153.219100
2956.195581,-2294.638420,-6735.874072,0.000000
2956.195909,-814.226536,-9844.739029,-1225.752797
2956.196236,-1036.288319,-9400.615463,-689.485948
2956.196564,-2368.659014,-7031.956449,536.266849
2956.196891,-222.061783,-8512.368333,1378.971896
2956.197219,1850.514855,-12287.418637,-306.438199
2956.197546,1554.432478,-13693.809927,-689.485948
2956.197874,1036.288319,-10436.903782,-459.657299
2956.198201,2072.576638,-9178.553681,-612.876398
2956.198529,2220.617826,-11547.212695,-919.314598
2956.198856,370.102971,-12139.377449,-995.924147
2956.199184,-518.144159,-8438.347739,76.609550
2956.199512,0.000000,-6661.853478,0.000000
2956.199839,1036.288319,-9474.636058,-229.828649
2956.200167,-740.205942,-9104.533087,76.609550
2956.200494,-2146.597232,-6365.771101,919.314598
2956.200822,-1702.473667,-6217.729913,1532.190996
2956.201149,296.082377,-8438.347739,0.000000
2956.201477,-148.041188,-9474.636058,-689.485948
2956.201804,-1702.473667,-7994.224174,919.314598
2956.202132,296.082377,-8290.306550,612.876398
2956.202460,2220.617826,-12435.459826,-766.095498
2956.202787,1110.308913,-13471.748144,-995.924147
2956.203115,888.247130,-10732.986159,-689.485948
2956.203442,2368.659014,-9326.594869,-919.314598
2956.203770,2738.761985,-12583.501014,-2068.457845
2956.204097,888.247130,-13767.830521,-1302.362347
2956.204425,-222.061783,-9844.739029,0.000000
2956.204752,0.000000,-6365.771101,383.047749
2956.205080,1110.308913,-8586.388927,-306.438199
2956.205407,444.123565,-9326.594869,0.000000
2956.205735,-1776.494261,-6883.915261,1225.752797
2956.206063,-740.205942,-6957.935855,1149.143247
2956.206390,814.226536,-9400.615463,-842.705048
2956.206718,296.082377,-10584.944971,-2221.676944
2956.207045,0.000000,-9474.636058,-689.485948
2956.207373,592.164754,-9326.594869,612.876398
2956.207700,2442.679609,-13323.706956,0.000000
2956.208028,2664.741391,-14137.933492,0.000000
2956.208355,1184.329507,-10140.821405,-383.047749
2956.208683,1110.308913,-8068.244768,0.000000
2956.209010,1850.514855,-10881.027347,-306.438199
2956.209338,370.102971,-11843.295072,0.000000
2956.209666,-1776.494261,-8216.285956,842.705048
2956.209993,-1258.350101,-5699.585753,1302.362347
2956.210321,444.123565,-7698.141797,536.266849
2956.210648,-962.267725,-8660.409521,306.438199
2956.210976,-2368.659014,-7179.997637,1455.581446
2956.211303,-2146.597232,-6957.935855,229.828649
2956.211631,148.041188,-9844.739029,-2374.896044
2956.211958,1628.453072,-11991.336260,-2757.943793
2956.212286,1110.308913,-9622.677246,-612.876398
2956.212613,1554.432478,-9104.533087,995.924147
2956.212941,2590.720797,-12805.562797,1532.190996
2956.213269,1998.556043,-13767.830521,0.000000
2956.213596,0.000000,-9918.759623,-919.314598
2956.213924,-444.123565,-7994.224174,-1608.800546
2956.214251,0.000000,-10732.986159,-995.924147
2956.214579,-296.082377,-11695.253884,-995.924147
2956.214906,-1850.514855,-8068.244768,0.000000
2956.215234,-2146.597232,-6217.729913,1225.752797
2956.215561,740.205942,-9548.656652,153.219100
2956.215889,1406.391290,-10955.047942,-536.266849
2956.216217,-370.102971,-8586.388927,0.000000
2956.216544,370.102971,-7476.080014,-459.657299
2956.216872,2368.659014,-10066.800811,-1225.752797
2956.217199,1554.432478,-11547.212695,-1378.971896
2956.217527,-740.205942,-9326.594869,229.828649
2956.217854,222.061783,-8290.306550,689.485948
2956.218182,1258.350101,-11695.253884,-153.219100
2956.218509,296.082377,-14063.912898,-1149.143247
2956.218837,-1110.308913,-10066.800811,-1302.362347
2956.219164,-740.205942,-6957.935855,-766.095498
2956.219492,888.247130,-9548.656652,76.609550
2956.219820,370.102971,-11325.150913,689.485948
2956.220147,-370.102971,-8364.327145,1302.362347
2956.220475,0.000000,-6661.853478,2145.067394
2956.220802,1332.370696,-8808.450710,0.000000
2956.221130,1776.494261,-11769.274478,-1532.190996
2956.221457,444.123565,-10436.903782,-536.266849
2956.221785,-370.102971,-6809.894666,153.219100
2956.222112,1332.370696,-8808.450710,-1532.190996
2956.222440,1776.494261,-11177.109724,-1838.629195
2956.222767,-1110.308913,-8660.409521,-612.876398
2956.223095,-1554.432478,-7698.141797,766.095498
2956.223423,-518.144159,-10584.944971,153.219100
2956.223750,1036.288319,-11621.233289,-1302.362347
2956.224078,370.102971,-9770.718434,-306.438199
2956.224405,222.061783,-7476.080014,1455.581446
2956.224733,1258.350101,-10658.965565,1455.581446
2956.225060,1628.453072,-12953.603985,-383.047749
2956.225388,370.102971,-9770.718434,-1225.752797
2956.225715,-592.164754,-8068.244768,-536.266849
2956.226043,740.205942,-9844.739029,-919.314598
2956.226371,1998.556043,-11843.295072,-1225.752797
2956.226698,370.102971,-9844.739029,-536.266849
2956.227026,666.185348,-7846.182985,76.609550
2956.227354,1998.556043,-10066.800811,-995.924147
2956.227681,1110.308913,-11547.212695,-1072.533697
2956.228009,-1406.391290,-8734.430116,-306.438199
2956.228336,-1924.535449,-7031.956449,1378.971896
2956.228664,-444.123565,-8216.285956,229.828649
2956.228992,-148.041188,-10732.986159,0.000000
2956.229319,-592.164754,-9252.574275,689.485948
2956.229647,-444.123565,-8364.327145,766.095498
2956.229974,296.082377,-11621.233289,-306.438199
2956.230302,962.267725,-14211.954086,-2451.505594
2956.230630,296.082377,-11325.150913,-1532.190996
2956.230957,814.226536,-7476.080014,-383.047749
2956.231285,2220.617826,-9104.533087,459.657299
2956.231613,2220.617826,-11621.233289,766.095498
2956.231940,-222.061783,-9030.512492,229.828649
2956.232268,-1406.391290,-6069.688724,0.000000
2956.232595,-518.144159,-7772.162391,-306.438199
2956.232923,-1110.308913,-9474.636058,-1149.143247
2956.233251,-2590.720797,-7772.162391,383.047749
2956.233578,-2220.617826,-7476.080014,1225.752797
2956.233906,0.000000,-9400.615463,459.657299
2956.234233,1628.453072,-11769.274478,-459.657299
2956.234561,74.020594,-9992.780217,0.000000
2956.234889,0.000000,-8438.347739,612.876398
2956.235216,1850.514855,-11473.192101,-689.485948
2956.235544,2368.659014,-13323.706956,-1302.362347
2956.235872,814.226536,-11103.089130,-1225.752797
2956.236199,74.020594,-8512.368333,-536.266849
2956.236527,1628.453072,-10436.903782,-689.485948
2956.236854,1924.535449,-12879.583391,-1302.362347
2956.237182,-222.061783,-9992.780217,-995.924147
2956.237510,-1258.350101,-6809.894666,-612.876398
2956.237837,-370.102971,-7698.141797,-383.047749
2956.238165,0.000000,-10214.842000,-153.219100
2956.238492,-1628.453072,-9030.512492,536.266849
2956.238820,-1924.535449,-5625.565159,919.314598
2956.239148,666.185348,-9326.594869,-306.438199
2956.239475,2516.700203,-13101.645173,-766.095498
2956.239803,2220.617826,-11251.130318,-153.219100
2956.240131,1184.329507,-9030.512492,-306.438199
2956.240458,2146.597232,-11177.109724,-536.266849
2956.240786,2886.803174,-14359.995275,-1685.410096
2956.241113,666.185348,-11473.192101,-919.314598
2956.241441,-444.123565,-7698.141797,536.266849
2956.241769,1110.308913,-9030.512492,383.047749
2956.242096,1702.473667,-10955.047942,76.609550
2956.242424,-148.041188,-7920.203579,-536.266849
2956.242751,-2886.803174,-5181.441594,2374.896044
2956.243079,-2220.617826,-5699.585753,2298.286494
2956.243407,-2368.659014,-8734.430116,-766.095498
2956.243734,-3997.112087,-8956.491898,-1378.971896
2956.244062,-2368.659014,-7105.977043,-1149.143247
2956.244390,888.247130,-9770.718434,-1225.752797
2956.244717,4663.297435,-14804.118840,0.000000
2956.245045,4737.318029,-12435.459826,536.266849
2956.245372,4219.173869,-10881.027347,536.266849
2956.245700,3034.844362,-11843.295072,306.438199
2956.246028,1702.473667,-13397.727550,-1302.362347
2956.246355,-1110.308913,-9770.718434,-1838.629195
2956.246683,-2812.782580,-5995.668130,-536.266849
2956.247010,-1554.432478,-7328.038826,689.485948
2956.247338,-518.144159,-9696.697840,-536.266849
2956.247666,-1554.432478,-9474.636058,0.000000
2956.247993,-2146.597232,-7254.018232,76.609550
2956.248321,0.000000,-7402.059420,-1225.752797
2956.248649,1110.308913,-10362.883188,-2145.067394
2956.248976,74.020594,-10658.965565,-689.485948
2956.249304,0.000000,-7920.203579,689.485948
2956.249631,3182.885551,-8438.347739,1455.581446
2956.249959,5255.462188,-14063.912898,919.314598
2956.250287,2812.782580,-13397.727550,995.924147
2956.250614,518.144159,-9548.656652,689.485948
2956.250942,0.000000,-9918.759623,-1225.752797
2956.251269,-518.144159,-12805.562797,-3064.381992
2956.251597,-3256.906145,-10140.821405,-2374.896044
2956.251925,-4145.153275,-5255.462188,0.000000
2956.252252,-1480.411884,-6587.832884,612.876398
2956.252580,1258.350101,-10658.965565,689.485948
2956.252908,962.267725,-9622.677246,995.924147
2956.253235,0.000000,-6809.894666,1302.362347
2956.253563,1110.308913,-8142.265362,1302.362347
2956.253890,2886.803174,-11325.150913,153.219100
2956.254218,888.247130,-11251.130318,153.219100
2956.254546,666.185348,-8068.244768,1378.971896
2956.254873,2368.659014,-8956.491898,0.000000
2956.255201,2812.782580,-12435.459826,-459.657299
2956.255528,-370.102971,-11251.130318,-383.047749
2956.255856,-2368.659014,-8438.347739,-306.438199
2956.256184,-740.205942,-9326.594869,-2221.676944
2956.256511,222.061783,-11621.233289,-2068.457845
2956.256839,-296.082377,-10288.862594,-229.828649
2956.257167,370.102971,-7698.141797,1915.238745
2956.257494,1850.514855,-8734.430116,2451.505594
2956.257822,2664.741391,-10955.047942,383.047749
2956.258149,1480.411884,-10436.903782,-383.047749
2956.258477,-888.247130,-8290.306550,-306.438199
2956.258805,0.000000,-9178.553681,-766.095498
2956.259132,592.164754,-11917.315666,-2374.896044
2956.259460,-666.185348,-11251.130318,-1532.190996
2956.259787,-518.144159,-9474.636058,0.000000
2956.260115,1776.494261,-10214.842000,0.000000
2956.260443,2442.679609,-11843.295072,-536.266849
2956.260770,592.164754,-10658.965565,-1072.533697
2956.261098,-1702.473667,-7698.141797,-306.438199
2956.261426,-444.123565,-7328.038826,229.828649
2956.261753,0.000000,-9770.718434,536.266849
2956.262081,-962.267725,-9696.697840,612.876398
2956.262408,-1554.432478,-8586.388927,995.924147
2956.262736,0.000000,-9918.759623,-306.438199
2956.263064,1332.370696,-11399.171507,-1991.848295
2956.263391,666.185348,-10584.944971,-1608.800546
2956.263719,-888.247130,-7550.100608,0.000000
2956.264046,74.020594,-8660.409521,0.000000
2956.264374,1406.391290,-11769.274478,-842.705048
2956.264702,-370.102971,-10510.924376,0.000000
2956.265029,-666.185348,-7031.956449,919.314598
2956.265357,444.123565,-6513.812290,842.705048
2956.265685,1184.329507,-11177.109724,919.314598
2956.266012,0.000000,-11103.089130,459.657299
2956.266340,-1332.370696,-7476.080014,0.000000
2956.266667,-444.123565,-8068.244768,-612.876398
2956.266995,1332.370696,-11843.295072,-1149.143247
2956.267323,-222.061783,-11473.192101,0.000000
2956.267650,-666.185348,-8660.409521,612.876398
2956.267978,1406.391290,-9104.533087,-612.876398
2956.268305,2294.638420,-11769.274478,-766.095498
2956.268633,962.267725,-11399.171507,-1072.533697
2956.268961,0.000000,-7994.224174,0.000000
2956.269288,518.144159,-7476.080014,-153.219100
2956.269616,1036.288319,-10510.924376,-995.924147
2956.269944,-518.144159,-10881.027347,-842.705048
2956.270271,-1332.370696,-8142.265362,0.000000
2956.270599,-148.041188,-7402.059420,0.000000
2956.270926,1702.473667,-12139.377449,-689.485948
2956.271254,444.123565,-12583.501014,-612.876398
2956.271582,-444.123565,-8882.471304,229.828649
2956.271909,592.164754,-8068.244768,0.000000
2956.272237,2368.659014,-11843.295072,-536.266849
2956.272564,1702.473667,-11103.089130,-459.657299
2956.272892,0.000000,-8068.244768,1455.581446
2956.273220,1036.288319,-7846.182985,306.438199
2956.273547,2146.597232,-11621.233289,-689.485948
2956.273875,518.144159,-11399.171507,-612.876398
2956.274203,-740.205942,-7624.121203,-306.438199
2956.274530,-222.061783,-7254.018232,0.000000
2956.274858,1036.288319,-10955.047942,-1225.752797
2956.275185,0.000000,-11251.130318,-229.828649
2956.275513,-2146.597232,-6217.729913,1762.019645
2956.275841,-2738.761985,-5477.523971,1838.629195
2956.276168,-296.082377,-10955.047942,76.609550
2956.276496,-666.185348,-11695.253884,-689.485948
2956.276823,-1110.308913,-8216.285956,-919.314598
2956.277151,74.020594,-8438.347739,-995.924147
2956.277479,3108.864956,-13619.789333,-842.705048
2956.277806,2812.782580,-13249.686362,-995.924147
2956.278134,1110.308913,-9770.718434,459.657299
2956.278461,1110.308913,-8956.491898,306.438199
2956.278789,2220.617826,-11103.089130,-1532.190996
2956.279117,740.205942,-11029.068536,-1072.533697
2956.279444,-1554.432478,-6661.853478,459.657299
2956.279772,-1258.350101,-5847.626942,1532.190996
2956.280100,370.102971,-9326.594869,766.095498
2956.280427,-592.164754,-10955.047942,0.000000
2956.280755,-2294.638420,-8734.430116,76.609550
2956.281082,-518.144159,-7698.141797,-536.266849
2956.281410,1110.308913,-10510.924376,-1685.410096
2956.281738,0.000000,-12139.377449,-1302.362347
2956.282065,370.102971,-9918.759623,306.438199
2956.282393,1924.535449,-8808.450710,-229.828649
2956.282720,3404.947333,-12139.377449,0.000000
2956.283048,2294.638420,-13545.768739,229.828649
2956.283376,592.164754,-9770.718434,229.828649
2956.283703,666.185348,-7328.038826,0.000000
2956.284031,1554.432478,-9400.615463,-1378.971896
2956.284359,296.082377,-9696.697840,-383.047749
2956.284686,-1184.329507,-6513.812290,995.924147
2956.285014,-740.205942,-5699.585753,1762.019645
2956.285341,0.000000,-9400.615463,919.314598
2956.285669,-1406.391290,-10510.924376,-995.924147
2956.285997,-2072.576638,-8364.327145,459.657299
2956.286324,-1184.329507,-7698.141797,153.219100
2956.286652,1554.432478,-10881.027347,-1532.190996
2956.286979,1702.473667,-12509.480420,-229.828649
2956.287307,1480.411884,-10066.800811,919.314598
2956.287635,2442.679609,-8734.430116,306.438199
2956.287962,1850.514855,-10732.986159,-689.485948
2956.288290,-370.102971,-12583.501014,-1991.848295
2956.288618,-1776.494261,-9844.739029,-1225.752797
2956.288945,-666.185348,-7846.182985,-1225.752797
2956.289273,962.267725,-10362.883188,-1302.362347
2956.289600,1036.288319,-10955.047942,-229.828649
2956.289928,-222.061783,-7550.100608,1149.143247
2956.290256,74.020594,-6513.812290,1302.362347
2956.290583,370.102971,-8956.491898,0.000000
2956.290911,-1110.308913,-10584.944971,-842.705048
2956.291238,-2146.597232,-9252.574275,459.657299
2956.291566,-814.226536,-8512.368333,76.609550
2956.291894,1776.494261,-11843.295072,-1225.752797
2956.292221,2072.576638,-14508.036463,-1302.362347
2956.292549,1184.329507,-12361.439231,-306.438199
2956.292877,1998.556043,-10140.821405,-1149.143247
2956.293204,1258.350101,-11177.109724,-1302.362347
2956.293532,-518.144159,-11325.150913,-2068.457845
2956.293859,-2072.576638,-7550.100608,-383.047749
2956.294187,-1998.556043,-6291.750507,1455.581446
2956.294515,444.123565,-8956.491898,1455.581446
2956.294842,1332.370696,-9992.780217,1608.800546
2956.295170,-592.164754,-7476.080014,1762.019645
2956.295497,-370.102971,-6809.894666,919.314598
2956.295825,1184.329507,-9770.718434,-459.657299
2956.296153,740.205942,-11029.068536,-1608.800546
2956.296480,-1184.329507,-9030.512492,0.000000
2956.296808,-222.061783,-8586.388927,383.047749
2956.297136,1776.494261,-11547.212695,0.000000
2956.297463,1776.494261,-13101.645173,0.000000
2956.297791,222.061783,-10584.944971,0.000000
2956.298118,592.164754,-8290.306550,-383.047749
2956.298446,1554.432478,-10658.965565,-1149.143247
2956.298774,-444.123565,-11103.089130,-689.485948
2956.299101,-2294.638420,-7772.162391,-306.438199
2956.299429,-1850.514855,-6291.750507,766.095498
2956.299756,370.102971,-8364.327145,766.095498
2956.300084,666.185348,-9474.636058,-306.438199
2956.300412,0.000000,-8956.491898,1149.143247
2956.300739,-592.164754,-7031.956449,536.266849
2956.301067,1480.411884,-10955.047942,-2068.457845
2956.301395,1480.411884,-13101.645173,-2451.505594
2956.301722,-666.185348,-9770.718434,0.000000
2956.302050,222.061783,-8438.347739,689.485948
2956.302377,2960.823768,-12361.439231,0.000000
2956.302705,2664.741391,-14952.160028,-1149.143247
2956.303033,592.164754,-11769.274478,-383.047749
2956.303360,-592.164754,-8290.306550,-612.876398
2956.303688,0.000000,-9770.718434,-1455.581446
2956.304015,-1110.308913,-11473.192101,-2145.067394
2956.304343,-1850.514855,-9030.512492,-842.705048
2956.304671,-1184.329507,-7031.956449,76.609550
2956.304998,2516.700203,-8216.285956,689.485948
2956.305326,2812.782580,-10436.903782,383.047749
2956.305654,962.267725,-8660.409521,1302.362347
2956.305981,740.205942,-6957.935855,1072.533697
2956.306309,1850.514855,-9326.594869,-842.705048
2956.306636,888.247130,-11917.315666,-995.924147
2956.306964,-1184.329507,-9770.718434,0.000000
2956.307292,-148.041188,-8068.244768,842.705048
2956.307619,2368.659014,-11029.068536,0.000000
2956.307947,1110.308913,-13027.624579,0.000000
2956.308274,-2294.638420,-10214.842000,612.876398
2956.308602,-2738.761985,-7402.059420,-612.876398
2956.308930,-592.164754,-8512.368333,-1685.410096
2956.309257,-888.247130,-9844.739029,-1915.238745
2956.309585,-2664.741391,-8438.347739,153.219100
2956.309913,-740.205942,-7772.162391,2451.505594
2956.310240,3478.967927,-9474.636058,536.266849
2956.310568,3256.906145,-11399.171507,-1225.752797
2956.310895,1036.288319,-10140.821405,-919.314598
2956.311223,74.020594,-7772.162391,-229.828649
2956.311551,2072.576638,-10436.903782,-1608.800546
2956.311878,370.102971,-11547.212695,-1685.410096
2956.312206,-2146.597232,-9474.636058,0.000000
2956.312533,-1480.411884,-7550.100608,1685.410096
2956.312861,1628.453072,-10955.047942,689.485948
2956.313189,2146.597232,-13471.748144,-536.266849
2956.313516,148.041188,-10732.986159,76.609550
2956.313844,-1258.350101,-6661.853478,306.438199
2956.314172,-518.144159,-8734.430116,-995.924147
2956.314499,-148.041188,-11473.192101,-1302.362347
2956.314827,-666.185348,-9400.615463,459.657299
2956.315154,-296.082377,-6883.915261,1455.581446
2956.315482,2516.700203,-10214.842000,0.000000
2956.315810,3108.864956,-13397.727550,-1532.190996
2956.316137,666.185348,-9918.759623,-383.047749
2956.316465,518.144159,-7698.141797,0.000000
2956.316792,370.102971,-8882.471304,-1302.362347
2956.317120,592.164754,-10807.006753,-995.924147
2956.317448,-1776.494261,-8660.409521,1072.533697
2956.317775,-962.267725,-6661.853478,2757.943793
2956.318103,2072.576638,-8956.491898,1378.971896
2956.318431,1850.514855,-11917.315666,0.000000
2956.318758,-592.164754,-10436.903782,689.485948
2956.319086,-814.226536,-8216.285956,306.438199
2956.319413,1406.391290,-9474.636058,-1532.190996
2956.319741,888.247130,-12287.418637,-1762.019645
2956.320069,-888.247130,-10732.986159,383.047749
2956.320396,0.000000,-7624.121203,1915.238745
2956.320724,814.226536,-7624.121203,306.438199
2956.321051,148.041188,-11843.295072,-2068.457845
2956.321379,-1924.535449,-10140.821405,-2528.115143
2956.321707,-1332.370696,-7328.038826,-1225.752797
2956.322034,-444.123565,-8956.491898,-1225.752797
2956.322362,1036.288319,-11177.109724,-919.314598
2956.322690,-1258.350101,-10140.821405,1532.190996
2956.323017,-296.082377,-8290.306550,2834.553343
2956.323345,1110.308913,-8586.388927,229.828649
2956.323672,2220.617826,-12509.480420,-1838.629195
2956.324000,-592.164754,-11325.150913,-459.657299
2956.324328,-444.123565,-9178.553681,919.314598
2956.324655,2146.597232,-10807.006753,0.000000
2956.324983,2960.823768,-13323.706956,-1532.190996
2956.325310,222.061783,-11621.233289,-383.047749
2956.325638,0.000000,-8364.327145,0.000000
2956.325966,1184.329507,-8586.388927,-1302.362347
2956.326293,1184.329507,-10807.006753,-2757.943793
2956.326621,-1776.494261,-8364.327145,-1149.143247
2956.326949,-2886.803174,-6365.771101,1072.533697
2956.327276,-370.102971,-7105.977043,536.266849
2956.327604,592.164754,-10066.800811,-229.828649
2956.327931,-666.185348,-9252.574275,842.705048
2956.328259,74.020594,-7698.141797,919.314598
2956.328586,2368.659014,-9252.574275,0.000000
2956.328914,4145.153275,-12287.418637,-612.876398
2956.329242,1480.411884,-11547.212695,459.657299
2956.329569,370.102971,-9548.656652,1608.800546
2956.329897,2368.659014,-10436.903782,-689.485948
2956.330224,2072.576638,-13027.624579,-1915.238745
2956.330552,-444.123565,-11029.068536,-1915.238745
2956.330879,-1258.350101,-8438.347739,-306.438199
2956.331207,148.041188,-8808.450710,-229.828649
2956.331535,518.144159,-10584.944971,-995.924147
2956.331862,-1628.453072,-9104.533087,153.219100
2956.332190,-3182.885551,-4737.318029,1302.362347
2956.332517,-814.226536,-6587.832884,-536.266849
2956.332845,888.247130,-9844.739029,-1455.581446
2956.333173,-296.082377,-10510.924376,919.314598
2956.333500,-370.102971,-7994.224174,2145.067394
2956.333828,1998.556043,-9178.553681,689.485948
2956.334155,2886.803174,-13693.809927,-995.924147
2956.334483,2368.659014,-14063.912898,-1762.019645
2956.334810,370.102971,-9844.739029,612.876398
2956.335138,1998.556043,-9326.594869,76.609550
2956.335466,1258.350101,-12953.603985,-842.705048
2956.335793,-148.041188,-11843.295072,-536.266849
2956.336121,-2072.576638,-7254.018232,1149.143247
2956.336448,-296.082377,-7772.162391,612.876398
2956.336776,0.000000,-10510.924376,-1225.752797
2956.337104,-2294.638420,-9030.512492,-1072.533697
2956.337431,-3775.050304,-5255.462188,0.000000
2956.337759,-370.102971,-6513.812290,-229.828649
2956.338086,1332.370696,-9844.739029,-536.266849
2956.338414,814.226536,-10584.944971,842.705048
2956.338741,814.226536,-8364.327145,1532.190996
2956.339069,3923.091493,-9992.780217,-919.314598
2956.339397,3256.906145,-13323.706956,-2374.896044
2956.339724,1332.370696,-12953.603985,-995.924147
2956.340052,0.000000,-9252.574275,229.828649
2956.340379,666.185348,-9770.718434,-229.828649
2956.340707,1628.453072,-12805.562797,-1455.581446
2956.341035,0.000000,-11251.130318,-919.314598
2956.341362,-1924.535449,-7031.956449,1685.410096
2956.341690,-2146.597232,-7402.059420,1225.752797
2956.342017,-1850.514855,-10140.821405,-1532.190996
2956.342345,-2368.659014,-9622.677246,-2298.286494
2956.342672,-2886.803174,-5995.668130,-919.314598
2956.343000,0.000000,-6661.853478,-153.219100
2956.343328,2886.803174,-11621.233289,-229.828649
2956.343655,1258.350101,-12435.459826,689.485948
2956.343983,592.164754,-9400.615463,1532.190996
2956.344310,1406.391290,-8216.285956,-766.095498
2956.344638,1850.514855,-11621.233289,-2757.943793
2956.344966,-370.102971,-12361.439231,-1608.800546
2956.345293,-1036.288319,-8956.491898,612.876398
2956.345621,888.247130,-8808.450710,689.485948
2956.345948,2812.782580,-12953.603985,-383.047749
2956.346276,962.267725,-11695.253884,919.314598
2956.346603,-888.247130,-7105.977043,1991.848295
2956.346931,-222.061783,-6143.709319,1149.143247
2956.347259,1332.370696,-8956.491898,-1455.581446
2956.347586,-666.185348,-8808.450710,-995.924147
2956.347914,-1924.535449,-5847.626942,1762.019645
2956.348241,1406.391290,-7254.018232,919.314598
2956.348569,3182.885551,-12213.398043,-689.485948
2956.348897,666.185348,-13101.645173,-383.047749
2956.349224,-592.164754,-9474.636058,0.000000
2956.349552,814.226536,-8068.244768,-1149.143247
2956.349879,1776.494261,-11103.089130,-2604.724693
2956.350207,518.144159,-11991.336260,-383.047749
2956.350534,-370.102971,-9474.636058,2604.724693
2956.350862,1850.514855,-7994.224174,1685.410096
2956.351190,2664.741391,-11103.089130,0.000000
2956.351517,-518.144159,-10584.944971,-383.047749
2956.351845,-1776.494261,-8068.244768,536.266849
2956.352172,-592.164754,-8364.327145,0.000000
2956.352500,1628.453072,-10362.883188,-2451.505594
2956.352828,1184.329507,-11695.253884,-1838.629195
2956.353155,814.226536,-9474.636058,1072.533697
2956.353483,1998.556043,-8438.347739,689.485948
2956.353810,2812.782580,-10732.986159,0.000000
2956.354138,-962.267725,-10066.800811,-842.705048
2956.354465,-3997.112087,-8290.306550,0.000000
2956.354793,-1924.535449,-7994.224174,-536.266849
2956.355121,814.226536,-10732.986159,-2374.896044
2956.355448,0.000000,-11769.274478,-1072.533697
2956.355776,-592.164754,-8882.471304,1455.581446
2956.356103,1110.308913,-8956.491898,1149.143247
2956.356431,2220.617826,-11399.171507,-383.047749
2956.356758,222.061783,-11399.171507,-536.266849
2956.357086,-1480.411884,-8734.430116,459.657299
2956.357414,370.102971,-8512.368333,459.657299
2956.357741,2738.761985,-11769.274478,-1225.752797
2956.358069,1480.411884,-11103.089130,-459.657299
2956.358396,-814.226536,-8142.265362,1072.533697
2956.358724,0.000000,-7179.997637,229.828649
2956.359052,1110.308913,-9844.739029,-2374.896044
2956.359379,-1480.411884,-11029.068536,-1991.848295
2956.359707,-3627.009116,-7254.018232,536.266849
2956.360034,-2516.700203,-6439.791695,1072.533697
2956.360362,740.205942,-9992.780217,-383.047749
2956.360689,296.082377,-12065.356855,0.000000
2956.361017,-518.144159,-9622.677246,1532.190996
2956.361345,1110.308913,-8068.244768,536.266849
2956.361672,3182.885551,-11917.315666,-1685.410096
2956.362000,1776.494261,-13175.665768,-1225.752797
2956.362327,-370.102971,-8956.491898,612.876398
2956.362655,74.020594,-7105.977043,1685.410096
2956.362983,2220.617826,-10584.944971,-306.438199
2956.363310,1036.288319,-11991.336260,-1762.019645
2956.363638,-1406.391290,-8142.265362,-919.314598
2956.363965,-888.247130,-6587.832884,-919.314598
2956.364293,1110.308913,-10214.842000,-1608.800546
