#time,accel_x,accel_y,accel_z
3145.368025,-222.061783,-9030.512492,-459.657299
3145.368352,0.000000,-9178.553681,-536.266849
3145.368680,0.000000,-9326.594869,-383.047749
3145.369007,0.000000,-9474.636058,-459.657299
3145.369335,148.041188,-9918.759623,-612.876398
3145.369662,370.102971,-9844.739029,76.609550
3145.369990,666.185348,-9696.697840,-229.828649
3145.370317,592.164754,-9696.697840,459.657299
3145.370645,444.123565,-9474.636058,229.828649
3145.370972,370.102971,-9474.636058,76.609550
3145.371300,222.061783,-9400.615463,76.609550
3145.371627,0.000000,-9104.533087,0.000000
3145.371955,222.061783,-9400.615463,-383.047749
3145.372282,-222.061783,-8734.430116,0.000000
3145.372610,74.020594,-9622.677246,-689.485948
3145.372937,74.020594,-9992.780217,-689.485948
3145.373265,444.123565,-10066.800811,-459.657299
3145.373592,814.226536,-10066.800811,-306.438199
3145.373920,814.226536,-9918.759623,0.000000
3145.374247,814.226536,-9992.780217,76.609550
3145.374575,740.205942,-9622.677246,0.000000
3145.374902,296.082377,-9696.697840,306.438199
3145.375230,148.041188,-9696.697840,-383.047749
3145.375557,0.000000,-9474.636058,-459.657299
3145.375885,0.000000,-9474.636058,-766.095498
3145.376212,0.000000,-9918.759623,-766.095498
3145.376540,-222.061783,-9918.759623,-766.095498
3145.376867,370.102971,-10362.883188,-1302.362347
3145.377195,444.123565,-10066.800811,-229.828649
3145.377522,592.164754,-9992.780217,-153.219100
3145.377850,592.164754,-10140.821405,153.219100
3145.378177,592.164754,-9622.677246,76.609550
3145.378505,444.123565,-9548.656652,76.609550
3145.378832,296.082377,-9252.574275,0.000000
3145.379159,0.000000,-7994.224174,0.000000
3145.379487,-148.041188,-8734.430116,0.000000
3145.379814,-370.102971,-9030.512492,-229.828649
3145.380142,0.000000,-9104.533087,0.000000
3145.380469,148.041188,-9622.677246,0.000000
3145.380797,518.144159,-9770.718434,0.000000
3145.381124,444.123565,-9770.718434,0.000000
3145.381452,592.164754,-9770.718434,153.219100
3145.381779,74.020594,-9770.718434,229.828649
3145.382107,814.226536,-9474.636058,229.828649
3145.382434,148.041188,-9178.553681,0.000000
3145.382762,-222.061783,-8956.491898,0.000000
3145.383089,0.000000,-9400.615463,0.000000
3145.383417,-296.082377,-9474.636058,-306.438199
3145.383744,222.061783,-9474.636058,766.095498
3145.384072,222.061783,-10066.800811,-1302.362347
3145.384399,592.164754,-10288.862594,-766.095498
3145.384727,666.185348,-10436.903782,-383.047749
3145.385054,814.226536,-10362.883188,-229.828649
3145.385382,740.205942,-10066.800811,0.000000
3145.385709,740.205942,-9474.636058,-919.314598
3145.386037,296.082377,-9474.636058,919.314598
3145.386364,148.041188,-9548.656652,153.219100
3145.386692,518.144159,-10066.800811,-536.266849
3145.387019,74.020594,-9548.656652,-766.095498
3145.387347,0.000000,-9770.718434,-689.485948
3145.387674,0.000000,-9918.759623,-612.876398
3145.388002,444.123565,-9992.780217,-612.876398
3145.388329,962.267725,-9400.615463,-612.876398
3145.388657,1776.494261,-9770.718434,383.047749
3145.388984,2590.720797,-9770.718434,383.047749
3145.389312,3182.885551,-9326.594869,229.828649
3145.389639,3552.988522,-8734.430116,229.828649
3145.389967,4145.153275,-9030.512492,153.219100
3145.390294,5255.462188,-9104.533087,229.828649
3145.390622,5847.626942,-8660.409521,-153.219100
3145.390949,6513.812290,-9474.636058,76.609550
3145.391277,7254.018232,-9178.553681,-229.828649
3145.391604,8216.285956,-9992.780217,153.219100
3145.391932,8142.265362,-10436.903782,842.705048
3145.392259,9030.512492,-9770.718434,842.705048
3145.392586,10066.800811,-9548.656652,383.047749
3145.392914,10362.883188,-9030.512492,0.000000
3145.393241,10881.027347,-8660.409521,842.705048
3145.393569,11325.150913,-8438.347739,536.266849
3145.393896,11325.150913,-8956.491898,612.876398
3145.394224,11547.212695,-9474.636058,383.047749
3145.394551,11251.130318,-9474.636058,-306.438199
3145.394879,10881.027347,-9474.636058,-383.047749
3145.395206,11547.212695,-9992.780217,612.876398
3145.395534,12953.603985,-10140.821405,-612.876398
3145.395861,13915.871710,-10436.903782,0.000000
3145.396189,15174.221811,-10658.965565,766.095498
3145.396516,15618.345376,-9770.718434,1072.533697
3145.396844,14804.118840,-9252.574275,536.266849
3145.397171,13989.892304,-9326.594869,536.266849
3145.397499,13693.809927,-9252.574275,-612.876398
3145.397826,12361.439231,-10140.821405,-1455.581446
3145.398154,11621.233289,-9844.739029,0.000000
3145.398481,11991.336260,-10140.821405,-612.876398
3145.398809,11917.315666,-9696.697840,0.000000
3145.399136,12065.356855,-9918.759623,383.047749
3145.399464,12213.398043,-9622.677246,0.000000
3145.399791,11103.089130,-9918.759623,1149.143247
3145.400119,9992.780217,-10436.903782,383.047749
3145.400446,9474.636058,-9696.697840,-383.047749
3145.400774,7920.203579,-8512.368333,459.657299
3145.401101,7994.224174,-7328.038826,459.657299
3145.401429,8660.409521,-8142.265362,153.219100
3145.401756,9474.636058,-10288.862594,0.000000
3145.402084,9918.759623,-11769.274478,1149.143247
3145.402411,8438.347739,-10288.862594,76.609550
3145.402739,7772.162391,-8142.265362,459.657299
3145.403066,7476.080014,-8142.265362,-153.219100
3145.403394,8438.347739,-8586.388927,229.828649
3145.403721,9178.553681,-9918.759623,1072.533697
3145.404049,9696.697840,-11029.068536,1302.362347
3145.404376,9474.636058,-9030.512492,1532.190996
3145.404704,8512.368333,-7920.203579,1149.143247
3145.405031,6365.771101,-8956.491898,0.000000
3145.405359,5255.462188,-10584.944971,-689.485948
3145.405686,6735.874072,-9548.656652,-2374.896044
3145.406014,7846.182985,-8808.450710,-1762.019645
3145.406341,9178.553681,-9696.697840,0.000000
3145.406668,8512.368333,-10584.944971,919.314598
3145.406996,5773.606348,-9104.533087,1838.629195
3145.407323,5403.503377,-9474.636058,76.609550
3145.407651,6439.791695,-11695.253884,-2374.896044
3145.407978,6957.935855,-11843.295072,-2298.286494
3145.408306,5699.585753,-9548.656652,-919.314598
3145.408633,5403.503377,-9770.718434,766.095498
3145.408961,3923.091493,-11251.130318,919.314598
3145.409288,3034.844362,-10881.027347,-306.438199
3145.409616,1110.308913,-6735.874072,-1532.190996
3145.409943,814.226536,-6143.709319,-2604.724693
3145.410271,2812.782580,-8734.430116,-1838.629195
3145.410598,4663.297435,-10288.862594,229.828649
3145.410926,5255.462188,-8660.409521,1455.581446
3145.411253,7476.080014,-8808.450710,1991.848295
3145.411581,7920.203579,-9326.594869,0.000000
3145.411908,6587.832884,-10584.944971,229.828649
3145.412236,6143.709319,-11029.068536,229.828649
3145.412563,8142.265362,-10066.800811,-1378.971896
3145.412891,7105.977043,-10436.903782,-306.438199
3145.413218,3997.112087,-11547.212695,2757.943793
3145.413546,3108.864956,-11251.130318,2451.505594
3145.413873,3997.112087,-9770.718434,306.438199
3145.414201,2368.659014,-9252.574275,-1762.019645
3145.414528,592.164754,-10066.800811,-1685.410096
3145.414856,370.102971,-8068.244768,-306.438199
3145.415183,814.226536,-6587.832884,1685.410096
3145.415511,1036.288319,-7476.080014,1685.410096
3145.415838,740.205942,-8290.306550,995.924147
3145.416166,-370.102971,-8216.285956,459.657299
3145.416493,-296.082377,-9918.759623,0.000000
3145.416821,814.226536,-10584.944971,-1762.019645
3145.417148,2072.576638,-11547.212695,-2298.286494
3145.417476,518.144159,-13545.768739,-306.438199
3145.417803,370.102971,-13619.789333,-306.438199
3145.418131,1480.411884,-10214.842000,-2298.286494
3145.418458,222.061783,-10807.006753,-1608.800546
3145.418786,-1406.391290,-12213.398043,536.266849
3145.419113,-592.164754,-8808.450710,383.047749
3145.419441,-1406.391290,-6883.915261,0.000000
3145.419768,-1924.535449,-7624.121203,153.219100
3145.420095,-1184.329507,-7179.997637,766.095498
3145.420423,-1480.411884,-7402.059420,153.219100
3145.420750,-1702.473667,-9400.615463,1149.143247
3145.421078,888.247130,-9992.780217,-1149.143247
3145.421405,1332.370696,-12139.377449,-2068.457845
3145.421733,-814.226536,-14211.954086,229.828649
3145.422060,0.000000,-11843.295072,0.000000
3145.422388,0.000000,-10214.842000,-1225.752797
3145.422715,-3775.050304,-11991.336260,689.485948
3145.423043,-3330.926739,-9992.780217,-459.657299
3145.423370,-2368.659014,-5551.544565,-2221.676944
3145.423698,-4145.153275,-6883.915261,-153.219100
3145.424025,-3034.844362,-7476.080014,1225.752797
3145.424353,-2072.576638,-6439.791695,766.095498
3145.424680,-1924.535449,-7105.977043,2221.676944
3145.425008,0.000000,-8586.388927,-306.438199
3145.425335,1480.411884,-9474.636058,-1685.410096
3145.425663,592.164754,-12361.439231,536.266849
3145.425990,2960.823768,-13619.789333,536.266849
3145.426318,3849.070898,-11769.274478,-1685.410096
3145.426645,0.000000,-11843.295072,-1149.143247
3145.426973,-1332.370696,-11251.130318,0.000000
3145.427300,296.082377,-9326.594869,-1532.190996
3145.427628,-740.205942,-9178.553681,-1838.629195
3145.427955,0.000000,-8068.244768,-459.657299
3145.428283,1184.329507,-6957.935855,-1685.410096
3145.428610,0.000000,-8660.409521,0.000000
3145.428938,1628.453072,-8660.409521,919.314598
3145.429265,2886.803174,-8438.347739,-689.485948
3145.429593,2294.638420,-11473.192101,459.657299
3145.429920,4589.276840,-12805.562797,383.047749
3145.430248,4885.359217,-10436.903782,-842.705048
3145.430575,1998.556043,-11251.130318,919.314598
3145.430903,1702.473667,-12805.562797,1685.410096
3145.431230,1924.535449,-10140.821405,-1532.190996
3145.431558,-518.144159,-10436.903782,-1762.019645
3145.431885,-592.164754,-10584.944971,0.000000
3145.432213,666.185348,-7402.059420,-995.924147
3145.432540,962.267725,-7476.080014,0.000000
3145.432868,518.144159,-7550.100608,2451.505594
3145.433195,2516.700203,-6587.832884,1302.362347
3145.433522,1036.288319,-8216.285956,2298.286494
3145.433850,444.123565,-10362.883188,2987.772442
3145.434177,666.185348,-8956.491898,-842.705048
3145.434505,-962.267725,-9548.656652,-1532.190996
3145.434832,-1554.432478,-11251.130318,-919.314598
3145.435160,1258.350101,-10362.883188,-2298.286494
3145.435487,-962.267725,-11843.295072,-306.438199
3145.435815,-1184.329507,-12361.439231,1149.143247
3145.436142,1258.350101,-9770.718434,-1302.362347
3145.436470,-222.061783,-8364.327145,-1685.410096
3145.436797,-1776.494261,-8586.388927,0.000000
3145.437125,592.164754,-6883.915261,-383.047749
3145.437452,0.000000,-6883.915261,383.047749
3145.437780,-296.082377,-9844.739029,2911.162892
3145.438107,2886.803174,-8882.471304,1762.019645
3145.438435,2294.638420,-7920.203579,766.095498
3145.438762,-962.267725,-11547.212695,766.095498
3145.439089,-370.102971,-11029.068536,-766.095498
3145.439417,-1480.411884,-10807.006753,-2757.943793
3145.439744,-3552.988522,-12805.562797,-1991.848295
3145.440072,-1628.453072,-11991.336260,-2681.334243
3145.440399,-1110.308913,-9326.594869,-3064.381992
3145.440727,-1554.432478,-9844.739029,306.438199
3145.441054,296.082377,-9918.759623,153.219100
3145.441381,666.185348,-8882.471304,-383.047749
3145.441709,-222.061783,-8808.450710,1455.581446
3145.442036,1702.473667,-6883.915261,1072.533697
3145.442364,1406.391290,-6365.771101,-459.657299
3145.442691,-592.164754,-9326.594869,1838.629195
3145.443018,222.061783,-9548.656652,1838.629195
3145.443346,222.061783,-8882.471304,-842.705048
3145.443673,-518.144159,-13101.645173,-459.657299
3145.444001,-592.164754,-13175.665768,-842.705048
3145.444328,-1406.391290,-10066.800811,-2528.115143
3145.444656,-3182.885551,-9992.780217,-1762.019645
3145.444983,-1036.288319,-9178.553681,-1991.848295
3145.445310,444.123565,-7772.162391,-2298.286494
3145.445638,0.000000,-10066.800811,1685.410096
3145.445965,2294.638420,-8438.347739,2451.505594
3145.446293,3775.050304,-6217.729913,76.609550
3145.446620,2664.741391,-9252.574275,1838.629195
3145.446948,2220.617826,-11769.274478,1991.848295
3145.447275,1850.514855,-9696.697840,-459.657299
3145.447602,1406.391290,-9844.739029,-995.924147
3145.447930,1924.535449,-10732.986159,-1302.362347
3145.448257,1480.411884,-9844.739029,-1762.019645
3145.448585,444.123565,-10436.903782,0.000000
3145.448912,1110.308913,-12065.356855,536.266849
3145.449239,2664.741391,-10732.986159,-1072.533697
3145.449567,1480.411884,-10436.903782,-1225.752797
3145.449894,666.185348,-10732.986159,-229.828649
3145.450222,888.247130,-7624.121203,-689.485948
3145.450549,296.082377,-7031.956449,-689.485948
3145.450877,1036.288319,-10658.965565,536.266849
3145.451204,2146.597232,-10955.047942,689.485948
3145.451531,2368.659014,-9252.574275,153.219100
3145.451859,1110.308913,-10362.883188,536.266849
3145.452186,0.000000,-10214.842000,689.485948
3145.452514,-1332.370696,-9474.636058,-1225.752797
3145.452841,-2368.659014,-9326.594869,-536.266849
3145.453169,-962.267725,-9770.718434,-1608.800546
3145.453496,-888.247130,-10288.862594,-1762.019645
3145.453823,-518.144159,-11399.171507,612.876398
3145.454151,814.226536,-9400.615463,459.657299
3145.454478,888.247130,-8068.244768,0.000000
3145.454806,0.000000,-10066.800811,1378.971896
3145.455133,370.102971,-9992.780217,1762.019645
3145.455460,592.164754,-7476.080014,1072.533697
3145.455788,-370.102971,-7846.182985,1225.752797
3145.456115,-1184.329507,-7698.141797,689.485948
3145.456443,-2220.617826,-7179.997637,0.000000
3145.456770,-2590.720797,-9918.759623,383.047749
3145.457098,-1480.411884,-10214.842000,-612.876398
3145.457425,-1184.329507,-9992.780217,-1991.848295
3145.457752,-666.185348,-11621.233289,-1302.362347
3145.458080,666.185348,-9844.739029,-1991.848295
3145.458407,518.144159,-8512.368333,-1455.581446
3145.458735,-740.205942,-11251.130318,1455.581446
3145.459062,-740.205942,-12583.501014,1915.238745
3145.459390,74.020594,-9178.553681,76.609550
3145.459717,0.000000,-7624.121203,-459.657299
3145.460044,296.082377,-9326.594869,-842.705048
3145.460372,-1184.329507,-10066.800811,229.828649
3145.460699,-2664.741391,-10510.924376,1225.752797
3145.461027,-666.185348,-9474.636058,-995.924147
3145.461354,444.123565,-9474.636058,-4060.306139
3145.461682,0.000000,-11547.212695,-2604.724693
3145.462009,888.247130,-10362.883188,-1838.629195
3145.462336,888.247130,-8142.265362,-766.095498
3145.462664,444.123565,-10288.862594,459.657299
3145.462991,1628.453072,-11399.171507,1378.971896
3145.463319,3404.947333,-9252.574275,842.705048
3145.463646,2812.782580,-9400.615463,1685.410096
3145.463973,1406.391290,-9844.739029,1915.238745
3145.464301,-444.123565,-8290.306550,153.219100
3145.464628,-1924.535449,-8364.327145,-1302.362347
3145.464956,-1554.432478,-9474.636058,-1225.752797
3145.465283,0.000000,-8068.244768,-1838.629195
3145.465611,444.123565,-9622.677246,-459.657299
3145.465938,1628.453072,-10881.027347,995.924147
3145.466265,3108.864956,-8438.347739,-383.047749
3145.466593,2294.638420,-9992.780217,383.047749
3145.466920,3182.885551,-11325.150913,2298.286494
3145.467248,4219.173869,-8438.347739,1225.752797
3145.467575,3627.009116,-6957.935855,1072.533697
3145.467903,222.061783,-8512.368333,2221.676944
3145.468230,-2368.659014,-9548.656652,1225.752797
3145.468557,-3478.967927,-9696.697840,-1072.533697
3145.468885,-2664.741391,-10288.862594,-1991.848295
3145.469212,-1184.329507,-10436.903782,-3447.429741
3145.469540,-1702.473667,-10584.944971,-2374.896044
3145.469867,-888.247130,-11103.089130,-1072.533697
3145.470194,2368.659014,-10214.842000,-2221.676944
3145.470522,2886.803174,-9992.780217,-1225.752797
3145.470849,1480.411884,-10955.047942,2145.067394
3145.471177,2294.638420,-8364.327145,2528.115143
3145.471504,2442.679609,-9178.553681,459.657299
3145.471832,1036.288319,-11399.171507,229.828649
3145.472159,-592.164754,-10732.986159,0.000000
3145.472486,-2220.617826,-9622.677246,-1532.190996
3145.472814,-2220.617826,-10436.903782,-1915.238745
3145.473141,-1036.288319,-10436.903782,-2145.067394
3145.473469,-1036.288319,-10140.821405,-2757.943793
3145.473796,-740.205942,-10510.924376,-995.924147
3145.474124,962.267725,-9104.533087,-1225.752797
3145.474451,518.144159,-8364.327145,-306.438199
3145.474778,-518.144159,-9474.636058,2298.286494
3145.475106,1258.350101,-8142.265362,1532.190996
3145.475433,2442.679609,-8512.368333,0.000000
3145.475761,1776.494261,-11103.089130,1149.143247
3145.476088,1702.473667,-11399.171507,995.924147
3145.476415,222.061783,-9474.636058,459.657299
3145.476743,-1628.453072,-9252.574275,-459.657299
3145.477070,-2146.597232,-9400.615463,-1608.800546
3145.477398,-2368.659014,-9326.594869,-1532.190996
3145.477725,-1850.514855,-8512.368333,-689.485948
3145.478053,222.061783,-8290.306550,-689.485948
3145.478380,1110.308913,-8216.285956,-383.047749
3145.478707,370.102971,-9400.615463,1838.629195
3145.479035,740.205942,-8734.430116,1532.190996
3145.479362,1776.494261,-8512.368333,-383.047749
3145.479690,2368.659014,-10658.965565,-306.438199
3145.480017,2738.761985,-11177.109724,76.609550
3145.480345,1036.288319,-9992.780217,0.000000
3145.480672,-370.102971,-10510.924376,0.000000
3145.480999,222.061783,-11547.212695,-842.705048
3145.481327,-1036.288319,-11547.212695,-1838.629195
3145.481654,-1554.432478,-9992.780217,-1762.019645
3145.481982,222.061783,-8956.491898,-2298.286494
3145.482309,1406.391290,-8142.265362,-1532.190996
3145.482637,740.205942,-9548.656652,766.095498
3145.482964,1776.494261,-9252.574275,1455.581446
3145.483291,3775.050304,-7698.141797,229.828649
3145.483619,2590.720797,-9844.739029,1072.533697
3145.483946,1258.350101,-11843.295072,2145.067394
3145.484274,0.000000,-9918.759623,-229.828649
3145.484601,-1406.391290,-9696.697840,-2221.676944
3145.484928,0.000000,-11325.150913,-2681.334243
3145.485256,740.205942,-12361.439231,-2528.115143
3145.485583,-370.102971,-12435.459826,459.657299
3145.485911,0.000000,-9770.718434,766.095498
3145.486238,888.247130,-7254.018232,-2145.067394
3145.486566,-148.041188,-8364.327145,-1378.971896
3145.486893,-740.205942,-8660.409521,689.485948
3145.487220,1184.329507,-5625.565159,1072.533697
3145.487548,1924.535449,-7031.956449,1532.190996
3145.487875,1554.432478,-9474.636058,2451.505594
3145.488203,2294.638420,-9400.615463,1608.800546
3145.488530,1332.370696,-8882.471304,1072.533697
3145.488858,222.061783,-11251.130318,995.924147
3145.489185,0.000000,-12731.542202,-383.047749
3145.489512,-1184.329507,-11843.295072,-2145.067394
3145.489840,-1628.453072,-10362.883188,-2145.067394
3145.490167,-1776.494261,-8734.430116,-2374.896044
3145.490495,-2368.659014,-8216.285956,-459.657299
3145.490822,-1628.453072,-8882.471304,1378.971896
3145.491149,370.102971,-7402.059420,689.485948
3145.491477,888.247130,-8512.368333,0.000000
3145.491804,1702.473667,-9770.718434,1838.629195
3145.492132,3552.988522,-9104.533087,306.438199
3145.492459,1998.556043,-8142.265362,1378.971896
3145.492787,666.185348,-9474.636058,1532.190996
3145.493114,-888.247130,-11843.295072,919.314598
3145.493441,-1480.411884,-12805.562797,-995.924147
3145.493769,-666.185348,-11843.295072,-3294.210641
3145.494096,-1480.411884,-9992.780217,-3064.381992
3145.494424,-3108.864956,-9178.553681,-1915.238745
3145.494751,-3478.967927,-11177.109724,-689.485948
3145.495079,-518.144159,-9400.615463,-1378.971896
3145.495406,2072.576638,-7328.038826,-2374.896044
3145.495733,1554.432478,-8364.327145,153.219100
3145.496061,2294.638420,-8734.430116,2298.286494
3145.496388,3478.967927,-9178.553681,1532.190996
3145.496716,2294.638420,-10214.842000,1915.238745
3145.497043,1554.432478,-11103.089130,1455.581446
3145.497370,1258.350101,-11991.336260,-536.266849
3145.497698,814.226536,-11695.253884,-1915.238745
3145.498025,444.123565,-9548.656652,-2987.772442
3145.498353,-1110.308913,-8882.471304,-2145.067394
3145.498680,-2442.679609,-9474.636058,-995.924147
3145.499008,-296.082377,-8956.491898,-919.314598
3145.499335,1258.350101,-7846.182985,-1455.581446
3145.499662,1036.288319,-8586.388927,995.924147
3145.499990,1776.494261,-9030.512492,2221.676944
3145.500317,2146.597232,-7994.224174,536.266849
3145.500645,1776.494261,-9474.636058,383.047749
3145.500972,2516.700203,-11843.295072,842.705048
3145.501300,2516.700203,-13249.686362,383.047749
3145.501627,1702.473667,-11695.253884,-459.657299
3145.501954,518.144159,-9548.656652,-1915.238745
3145.502282,-1924.535449,-9474.636058,-1991.848295
3145.502609,-2812.782580,-10288.862594,-995.924147
3145.502937,-1850.514855,-8956.491898,-536.266849
3145.503264,-444.123565,-7328.038826,-1225.752797
3145.503592,-296.082377,-8956.491898,0.000000
3145.503919,666.185348,-9474.636058,1072.533697
3145.504246,1332.370696,-7624.121203,1072.533697
3145.504574,1776.494261,-8586.388927,689.485948
3145.504901,1628.453072,-11621.233289,1685.410096
3145.505229,1258.350101,-10881.027347,1149.143247
3145.505556,1258.350101,-10584.944971,229.828649
3145.505883,1036.288319,-10436.903782,-766.095498
3145.506211,-1184.329507,-10584.944971,-842.705048
3145.506538,-3404.947333,-10362.883188,-995.924147
3145.506866,-2812.782580,-9400.615463,-1225.752797
3145.507193,-962.267725,-8290.306550,-2451.505594
3145.507521,-370.102971,-9474.636058,-995.924147
3145.507848,222.061783,-9252.574275,1685.410096
3145.508175,1998.556043,-7402.059420,1532.190996
3145.508503,1850.514855,-8438.347739,842.705048
3145.508830,0.000000,-11251.130318,1685.410096
3145.509158,-592.164754,-10436.903782,0.000000
3145.509485,-1184.329507,-10288.862594,-1991.848295
3145.509813,-1258.350101,-10955.047942,-2451.505594
3145.510140,0.000000,-10658.965565,-3294.210641
3145.510467,-814.226536,-11103.089130,-1608.800546
3145.510795,-370.102971,-12361.439231,1149.143247
3145.511122,1110.308913,-10584.944971,-229.828649
3145.511450,1184.329507,-8586.388927,-1532.190996
3145.511777,296.082377,-8068.244768,-766.095498
3145.512104,0.000000,-6883.915261,306.438199
3145.512432,0.000000,-6587.832884,1378.971896
3145.512759,0.000000,-8882.471304,2528.115143
3145.513087,1628.453072,-9622.677246,1302.362347
3145.513414,2220.617826,-10658.965565,-229.828649
3145.513742,1702.473667,-11621.233289,-153.219100
3145.514069,1036.288319,-11177.109724,-459.657299
3145.514396,-888.247130,-10658.965565,-1532.190996
3145.514724,-1258.350101,-10584.944971,-1532.190996
3145.515051,666.185348,-9696.697840,-2451.505594
3145.515379,814.226536,-8660.409521,-919.314598
3145.515706,74.020594,-9400.615463,1838.629195
3145.516034,814.226536,-7550.100608,2451.505594
3145.516361,1332.370696,-6661.853478,766.095498
3145.516688,444.123565,-9474.636058,842.705048
3145.517016,1998.556043,-9326.594869,1838.629195
3145.517343,3478.967927,-8734.430116,-229.828649
3145.517671,2664.741391,-9400.615463,536.266849
3145.517998,1406.391290,-10214.842000,229.828649
3145.518325,-1480.411884,-11029.068536,0.000000
3145.518653,-1332.370696,-11695.253884,-842.705048
3145.518980,666.185348,-11843.295072,-1302.362347
3145.519308,222.061783,-11325.150913,-842.705048
3145.519635,-740.205942,-10807.006753,-1302.362347
3145.519963,-444.123565,-9696.697840,-1072.533697
3145.520290,-666.185348,-7254.018232,-1455.581446
3145.520617,-2146.597232,-8290.306550,-306.438199
3145.520945,-370.102971,-9252.574275,383.047749
3145.521272,1702.473667,-8068.244768,0.000000
3145.521600,1998.556043,-9770.718434,383.047749
3145.521927,1776.494261,-12509.480420,1149.143247
3145.522255,518.144159,-11917.315666,612.876398
3145.522582,-222.061783,-10955.047942,0.000000
3145.522909,296.082377,-11029.068536,-1991.848295
3145.523237,-370.102971,-9622.677246,-2528.115143
3145.523564,-740.205942,-9474.636058,-919.314598
3145.523892,296.082377,-8956.491898,-536.266849
3145.524219,222.061783,-8364.327145,229.828649
3145.524547,-1332.370696,-9178.553681,1225.752797
3145.524874,-1554.432478,-9474.636058,459.657299
3145.525201,-962.267725,-8142.265362,-1225.752797
3145.525529,-518.144159,-8956.491898,-2374.896044
3145.525856,148.041188,-10214.842000,-1225.752797
3145.526184,1702.473667,-10362.883188,-229.828649
3145.526511,2368.659014,-10066.800811,919.314598
3145.526838,2516.700203,-11621.233289,1455.581446
3145.527166,2220.617826,-11621.233289,1378.971896
3145.527493,370.102971,-9844.739029,-536.266849
3145.527821,-1480.411884,-8512.368333,-1532.190996
3145.528148,-2368.659014,-7994.224174,-1838.629195
3145.528476,-2368.659014,-8808.450710,-1532.190996
3145.528803,-2516.700203,-9104.533087,0.000000
3145.529130,-740.205942,-8142.265362,-229.828649
3145.529458,222.061783,-8734.430116,-995.924147
3145.529785,888.247130,-11325.150913,229.828649
3145.530113,2146.597232,-11103.089130,306.438199
3145.530440,1850.514855,-9622.677246,306.438199
3145.530768,1036.288319,-8512.368333,919.314598
3145.531095,888.247130,-10066.800811,612.876398
3145.531422,-222.061783,-10436.903782,689.485948
3145.531750,-148.041188,-9918.759623,612.876398
3145.532077,666.185348,-9474.636058,-383.047749
3145.532405,-740.205942,-9326.594869,-766.095498
3145.532732,-1110.308913,-10288.862594,-842.705048
3145.533059,1184.329507,-9400.615463,-919.314598
3145.533387,1480.411884,-8290.306550,-306.438199
3145.533714,518.144159,-10362.883188,995.924147
3145.534042,222.061783,-9918.759623,995.924147
3145.534369,370.102971,-8660.409521,-919.314598
3145.534697,0.000000,-9548.656652,-1149.143247
3145.535024,740.205942,-10584.944971,-383.047749
3145.535351,1036.288319,-11029.068536,536.266849
3145.535679,444.123565,-11103.089130,0.000000
3145.536006,962.267725,-10066.800811,-842.705048
3145.536334,0.000000,-10214.842000,-1915.238745
3145.536661,-518.144159,-10658.965565,-1532.190996
3145.536989,518.144159,-9696.697840,-1455.581446
3145.537316,1480.411884,-8808.450710,-1762.019645
3145.537643,1036.288319,-8808.450710,153.219100
3145.537971,1702.473667,-9400.615463,2451.505594
3145.538298,2516.700203,-8290.306550,1838.629195
3145.538626,1924.535449,-9474.636058,1149.143247
3145.538953,1406.391290,-10288.862594,536.266849
3145.539281,666.185348,-9622.677246,-689.485948
3145.539608,-518.144159,-9474.636058,-1225.752797
3145.539936,-666.185348,-10066.800811,0.000000
3145.540263,-962.267725,-9474.636058,-612.876398
3145.540591,-2220.617826,-9622.677246,0.000000
3145.540918,-1480.411884,-10214.842000,0.000000
3145.541246,-222.061783,-9770.718434,-1378.971896
3145.541573,-148.041188,-9252.574275,-536.266849
3145.541901,518.144159,-8808.450710,1149.143247
3145.542228,2442.679609,-7402.059420,919.314598
3145.542556,1850.514855,-7254.018232,1685.410096
3145.542883,1110.308913,-8438.347739,2451.505594
3145.543211,0.000000,-9548.656652,1455.581446
3145.543538,518.144159,-9844.739029,-536.266849
3145.543866,370.102971,-10066.800811,-689.485948
3145.544193,-1332.370696,-10658.965565,-689.485948
3145.544521,-2368.659014,-11251.130318,-306.438199
3145.544848,-888.247130,-10955.047942,-2145.067394
3145.545176,0.000000,-10288.862594,-3370.820191
3145.545503,-296.082377,-10658.965565,-2221.676944
3145.545831,-518.144159,-9918.759623,0.000000
3145.546158,1184.329507,-7550.100608,0.000000
3145.546486,1110.308913,-7476.080014,153.219100
3145.546813,444.123565,-10732.986159,1149.143247
3145.547141,888.247130,-10584.944971,2068.457845
3145.547468,888.247130,-9400.615463,459.657299
3145.547796,1628.453072,-10436.903782,-1455.581446
3145.548123,0.000000,-11843.295072,-2068.457845
3145.548451,-1480.411884,-10658.965565,-1072.533697
3145.548778,-518.144159,-9622.677246,-919.314598
3145.549106,1110.308913,-9992.780217,229.828649
3145.549433,1036.288319,-11177.109724,229.828649
3145.549761,518.144159,-11251.130318,-306.438199
3145.550089,0.000000,-8882.471304,-383.047749
3145.550416,-1036.288319,-7328.038826,-1072.533697
3145.550744,-592.164754,-8438.347739,-306.438199
3145.551071,444.123565,-8438.347739,689.485948
3145.551399,1702.473667,-8216.285956,536.266849
3145.551726,3034.844362,-10066.800811,1532.190996
3145.552054,2368.659014,-11325.150913,1762.019645
3145.552381,666.185348,-9400.615463,919.314598
3145.552709,-296.082377,-8660.409521,0.000000
3145.553036,-1110.308913,-10066.800811,-459.657299
3145.553364,-1258.350101,-9770.718434,-1685.410096
3145.553691,-888.247130,-9178.553681,-1762.019645
3145.554019,-740.205942,-8290.306550,-1378.971896
3145.554346,-222.061783,-7402.059420,153.219100
3145.554674,814.226536,-8660.409521,842.705048
3145.555001,1480.411884,-9622.677246,1762.019645
3145.555329,1702.473667,-9622.677246,612.876398
3145.555656,2294.638420,-9104.533087,-612.876398
3145.555984,1406.391290,-9770.718434,0.000000
3145.556311,-666.185348,-9992.780217,612.876398
3145.556639,-740.205942,-9622.677246,1302.362347
3145.556966,592.164754,-10362.883188,-383.047749
3145.557294,148.041188,-11621.233289,-1608.800546
3145.557621,0.000000,-12287.418637,-2145.067394
3145.557949,888.247130,-10658.965565,-2528.115143
3145.558276,1036.288319,-7994.224174,-1685.410096
3145.558604,-814.226536,-8438.347739,153.219100
3145.558931,-1480.411884,-9844.739029,1072.533697
3145.559259,-592.164754,-9696.697840,612.876398
3145.559586,1480.411884,-9548.656652,-1149.143247
3145.559914,1554.432478,-10510.924376,-689.485948
3145.560241,0.000000,-10807.006753,1838.629195
3145.560569,-1702.473667,-11251.130318,2068.457845
3145.560896,-666.185348,-11325.150913,0.000000
3145.561224,0.000000,-10658.965565,-2834.553343
3145.561551,-740.205942,-10362.883188,-3370.820191
3145.561879,-444.123565,-9548.656652,-1838.629195
3145.562206,74.020594,-7698.141797,-383.047749
3145.562534,740.205942,-7698.141797,1302.362347
3145.562861,1036.288319,-8438.347739,2528.115143
3145.563189,1998.556043,-8586.388927,2604.724693
3145.563516,3034.844362,-8216.285956,1532.190996
3145.563844,3034.844362,-9326.594869,1072.533697
3145.564171,740.205942,-9622.677246,1532.190996
3145.564499,-962.267725,-10362.883188,1149.143247
3145.564827,-1184.329507,-10140.821405,-383.047749
3145.565154,-1110.308913,-9622.677246,-1838.629195
3145.565482,-962.267725,-10510.924376,-2528.115143
3145.565809,-444.123565,-11843.295072,-1762.019645
3145.566137,-592.164754,-9178.553681,-1072.533697
3145.566464,0.000000,-7476.080014,-1149.143247
3145.566792,888.247130,-9030.512492,-229.828649
3145.567119,2590.720797,-8364.327145,1225.752797
3145.567447,3775.050304,-7920.203579,2145.067394
3145.567774,3256.906145,-9400.615463,2298.286494
3145.568102,1776.494261,-9474.636058,1072.533697
3145.568429,962.267725,-10510.924376,-306.438199
3145.568757,-222.061783,-11325.150913,-229.828649
3145.569084,-666.185348,-12805.562797,-306.438199
3145.569412,-740.205942,-13249.686362,-1072.533697
3145.569739,-962.267725,-11325.150913,-4213.525239
3145.570067,-1554.432478,-9474.636058,-4673.182538
3145.570394,-1110.308913,-9918.759623,-2911.162892
3145.570722,-888.247130,-8808.450710,76.609550
3145.571049,1406.391290,-8142.265362,1762.019645
3145.571377,2442.679609,-7772.162391,2221.676944
3145.571704,2664.741391,-8956.491898,1455.581446
3145.572032,1776.494261,-9992.780217,2681.334243
3145.572359,814.226536,-9030.512492,689.485948
3145.572687,-592.164754,-9992.780217,-919.314598
3145.573014,-518.144159,-11399.171507,-1685.410096
3145.573342,-740.205942,-10955.047942,-2298.286494
3145.573669,-592.164754,-10955.047942,-1762.019645
3145.573997,148.041188,-10510.924376,-689.485948
3145.574324,-148.041188,-9696.697840,0.000000
3145.574652,-666.185348,-9252.574275,-612.876398
3145.574979,-592.164754,-8290.306550,-459.657299
3145.575307,-148.041188,-6735.874072,153.219100
3145.575634,1258.350101,-6809.894666,919.314598
3145.575962,1554.432478,-8364.327145,2145.067394
3145.576289,1184.329507,-9178.553681,2681.334243
3145.576617,1332.370696,-10214.842000,1378.971896
3145.576944,1258.350101,-11843.295072,-383.047749
3145.577272,0.000000,-11769.274478,-1685.410096
3145.577599,-518.144159,-11917.315666,-2834.553343
3145.577927,-1258.350101,-12065.356855,-2298.286494
3145.578254,-1332.370696,-9548.656652,-1762.019645
3145.578582,-296.082377,-9178.553681,-1302.362347
3145.578909,0.000000,-9400.615463,-459.657299
3145.579237,666.185348,-8216.285956,229.828649
3145.579564,1628.453072,-8068.244768,229.828649
3145.579892,1776.494261,-9030.512492,1072.533697
3145.580220,518.144159,-9474.636058,1149.143247
3145.580547,-444.123565,-8956.491898,383.047749
3145.580875,-814.226536,-9030.512492,229.828649
3145.581202,-444.123565,-11547.212695,-459.657299
3145.581530,296.082377,-11843.295072,-2528.115143
3145.581857,-296.082377,-11769.274478,-995.924147
3145.582185,-222.061783,-10510.924376,-306.438199
3145.582512,0.000000,-9696.697840,-459.657299
3145.582840,1110.308913,-9548.656652,-306.438199
3145.583167,666.185348,-7179.997637,1378.971896
3145.583495,0.000000,-7105.977043,995.924147
3145.583822,0.000000,-7846.182985,1225.752797
3145.584150,-888.247130,-8364.327145,1455.581446
3145.584477,0.000000,-8290.306550,153.219100
3145.584805,1702.473667,-9844.739029,-383.047749
3145.585132,962.267725,-12065.356855,766.095498
3145.585460,222.061783,-13249.686362,383.047749
3145.585787,1110.308913,-11325.150913,-1455.581446
3145.586115,-148.041188,-9548.656652,-2145.067394
3145.586442,-1776.494261,-9474.636058,-1685.410096
3145.586770,-370.102971,-9474.636058,-1225.752797
3145.587097,518.144159,-8068.244768,0.000000
3145.587425,888.247130,-7476.080014,383.047749
3145.587752,1776.494261,-9030.512492,919.314598
3145.588080,1998.556043,-9326.594869,1455.581446
3145.588407,1480.411884,-9178.553681,1378.971896
3145.588735,1036.288319,-10140.821405,0.000000
3145.589062,962.267725,-11399.171507,-919.314598
3145.589390,222.061783,-11991.336260,-1378.971896
3145.589717,518.144159,-12953.603985,-1762.019645
3145.590045,370.102971,-11177.109724,-842.705048
3145.590372,-296.082377,-9622.677246,0.000000
3145.590700,-370.102971,-9400.615463,-689.485948
3145.591027,222.061783,-9770.718434,-1302.362347
3145.591355,370.102971,-8808.450710,-919.314598
3145.591682,1332.370696,-7772.162391,76.609550
3145.592010,1702.473667,-7179.997637,1532.190996
3145.592337,888.247130,-6661.853478,2298.286494
3145.592665,0.000000,-8068.244768,1455.581446
3145.592992,-888.247130,-10436.903782,919.314598
3145.593320,444.123565,-12435.459826,-1072.533697
3145.593647,2072.576638,-12435.459826,-1838.629195
3145.593975,1332.370696,-11177.109724,-766.095498
3145.594302,-740.205942,-9918.759623,919.314598
3145.594630,-370.102971,-10362.883188,0.000000
3145.594957,-814.226536,-8438.347739,-995.924147
3145.595285,-1480.411884,-7328.038826,-1072.533697
3145.595613,-2072.576638,-7920.203579,-919.314598
3145.595940,-2294.638420,-7105.977043,-229.828649
3145.596268,-1036.288319,-7402.059420,229.828649
3145.596595,888.247130,-9474.636058,612.876398
3145.596923,1776.494261,-11473.192101,1378.971896
3145.597250,1850.514855,-11325.150913,995.924147
3145.597578,2220.617826,-11251.130318,-1532.190996
3145.597905,1998.556043,-12731.542202,-2221.676944
3145.598233,-296.082377,-11029.068536,-1685.410096
3145.598560,-740.205942,-10140.821405,-842.705048
3145.598888,-296.082377,-10140.821405,-459.657299
3145.599215,592.164754,-9548.656652,-536.266849
3145.599543,74.020594,-10140.821405,-383.047749
3145.599870,0.000000,-10288.862594,-536.266849
3145.600198,-814.226536,-8438.347739,-536.266849
3145.600525,0.000000,-8068.244768,-995.924147
3145.600853,296.082377,-9252.574275,76.609550
3145.601180,0.000000,-10066.800811,1302.362347
3145.601508,962.267725,-9844.739029,383.047749
3145.601835,1776.494261,-10066.800811,-306.438199
3145.602163,1776.494261,-11103.089130,0.000000
3145.602490,370.102971,-11177.109724,-306.438199
3145.602818,-296.082377,-10732.986159,-689.485948
3145.603145,148.041188,-8956.491898,-1838.629195
3145.603473,148.041188,-9104.533087,-1838.629195
3145.603800,74.020594,-9326.594869,-306.438199
3145.604128,-666.185348,-6883.915261,1072.533697
3145.604455,370.102971,-6661.853478,1072.533697
3145.604783,1110.308913,-8438.347739,766.095498
3145.605110,148.041188,-9548.656652,1608.800546
3145.605438,222.061783,-9252.574275,689.485948
3145.605765,518.144159,-9252.574275,-612.876398
3145.606093,0.000000,-10066.800811,-689.485948
3145.606420,-296.082377,-9548.656652,536.266849
3145.606748,296.082377,-10362.883188,-459.657299
3145.607075,592.164754,-10881.027347,0.000000
3145.607403,1184.329507,-9770.718434,-1685.410096
3145.607730,1332.370696,-11473.192101,-995.924147
3145.608058,370.102971,-10140.821405,306.438199
3145.608385,-1480.411884,-6513.812290,1225.752797
3145.608713,74.020594,-8586.388927,0.000000
3145.609040,-1554.432478,-10510.924376,0.000000
3145.609368,-1110.308913,-9696.697840,-766.095498
3145.609695,370.102971,-8956.491898,-1225.752797
3145.610023,444.123565,-11547.212695,76.609550
3145.610350,-296.082377,-11917.315666,842.705048
3145.610678,-148.041188,-10955.047942,-995.924147
3145.611006,370.102971,-9770.718434,-2221.676944
3145.611333,814.226536,-10584.944971,-2221.676944
3145.611661,0.000000,-10066.800811,-1762.019645
3145.611988,0.000000,-9400.615463,0.000000
3145.612316,-370.102971,-7920.203579,1302.362347
3145.612643,888.247130,-7994.224174,766.095498
3145.612971,1332.370696,-9622.677246,1762.019645
3145.613298,1702.473667,-10732.986159,1991.848295
3145.613626,1406.391290,-9992.780217,76.609550
3145.613953,0.000000,-9400.615463,-689.485948
3145.614281,-1332.370696,-8808.450710,-536.266849
3145.614608,-1110.308913,-9104.533087,-1608.800546
3145.614936,0.000000,-9844.739029,-842.705048
3145.615263,0.000000,-9252.574275,536.266849
3145.615591,666.185348,-8808.450710,-306.438199
3145.615918,1628.453072,-10214.842000,-229.828649
3145.616246,1110.308913,-9548.656652,76.609550
3145.616573,666.185348,-7772.162391,-229.828649
3145.616901,1110.308913,-8290.306550,306.438199
3145.617228,1258.350101,-9474.636058,1532.190996
3145.617556,1702.473667,-8586.388927,0.000000
3145.617883,296.082377,-9178.553681,0.000000
3145.618211,-1776.494261,-9844.739029,842.705048
3145.618538,0.000000,-11251.130318,-689.485948
3145.618866,518.144159,-12139.377449,-1915.238745
3145.619193,0.000000,-11325.150913,-766.095498
3145.619521,888.247130,-9622.677246,-766.095498
3145.619848,2072.576638,-10732.986159,-1072.533697
3145.620176,888.247130,-10066.800811,612.876398
3145.620503,-148.041188,-7920.203579,1072.533697
3145.620831,-296.082377,-7476.080014,0.000000
3145.621158,-1036.288319,-9696.697840,0.000000
3145.621486,-148.041188,-11251.130318,-459.657299
3145.621813,0.000000,-10881.027347,-995.924147
3145.622141,-592.164754,-10732.986159,-229.828649
3145.622468,-296.082377,-9548.656652,0.000000
3145.622796,888.247130,-9696.697840,-1991.848295
3145.623123,370.102971,-10584.944971,0.000000
3145.623451,1184.329507,-9474.636058,229.828649
3145.623778,1554.432478,-8512.368333,0.000000
3145.624106,222.061783,-8734.430116,1149.143247
3145.624433,-518.144159,-8882.471304,536.266849
3145.624761,0.000000,-9178.553681,229.828649
3145.625088,666.185348,-10214.842000,459.657299
3145.625416,444.123565,-10510.924376,-766.095498
3145.625743,1110.308913,-9474.636058,-1302.362347
3145.626071,370.102971,-8808.450710,0.000000
3145.626399,74.020594,-9252.574275,612.876398
3145.626726,0.000000,-9622.677246,-306.438199
3145.627054,0.000000,-10288.862594,-459.657299
3145.627381,-222.061783,-8586.388927,459.657299
3145.627709,1110.308913,-8956.491898,-1532.190996
3145.628036,0.000000,-9622.677246,-306.438199
3145.628364,-592.164754,-10362.883188,459.657299
3145.628691,1406.391290,-11177.109724,-766.095498
3145.629019,1776.494261,-11103.089130,-1378.971896
3145.629346,888.247130,-10807.006753,-306.438199
3145.629674,888.247130,-9474.636058,-1149.143247
3145.630001,296.082377,-10807.006753,-383.047749
3145.630329,-1480.411884,-10066.800811,459.657299
3145.630656,-518.144159,-9252.574275,-459.657299
3145.630984,-740.205942,-8882.471304,-229.828649
3145.631311,-740.205942,-9178.553681,536.266849
3145.631639,-222.061783,-9400.615463,153.219100
3145.631966,0.000000,-9178.553681,-766.095498
3145.632294,0.000000,-9548.656652,-153.219100
3145.632621,518.144159,-9992.780217,-842.705048
3145.632949,1628.453072,-9622.677246,-766.095498
3145.633276,1406.391290,-9992.780217,153.219100
3145.633604,1258.350101,-10584.944971,229.828649
3145.633931,-296.082377,-10066.800811,0.000000
3145.634259,-1628.453072,-9030.512492,0.000000
3145.634586,-1184.329507,-8734.430116,-612.876398
3145.634914,740.205942,-9400.615463,-383.047749
3145.635241,962.267725,-8438.347739,689.485948
3145.635569,888.247130,-9474.636058,1302.362347
3145.635896,666.185348,-10288.862594,1149.143247
3145.636224,518.144159,-9178.553681,153.219100
3145.636551,-814.226536,-8808.450710,-842.705048
3145.636879,-444.123565,-8882.471304,-1838.629195
3145.637206,-296.082377,-9252.574275,-1455.581446
3145.637534,1406.391290,-10658.965565,-383.047749
3145.637861,2590.720797,-10362.883188,0.000000
3145.638189,2072.576638,-10807.006753,1685.410096
3145.638516,1554.432478,-10066.800811,1608.800546
3145.638844,2072.576638,-11177.109724,0.000000
3145.639171,222.061783,-10066.800811,0.000000
3145.639499,148.041188,-8734.430116,-1532.190996
3145.639826,0.000000,-9252.574275,-1532.190996
3145.640154,-592.164754,-9548.656652,459.657299
3145.640482,-888.247130,-8290.306550,459.657299
3145.640809,444.123565,-8586.388927,-536.266849
3145.641137,740.205942,-11029.068536,-306.438199
3145.641465,1480.411884,-11473.192101,-1532.190996
3145.641793,1702.473667,-10214.842000,-1072.533697
3145.642120,1258.350101,-9178.553681,153.219100
3145.642448,1406.391290,-8882.471304,919.314598
3145.642776,1258.350101,-8808.450710,536.266849
3145.643103,0.000000,-8956.491898,612.876398
3145.643431,-888.247130,-9770.718434,-689.485948
3145.643759,74.020594,-10732.986159,-1072.533697
3145.644087,-148.041188,-10214.842000,-689.485948
3145.644414,-222.061783,-8808.450710,0.000000
3145.644742,518.144159,-8438.347739,0.000000
3145.645070,740.205942,-10214.842000,306.438199
3145.645397,1554.432478,-10066.800811,-383.047749
3145.645725,888.247130,-8882.471304,-1225.752797
3145.646053,-518.144159,-8586.388927,229.828649
3145.646381,-1184.329507,-8364.327145,1072.533697
3145.646708,-592.164754,-9474.636058,536.266849
3145.647036,-1258.350101,-10436.903782,536.266849
3145.647364,-1036.288319,-10288.862594,-229.828649
3145.647691,0.000000,-9400.615463,-1608.800546
3145.648019,-222.061783,-9844.739029,-1072.533697
3145.648347,-222.061783,-9474.636058,-153.219100
3145.648674,370.102971,-9770.718434,-383.047749
3145.649002,444.123565,-9770.718434,0.000000
3145.649330,1776.494261,-10955.047942,229.828649
3145.649658,1776.494261,-11399.171507,0.000000
3145.649985,888.247130,-9918.759623,459.657299
3145.650313,-518.144159,-8882.471304,76.609550
3145.650641,-148.041188,-9104.533087,-1455.581446
3145.650968,296.082377,-9474.636058,-1685.410096
3145.651296,-370.102971,-8808.450710,306.438199
3145.651624,444.123565,-9548.656652,689.485948
3145.651952,962.267725,-10584.944971,-153.219100
3145.652279,-518.144159,-9400.615463,995.924147
3145.652607,-814.226536,-9030.512492,0.000000
3145.652935,-148.041188,-10214.842000,-612.876398
3145.653262,222.061783,-11621.233289,-689.485948
3145.653590,1776.494261,-10732.986159,-1532.190996
3145.653918,1776.494261,-9918.759623,-1378.971896
3145.654246,1406.391290,-9474.636058,0.000000
3145.654573,1258.350101,-8882.471304,306.438199
3145.654901,962.267725,-9252.574275,229.828649
3145.655229,-148.041188,-8364.327145,842.705048
3145.655556,-370.102971,-8586.388927,-306.438199
3145.655884,-518.144159,-9030.512492,-766.095498
3145.656212,-1184.329507,-9252.574275,0.000000
3145.656540,-1258.350101,-9326.594869,459.657299
3145.656867,-222.061783,-9474.636058,306.438199
3145.657195,962.267725,-10955.047942,-1532.190996
3145.657523,1850.514855,-10510.924376,-1608.800546
3145.657850,1480.411884,-9992.780217,-1302.362347
3145.658178,1628.453072,-9104.533087,76.609550
3145.658506,518.144159,-9252.574275,1302.362347
3145.658834,-1110.308913,-10066.800811,1455.581446
3145.659161,-2220.617826,-9474.636058,0.000000
3145.659489,-1406.391290,-9474.636058,-1685.410096
3145.659817,74.020594,-9622.677246,-2221.676944
3145.660144,-222.061783,-10214.842000,76.609550
3145.660472,222.061783,-10066.800811,2145.067394
3145.660800,1406.391290,-10436.903782,1455.581446
3145.661128,1480.411884,-10658.965565,0.000000
3145.661455,592.164754,-10584.944971,-1608.800546
3145.661783,-666.185348,-8660.409521,-1762.019645
3145.662111,-814.226536,-7254.018232,-1225.752797
3145.662438,-666.185348,-8438.347739,-612.876398
3145.662766,222.061783,-10510.924376,0.000000
3145.663094,1406.391290,-11177.109724,1685.410096
3145.663422,2368.659014,-10214.842000,1225.752797
3145.663749,2886.803174,-10955.047942,0.000000
3145.664077,518.144159,-11103.089130,536.266849
3145.664405,-962.267725,-8438.347739,0.000000
3145.664732,-888.247130,-8438.347739,-766.095498
3145.665060,-518.144159,-9400.615463,0.000000
3145.665388,222.061783,-9178.553681,229.828649
3145.665716,74.020594,-9104.533087,383.047749
3145.666043,370.102971,-9400.615463,0.000000
3145.666371,592.164754,-10362.883188,-1225.752797
3145.666699,888.247130,-11177.109724,-2374.896044
3145.667026,592.164754,-9400.615463,0.000000
3145.667354,1924.535449,-8216.285956,842.705048
3145.667682,2368.659014,-8586.388927,1072.533697
3145.668010,222.061783,-9992.780217,2145.067394
3145.668337,-1554.432478,-9918.759623,1608.800546
3145.668665,-740.205942,-9992.780217,76.609550
3145.668993,296.082377,-11399.171507,-1762.019645
3145.669320,370.102971,-11473.192101,-995.924147
3145.669648,444.123565,-9326.594869,-1455.581446
3145.669976,1036.288319,-8660.409521,-1455.581446
3145.670304,1184.329507,-9178.553681,-919.314598
3145.670631,666.185348,-9548.656652,-306.438199
3145.670959,296.082377,-8438.347739,919.314598
3145.671287,740.205942,-7031.956449,1455.581446
3145.671614,1184.329507,-9474.636058,229.828649
3145.671942,-296.082377,-11325.150913,995.924147
3145.672270,-2294.638420,-11399.171507,2068.457845
3145.672598,-592.164754,-9992.780217,-1149.143247
3145.672925,296.082377,-10140.821405,-2528.115143
3145.673253,-444.123565,-9918.759623,-1608.800546
3145.673581,148.041188,-9622.677246,-1838.629195
3145.673908,1184.329507,-9474.636058,-1378.971896
3145.674236,1184.329507,-9548.656652,0.000000
3145.674564,888.247130,-10584.944971,0.000000
3145.674892,148.041188,-10955.047942,383.047749
3145.675219,444.123565,-8586.388927,-153.219100
3145.675547,1406.391290,-8586.388927,-689.485948
3145.675875,1184.329507,-10955.047942,-153.219100
3145.676202,222.061783,-9326.594869,1685.410096
3145.676530,296.082377,-7846.182985,1225.752797
3145.676858,0.000000,-9178.553681,229.828649
3145.677186,-518.144159,-11473.192101,0.000000
3145.677513,-666.185348,-9992.780217,-1532.190996
3145.677841,-740.205942,-9918.759623,-2451.505594
3145.678169,-1406.391290,-10140.821405,-2374.896044
3145.678496,0.000000,-9770.718434,-1608.800546
3145.678824,1258.350101,-9844.739029,-1149.143247
3145.679152,1480.411884,-9622.677246,766.095498
3145.679479,2072.576638,-9548.656652,1072.533697
3145.679807,2368.659014,-9696.697840,536.266849
3145.680135,518.144159,-9474.636058,1455.581446
3145.680463,-444.123565,-7772.162391,766.095498
3145.680790,-888.247130,-8216.285956,-153.219100
3145.681118,-1850.514855,-10140.821405,383.047749
3145.681446,-1480.411884,-10362.883188,-995.924147
3145.681773,-222.061783,-9770.718434,-2604.724693
3145.682101,-814.226536,-10140.821405,-1302.362347
3145.682429,222.061783,-9622.677246,-919.314598
3145.682757,2220.617826,-10140.821405,-766.095498
3145.683084,2368.659014,-9918.759623,383.047749
3145.683412,1998.556043,-8586.388927,1915.238745
3145.683740,962.267725,-8068.244768,689.485948
3145.684067,-1850.514855,-10288.862594,766.095498
3145.684395,-2516.700203,-10140.821405,689.485948
3145.684723,-296.082377,-8068.244768,-1838.629195
3145.685051,370.102971,-10881.027347,-1149.143247
3145.685378,0.000000,-12731.542202,0.000000
3145.685706,1036.288319,-11399.171507,-383.047749
3145.686034,962.267725,-9622.677246,-1149.143247
3145.686361,0.000000,-9474.636058,-1532.190996
3145.686689,666.185348,-9178.553681,-2374.896044
3145.687017,0.000000,-7994.224174,-229.828649
3145.687345,444.123565,-7105.977043,842.705048
3145.687672,2294.638420,-8586.388927,536.266849
3145.688000,1184.329507,-10214.842000,2298.286494
3145.688328,222.061783,-10436.903782,3064.381992
3145.688655,1480.411884,-9252.574275,0.000000
3145.688983,962.267725,-10658.965565,-2221.676944
3145.689311,-444.123565,-11621.233289,-1455.581446
3145.689639,296.082377,-11103.089130,-2451.505594
3145.689966,-666.185348,-9918.759623,-766.095498
3145.690294,-296.082377,-8438.347739,536.266849
3145.690622,740.205942,-7994.224174,-306.438199
3145.690949,518.144159,-9696.697840,459.657299
3145.691277,444.123565,-9696.697840,919.314598
3145.691605,2072.576638,-8512.368333,153.219100
3145.691933,1554.432478,-8586.388927,0.000000
3145.692260,-370.102971,-8660.409521,2068.457845
3145.692588,296.082377,-6661.853478,689.485948
3145.692916,0.000000,-9474.636058,0.000000
3145.693243,-814.226536,-13397.727550,76.609550
3145.693571,666.185348,-13323.706956,-2068.457845
3145.693899,814.226536,-11547.212695,-1915.238745
3145.694227,-444.123565,-10510.924376,0.000000
3145.694554,0.000000,-8882.471304,-766.095498
3145.694882,444.123565,-8956.491898,-1225.752797
3145.695210,518.144159,-9326.594869,-459.657299
3145.695537,1480.411884,-7920.203579,-536.266849
3145.695865,444.123565,-7994.224174,536.266849
3145.696193,-666.185348,-8364.327145,2681.334243
3145.696521,-370.102971,-8586.388927,1838.629195
3145.696848,0.000000,-10214.842000,-766.095498
3145.697176,-1406.391290,-12435.459826,459.657299
3145.697504,0.000000,-12139.377449,-612.876398
3145.697831,444.123565,-10807.006753,-2528.115143
3145.698159,-592.164754,-11251.130318,-995.924147
3145.698487,-1258.350101,-9178.553681,-612.876398
3145.698815,-814.226536,-8290.306550,306.438199
3145.699142,-1110.308913,-8734.430116,229.828649
3145.699470,666.185348,-9252.574275,-459.657299
3145.699798,1332.370696,-8956.491898,-536.266849
3145.700125,0.000000,-9252.574275,919.314598
3145.700453,74.020594,-8956.491898,1225.752797
3145.700781,1184.329507,-9474.636058,-689.485948
3145.701109,592.164754,-10510.924376,689.485948
3145.701436,1776.494261,-10658.965565,153.219100
3145.701764,2738.761985,-9548.656652,-919.314598
3145.702092,814.226536,-9992.780217,536.266849
3145.702419,74.020594,-9104.533087,689.485948
3145.702747,0.000000,-8956.491898,-766.095498
3145.703075,-518.144159,-9918.759623,-612.876398
3145.703403,222.061783,-9548.656652,-995.924147
3145.703730,1406.391290,-9474.636058,-1991.848295
3145.704058,666.185348,-9918.759623,-612.876398
3145.704386,1110.308913,-8882.471304,536.266849
3145.704713,3108.864956,-9400.615463,0.000000
3145.705041,2886.803174,-11177.109724,1149.143247
3145.705369,1924.535449,-10732.986159,2068.457845
3145.705697,3182.885551,-9548.656652,-842.705048
3145.706024,814.226536,-9474.636058,-1455.581446
3145.706352,-1184.329507,-9696.697840,-306.438199
3145.706680,-444.123565,-8438.347739,-1378.971896
3145.707007,-222.061783,-9622.677246,-612.876398
3145.707335,0.000000,-9918.759623,153.219100
3145.707663,1776.494261,-9030.512492,-2221.676944
3145.707991,1036.288319,-9992.780217,-1149.143247
3145.708318,666.185348,-10658.965565,995.924147
3145.708646,1998.556043,-9400.615463,-383.047749
3145.708974,888.247130,-10140.821405,612.876398
3145.709301,-888.247130,-10362.883188,2374.896044
3145.709629,-592.164754,-9104.533087,-153.219100
3145.709957,-1628.453072,-10214.842000,-689.485948
3145.710284,-1924.535449,-10881.027347,-995.924147
3145.710612,-814.226536,-9178.553681,-1915.238745
3145.710940,-1258.350101,-9548.656652,-995.924147
3145.711268,-1332.370696,-10881.027347,689.485948
3145.711595,814.226536,-10066.800811,-383.047749
3145.711923,666.185348,-8438.347739,-1532.190996
3145.712251,-1406.391290,-8438.347739,689.485948
3145.712578,-518.144159,-8068.244768,689.485948
3145.712906,222.061783,-9030.512492,229.828649
3145.713234,-1184.329507,-10140.821405,1915.238745
3145.713562,592.164754,-9770.718434,-306.438199
3145.713889,666.185348,-10140.821405,-459.657299
3145.714217,-444.123565,-10584.944971,1532.190996
3145.714545,-1258.350101,-9474.636058,-229.828649
3145.714872,-1480.411884,-9696.697840,-1455.581446
3145.715200,-2368.659014,-9844.739029,-995.924147
3145.715528,-592.164754,-9474.636058,-2451.505594
3145.715856,0.000000,-8882.471304,-766.095498
3145.716183,-888.247130,-8068.244768,1762.019645
3145.716511,1110.308913,-8586.388927,1149.143247
3145.716839,2368.659014,-10732.986159,229.828649
3145.717166,1480.411884,-11177.109724,766.095498
3145.717494,1998.556043,-9400.615463,-153.219100
3145.717822,1258.350101,-9104.533087,-1072.533697
3145.718150,666.185348,-10510.924376,0.000000
3145.718477,740.205942,-9548.656652,229.828649
3145.718805,518.144159,-8808.450710,-689.485948
3145.719133,-1480.411884,-11029.068536,0.000000
3145.719460,-370.102971,-11251.130318,-612.876398
3145.719788,2220.617826,-8956.491898,-2834.553343
3145.720116,1554.432478,-9474.636058,459.657299
3145.720444,1184.329507,-9178.553681,1915.238745
3145.720771,2368.659014,-9474.636058,766.095498
3145.721099,2886.803174,-9992.780217,536.266849
3145.721427,1998.556043,-8290.306550,-306.438199
3145.721754,1480.411884,-8142.265362,-919.314598
3145.722082,-888.247130,-9474.636058,536.266849
3145.722410,-1184.329507,-9992.780217,306.438199
3145.722738,296.082377,-10140.821405,-2068.457845
3145.723065,-296.082377,-11251.130318,-1225.752797
3145.723393,0.000000,-10881.027347,0.000000
3145.723721,1406.391290,-9326.594869,-1225.752797
3145.724048,1406.391290,-9474.636058,76.609550
3145.724376,518.144159,-8882.471304,1685.410096
3145.724704,1258.350101,-7994.224174,0.000000
3145.725032,814.226536,-9178.553681,612.876398
3145.725359,888.247130,-9548.656652,919.314598
3145.725687,1258.350101,-9548.656652,0.000000
3145.726015,-222.061783,-10510.924376,-306.438199
3145.726342,-814.226536,-9918.759623,-383.047749
3145.726670,814.226536,-10658.965565,-2221.676944
3145.726998,222.061783,-10214.842000,-1378.971896
3145.727326,222.061783,-10732.986159,536.266849
3145.727653,814.226536,-9844.739029,0.000000
3145.727981,0.000000,-10214.842000,612.876398
3145.728309,-1332.370696,-9104.533087,1072.533697
3145.728636,-666.185348,-8660.409521,-459.657299
3145.728964,-370.102971,-9252.574275,-919.314598
3145.729292,444.123565,-10436.903782,-153.219100
3145.729620,1850.514855,-10881.027347,-1072.533697
3145.729947,814.226536,-11251.130318,-153.219100
3145.730275,222.061783,-10584.944971,1072.533697
3145.730603,814.226536,-8586.388927,-612.876398
3145.730930,-148.041188,-9252.574275,-306.438199
3145.731258,-1628.453072,-9400.615463,1685.410096
3145.731586,-814.226536,-8882.471304,306.438199
3145.731914,-370.102971,-8660.409521,0.000000
3145.732241,-1554.432478,-8512.368333,766.095498
3145.732569,-1110.308913,-8290.306550,306.438199
3145.732897,0.000000,-8956.491898,-689.485948
3145.733224,962.267725,-9622.677246,766.095498
3145.733552,1406.391290,-10140.821405,-1302.362347
3145.733880,1036.288319,-9992.780217,-1149.143247
3145.734208,-222.061783,-9326.594869,612.876398
3145.734535,-222.061783,-9474.636058,919.314598
3145.734863,-518.144159,-10214.842000,-153.219100
3145.735191,-1554.432478,-11177.109724,-536.266849
3145.735518,-666.185348,-9030.512492,-1072.533697
3145.735846,814.226536,-9918.759623,-2374.896044
3145.736174,-592.164754,-10362.883188,995.924147
3145.736502,0.000000,-8956.491898,919.314598
3145.736829,148.041188,-8512.368333,-536.266849
3145.737157,592.164754,-10362.883188,-1608.800546
3145.737485,1332.370696,-11251.130318,-2068.457845
3145.737812,666.185348,-10807.006753,-1685.410096
3145.738140,-296.082377,-9400.615463,153.219100
3145.738468,592.164754,-8438.347739,-153.219100
3145.738795,1554.432478,-9696.697840,-383.047749
3145.739123,888.247130,-11621.233289,1608.800546
3145.739451,2146.597232,-11177.109724,842.705048
3145.739778,2442.679609,-10807.006753,-1072.533697
3145.740106,444.123565,-10214.842000,229.828649
3145.740434,0.000000,-8142.265362,153.219100
3145.740761,-666.185348,-7105.977043,-995.924147
3145.741089,-1184.329507,-9030.512492,459.657299
3145.741417,1110.308913,-9770.718434,-306.438199
3145.741744,2220.617826,-10732.986159,-995.924147
3145.742072,1184.329507,-10881.027347,919.314598
3145.742400,1702.473667,-8068.244768,919.314598
3145.742727,2442.679609,-7846.182985,-459.657299
3145.743055,1258.350101,-10362.883188,1149.143247
3145.743382,444.123565,-9178.553681,1378.971896
3145.743710,1406.391290,-7031.956449,-229.828649
3145.744038,-222.061783,-9326.594869,0.000000
3145.744365,-1850.514855,-11029.068536,612.876398
3145.744693,-296.082377,-9474.636058,-1302.362347
3145.745021,740.205942,-9992.780217,-383.047749
3145.745348,1998.556043,-10807.006753,-153.219100
3145.745676,2442.679609,-10362.883188,-1378.971896
3145.746004,1628.453072,-10436.903782,-229.828649
3145.746331,1406.391290,-8660.409521,689.485948
3145.746659,962.267725,-7698.141797,-612.876398
3145.746987,-962.267725,-9104.533087,612.876398
3145.747314,-2220.617826,-9252.574275,1378.971896
3145.747642,296.082377,-10732.986159,-689.485948
3145.747969,-222.061783,-11547.212695,-1302.362347
3145.748297,-2072.576638,-10658.965565,-383.047749
3145.748625,-740.205942,-9400.615463,-1532.190996
3145.748952,0.000000,-10288.862594,-1378.971896
3145.749280,518.144159,-11621.233289,-766.095498
3145.749608,1332.370696,-10362.883188,-1225.752797
3145.749935,444.123565,-9992.780217,-306.438199
3145.750263,-444.123565,-9474.636058,1455.581446
3145.750591,-148.041188,-7846.182985,-153.219100
3145.750918,-814.226536,-9622.677246,0.000000
3145.751246,-2072.576638,-10140.821405,459.657299
3145.751574,0.000000,-9992.780217,-1762.019645
3145.751901,-148.041188,-8808.450710,-1762.019645
3145.752229,-1850.514855,-7624.121203,153.219100
3145.752556,-1036.288319,-8882.471304,689.485948
3145.752884,-444.123565,-9844.739029,229.828649
3145.753212,0.000000,-11843.295072,0.000000
3145.753539,1184.329507,-11325.150913,-919.314598
3145.753867,1332.370696,-9548.656652,-1532.190996
3145.754195,370.102971,-8956.491898,0.000000
3145.754522,1406.391290,-9400.615463,459.657299
3145.754850,1184.329507,-9844.739029,0.000000
3145.755178,148.041188,-9622.677246,766.095498
3145.755505,1110.308913,-8808.450710,-612.876398
3145.755833,666.185348,-9770.718434,-766.095498
3145.756161,-1036.288319,-10066.800811,1378.971896
3145.756488,-962.267725,-7846.182985,0.000000
3145.756816,0.000000,-9400.615463,-1762.019645
3145.757144,370.102971,-10881.027347,-612.876398
3145.757471,1628.453072,-10066.800811,-1302.362347
3145.757799,2220.617826,-10658.965565,-919.314598
3145.758126,1480.411884,-10214.842000,612.876398
3145.758454,1850.514855,-8364.327145,0.000000
3145.758782,1850.514855,-9326.594869,-536.266849
3145.759109,-222.061783,-10288.862594,766.095498
3145.759437,666.185348,-10362.883188,383.047749
3145.759765,1406.391290,-9844.739029,-995.924147
3145.760092,-444.123565,-10066.800811,383.047749
3145.760420,-1406.391290,-8364.327145,842.705048
3145.760748,518.144159,-9104.533087,-612.876398
3145.761075,-740.205942,-9696.697840,1225.752797
3145.761403,296.082377,-10066.800811,0.000000
3145.761731,-444.123565,-9030.512492,-1915.238745
3145.762058,-1258.350101,-9474.636058,-1302.362347
3145.762386,0.000000,-8364.327145,-1608.800546
3145.762713,1628.453072,-9400.615463,-2068.457845
3145.763041,-370.102971,-11399.171507,1072.533697
3145.763369,1332.370696,-10807.006753,1378.971896
3145.763696,2368.659014,-9622.677246,-766.095498
3145.764024,74.020594,-10807.006753,612.876398
3145.764352,-814.226536,-9992.780217,1225.752797
3145.764679,-222.061783,-7920.203579,-383.047749
3145.765007,-962.267725,-9252.574275,0.000000
3145.765335,-444.123565,-9992.780217,612.876398
3145.765662,0.000000,-8808.450710,-536.266849
3145.765990,-370.102971,-8956.491898,919.314598
3145.766318,-148.041188,-8882.471304,-153.219100
3145.766645,592.164754,-9992.780217,-1915.238745
3145.766973,-222.061783,-10436.903782,-1149.143247
3145.767300,74.020594,-9326.594869,-306.438199
3145.767628,1184.329507,-9474.636058,-536.266849
3145.767956,814.226536,-10807.006753,383.047749
3145.768283,-370.102971,-9992.780217,2451.505594
3145.768611,370.102971,-9696.697840,536.266849
3145.768939,74.020594,-11251.130318,-766.095498
3145.769266,444.123565,-11177.109724,-536.266849
3145.769594,1554.432478,-9252.574275,-1685.410096
3145.769922,592.164754,-9252.574275,229.828649
3145.770249,296.082377,-8734.430116,1915.238745
3145.770577,222.061783,-5403.503377,612.876398
3145.770905,-1110.308913,-8660.409521,-383.047749
3145.771232,-1332.370696,-10732.986159,306.438199
3145.771560,1480.411884,-9770.718434,-919.314598
3145.771888,1924.535449,-11029.068536,0.000000
3145.772215,444.123565,-11325.150913,2681.334243
3145.772543,814.226536,-10362.883188,76.609550
3145.772870,222.061783,-9770.718434,-1302.362347
3145.773198,-666.185348,-10140.821405,-766.095498
3145.773526,-814.226536,-8882.471304,-1532.190996
3145.773853,-888.247130,-8290.306550,-1762.019645
3145.774181,-666.185348,-9326.594869,229.828649
3145.774509,1554.432478,-9104.533087,-383.047749
3145.774836,1184.329507,-10140.821405,-689.485948
3145.775164,74.020594,-11695.253884,1608.800546
3145.775492,2294.638420,-9104.533087,-459.657299
3145.775819,2368.659014,-8956.491898,-2451.505594
3145.776147,0.000000,-10288.862594,612.876398
3145.776475,518.144159,-8068.244768,1378.971896
3145.776802,1480.411884,-9474.636058,842.705048
3145.777130,222.061783,-12731.542202,1762.019645
3145.777457,814.226536,-11991.336260,-766.095498
3145.777785,592.164754,-10955.047942,-2987.772442
3145.778113,-1036.288319,-11473.192101,-2604.724693
3145.778440,-370.102971,-10362.883188,-2834.553343
3145.778768,814.226536,-9474.636058,-2834.553343
3145.779096,0.000000,-8586.388927,842.705048
3145.779423,1702.473667,-9252.574275,1838.629195
3145.779751,2590.720797,-9622.677246,1455.581446
3145.780079,888.247130,-9474.636058,2145.067394
3145.780406,0.000000,-8068.244768,1455.581446
3145.780734,0.000000,-8290.306550,-689.485948
3145.781062,-1184.329507,-11103.089130,0.000000
3145.781389,-1036.288319,-9844.739029,383.047749
3145.781717,592.164754,-9030.512492,-919.314598
3145.782044,-888.247130,-11325.150913,-995.924147
3145.782372,-370.102971,-11029.068536,-612.876398
3145.782700,1184.329507,-9326.594869,-1762.019645
3145.783027,148.041188,-9770.718434,0.000000
3145.783355,0.000000,-8808.450710,1149.143247
3145.783683,592.164754,-7402.059420,306.438199
3145.784010,-1184.329507,-8364.327145,1915.238745
3145.784338,-962.267725,-8586.388927,2374.896044
3145.784666,0.000000,-7550.100608,229.828649
3145.784993,-592.164754,-9326.594869,612.876398
3145.785321,-666.185348,-10881.027347,842.705048
3145.785649,592.164754,-10362.883188,-1378.971896
3145.785976,-962.267725,-10214.842000,-612.876398
3145.786304,-1480.411884,-10214.842000,0.000000
3145.786631,-666.185348,-10066.800811,-2451.505594
3145.786959,-666.185348,-10658.965565,-3064.381992
3145.787287,74.020594,-9696.697840,-1225.752797
3145.787614,1924.535449,-10140.821405,-995.924147
3145.787942,1554.432478,-11547.212695,1532.190996
3145.788270,1184.329507,-10140.821405,2834.553343
3145.788597,1406.391290,-7846.182985,459.657299
3145.788925,444.123565,-9178.553681,-766.095498
3145.789253,-814.226536,-11177.109724,0.000000
3145.789580,74.020594,-9696.697840,-1532.190996
3145.789908,-740.205942,-9992.780217,-1685.410096
3145.790236,-888.247130,-10510.924376,0.000000
3145.790563,888.247130,-9400.615463,-766.095498
3145.790891,1258.350101,-9474.636058,-229.828649
3145.791219,740.205942,-10140.821405,766.095498
3145.791546,1332.370696,-9326.594869,-383.047749
3145.791874,666.185348,-8734.430116,-842.705048
3145.792201,0.000000,-7920.203579,536.266849
3145.792529,370.102971,-8068.244768,689.485948
3145.792857,1184.329507,-10066.800811,1149.143247
3145.793184,1554.432478,-10955.047942,2298.286494
3145.793512,1406.391290,-10807.006753,229.828649
3145.793840,592.164754,-11843.295072,-919.314598
3145.794167,-296.082377,-10288.862594,0.000000
3145.794495,518.144159,-6883.915261,-689.485948
3145.794823,962.267725,-7328.038826,-689.485948
3145.795150,148.041188,-9030.512492,1378.971896
3145.795478,296.082377,-8956.491898,995.924147
3145.795806,518.144159,-8586.388927,229.828649
3145.796133,592.164754,-8882.471304,459.657299
3145.796461,888.247130,-9252.574275,229.828649
3145.796788,0.000000,-9992.780217,229.828649
3145.797116,74.020594,-11621.233289,459.657299
3145.797444,1258.350101,-11251.130318,-2451.505594
3145.797771,296.082377,-11029.068536,-2221.676944
3145.798099,-1554.432478,-10288.862594,153.219100
3145.798427,-1406.391290,-8068.244768,-306.438199
3145.798754,592.164754,-9104.533087,-1685.410096
3145.799082,592.164754,-11325.150913,-306.438199
3145.799410,814.226536,-11621.233289,536.266849
3145.799737,1776.494261,-9918.759623,-842.705048
3145.800065,1110.308913,-8882.471304,-1915.238745
3145.800393,0.000000,-8068.244768,306.438199
3145.800720,-296.082377,-8808.450710,-536.266849
3145.801048,-518.144159,-10288.862594,459.657299
3145.801375,962.267725,-10881.027347,229.828649
3145.801703,1554.432478,-11177.109724,-689.485948
3145.802031,0.000000,-12139.377449,1149.143247
3145.802358,-370.102971,-9992.780217,383.047749
3145.802686,-148.041188,-8586.388927,-2145.067394
3145.803014,-1110.308913,-10362.883188,-2374.896044
3145.803341,-1332.370696,-9030.512492,-1149.143247
3145.803669,-518.144159,-8068.244768,-612.876398
3145.803997,370.102971,-8438.347739,919.314598
3145.804324,740.205942,-8956.491898,2298.286494
3145.804652,888.247130,-9400.615463,1991.848295
3145.804980,518.144159,-9844.739029,689.485948
3145.805307,444.123565,-10732.986159,0.000000
3145.805635,666.185348,-10288.862594,-1225.752797
3145.805963,-962.267725,-10362.883188,0.000000
3145.806290,-740.205942,-9178.553681,612.876398
3145.806618,814.226536,-7698.141797,-1072.533697
3145.806945,666.185348,-10214.842000,0.000000
3145.807273,-518.144159,-10510.924376,536.266849
3145.807601,1184.329507,-9178.553681,-1149.143247
3145.807928,888.247130,-9252.574275,-1378.971896
3145.808256,-962.267725,-8364.327145,-383.047749
3145.808584,-1036.288319,-8216.285956,-306.438199
3145.808911,370.102971,-10140.821405,0.000000
3145.809239,1924.535449,-11843.295072,536.266849
3145.809567,2368.659014,-11399.171507,153.219100
3145.809894,444.123565,-10436.903782,1149.143247
3145.810222,518.144159,-9696.697840,689.485948
3145.810550,592.164754,-8512.368333,-1455.581446
3145.810877,-1480.411884,-9474.636058,-1225.752797
3145.811205,-2294.638420,-9030.512492,-1149.143247
3145.811532,-1036.288319,-8512.368333,-2451.505594
3145.811860,148.041188,-9548.656652,-2757.943793
3145.812188,814.226536,-10510.924376,0.000000
3145.812515,1110.308913,-9770.718434,995.924147
3145.812843,2220.617826,-10584.944971,1455.581446
3145.813171,2516.700203,-11473.192101,1302.362347
3145.813498,2442.679609,-10658.965565,-766.095498
3145.813826,1036.288319,-10140.821405,-459.657299
3145.814154,-444.123565,-9770.718434,1225.752797
3145.814481,-592.164754,-7920.203579,-536.266849
3145.814809,-1110.308913,-8438.347739,-995.924147
3145.815137,-1332.370696,-9696.697840,0.000000
3145.815464,0.000000,-9622.677246,0.000000
3145.815792,1110.308913,-9474.636058,-995.924147
3145.816119,296.082377,-9622.677246,612.876398
3145.816447,222.061783,-8734.430116,459.657299
3145.816775,1332.370696,-7994.224174,-689.485948
3145.817102,888.247130,-9474.636058,306.438199
3145.817430,1184.329507,-10510.924376,689.485948
3145.817758,1480.411884,-10436.903782,229.828649
3145.818085,444.123565,-10584.944971,1455.581446
3145.818413,222.061783,-10288.862594,229.828649
3145.818741,222.061783,-11029.068536,-2068.457845
3145.819068,-444.123565,-10214.842000,-995.924147
3145.819396,296.082377,-7476.080014,-995.924147
3145.819724,518.144159,-7328.038826,-1378.971896
3145.820051,-1036.288319,-10066.800811,0.000000
3145.820379,-888.247130,-9474.636058,1072.533697
3145.820706,1702.473667,-8956.491898,-229.828649
3145.821034,2294.638420,-10658.965565,0.000000
3145.821362,1480.411884,-11621.233289,536.266849
3145.821689,962.267725,-10510.924376,459.657299
3145.822017,-296.082377,-10214.842000,229.828649
3145.822345,-296.082377,-10066.800811,-1072.533697
3145.822672,-666.185348,-9474.636058,-2834.553343
3145.823000,-1924.535449,-9770.718434,-1455.581446
3145.823328,-962.267725,-9178.553681,536.266849
3145.823655,888.247130,-9326.594869,-1072.533697
3145.823983,1332.370696,-10807.006753,0.000000
3145.824311,592.164754,-10214.842000,1685.410096
3145.824638,1258.350101,-8660.409521,459.657299
3145.824966,1702.473667,-8290.306550,0.000000
3145.825294,1184.329507,-9918.759623,-459.657299
3145.825621,740.205942,-9844.739029,-459.657299
3145.825949,296.082377,-9770.718434,229.828649
3145.826276,0.000000,-9770.718434,1225.752797
3145.826604,518.144159,-9622.677246,-536.266849
3145.826932,-888.247130,-10955.047942,-1072.533697
3145.827259,-1184.329507,-10436.903782,-612.876398
3145.827587,-370.102971,-8660.409521,-1762.019645
3145.827915,0.000000,-9696.697840,-995.924147
3145.828242,-370.102971,-8882.471304,766.095498
3145.828570,444.123565,-7624.121203,1225.752797
3145.828898,1554.432478,-9474.636058,919.314598
3145.829225,1628.453072,-11399.171507,1225.752797
3145.829553,1628.453072,-10510.924376,-536.266849
3145.829881,1036.288319,-9474.636058,-306.438199
3145.830208,-148.041188,-10066.800811,-459.657299
3145.830536,-666.185348,-10288.862594,-1685.410096
3145.830863,-888.247130,-10658.965565,-1072.533697
3145.831191,-740.205942,-9992.780217,76.609550
3145.831519,444.123565,-8660.409521,-995.924147
3145.831846,1110.308913,-9696.697840,-536.266849
3145.832174,-740.205942,-10214.842000,1149.143247
3145.832502,296.082377,-8290.306550,153.219100
3145.832829,1110.308913,-8956.491898,-766.095498
3145.833157,518.144159,-9992.780217,-689.485948
3145.833485,592.164754,-9474.636058,-689.485948
3145.833812,888.247130,-10140.821405,-229.828649
3145.834140,592.164754,-11251.130318,383.047749
3145.834468,592.164754,-10066.800811,229.828649
3145.834795,740.205942,-10214.842000,-459.657299
3145.835123,0.000000,-9844.739029,153.219100
3145.835450,740.205942,-9844.739029,76.609550
3145.835778,518.144159,-8808.450710,-383.047749
3145.836106,-1628.453072,-8512.368333,1149.143247
3145.836433,-2072.576638,-7179.997637,842.705048
3145.836761,-740.205942,-8142.265362,-1072.533697
3145.837089,-148.041188,-9992.780217,-1302.362347
3145.837416,1258.350101,-10658.965565,-536.266849
3145.837744,2072.576638,-10584.944971,-919.314598
3145.838072,1776.494261,-11621.233289,842.705048
3145.838399,1702.473667,-10510.924376,842.705048
3145.838727,1258.350101,-10214.842000,76.609550
3145.839055,222.061783,-10584.944971,536.266849
3145.839382,74.020594,-9622.677246,0.000000
3145.839710,-444.123565,-8734.430116,-1302.362347
3145.840038,-1110.308913,-8216.285956,383.047749
3145.840365,-592.164754,-8142.265362,1225.752797
3145.840693,-518.144159,-9178.553681,766.095498
3145.841020,592.164754,-10066.800811,0.000000
3145.841348,1480.411884,-9770.718434,-306.438199
3145.841675,1036.288319,-10288.862594,-1378.971896
3145.842003,0.000000,-10214.842000,-842.705048
3145.842331,148.041188,-9548.656652,0.000000
3145.842658,814.226536,-9770.718434,0.000000
3145.842986,1776.494261,-10436.903782,306.438199
3145.843313,1554.432478,-10658.965565,1532.190996
3145.843641,888.247130,-11177.109724,1225.752797
3145.843968,518.144159,-10140.821405,153.219100
3145.844296,222.061783,-7105.977043,-536.266849
3145.844624,222.061783,-6291.750507,-1455.581446
3145.844951,-814.226536,-8808.450710,-306.438199
3145.845279,-1110.308913,-10362.883188,919.314598
3145.845606,740.205942,-10288.862594,-995.924147
3145.845934,2072.576638,-10436.903782,-2145.067394
3145.846261,1184.329507,-10214.842000,0.000000
3145.846589,962.267725,-9844.739029,842.705048
3145.846917,1036.288319,-10214.842000,1149.143247
3145.847244,1036.288319,-9918.759623,153.219100
3145.847572,444.123565,-9252.574275,-1532.190996
3145.847899,-1480.411884,-8956.491898,76.609550
3145.848227,-2294.638420,-9252.574275,459.657299
3145.848555,-1480.411884,-7994.224174,-1378.971896
3145.848882,0.000000,-10732.986159,-1991.848295
3145.849210,148.041188,-13175.665768,-229.828649
3145.849537,1554.432478,-10510.924376,-995.924147
3145.849865,1998.556043,-9104.533087,-1149.143247
3145.850192,1184.329507,-9474.636058,-153.219100
3145.850520,592.164754,-9770.718434,-919.314598
3145.850848,-444.123565,-8438.347739,306.438199
3145.851175,0.000000,-8068.244768,1072.533697
3145.851503,0.000000,-9992.780217,766.095498
3145.851830,296.082377,-10658.965565,612.876398
3145.852158,-1036.288319,-10288.862594,1072.533697
3145.852485,-1184.329507,-9992.780217,229.828649
3145.852813,-148.041188,-9622.677246,-2221.676944
3145.853141,592.164754,-10510.924376,-1378.971896
3145.853468,814.226536,-9770.718434,-995.924147
3145.853796,1036.288319,-9474.636058,-459.657299
3145.854123,1184.329507,-10436.903782,1455.581446
3145.854451,1480.411884,-9326.594869,689.485948
3145.854778,740.205942,-8808.450710,229.828649
3145.855106,-296.082377,-8660.409521,842.705048
3145.855434,-148.041188,-9030.512492,1149.143247
3145.855761,-1184.329507,-9474.636058,153.219100
3145.856089,-1332.370696,-9696.697840,0.000000
3145.856416,-592.164754,-8512.368333,-306.438199
3145.856744,444.123565,-9104.533087,-536.266849
3145.857072,888.247130,-11103.089130,229.828649
3145.857399,1184.329507,-10955.047942,-842.705048
3145.857727,1110.308913,-9548.656652,-1532.190996
3145.858054,888.247130,-9474.636058,-842.705048
3145.858382,1036.288319,-8734.430116,-306.438199
3145.858709,1036.288319,-8364.327145,153.219100
3145.859037,518.144159,-9696.697840,1225.752797
3145.859365,444.123565,-9992.780217,2145.067394
3145.859692,222.061783,-10140.821405,-612.876398
3145.860020,-592.164754,-9400.615463,153.219100
3145.860347,-1036.288319,-8438.347739,536.266849
3145.860675,0.000000,-9104.533087,-1072.533697
3145.861002,-296.082377,-11029.068536,-153.219100
3145.861330,222.061783,-11473.192101,-612.876398
3145.861658,370.102971,-9474.636058,-2298.286494
3145.861985,-444.123565,-10288.862594,-1762.019645
3145.862313,666.185348,-9474.636058,-1762.019645
3145.862640,1924.535449,-9918.759623,-1991.848295
3145.862968,1036.288319,-10584.944971,612.876398
3145.863296,1554.432478,-10362.883188,1608.800546
3145.863623,1554.432478,-10214.842000,995.924147
3145.863951,370.102971,-9992.780217,459.657299
3145.864278,-962.267725,-9178.553681,612.876398
3145.864606,-1628.453072,-8438.347739,-459.657299
3145.864933,-1184.329507,-8882.471304,-689.485948
3145.865261,296.082377,-10066.800811,-153.219100
3145.865589,370.102971,-9770.718434,0.000000
3145.865916,1036.288319,-9326.594869,229.828649
3145.866244,888.247130,-8216.285956,383.047749
3145.866571,888.247130,-8882.471304,-1072.533697
3145.866899,0.000000,-10140.821405,-766.095498
3145.867226,0.000000,-9178.553681,0.000000
3145.867554,444.123565,-8660.409521,0.000000
3145.867882,370.102971,-10807.006753,1072.533697
3145.868209,0.000000,-10362.883188,2451.505594
3145.868537,148.041188,-9844.739029,919.314598
3145.868864,148.041188,-10732.986159,0.000000
3145.869192,740.205942,-10732.986159,-612.876398
3145.869519,814.226536,-9474.636058,-1378.971896
3145.869847,592.164754,-8512.368333,-1072.533697
3145.870175,0.000000,-7476.080014,-536.266849
3145.870502,74.020594,-8956.491898,-842.705048
3145.870830,-444.123565,-9844.739029,-536.266849
3145.871157,148.041188,-10732.986159,0.000000
3145.871485,962.267725,-9474.636058,-459.657299
3145.871813,148.041188,-10436.903782,0.000000
3145.872140,0.000000,-10955.047942,919.314598
3145.872468,370.102971,-10140.821405,76.609550
3145.872795,444.123565,-10807.006753,-766.095498
3145.873123,222.061783,-11177.109724,0.000000
3145.873450,-296.082377,-8586.388927,-1302.362347
3145.873778,-296.082377,-9178.553681,-1225.752797
3145.874106,148.041188,-10436.903782,-842.705048
3145.874433,888.247130,-10140.821405,-995.924147
3145.874761,592.164754,-9992.780217,-842.705048
3145.875088,1110.308913,-9178.553681,0.000000
3145.875416,1480.411884,-8586.388927,-536.266849
3145.875743,962.267725,-9844.739029,842.705048
3145.876071,370.102971,-9770.718434,1532.190996
3145.876399,0.000000,-8512.368333,1762.019645
3145.876726,370.102971,-9030.512492,919.314598
3145.877054,1110.308913,-10955.047942,995.924147
3145.877381,1036.288319,-10955.047942,459.657299
3145.877709,518.144159,-9844.739029,-766.095498
3145.878036,0.000000,-10436.903782,-1378.971896
3145.878364,-1184.329507,-9030.512492,-2374.896044
3145.878692,-370.102971,-8290.306550,-2604.724693
3145.879019,74.020594,-8734.430116,-612.876398
3145.879347,444.123565,-9696.697840,1685.410096
3145.879674,518.144159,-9400.615463,1455.581446
3145.880002,0.000000,-8808.450710,2068.457845
3145.880330,0.000000,-7772.162391,1149.143247
3145.880657,0.000000,-9030.512492,229.828649
3145.880985,-518.144159,-10807.006753,536.266849
3145.881312,592.164754,-10732.986159,-153.219100
3145.881640,592.164754,-9622.677246,-2221.676944
3145.881967,370.102971,-11029.068536,-1149.143247
3145.882295,0.000000,-10955.047942,-1149.143247
3145.882623,222.061783,-9474.636058,-2451.505594
3145.882950,444.123565,-9918.759623,-2068.457845
3145.883278,888.247130,-9548.656652,-1762.019645
3145.883605,518.144159,-9252.574275,-766.095498
3145.883933,592.164754,-9474.636058,1149.143247
3145.884260,296.082377,-9326.594869,2374.896044
3145.884588,148.041188,-9400.615463,1762.019645
3145.884916,222.061783,-10140.821405,306.438199
3145.885243,592.164754,-10214.842000,-229.828649
3145.885571,222.061783,-9770.718434,-2068.457845
3145.885898,-444.123565,-11029.068536,-1608.800546
3145.886226,-1110.308913,-9770.718434,-995.924147
3145.886553,-1480.411884,-8586.388927,-1991.848295
3145.886881,-592.164754,-9474.636058,-3140.991542
3145.887209,222.061783,-11029.068536,-1838.629195
3145.887536,1554.432478,-9770.718434,-766.095498
3145.887864,1776.494261,-9178.553681,536.266849
3145.888191,1332.370696,-9770.718434,2757.943793
3145.888519,1554.432478,-9696.697840,2834.553343
3145.888847,1184.329507,-9770.718434,1608.800546
3145.889174,0.000000,-9770.718434,1455.581446
3145.889502,-518.144159,-8808.450710,-1302.362347
3145.889829,-148.041188,-9622.677246,-2528.115143
3145.890157,-1036.288319,-9030.512492,-766.095498
3145.890484,-1554.432478,-7476.080014,-383.047749
3145.890812,-370.102971,-8882.471304,-536.266849
3145.891140,1480.411884,-10732.986159,306.438199
3145.891467,2664.741391,-9548.656652,-459.657299
3145.891795,1110.308913,-8364.327145,842.705048
3145.892122,0.000000,-8660.409521,2221.676944
3145.892450,0.000000,-7994.224174,612.876398
3145.892777,148.041188,-9844.739029,-383.047749
3145.893105,592.164754,-10214.842000,0.000000
3145.893433,1110.308913,-11103.089130,76.609550
3145.893760,1110.308913,-12065.356855,-459.657299
3145.894088,592.164754,-11843.295072,-919.314598
3145.894415,296.082377,-9178.553681,-2145.067394
3145.894743,518.144159,-8216.285956,-1532.190996
3145.895071,592.164754,-8956.491898,-1149.143247
3145.895398,444.123565,-9474.636058,459.657299
3145.895726,148.041188,-9400.615463,306.438199
3145.896053,518.144159,-9104.533087,919.314598
3145.896381,814.226536,-9474.636058,1455.581446
3145.896708,222.061783,-10510.924376,1762.019645
3145.897036,296.082377,-11621.233289,612.876398
3145.897364,666.185348,-11325.150913,-1302.362347
3145.897691,0.000000,-11103.089130,-3294.210641
3145.898019,-1258.350101,-11177.109724,-1608.800546
3145.898346,-1554.432478,-8438.347739,-842.705048
3145.898674,-592.164754,-7846.182985,-919.314598
3145.899001,740.205942,-10732.986159,306.438199
3145.899329,370.102971,-10658.965565,842.705048
3145.899657,962.267725,-9474.636058,536.266849
3145.899984,962.267725,-7772.162391,842.705048
3145.900312,148.041188,-7402.059420,689.485948
3145.900639,0.000000,-8734.430116,459.657299
3145.900967,0.000000,-9326.594869,766.095498
3145.901294,814.226536,-9252.574275,76.609550
3145.901622,740.205942,-10510.924376,-153.219100
3145.901950,444.123565,-12361.439231,76.609550
3145.902277,-296.082377,-10732.986159,153.219100
3145.902605,-148.041188,-8882.471304,-1225.752797
3145.902932,148.041188,-10436.903782,-1455.581446
3145.903260,740.205942,-10214.842000,-1685.410096
3145.903588,370.102971,-8068.244768,-536.266849
3145.903915,0.000000,-7772.162391,383.047749
3145.904243,148.041188,-9326.594869,1608.800546
3145.904570,592.164754,-8882.471304,536.266849
3145.904898,0.000000,-9474.636058,76.609550
3145.905225,0.000000,-10510.924376,383.047749
3145.905553,1110.308913,-10881.027347,-1302.362347
3145.905881,1036.288319,-10510.924376,-2451.505594
3145.906208,296.082377,-10288.862594,-229.828649
3145.906536,222.061783,-9252.574275,-766.095498
3145.906863,518.144159,-10288.862594,-536.266849
3145.907191,1554.432478,-11251.130318,0.000000
3145.907518,740.205942,-9622.677246,0.000000
3145.907846,-222.061783,-9030.512492,-306.438199
3145.908174,-1184.329507,-8068.244768,383.047749
3145.908501,-148.041188,-8586.388927,-689.485948
3145.908829,0.000000,-9844.739029,-383.047749
3145.909156,740.205942,-10732.986159,306.438199
3145.909484,1406.391290,-10436.903782,459.657299
3145.909811,1406.391290,-10436.903782,459.657299
3145.910139,1036.288319,-8956.491898,842.705048
3145.910467,1036.288319,-7698.141797,0.000000
3145.910794,-518.144159,-8660.409521,306.438199
3145.911122,-1110.308913,-9844.739029,689.485948
3145.911449,-1850.514855,-9474.636058,-1762.019645
3145.911777,-1702.473667,-9474.636058,-2757.943793
3145.912105,-888.247130,-8660.409521,-2068.457845
3145.912432,444.123565,-9104.533087,-766.095498
3145.912760,1776.494261,-11325.150913,766.095498
3145.913087,3182.885551,-12583.501014,2528.115143
3145.913415,3182.885551,-10658.965565,919.314598
3145.913742,1554.432478,-9104.533087,-536.266849
3145.914070,0.000000,-9252.574275,-229.828649
3145.914398,-1110.308913,-8808.450710,0.000000
3145.914725,-1776.494261,-8660.409521,-459.657299
3145.915053,-1184.329507,-9474.636058,-766.095498
3145.915380,370.102971,-9474.636058,-306.438199
3145.915708,1110.308913,-10288.862594,229.828649
3145.916035,148.041188,-9918.759623,919.314598
3145.916363,-148.041188,-8808.450710,0.000000
3145.916691,222.061783,-8438.347739,-1685.410096
3145.917018,74.020594,-9178.553681,-1072.533697
3145.917346,814.226536,-8956.491898,0.000000
3145.917673,1702.473667,-9548.656652,229.828649
3145.918001,2220.617826,-11547.212695,1838.629195
3145.918328,1924.535449,-12213.398043,919.314598
3145.918656,222.061783,-10881.027347,-919.314598
3145.918984,222.061783,-9844.739029,-2298.286494
3145.919311,296.082377,-8512.368333,-1608.800546
3145.919639,74.020594,-7254.018232,-536.266849
3145.919966,-1036.288319,-7328.038826,1302.362347
3145.920294,-1998.556043,-8586.388927,1532.190996
3145.920622,-74.020594,-10436.903782,0.000000
3145.920949,1776.494261,-11399.171507,-842.705048
3145.921277,2812.782580,-10288.862594,76.609550
3145.921604,2442.679609,-9548.656652,919.314598
3145.921932,814.226536,-10732.986159,1532.190996
3145.922259,666.185348,-9178.553681,612.876398
3145.922587,-518.144159,-8882.471304,-1455.581446
3145.922915,-1480.411884,-10658.965565,-1149.143247
3145.923242,-1406.391290,-9622.677246,-1149.143247
3145.923570,-1480.411884,-8216.285956,-1762.019645
3145.923897,-740.205942,-10214.842000,-383.047749
3145.924225,148.041188,-10955.047942,306.438199
3145.924552,1110.308913,-9548.656652,0.000000
3145.924880,1480.411884,-9400.615463,612.876398
3145.925208,2146.597232,-9918.759623,229.828649
3145.925535,2146.597232,-9252.574275,-536.266849
3145.925863,814.226536,-9622.677246,459.657299
3145.926190,0.000000,-10140.821405,536.266849
3145.926518,518.144159,-9474.636058,306.438199
3145.926846,888.247130,-10288.862594,-1225.752797
3145.927173,-222.061783,-11325.150913,-612.876398
3145.927501,-518.144159,-10955.047942,-1072.533697
3145.927828,-370.102971,-10510.924376,-1608.800546
3145.928156,-222.061783,-10510.924376,-153.219100
3145.928483,0.000000,-7624.121203,76.609550
3145.928811,222.061783,-8068.244768,383.047749
3145.929139,1332.370696,-9474.636058,1302.362347
3145.929466,2146.597232,-9696.697840,383.047749
3145.929794,1184.329507,-9844.739029,-153.219100
3145.930121,666.185348,-10288.862594,0.000000
3145.930449,296.082377,-9400.615463,-383.047749
3145.930776,296.082377,-8956.491898,-995.924147
3145.931104,-444.123565,-10066.800811,76.609550
3145.931432,-962.267725,-9326.594869,-536.266849
3145.931759,-814.226536,-9474.636058,-459.657299
3145.932087,148.041188,-10584.944971,459.657299
3145.932414,222.061783,-9252.574275,153.219100
3145.932742,-444.123565,-8290.306550,306.438199
3145.933069,444.123565,-9030.512492,0.000000
3145.933397,888.247130,-8882.471304,-536.266849
3145.933725,444.123565,-9178.553681,-1072.533697
3145.934052,0.000000,-9696.697840,0.000000
3145.934380,296.082377,-9474.636058,76.609550
3145.934707,0.000000,-10066.800811,-229.828649
3145.935035,814.226536,-10658.965565,-536.266849
3145.935363,0.000000,-9992.780217,919.314598
3145.935690,-888.247130,-10140.821405,995.924147
3145.936018,-3034.844362,-9622.677246,-229.828649
3145.936345,-1702.473667,-9548.656652,-1685.410096
3145.936673,-814.226536,-8586.388927,-2604.724693
3145.937000,0.000000,-10288.862594,-1225.752797
3145.937328,1776.494261,-10436.903782,0.000000
3145.937656,2442.679609,-10955.047942,0.000000
3145.937983,1554.432478,-11399.171507,0.000000
3145.938311,2220.617826,-9474.636058,-536.266849
3145.938638,0.000000,-9178.553681,-1455.581446
3145.938966,296.082377,-9918.759623,-689.485948
3145.939293,666.185348,-9548.656652,-536.266849
3145.939621,0.000000,-9918.759623,76.609550
3145.939949,-592.164754,-10510.924376,1378.971896
3145.940276,518.144159,-8956.491898,1608.800546
3145.940604,1702.473667,-8142.265362,0.000000
3145.940931,888.247130,-9474.636058,0.000000
3145.941259,666.185348,-9104.533087,-306.438199
3145.941586,370.102971,-7772.162391,-1608.800546
3145.941914,-148.041188,-9178.553681,-766.095498
3145.942242,0.000000,-8438.347739,459.657299
3145.942569,592.164754,-7846.182985,76.609550
3145.942897,1110.308913,-11103.089130,0.000000
3145.943225,962.267725,-11991.336260,919.314598
3145.943552,1036.288319,-11251.130318,76.609550
3145.943880,2146.597232,-10362.883188,0.000000
3145.944207,1480.411884,-8660.409521,459.657299
3145.944535,-296.082377,-5773.606348,1225.752797
3145.944863,-1406.391290,-7550.100608,1149.143247
3145.945190,-1110.308913,-11251.130318,536.266849
3145.945518,1554.432478,-11399.171507,-1762.019645
3145.945846,1332.370696,-9992.780217,-1378.971896
3145.946173,1110.308913,-10214.842000,536.266849
3145.946501,740.205942,-9696.697840,459.657299
3145.946828,888.247130,-10214.842000,-1072.533697
3145.947156,814.226536,-9474.636058,-919.314598
3145.947484,-592.164754,-9474.636058,-766.095498
3145.947811,-740.205942,-10288.862594,306.438199
3145.948139,0.000000,-10584.944971,1149.143247
3145.948467,0.000000,-9474.636058,383.047749
3145.948794,-296.082377,-9918.759623,0.000000
3145.949122,-666.185348,-11843.295072,76.609550
3145.949449,518.144159,-11325.150913,-1762.019645
3145.949777,0.000000,-8660.409521,-2604.724693
3145.950105,-1258.350101,-7920.203579,-2068.457845
3145.950432,-1406.391290,-7920.203579,-1302.362347
3145.950760,0.000000,-9400.615463,0.000000
3145.951087,1110.308913,-11177.109724,1685.410096
3145.951415,1036.288319,-10955.047942,1685.410096
3145.951743,666.185348,-10584.944971,919.314598
3145.952070,-148.041188,-10214.842000,-153.219100
3145.952398,-740.205942,-8882.471304,-1072.533697
3145.952726,-444.123565,-8364.327145,-689.485948
3145.953053,370.102971,-9400.615463,383.047749
3145.953381,1184.329507,-9474.636058,0.000000
3145.953708,888.247130,-9622.677246,-689.485948
3145.954036,148.041188,-10510.924376,76.609550
3145.954364,0.000000,-7994.224174,0.000000
3145.954691,-962.267725,-7994.224174,-1378.971896
3145.955019,-518.144159,-9918.759623,-919.314598
3145.955347,74.020594,-10140.821405,-229.828649
3145.955674,444.123565,-9178.553681,76.609550
3145.956002,814.226536,-9104.533087,1532.190996
3145.956329,1406.391290,-9104.533087,1378.971896
3145.956657,1850.514855,-9548.656652,612.876398
3145.956985,962.267725,-10955.047942,76.609550
3145.957312,1258.350101,-11177.109724,-766.095498
3145.957640,1184.329507,-10436.903782,-2681.334243
3145.957967,518.144159,-10288.862594,-2221.676944
3145.958295,-296.082377,-8882.471304,-1225.752797
3145.958623,814.226536,-8734.430116,-689.485948
3145.958950,888.247130,-11029.068536,0.000000
3145.959278,814.226536,-10732.986159,536.266849
3145.959606,592.164754,-9178.553681,919.314598
3145.959933,592.164754,-8586.388927,842.705048
3145.960261,-296.082377,-8882.471304,1455.581446
3145.960588,-1850.514855,-9548.656652,919.314598
3145.960916,-1776.494261,-11325.150913,-612.876398
3145.961244,-222.061783,-11251.130318,-2757.943793
3145.961571,1850.514855,-10362.883188,-3217.601092
3145.961899,1480.411884,-10955.047942,-766.095498
3145.962227,1480.411884,-10807.006753,1455.581446
3145.962554,1406.391290,-9252.574275,459.657299
3145.962882,962.267725,-9548.656652,0.000000
3145.963209,666.185348,-9474.636058,0.000000
3145.963537,74.020594,-7920.203579,1072.533697
3145.963865,-962.267725,-8068.244768,1608.800546
3145.964192,-888.247130,-8142.265362,2068.457845
3145.964520,-1110.308913,-8142.265362,459.657299
3145.964847,-740.205942,-10732.986159,842.705048
3145.965175,1998.556043,-11547.212695,306.438199
3145.965503,2442.679609,-9918.759623,-1762.019645
3145.965830,1110.308913,-9474.636058,-919.314598
3145.966158,-222.061783,-8142.265362,-766.095498
3145.966486,-518.144159,-8142.265362,-766.095498
3145.966813,0.000000,-9178.553681,-306.438199
3145.967141,444.123565,-9844.739029,0.000000
3145.967468,-666.185348,-9474.636058,842.705048
3145.967796,0.000000,-10362.883188,229.828649
3145.968124,74.020594,-10288.862594,0.000000
3145.968451,0.000000,-9918.759623,76.609550
3145.968779,222.061783,-9770.718434,0.000000
3145.969107,1554.432478,-10140.821405,0.000000
3145.969434,2294.638420,-9474.636058,0.000000
3145.969762,74.020594,-10140.821405,-459.657299
3145.970089,-1480.411884,-10658.965565,0.000000
3145.970417,0.000000,-9918.759623,-1762.019645
3145.970745,518.144159,-10510.924376,-3064.381992
3145.971072,148.041188,-11399.171507,-1378.971896
3145.971400,-370.102971,-9844.739029,229.828649
3145.971728,0.000000,-8660.409521,-306.438199
3145.972055,148.041188,-9252.574275,76.609550
3145.972383,0.000000,-9474.636058,536.266849
3145.972710,-1998.556043,-9326.594869,1225.752797
3145.973038,0.000000,-10066.800811,306.438199
3145.973366,1998.556043,-10510.924376,-612.876398
3145.973693,2146.597232,-11029.068536,-536.266849
3145.974021,1628.453072,-10881.027347,842.705048
3145.974348,1998.556043,-9326.594869,1455.581446
3145.974676,1332.370696,-7550.100608,-612.876398
3145.975004,518.144159,-8660.409521,-1378.971896
3145.975331,-1110.308913,-8734.430116,-153.219100
3145.975659,-1554.432478,-8364.327145,0.000000
3145.975987,-888.247130,-8956.491898,153.219100
3145.976314,0.000000,-9696.697840,-306.438199
3145.976642,-518.144159,-10288.862594,0.000000
3145.976969,592.164754,-10881.027347,229.828649
3145.977297,2294.638420,-10288.862594,0.000000
3145.977625,2442.679609,-9548.656652,-1149.143247
3145.977952,1924.535449,-10066.800811,0.000000
3145.978280,1258.350101,-9696.697840,306.438199
3145.978608,518.144159,-9326.594869,-612.876398
3145.978935,148.041188,-9992.780217,-1302.362347
3145.979263,370.102971,-9992.780217,-1302.362347
3145.979590,-666.185348,-10066.800811,-842.705048
3145.979918,-1110.308913,-10288.862594,0.000000
3145.980246,0.000000,-9844.739029,0.000000
3145.980573,-444.123565,-9622.677246,0.000000
3145.980901,370.102971,-10140.821405,842.705048
3145.981228,1850.514855,-9992.780217,766.095498
3145.981556,1406.391290,-8808.450710,153.219100
3145.981884,740.205942,-10140.821405,306.438199
3145.982211,962.267725,-10436.903782,153.219100
3145.982539,962.267725,-10288.862594,-995.924147
3145.982867,962.267725,-10584.944971,-1915.238745
3145.983194,296.082377,-9326.594869,-1838.629195
3145.983522,-814.226536,-9104.533087,-842.705048
3145.983849,-1184.329507,-9474.636058,459.657299
3145.984177,-222.061783,-9548.656652,689.485948
3145.984505,-740.205942,-8142.265362,1455.581446
3145.984832,962.267725,-8216.285956,842.705048
3145.985160,962.267725,-8882.471304,2374.896044
3145.985488,0.000000,-9622.677246,1608.800546
3145.985815,-1702.473667,-9400.615463,0.000000
3145.986143,-2072.576638,-9844.739029,-1608.800546
3145.986470,0.000000,-8438.347739,-4673.182538
3145.986798,666.185348,-10140.821405,-3600.648841
3145.987126,1110.308913,-12435.459826,153.219100
3145.987453,2072.576638,-11177.109724,919.314598
3145.987781,1406.391290,-10658.965565,306.438199
3145.988109,592.164754,-10066.800811,-229.828649
3145.988436,-888.247130,-8068.244768,-1455.581446
3145.988764,-1184.329507,-7624.121203,0.000000
3145.989091,222.061783,-7920.203579,536.266849
3145.989419,0.000000,-9622.677246,919.314598
3145.989747,-296.082377,-10881.027347,1302.362347
3145.990074,962.267725,-10955.047942,689.485948
3145.990402,1406.391290,-9992.780217,-995.924147
3145.990729,740.205942,-10214.842000,-2221.676944
3145.991057,222.061783,-10807.006753,-2221.676944
3145.991385,-518.144159,-9104.533087,-1149.143247
3145.991712,-296.082377,-8956.491898,-919.314598
3145.992040,592.164754,-10732.986159,1149.143247
3145.992368,592.164754,-10214.842000,2604.724693
3145.992695,444.123565,-8660.409521,2374.896044
3145.993023,1110.308913,-9474.636058,2145.067394
3145.993350,1628.453072,-10066.800811,-842.705048
3145.993678,1480.411884,-9400.615463,-842.705048
3145.994006,888.247130,-9104.533087,842.705048
3145.994333,1332.370696,-7772.162391,1149.143247
3145.994661,592.164754,-7402.059420,0.000000
3145.994989,-148.041188,-10066.800811,-842.705048
3145.995316,-1258.350101,-10362.883188,0.000000
3145.995644,0.000000,-10436.903782,-1225.752797
3145.995971,666.185348,-10510.924376,-229.828649
3145.996299,962.267725,-9696.697840,-229.828649
3145.996627,888.247130,-9474.636058,153.219100
3145.996954,1702.473667,-9474.636058,229.828649
3145.997282,1628.453072,-9622.677246,76.609550
3145.997609,-222.061783,-9696.697840,-306.438199
3145.997937,-888.247130,-9474.636058,0.000000
3145.998265,370.102971,-9104.533087,-1608.800546
3145.998592,1036.288319,-9918.759623,-1455.581446
3145.998920,1702.473667,-12361.439231,-306.438199
3145.999248,1924.535449,-11843.295072,306.438199
3145.999575,1110.308913,-10288.862594,0.000000
3145.999903,0.000000,-8512.368333,-842.705048
3146.000230,-1184.329507,-8438.347739,-459.657299
3146.000558,-1776.494261,-8734.430116,-842.705048
3146.000886,-1258.350101,-9326.594869,-612.876398
3146.001213,-888.247130,-10955.047942,153.219100
3146.001541,-962.267725,-11029.068536,0.000000
3146.001869,-1258.350101,-11177.109724,-153.219100
3146.002196,-370.102971,-9622.677246,-995.924147
3146.002524,740.205942,-8586.388927,-2068.457845
3146.002851,1110.308913,-10362.883188,-1225.752797
3146.003179,1406.391290,-10584.944971,766.095498
3146.003507,1184.329507,-8438.347739,612.876398
3146.003834,222.061783,-8808.450710,919.314598
3146.004162,-592.164754,-8660.409521,842.705048
3146.004489,-1258.350101,-7328.038826,842.705048
3146.004817,-1332.370696,-7402.059420,-229.828649
3146.005145,0.000000,-11103.089130,0.000000
3146.005472,814.226536,-11177.109724,-536.266849
3146.005800,444.123565,-9178.553681,-383.047749
3146.006128,518.144159,-8660.409521,-306.438199
3146.006455,666.185348,-9622.677246,-306.438199
3146.006783,888.247130,-10066.800811,-459.657299
3146.007110,1332.370696,-9992.780217,-689.485948
3146.007438,1332.370696,-9252.574275,0.000000
3146.007766,1998.556043,-9918.759623,-766.095498
3146.008093,814.226536,-10288.862594,0.000000
3146.008421,-592.164754,-9030.512492,229.828649
3146.008749,-444.123565,-9252.574275,-612.876398
3146.009076,74.020594,-10955.047942,-995.924147
3146.009404,444.123565,-11621.233289,-229.828649
3146.009731,-962.267725,-9696.697840,0.000000
3146.010059,444.123565,-9178.553681,383.047749
3146.010387,888.247130,-8956.491898,383.047749
3146.010714,0.000000,-11251.130318,459.657299
3146.011042,-740.205942,-11029.068536,153.219100
3146.011370,0.000000,-8956.491898,-1838.629195
3146.011697,1258.350101,-8660.409521,-2757.943793
3146.012025,888.247130,-10362.883188,-1302.362347
3146.012352,444.123565,-10362.883188,919.314598
3146.012680,518.144159,-9844.739029,1302.362347
3146.013008,2220.617826,-10732.986159,612.876398
3146.013335,1776.494261,-10658.965565,-459.657299
3146.013663,296.082377,-9326.594869,-306.438199
3146.013990,0.000000,-7994.224174,0.000000
3146.014318,-666.185348,-6883.915261,306.438199
3146.014646,-296.082377,-8808.450710,459.657299
3146.014973,74.020594,-10140.821405,1302.362347
3146.015301,1702.473667,-9178.553681,995.924147
3146.015629,1184.329507,-8734.430116,306.438199
3146.015956,888.247130,-9918.759623,-919.314598
3146.016284,370.102971,-8956.491898,-306.438199
3146.016611,-666.185348,-7920.203579,-1455.581446
3146.016939,-666.185348,-10066.800811,-536.266849
3146.017267,1554.432478,-11547.212695,-306.438199
3146.017594,1776.494261,-10881.027347,766.095498
3146.017922,888.247130,-10510.924376,2298.286494
3146.018250,518.144159,-9622.677246,1685.410096
3146.018577,222.061783,-8290.306550,-383.047749
3146.018905,444.123565,-9252.574275,-459.657299
3146.019232,296.082377,-9326.594869,383.047749
3146.019560,-222.061783,-7476.080014,76.609550
3146.019888,-2072.576638,-8290.306550,-536.266849
3146.020215,-2368.659014,-10807.006753,-1225.752797
3146.020543,-1258.350101,-11029.068536,-1991.848295
3146.020870,592.164754,-11769.274478,-1378.971896
3146.021198,2294.638420,-11547.212695,-459.657299
3146.021526,2294.638420,-11177.109724,0.000000
3146.021853,1480.411884,-10584.944971,459.657299
3146.022181,1332.370696,-9178.553681,689.485948
3146.022509,-444.123565,-8660.409521,-459.657299
3146.022836,-2368.659014,-9030.512492,-229.828649
3146.023164,-1998.556043,-8438.347739,76.609550
3146.023491,-888.247130,-8290.306550,-1302.362347
3146.023819,148.041188,-9918.759623,-306.438199
3146.024147,814.226536,-10881.027347,383.047749
3146.024474,518.144159,-9918.759623,229.828649
3146.024802,1776.494261,-8882.471304,-1378.971896
3146.025130,1036.288319,-9548.656652,-1455.581446
3146.025457,148.041188,-8956.491898,-995.924147
3146.025785,-592.164754,-9252.574275,842.705048
3146.026112,-444.123565,-10658.965565,1149.143247
3146.026440,-814.226536,-9992.780217,76.609550
3146.026768,-1258.350101,-10066.800811,-459.657299
3146.027095,-962.267725,-8808.450710,-995.924147
3146.027423,-962.267725,-8734.430116,-1915.238745
3146.027751,-444.123565,-8808.450710,-1532.190996
3146.028078,518.144159,-10214.842000,306.438199
3146.028406,1036.288319,-9844.739029,689.485948
3146.028733,1184.329507,-9400.615463,919.314598
3146.029061,2072.576638,-9918.759623,766.095498
3146.029389,2442.679609,-10955.047942,-229.828649
3146.029716,1184.329507,-10955.047942,536.266849
3146.030044,1036.288319,-9400.615463,-153.219100
3146.030371,222.061783,-7994.224174,-766.095498
3146.030699,148.041188,-9104.533087,-383.047749
3146.031027,444.123565,-10436.903782,0.000000
3146.031354,296.082377,-9918.759623,383.047749
3146.031682,222.061783,-9178.553681,-383.047749
3146.032010,296.082377,-9992.780217,-1302.362347
3146.032337,370.102971,-9030.512492,-612.876398
3146.032665,814.226536,-8882.471304,-689.485948
3146.032992,2738.761985,-10807.006753,-153.219100
3146.033320,3997.112087,-11325.150913,0.000000
3146.033648,3182.885551,-11251.130318,306.438199
3146.033975,2072.576638,-10362.883188,689.485948
3146.034303,814.226536,-8734.430116,766.095498
3146.034631,-592.164754,-9178.553681,-766.095498
3146.034958,-814.226536,-9918.759623,-689.485948
3146.035286,-1332.370696,-9474.636058,-689.485948
3146.035613,-962.267725,-8586.388927,-1149.143247
3146.035941,-1332.370696,-9548.656652,0.000000
3146.036269,-1924.535449,-8142.265362,1302.362347
3146.036596,-962.267725,-8734.430116,-612.876398
3146.036924,-296.082377,-9992.780217,-689.485948
3146.037251,1924.535449,-9770.718434,-1915.238745
3146.037579,1480.411884,-9770.718434,-995.924147
3146.037907,1258.350101,-11843.295072,1685.410096
3146.038234,1998.556043,-11621.233289,1838.629195
3146.038562,666.185348,-9400.615463,995.924147
3146.038890,-592.164754,-9474.636058,-229.828649
3146.039217,-444.123565,-9622.677246,-306.438199
3146.039545,-1480.411884,-9474.636058,-383.047749
3146.039872,-1258.350101,-9178.553681,536.266849
3146.040200,-2146.597232,-8364.327145,1762.019645
3146.040528,-1258.350101,-7772.162391,919.314598
3146.040855,740.205942,-8512.368333,-229.828649
3146.041183,1332.370696,-9992.780217,0.000000
3146.041510,222.061783,-10140.821405,0.000000
3146.041838,-222.061783,-10066.800811,-995.924147
3146.042165,0.000000,-9326.594869,-1072.533697
3146.042493,0.000000,-8586.388927,-1762.019645
3146.042820,-1480.411884,-9918.759623,0.000000
3146.043148,0.000000,-11251.130318,1378.971896
3146.043476,888.247130,-11917.315666,-383.047749
3146.043803,1110.308913,-11621.233289,-995.924147
3146.044131,518.144159,-9474.636058,-536.266849
3146.044458,592.164754,-7402.059420,153.219100
3146.044786,296.082377,-7994.224174,766.095498
3146.045113,962.267725,-10066.800811,0.000000
3146.045441,-296.082377,-10288.862594,-306.438199
3146.045768,0.000000,-10584.944971,-1225.752797
3146.046096,74.020594,-9622.677246,-919.314598
3146.046424,962.267725,-10066.800811,-842.705048
3146.046751,740.205942,-10584.944971,0.000000
3146.047079,814.226536,-11029.068536,153.219100
3146.047406,814.226536,-9622.677246,-459.657299
3146.047734,962.267725,-9918.759623,-995.924147
3146.048061,666.185348,-9696.697840,536.266849
3146.048389,0.000000,-7624.121203,766.095498
3146.048716,148.041188,-7476.080014,1149.143247
3146.049044,1258.350101,-10066.800811,689.485948
3146.049372,2368.659014,-11251.130318,-306.438199
3146.049699,2442.679609,-9918.759623,-459.657299
3146.050027,1332.370696,-9104.533087,153.219100
3146.050354,814.226536,-8068.244768,-1302.362347
3146.050682,-1258.350101,-8512.368333,-1149.143247
3146.051009,-1998.556043,-9844.739029,-229.828649
3146.051337,-814.226536,-9474.636058,-995.924147
3146.051665,-962.267725,-9548.656652,306.438199
3146.051992,-296.082377,-10214.842000,1072.533697
3146.052320,370.102971,-9252.574275,459.657299
3146.052647,592.164754,-9992.780217,-459.657299
3146.052975,962.267725,-11103.089130,-612.876398
3146.053302,2146.597232,-10658.965565,-1149.143247
3146.053630,1702.473667,-9252.574275,-1608.800546
3146.053957,962.267725,-10436.903782,-1072.533697
3146.054285,0.000000,-10214.842000,-383.047749
3146.054613,-518.144159,-9326.594869,-842.705048
3146.054940,-740.205942,-10214.842000,-383.047749
3146.055268,-370.102971,-9400.615463,0.000000
3146.055595,-518.144159,-9326.594869,842.705048
3146.055923,-518.144159,-10584.944971,842.705048
3146.056250,-222.061783,-9252.574275,689.485948
3146.056578,0.000000,-8956.491898,76.609550
3146.056905,888.247130,-10955.047942,-536.266849
3146.057233,1924.535449,-11473.192101,-459.657299
3146.057561,1036.288319,-9474.636058,-1378.971896
3146.057888,1776.494261,-10214.842000,-1608.800546
3146.058216,2442.679609,-11177.109724,0.000000
3146.058543,1776.494261,-10288.862594,0.000000
3146.058871,222.061783,-9178.553681,536.266849
3146.059198,0.000000,-8512.368333,306.438199
3146.059526,-814.226536,-9252.574275,-536.266849
3146.059853,-1998.556043,-8882.471304,383.047749
3146.060181,-1850.514855,-7254.018232,1838.629195
3146.060509,-1480.411884,-7402.059420,919.314598
3146.060836,1184.329507,-9474.636058,153.219100
3146.061164,1628.453072,-9696.697840,-459.657299
3146.061491,222.061783,-9770.718434,-229.828649
3146.061819,74.020594,-10732.986159,-1302.362347
3146.062146,1258.350101,-10881.027347,-3753.867940
3146.062474,962.267725,-8956.491898,-2757.943793
3146.062801,1036.288319,-10214.842000,-919.314598
3146.063129,1924.535449,-11399.171507,1762.019645
3146.063457,1776.494261,-11251.130318,2604.724693
3146.063784,148.041188,-10140.821405,2068.457845
3146.064112,148.041188,-7550.100608,766.095498
3146.064439,-1110.308913,-7105.977043,0.000000
3146.064767,-1406.391290,-9474.636058,0.000000
3146.065094,-518.144159,-10140.821405,-153.219100
3146.065422,296.082377,-9770.718434,-1225.752797
3146.065749,1406.391290,-9918.759623,-1072.533697
3146.066077,2294.638420,-11473.192101,-919.314598
3146.066405,1184.329507,-10807.006753,-306.438199
3146.066732,1110.308913,-10584.944971,-612.876398
3146.067060,222.061783,-9400.615463,0.000000
3146.067387,-296.082377,-8586.388927,0.000000
3146.067715,-1998.556043,-8956.491898,919.314598
3146.068042,-962.267725,-9622.677246,1838.629195
3146.068370,-370.102971,-9696.697840,1455.581446
3146.068697,0.000000,-10436.903782,-306.438199
3146.069025,1110.308913,-10955.047942,-766.095498
3146.069353,444.123565,-9770.718434,-1378.971896
3146.069680,74.020594,-8142.265362,-1302.362347
3146.070008,962.267725,-9104.533087,-306.438199
3146.070335,962.267725,-8808.450710,229.828649
3146.070663,0.000000,-9252.574275,0.000000
3146.070990,-518.144159,-9918.759623,229.828649
3146.071318,666.185348,-10140.821405,-383.047749
3146.071645,1110.308913,-10214.842000,0.000000
3146.071973,0.000000,-10584.944971,1072.533697
3146.072301,-592.164754,-9622.677246,1455.581446
3146.072628,0.000000,-8734.430116,-536.266849
3146.072956,370.102971,-10436.903782,-612.876398
3146.073283,666.185348,-10510.924376,-383.047749
3146.073611,74.020594,-9474.636058,-306.438199
3146.073938,518.144159,-9548.656652,0.000000
3146.074266,1406.391290,-10436.903782,0.000000
3146.074594,1776.494261,-9770.718434,-995.924147
3146.074921,666.185348,-9474.636058,-229.828649
3146.075249,814.226536,-8142.265362,0.000000
3146.075576,-1406.391290,-8364.327145,536.266849
3146.075904,-3034.844362,-9548.656652,689.485948
3146.076231,-1998.556043,-8882.471304,-1149.143247
3146.076559,-3108.864956,-8216.285956,-1838.629195
3146.076886,-592.164754,-10732.986159,-842.705048
3146.077214,1480.411884,-11991.336260,0.000000
3146.077542,2294.638420,-10955.047942,153.219100
3146.077869,2368.659014,-11325.150913,153.219100
3146.078197,2072.576638,-10955.047942,76.609550
3146.078524,2220.617826,-9178.553681,-2374.896044
3146.078852,592.164754,-8586.388927,-153.219100
3146.079179,0.000000,-8142.265362,0.000000
3146.079507,-222.061783,-8290.306550,229.828649
3146.079834,-888.247130,-9992.780217,306.438199
3146.080162,-1258.350101,-10510.924376,-153.219100
3146.080490,-1406.391290,-8660.409521,383.047749
3146.080817,296.082377,-9178.553681,0.000000
3146.081145,1480.411884,-11029.068536,0.000000
3146.081472,1332.370696,-10807.006753,-536.266849
3146.081800,1036.288319,-10658.965565,76.609550
3146.082127,1776.494261,-10362.883188,0.000000
3146.082455,2960.823768,-8882.471304,-1685.410096
3146.082782,2516.700203,-9474.636058,-1072.533697
3146.083110,1480.411884,-9622.677246,229.828649
3146.083438,370.102971,-9326.594869,229.828649
3146.083765,0.000000,-10881.027347,-842.705048
3146.084093,222.061783,-9548.656652,-1302.362347
3146.084420,-888.247130,-8216.285956,-766.095498
3146.084748,-814.226536,-8734.430116,1225.752797
3146.085075,222.061783,-10732.986159,1149.143247
3146.085403,518.144159,-10584.944971,689.485948
3146.085730,592.164754,-9622.677246,-229.828649
3146.086058,1110.308913,-9252.574275,-536.266849
3146.086386,296.082377,-8068.244768,-612.876398
3146.086713,74.020594,-9400.615463,-1072.533697
3146.087041,592.164754,-10436.903782,-1991.848295
3146.087368,444.123565,-8956.491898,-1991.848295
3146.087696,-370.102971,-10881.027347,-229.828649
3146.088023,222.061783,-10732.986159,1532.190996
3146.088351,814.226536,-8364.327145,1225.752797
3146.088678,-666.185348,-9178.553681,1685.410096
3146.089006,-962.267725,-10658.965565,1302.362347
3146.089334,-1036.288319,-10584.944971,0.000000
3146.089661,-666.185348,-9474.636058,-1149.143247
3146.089989,370.102971,-9400.615463,-1378.971896
3146.090316,1110.308913,-9400.615463,-2221.676944
3146.090644,370.102971,-9918.759623,-612.876398
3146.090971,222.061783,-10584.944971,0.000000
3146.091299,296.082377,-10658.965565,0.000000
3146.091626,-222.061783,-10436.903782,-919.314598
3146.091954,-444.123565,-8956.491898,-536.266849
3146.092282,-962.267725,-7179.997637,0.000000
3146.092609,-962.267725,-8438.347739,153.219100
3146.092937,0.000000,-10732.986159,842.705048
3146.093264,1110.308913,-11103.089130,919.314598
3146.093592,2368.659014,-11251.130318,0.000000
3146.093919,2294.638420,-10584.944971,-229.828649
3146.094247,740.205942,-8882.471304,0.000000
3146.094575,-888.247130,-7994.224174,-919.314598
3146.094902,0.000000,-8956.491898,-1991.848295
3146.095230,444.123565,-9918.759623,-2451.505594
3146.095557,0.000000,-10658.965565,-229.828649
3146.095885,-444.123565,-10732.986159,1302.362347
3146.096212,888.247130,-9696.697840,1072.533697
3146.096540,0.000000,-8882.471304,0.000000
3146.096867,0.000000,-9844.739029,0.000000
3146.097195,740.205942,-9918.759623,689.485948
3146.097523,1332.370696,-8882.471304,153.219100
3146.097850,1110.308913,-9474.636058,459.657299
3146.098178,-370.102971,-9622.677246,153.219100
3146.098505,0.000000,-8956.491898,-766.095498
3146.098833,1258.350101,-10066.800811,-229.828649
3146.099160,2590.720797,-11399.171507,-383.047749
3146.099488,2220.617826,-10881.027347,229.828649
3146.099815,222.061783,-9770.718434,1302.362347
3146.100143,666.185348,-7920.203579,919.314598
3146.100471,-1184.329507,-7328.038826,306.438199
3146.100798,-2294.638420,-8438.347739,612.876398
3146.101126,-1924.535449,-8882.471304,-919.314598
3146.101453,-1480.411884,-9548.656652,-1149.143247
3146.101781,-444.123565,-9696.697840,-1149.143247
3146.102108,518.144159,-10362.883188,-536.266849
3146.102436,1332.370696,-9770.718434,0.000000
3146.102763,2368.659014,-10955.047942,-229.828649
3146.103091,2368.659014,-11325.150913,-306.438199
3146.103419,2516.700203,-9992.780217,-1991.848295
3146.103746,1702.473667,-9474.636058,-306.438199
3146.104074,370.102971,-7994.224174,612.876398
3146.104401,592.164754,-8364.327145,766.095498
3146.104729,0.000000,-9844.739029,919.314598
3146.105056,74.020594,-10955.047942,306.438199
3146.105384,-814.226536,-11251.130318,-383.047749
3146.105711,-962.267725,-10955.047942,-1608.800546
3146.106039,-518.144159,-8734.430116,-1532.190996
3146.106367,-666.185348,-8290.306550,-1225.752797
3146.106694,-1184.329507,-10807.006753,0.000000
3146.107022,296.082377,-11769.274478,-306.438199
3146.107349,1776.494261,-9992.780217,-1378.971896
3146.107677,1258.350101,-9474.636058,0.000000
3146.108004,1406.391290,-10066.800811,919.314598
3146.108332,666.185348,-8290.306550,842.705048
3146.108659,-148.041188,-9844.739029,689.485948
3146.108987,0.000000,-10510.924376,153.219100
3146.109315,370.102971,-9400.615463,-1378.971896
3146.109642,-1258.350101,-8808.450710,-842.705048
3146.109970,-2072.576638,-9474.636058,-153.219100
3146.110297,-2220.617826,-9104.533087,-229.828649
3146.110625,-888.247130,-8438.347739,-612.876398
3146.110952,518.144159,-9474.636058,-1532.190996
3146.111280,962.267725,-9178.553681,0.000000
3146.111607,666.185348,-8512.368333,919.314598
3146.111935,1258.350101,-9252.574275,1149.143247
3146.112263,1924.535449,-9178.553681,-383.047749
3146.112590,296.082377,-9178.553681,0.000000
3146.112918,518.144159,-10510.924376,1149.143247
3146.113245,2442.679609,-10140.821405,383.047749
3146.113573,2072.576638,-10362.883188,-383.047749
3146.113900,592.164754,-10362.883188,0.000000
3146.114228,-1850.514855,-9548.656652,0.000000
3146.114555,-1924.535449,-9770.718434,-536.266849
3146.114883,518.144159,-10288.862594,-2834.553343
3146.115211,1184.329507,-9030.512492,-2604.724693
3146.115538,148.041188,-9474.636058,-842.705048
3146.115866,444.123565,-10584.944971,1149.143247
3146.116193,962.267725,-10436.903782,995.924147
3146.116521,1110.308913,-9548.656652,0.000000
3146.116848,1036.288319,-9030.512492,-1225.752797
3146.117176,962.267725,-9622.677246,-1991.848295
3146.117504,444.123565,-9770.718434,-766.095498
3146.117831,666.185348,-10436.903782,459.657299
3146.118159,666.185348,-9622.677246,229.828649
3146.118486,148.041188,-10510.924376,612.876398
3146.118814,888.247130,-11251.130318,0.000000
3146.119141,1628.453072,-9918.759623,-1072.533697
3146.119469,148.041188,-8290.306550,536.266849
3146.119796,-1036.288319,-8586.388927,612.876398
3146.120124,-1110.308913,-8216.285956,919.314598
3146.120452,-1406.391290,-7920.203579,536.266849
3146.120779,-666.185348,-9474.636058,229.828649
3146.121107,222.061783,-10732.986159,-459.657299
3146.121434,666.185348,-9992.780217,-842.705048
3146.121762,0.000000,-10066.800811,-153.219100
3146.122089,444.123565,-10214.842000,0.000000
3146.122417,1110.308913,-8734.430116,536.266849
3146.122744,222.061783,-8438.347739,612.876398
3146.123072,666.185348,-8882.471304,919.314598
3146.123400,0.000000,-8956.491898,1149.143247
3146.123727,148.041188,-8882.471304,536.266849
3146.124055,222.061783,-9474.636058,306.438199
3146.124382,1110.308913,-10066.800811,-76.609550
3146.124710,0.000000,-9622.677246,0.000000
3146.125037,888.247130,-10066.800811,-459.657299
3146.125365,1036.288319,-9548.656652,-1072.533697
3146.125692,-666.185348,-10584.944971,-995.924147
3146.126020,-2146.597232,-10732.986159,-1225.752797
3146.126348,-1850.514855,-9104.533087,-1455.581446
3146.126675,-1554.432478,-7920.203579,-1838.629195
3146.127003,-148.041188,-9770.718434,-1455.581446
3146.127330,518.144159,-10362.883188,229.828649
3146.127658,666.185348,-10955.047942,1072.533697
3146.127985,1554.432478,-10807.006753,383.047749
3146.128313,1110.308913,-10436.903782,0.000000
3146.128640,370.102971,-9474.636058,-919.314598
3146.128968,888.247130,-9548.656652,-536.266849
3146.129296,1258.350101,-9548.656652,-766.095498
3146.129623,962.267725,-10214.842000,-536.266849
3146.129951,148.041188,-11177.109724,229.828649
3146.130278,-370.102971,-9030.512492,229.828649
3146.130606,-1184.329507,-8956.491898,0.000000
3146.130933,444.123565,-9770.718434,-995.924147
3146.131261,814.226536,-9770.718434,-842.705048
3146.131588,-1110.308913,-8808.450710,612.876398
3146.131916,-518.144159,-9844.739029,689.485948
3146.132244,518.144159,-9252.574275,306.438199
3146.132571,1332.370696,-8660.409521,0.000000
3146.132899,2960.823768,-9622.677246,306.438199
3146.133226,3627.009116,-11399.171507,612.876398
3146.133554,3108.864956,-11251.130318,689.485948
3146.133881,1998.556043,-10807.006753,153.219100
3146.134209,888.247130,-8216.285956,-383.047749
3146.134536,-962.267725,-7624.121203,-995.924147
3146.134864,-1628.453072,-9252.574275,-383.047749
3146.135192,-1628.453072,-8956.491898,-306.438199
3146.135519,-1628.453072,-10214.842000,0.000000
3146.135847,-1110.308913,-9474.636058,-306.438199
3146.136174,0.000000,-8660.409521,0.000000
3146.136502,-814.226536,-8142.265362,0.000000
3146.136829,592.164754,-10288.862594,-153.219100
3146.137157,1924.535449,-10658.965565,-612.876398
3146.137485,1924.535449,-10807.006753,-689.485948
3146.137812,1258.350101,-10732.986159,0.000000
3146.138140,1628.453072,-10658.965565,153.219100
3146.138467,296.082377,-9178.553681,919.314598
3146.138795,-1110.308913,-9474.636058,689.485948
3146.139122,-2368.659014,-9474.636058,-306.438199
3146.139450,-3256.906145,-10066.800811,-1149.143247
3146.139777,-2294.638420,-10362.883188,-1532.190996
3146.140105,-518.144159,-9844.739029,-1225.752797
3146.140433,-370.102971,-8512.368333,153.219100
3146.140760,370.102971,-9622.677246,1378.971896
3146.141088,1924.535449,-10807.006753,459.657299
3146.141415,2516.700203,-10658.965565,-153.219100
3146.141743,1406.391290,-9770.718434,-459.657299
3146.142070,592.164754,-8364.327145,0.000000
3146.142398,0.000000,-7476.080014,842.705048
3146.142726,-518.144159,-8808.450710,153.219100
3146.143053,518.144159,-10362.883188,-689.485948
3146.143381,0.000000,-10214.842000,0.000000
3146.143708,518.144159,-10658.965565,-383.047749
3146.144036,1258.350101,-10510.924376,-76.609550
3146.144363,444.123565,-7846.182985,1072.533697
3146.144691,444.123565,-7402.059420,1072.533697
3146.145019,888.247130,-9622.677246,306.438199
3146.145346,1776.494261,-10436.903782,-536.266849
3146.145674,1184.329507,-9992.780217,-689.485948
3146.146001,1406.391290,-9252.574275,0.000000
3146.146329,740.205942,-9030.512492,0.000000
3146.146657,74.020594,-11103.089130,0.000000
3146.146984,74.020594,-11029.068536,-766.095498
3146.147312,518.144159,-9770.718434,-1838.629195
3146.147639,148.041188,-9548.656652,-689.485948
3146.147967,962.267725,-9992.780217,536.266849
3146.148294,222.061783,-8734.430116,1302.362347
3146.148622,888.247130,-9918.759623,1225.752797
3146.148950,3256.906145,-10436.903782,153.219100
3146.149277,4219.173869,-11029.068536,-612.876398
3146.149605,1998.556043,-10732.986159,689.485948
3146.149932,1258.350101,-9844.739029,1685.410096
3146.150260,222.061783,-7105.977043,-1302.362347
3146.150588,-1998.556043,-8882.471304,-1915.238745
3146.150915,-2738.761985,-10658.965565,-1915.238745
3146.151243,-2664.741391,-10436.903782,-2221.676944
3146.151570,-2368.659014,-9992.780217,-842.705048
3146.151898,-814.226536,-10288.862594,-536.266849
3146.152225,666.185348,-9696.697840,612.876398
3146.152553,814.226536,-8438.347739,1072.533697
3146.152881,2294.638420,-9844.739029,1455.581446
3146.153208,2442.679609,-10658.965565,459.657299
3146.153536,1998.556043,-10066.800811,0.000000
3146.153863,296.082377,-9178.553681,0.000000
3146.154191,-222.061783,-8660.409521,-919.314598
3146.154519,-1628.453072,-8438.347739,-689.485948
3146.154846,-1554.432478,-11103.089130,-459.657299
3146.155174,-1184.329507,-11029.068536,-995.924147
3146.155501,-1702.473667,-10140.821405,-995.924147
3146.155829,-740.205942,-10658.965565,-459.657299
3146.156156,0.000000,-8956.491898,536.266849
3146.156484,-592.164754,-7994.224174,1225.752797
3146.156812,0.000000,-10140.821405,689.485948
3146.157139,1776.494261,-10881.027347,0.000000
3146.157467,2368.659014,-9770.718434,-306.438199
3146.157794,2368.659014,-9622.677246,0.000000
3146.158122,2738.761985,-9400.615463,-995.924147
3146.158450,1702.473667,-9992.780217,-1072.533697
3146.158777,666.185348,-11843.295072,-919.314598
3146.159105,-148.041188,-10214.842000,-1225.752797
3146.159432,-888.247130,-8956.491898,-2145.067394
3146.159760,-2146.597232,-10584.944971,536.266849
3146.160087,-1480.411884,-9548.656652,842.705048
3146.160415,-740.205942,-7476.080014,459.657299
3146.160743,-592.164754,-8956.491898,1072.533697
3146.161070,1480.411884,-9326.594869,459.657299
3146.161398,2072.576638,-8142.265362,-842.705048
3146.161725,1406.391290,-9474.636058,0.000000
3146.162053,3034.844362,-9178.553681,-383.047749
3146.162381,2368.659014,-8586.388927,-383.047749
3146.162708,74.020594,-11399.171507,1149.143247
3146.163036,1332.370696,-11325.150913,306.438199
3146.163363,2442.679609,-10584.944971,-842.705048
3146.163691,222.061783,-10436.903782,459.657299
3146.164018,-1110.308913,-9474.636058,2068.457845
3146.164346,-1776.494261,-7328.038826,766.095498
3146.164674,-1554.432478,-8660.409521,0.000000
3146.165001,-666.185348,-10362.883188,-383.047749
3146.165329,1184.329507,-9622.677246,-1685.410096
3146.165656,0.000000,-8734.430116,153.219100
3146.165984,0.000000,-9844.739029,1225.752797
3146.166312,444.123565,-9548.656652,-1532.190996
3146.166639,-666.185348,-10066.800811,-1378.971896
3146.166967,-370.102971,-10140.821405,-1378.971896
3146.167294,-296.082377,-9030.512492,-1532.190996
3146.167622,-1998.556043,-9474.636058,229.828649
3146.167949,-962.267725,-9918.759623,919.314598
3146.168277,888.247130,-9918.759623,1225.752797
3146.168605,296.082377,-10807.006753,1455.581446
3146.168932,1332.370696,-11769.274478,1685.410096
3146.169260,2072.576638,-10066.800811,0.000000
3146.169587,444.123565,-9252.574275,-919.314598
3146.169915,-666.185348,-9622.677246,-842.705048
3146.170243,-518.144159,-8364.327145,-1072.533697
3146.170570,-666.185348,-9178.553681,-459.657299
3146.170898,0.000000,-10807.006753,-459.657299
3146.171225,0.000000,-9918.759623,-459.657299
3146.171553,-962.267725,-9474.636058,0.000000
3146.171880,-1110.308913,-10955.047942,536.266849
3146.172208,222.061783,-8956.491898,-766.095498
3146.172536,-1332.370696,-7698.141797,-612.876398
3146.172863,-1036.288319,-9326.594869,995.924147
3146.173191,1850.514855,-10288.862594,153.219100
3146.173518,3034.844362,-10436.903782,-383.047749
3146.173846,2664.741391,-10807.006753,766.095498
3146.174174,2442.679609,-9548.656652,689.485948
3146.174501,1702.473667,-9030.512492,-612.876398
3146.174829,740.205942,-9030.512492,0.000000
3146.175156,592.164754,-7994.224174,-1149.143247
3146.175484,-2146.597232,-7994.224174,-995.924147
3146.175811,-3256.906145,-10807.006753,612.876398
3146.176139,-1776.494261,-9474.636058,-689.485948
3146.176467,-1036.288319,-8512.368333,-1608.800546
3146.176794,-1036.288319,-10066.800811,0.000000
3146.177122,1924.535449,-10732.986159,-689.485948
3146.177449,2146.597232,-10658.965565,-383.047749
