#time,accel_x,accel_y,accel_z
2204.967329,666.185348,-9252.574275,612.876398
2204.967657,0.000000,-8586.388927,689.485948
2204.967984,0.000000,-8808.450710,306.438199
2204.968312,0.000000,-8734.430116,0.000000
2204.968640,0.000000,-9178.553681,-229.828649
2204.968968,-296.082377,-8956.491898,0.000000
2204.969295,222.061783,-9770.718434,0.000000
2204.969623,592.164754,-9770.718434,0.000000
2204.969951,592.164754,-9696.697840,-306.438199
2204.970278,740.205942,-9844.739029,383.047749
2204.970606,592.164754,-9696.697840,229.828649
2204.970934,518.144159,-9104.533087,383.047749
2204.971262,518.144159,-9030.512492,76.609550
2204.971589,148.041188,-9326.594869,153.219100
2204.971917,-74.020594,-9030.512492,229.828649
2204.972245,0.000000,-9474.636058,-229.828649
2204.972572,0.000000,-10288.862594,-383.047749
2204.972900,296.082377,-10436.903782,-689.485948
2204.973228,370.102971,-10510.924376,-766.095498
2204.973555,592.164754,-10214.842000,-306.438199
2204.973883,518.144159,-10140.821405,-229.828649
2204.974211,740.205942,-10214.842000,229.828649
2204.974539,592.164754,-9548.656652,-229.828649
2204.974866,370.102971,-9844.739029,-306.438199
2204.975194,74.020594,-9474.636058,-306.438199
2204.975522,0.000000,-9548.656652,-536.266849
2204.975849,148.041188,-9400.615463,-153.219100
2204.976177,74.020594,-9696.697840,-1072.533697
2204.976505,0.000000,-9844.739029,-995.924147
2204.976833,370.102971,-10140.821405,-612.876398
2204.977160,592.164754,-10510.924376,-306.438199
2204.977488,518.144159,-10214.842000,0.000000
2204.977816,814.226536,-9844.739029,306.438199
2204.978143,296.082377,-9104.533087,306.438199
2204.978471,518.144159,-9178.553681,76.609550
2204.978799,0.000000,-9104.533087,459.657299
2204.979126,-148.041188,-8586.388927,0.000000
2204.979454,0.000000,-8956.491898,0.000000
2204.979782,0.000000,-9252.574275,-306.438199
2204.980110,148.041188,-9474.636058,-306.438199
2204.980437,444.123565,-9770.718434,0.000000
2204.980765,444.123565,-9844.739029,0.000000
2204.981093,888.247130,-9992.780217,0.000000
2204.981420,814.226536,-9992.780217,229.828649
2204.981748,518.144159,-9696.697840,229.828649
2204.982076,370.102971,-9548.656652,0.000000
2204.982403,222.061783,-9548.656652,0.000000
2204.982731,148.041188,-9548.656652,0.000000
2204.983059,-444.123565,-9474.636058,383.047749
2204.983387,74.020594,-10066.800811,-1225.752797
2204.983714,-222.061783,-10066.800811,-229.828649
2204.984042,296.082377,-10658.965565,-459.657299
2204.984370,444.123565,-10584.944971,-459.657299
2204.984697,666.185348,-10732.986159,-536.266849
2204.985025,888.247130,-10140.821405,0.000000
2204.985353,1332.370696,-9326.594869,306.438199
2204.985681,1628.453072,-9400.615463,0.000000
2204.986008,1924.535449,-9252.574275,306.438199
2204.986336,2368.659014,-8290.306550,0.000000
2204.986664,2368.659014,-8660.409521,-306.438199
2204.986991,2294.638420,-9770.718434,-229.828649
2204.987319,3108.864956,-9844.739029,-536.266849
2204.987647,4959.379811,-9252.574275,-1838.629195
2204.987974,5847.626942,-9992.780217,-1225.752797
2204.988302,6513.812290,-11473.192101,0.000000
2204.988630,6587.832884,-10807.006753,612.876398
2204.988958,6217.729913,-10436.903782,766.095498
2204.989285,5329.482782,-9844.739029,612.876398
2204.989613,5477.523971,-8808.450710,229.828649
2204.989941,5329.482782,-7920.203579,459.657299
2204.990268,6143.709319,-8734.430116,153.219100
2204.990596,7105.977043,-8216.285956,383.047749
2204.990924,8660.409521,-9178.553681,0.000000
2204.991252,8290.306550,-9474.636058,229.828649
2204.991579,7920.203579,-9696.697840,0.000000
2204.991907,7994.224174,-9474.636058,-306.438199
2204.992235,8438.347739,-10436.903782,-459.657299
2204.992562,8734.430116,-10881.027347,-383.047749
2204.992890,8808.450710,-10584.944971,0.000000
2204.993218,8068.244768,-10584.944971,1302.362347
2204.993545,7105.977043,-10436.903782,1762.019645
2204.993873,5403.503377,-9770.718434,842.705048
2204.994201,4293.194464,-8882.471304,-306.438199
2204.994529,3478.967927,-7698.141797,-1072.533697
2204.994856,3478.967927,-7402.059420,-536.266849
2204.995184,4515.256246,-8660.409521,-306.438199
2204.995512,5551.544565,-9400.615463,689.485948
2204.995839,5773.606348,-10066.800811,842.705048
2204.996167,5329.482782,-11473.192101,536.266849
2204.996495,4441.235652,-12213.398043,76.609550
2204.996822,3256.906145,-12213.398043,-842.705048
2204.997150,814.226536,-11695.253884,-1608.800546
2204.997478,-1628.453072,-11251.130318,-383.047749
2204.997806,-3330.926739,-10288.862594,-383.047749
2204.998133,-4219.173869,-9474.636058,229.828649
2204.998461,-4885.359217,-8660.409521,306.438199
2204.998789,-4663.297435,-7994.224174,0.000000
2204.999116,-4071.132681,-7031.956449,-306.438199
2204.999444,-3552.988522,-6069.688724,-842.705048
2204.999772,-2738.761985,-5995.668130,229.828649
2205.000100,-222.061783,-6661.853478,612.876398
2205.000427,2368.659014,-8956.491898,995.924147
2205.000755,3849.070898,-10955.047942,1532.190996
2205.001083,4145.153275,-13101.645173,536.266849
2205.001410,1776.494261,-13915.871710,153.219100
2205.001738,-2146.597232,-14285.974681,-1072.533697
2205.002066,-4515.256246,-12361.439231,-2374.896044
2205.002393,-7476.080014,-11029.068536,-2374.896044
2205.002721,-8364.327145,-10066.800811,-1378.971896
2205.003049,-6809.894666,-7772.162391,-766.095498
2205.003377,-6661.853478,-5477.523971,153.219100
2205.003704,-6439.791695,-4441.235652,2298.286494
2205.004032,-4145.153275,-4219.173869,766.095498
2205.004360,-2442.679609,-3849.070898,-536.266849
2205.004687,74.020594,-7179.997637,-689.485948
2205.005015,3034.844362,-9178.553681,-536.266849
2205.005343,4885.359217,-12805.562797,-1072.533697
2205.005671,4145.153275,-16506.592507,-919.314598
2205.005998,3775.050304,-17246.798449,-2221.676944
2205.006326,2072.576638,-15618.345376,-3217.601092
2205.006654,-1332.370696,-15322.262999,-3217.601092
2205.006981,-2442.679609,-13027.624579,-2374.896044
2205.007309,-2590.720797,-9252.574275,-1762.019645
2205.007637,-2516.700203,-6735.874072,0.000000
2205.007964,-2146.597232,-3923.091493,1302.362347
2205.008292,-1628.453072,0.000000,2528.115143
2205.008620,1702.473667,-1702.473667,1608.800546
2205.008948,4737.318029,-5033.400406,1915.238745
2205.009275,8586.388927,-8586.388927,383.047749
2205.009603,9474.636058,-11843.295072,689.485948
2205.009931,9622.677246,-15470.304188,842.705048
2205.010258,8290.306550,-17320.819043,-689.485948
2205.010586,6069.688724,-18357.107362,-1762.019645
2205.010914,2516.700203,-16062.468941,-1378.971896
2205.011241,-592.164754,-13471.748144,-2068.457845
2205.011569,-1480.411884,-10658.965565,-1991.848295
2205.011897,-2960.823768,-6883.915261,0.000000
2205.012225,-2960.823768,-3923.091493,919.314598
2205.012552,-2146.597232,370.102971,1915.238745
2205.012880,-444.123565,222.061783,1762.019645
2205.013208,2664.741391,-2294.638420,2068.457845
2205.013535,7550.100608,-7031.956449,1838.629195
2205.013863,10584.944971,-11103.089130,2451.505594
2205.014191,10658.965565,-14804.118840,3370.820191
2205.014519,8364.327145,-18209.066173,1532.190996
2205.014846,5477.523971,-19245.354492,-842.705048
2205.015174,518.144159,-16802.674883,-3370.820191
2205.015502,-3478.967927,-15470.304188,-4213.525239
2205.015829,-6143.709319,-13027.624579,-3217.601092
2205.016157,-7402.059420,-9104.533087,-2604.724693
2205.016485,-9030.512492,-4959.379811,-1302.362347
2205.016812,-9178.553681,-2146.597232,0.000000
2205.017140,-6957.935855,74.020594,919.314598
2205.017468,-3108.864956,-1628.453072,1378.971896
2205.017796,1258.350101,-4441.235652,1685.410096
2205.018123,6069.688724,-9400.615463,2911.162892
2205.018451,6661.853478,-12361.439231,4596.572988
2205.018779,5699.585753,-15322.262999,3753.867940
2205.019106,2368.659014,-17987.004391,766.095498
2205.019434,-1480.411884,-18283.086767,-1685.410096
2205.019762,-4885.359217,-16950.716072,-4443.353888
2205.020090,-7920.203579,-13175.665768,-5132.839837
2205.020417,-9474.636058,-9918.759623,-4749.792088
2205.020745,-10584.944971,-5921.647536,-3217.601092
2205.021073,-10362.883188,-2368.659014,-1762.019645
2205.021400,-7994.224174,-962.267725,0.000000
2205.021728,-3923.091493,-1036.288319,229.828649
2205.022056,1110.308913,-2738.761985,1072.533697
2205.022383,5773.606348,-8660.409521,2068.457845
2205.022711,7772.162391,-10807.006753,4213.525239
2205.023039,7920.203579,-11843.295072,3983.696590
2205.023367,7550.100608,-17098.757260,919.314598
2205.023694,3256.906145,-18135.045579,-1762.019645
2205.024022,518.144159,-18061.024985,-4596.572988
2205.024350,-2368.659014,-14434.015869,-4903.011187
2205.024677,-5699.585753,-11029.068536,-4826.401637
2205.025005,-6291.750507,-7179.997637,-3370.820191
2205.025333,-5699.585753,-4515.256246,-2834.553343
2205.025661,-4219.173869,-2664.741391,-842.705048
2205.025988,518.144159,-2960.823768,306.438199
2205.026316,4589.276840,-4515.256246,1455.581446
2205.026644,8734.430116,-8660.409521,2298.286494
2205.026971,8956.491898,-10658.965565,5132.839837
2205.027299,8956.491898,-12509.480420,3907.087040
2205.027627,8290.306550,-14508.036463,1838.629195
2205.027954,5033.400406,-16580.613101,0.000000
2205.028282,1998.556043,-15618.345376,-2681.334243
2205.028610,-1480.411884,-14434.015869,-3524.039291
2205.028938,-2368.659014,-12805.562797,-3677.258390
2205.029265,-4589.276840,-7476.080014,-2451.505594
2205.029593,-4071.132681,-4367.215058,-2298.286494
2205.029921,-2664.741391,-2664.741391,306.438199
2205.030248,518.144159,-2738.761985,919.314598
2205.030576,5329.482782,-4219.173869,1608.800546
2205.030904,8142.265362,-7994.224174,3600.648841
2205.031231,8290.306550,-10362.883188,5822.325785
2205.031559,9178.553681,-12509.480420,4060.306139
2205.031887,7031.956449,-13989.892304,2298.286494
2205.032215,2738.761985,-15470.304188,-229.828649
2205.032542,1776.494261,-15766.386565,-2834.553343
2205.032870,-3627.009116,-12731.542202,-2374.896044
2205.033198,-6217.729913,-8956.491898,-2451.505594
2205.033525,-6587.832884,-6809.894666,-2987.772442
2205.033853,-7402.059420,-4811.338623,-2451.505594
2205.034181,-6439.791695,-3108.864956,-306.438199
2205.034508,-3330.926739,-3256.906145,-153.219100
2205.034836,666.185348,-5995.668130,536.266849
2205.035163,3701.029710,-9400.615463,2145.067394
2205.035490,5107.421000,-10732.986159,2681.334243
2205.035818,4885.359217,-12583.501014,2451.505594
2205.036145,2590.720797,-15026.180623,1302.362347
2205.036473,1998.556043,-16580.613101,-1149.143247
2205.036800,-1850.514855,-15396.283594,-2298.286494
2205.037128,-4959.379811,-12139.377449,-1991.848295
2205.037455,-6217.729913,-8586.388927,-2374.896044
2205.037782,-7698.141797,-6439.791695,-2451.505594
2205.038110,-7550.100608,-5847.626942,-3294.210641
2205.038437,-6661.853478,-3701.029710,-1225.752797
2205.038765,-3330.926739,-3849.070898,-1072.533697
2205.039092,148.041188,-7624.121203,153.219100
2205.039419,3478.967927,-10807.006753,2068.457845
2205.039747,4885.359217,-11399.171507,2681.334243
2205.040074,4737.318029,-12953.603985,2221.676944
2205.040402,4737.318029,-15396.283594,919.314598
2205.040729,2812.782580,-15618.345376,-229.828649
2205.041057,0.000000,-12953.603985,-229.828649
2205.041384,-2664.741391,-9918.759623,-919.314598
2205.041711,-5181.441594,-7031.956449,-1915.238745
2205.042039,-5329.482782,-4885.359217,-2451.505594
2205.042366,-4367.215058,-4589.276840,-1915.238745
2205.042694,-3256.906145,-4145.153275,-612.876398
2205.043021,814.226536,-5699.585753,-919.314598
2205.043348,3997.112087,-8438.347739,-689.485948
2205.043676,5033.400406,-12435.459826,1455.581446
2205.044003,6587.832884,-13027.624579,2681.334243
2205.044331,7550.100608,-13693.809927,1915.238745
2205.044658,6439.791695,-15322.262999,995.924147
2205.044986,4811.338623,-15100.201217,0.000000
2205.045313,2590.720797,-13027.624579,-459.657299
2205.045640,-888.247130,-9474.636058,0.000000
2205.045968,-3256.906145,-5403.503377,-995.924147
2205.046295,-3478.967927,-4737.318029,-2757.943793
2205.046623,-2886.803174,-5921.647536,-2987.772442
2205.046950,-666.185348,-5255.462188,-1915.238745
2205.047277,3256.906145,-5995.668130,-1608.800546
2205.047605,5403.503377,-9548.656652,1455.581446
2205.047932,6587.832884,-12805.562797,3677.258390
2205.048260,8290.306550,-13767.830521,2451.505594
2205.048587,5921.647536,-14285.974681,1991.848295
2205.048914,4663.297435,-15248.242405,459.657299
2205.049242,3923.091493,-14730.098246,-153.219100
2205.049569,-740.205942,-12213.398043,-383.047749
2205.049897,-3701.029710,-8512.368333,-229.828649
2205.050224,-5477.523971,-6217.729913,-1072.533697
2205.050552,-5255.462188,-4441.235652,-2298.286494
2205.050879,-5181.441594,-5181.441594,-2221.676944
2205.051206,-3775.050304,-5329.482782,-1685.410096
2205.051534,-296.082377,-6587.832884,-612.876398
2205.051861,2146.597232,-9400.615463,1991.848295
2205.052189,2072.576638,-10658.965565,2757.943793
2205.052516,3849.070898,-11917.315666,2528.115143
2205.052843,2738.761985,-13027.624579,1991.848295
2205.053171,1776.494261,-14285.974681,229.828649
2205.053498,-222.061783,-13693.809927,-612.876398
2205.053826,-3627.009116,-10510.924376,0.000000
2205.054153,-5699.585753,-7698.141797,-689.485948
2205.054481,-6883.915261,-5403.503377,-1302.362347
2205.054808,-7031.956449,-4515.256246,-1608.800546
2205.055135,-5477.523971,-5699.585753,-1532.190996
2205.055463,-2146.597232,-6069.688724,-1762.019645
2205.055790,0.000000,-6957.935855,76.609550
2205.056118,2146.597232,-10436.903782,2068.457845
2205.056445,3552.988522,-11029.068536,2298.286494
2205.056772,3404.947333,-12805.562797,995.924147
2205.057100,3108.864956,-14359.995275,-306.438199
2205.057427,1924.535449,-14211.954086,-1608.800546
2205.057755,0.000000,-13027.624579,-1838.629195
2205.058082,-2516.700203,-11177.109724,-1915.238745
2205.058410,-4663.297435,-8512.368333,-2451.505594
2205.058737,-4293.194464,-6069.688724,-2451.505594
2205.059064,-3923.091493,-5921.647536,-2145.067394
2205.059392,-1258.350101,-6587.832884,-1915.238745
2205.059719,1776.494261,-6365.771101,-919.314598
2205.060047,3849.070898,-8364.327145,766.095498
2205.060374,4737.318029,-11103.089130,2374.896044
2205.060701,5329.482782,-12657.521608,2911.162892
2205.061029,5403.503377,-12731.542202,919.314598
2205.061356,4441.235652,-13397.727550,766.095498
2205.061684,2738.761985,-14434.015869,-766.095498
2205.062011,1554.432478,-13175.665768,-1378.971896
2205.062339,-1850.514855,-9844.739029,-995.924147
2205.062666,-3552.988522,-6957.935855,-1685.410096
2205.062993,-2664.741391,-6217.729913,-2451.505594
2205.063321,-1332.370696,-6439.791695,-1838.629195
2205.063648,740.205942,-5033.400406,-229.828649
2205.063976,3775.050304,-5329.482782,536.266849
2205.064303,5699.585753,-8068.244768,1991.848295
2205.064630,5625.565159,-10288.862594,3907.087040
2205.064958,5773.606348,-10955.047942,3524.039291
2205.065285,5033.400406,-11917.315666,2528.115143
2205.065613,3404.947333,-13397.727550,612.876398
2205.065940,1850.514855,-13767.830521,-842.705048
2205.066267,-814.226536,-12657.521608,-1378.971896
2205.066595,-3182.885551,-10288.862594,-1302.362347
2205.066922,-3923.091493,-7179.997637,-1685.410096
2205.067250,-3775.050304,-5921.647536,-2145.067394
2205.067577,-3552.988522,-6735.874072,-1532.190996
2205.067905,-666.185348,-6587.832884,-842.705048
2205.068232,2220.617826,-7179.997637,-229.828649
2205.068559,2664.741391,-9400.615463,2221.676944
2205.068887,3034.844362,-11251.130318,2834.553343
2205.069214,3552.988522,-12213.398043,1608.800546
2205.069542,1998.556043,-12583.501014,229.828649
2205.069869,518.144159,-13989.892304,-1072.533697
2205.070196,-444.123565,-13915.871710,-1072.533697
2205.070524,-3997.112087,-10955.047942,-306.438199
2205.070851,-5033.400406,-9104.533087,-1225.752797
2205.071179,-5847.626942,-6957.935855,-2451.505594
2205.071506,-5699.585753,-6217.729913,-2604.724693
2205.071834,-4367.215058,-6661.853478,-2221.676944
2205.072161,-1628.453072,-6587.832884,-1072.533697
2205.072488,370.102971,-7254.018232,919.314598
2205.072816,1924.535449,-10362.883188,2068.457845
2205.073143,2294.638420,-11991.336260,1149.143247
2205.073471,2516.700203,-12805.562797,919.314598
2205.073798,2886.803174,-13101.645173,0.000000
2205.074125,444.123565,-13101.645173,0.000000
2205.074453,-1258.350101,-12213.398043,-229.828649
2205.074780,-2738.761985,-9474.636058,-459.657299
2205.075108,-4515.256246,-7179.997637,-612.876398
2205.075435,-4737.318029,-5995.668130,-1378.971896
2205.075763,-3552.988522,-5773.606348,-1991.848295
2205.076090,-1480.411884,-5995.668130,-1532.190996
2205.076417,1184.329507,-6439.791695,-383.047749
2205.076745,3404.947333,-8660.409521,842.705048
2205.077072,4515.256246,-11103.089130,2298.286494
2205.077400,5255.462188,-12139.377449,2451.505594
2205.077727,4737.318029,-11991.336260,1608.800546
2205.078054,3997.112087,-13693.809927,0.000000
2205.078382,2368.659014,-14285.974681,0.000000
2205.078709,74.020594,-12435.459826,0.000000
2205.079037,-1702.473667,-9548.656652,-766.095498
2205.079364,-3108.864956,-7254.018232,-1915.238745
2205.079691,-3034.844362,-5477.523971,-3064.381992
2205.080019,-1554.432478,-6217.729913,-3064.381992
2205.080346,296.082377,-6291.750507,-1225.752797
2205.080674,4367.215058,-7254.018232,-612.876398
2205.081001,6143.709319,-10066.800811,1378.971896
2205.081329,6143.709319,-11917.315666,3524.039291
2205.081656,6661.853478,-12657.521608,2451.505594
2205.081983,5403.503377,-12657.521608,2145.067394
2205.082311,2812.782580,-13323.706956,459.657299
2205.082638,814.226536,-13249.686362,-1225.752797
2205.082966,-1184.329507,-11621.233289,-1762.019645
2205.083293,-4293.194464,-8512.368333,-1149.143247
2205.083620,-4663.297435,-6809.894666,-1991.848295
2205.083948,-4219.173869,-6069.688724,-2528.115143
2205.084275,-3108.864956,-7328.038826,-2221.676944
2205.084603,296.082377,-6069.688724,-1149.143247
2205.084930,3627.009116,-6883.915261,153.219100
2205.085258,5625.565159,-10510.924376,2681.334243
2205.085585,5181.441594,-11843.295072,3753.867940
2205.085912,4959.379811,-12731.542202,2528.115143
2205.086240,3627.009116,-13101.645173,1838.629195
2205.086567,1776.494261,-13101.645173,536.266849
2205.086895,-740.205942,-12435.459826,-1302.362347
2205.087222,-3627.009116,-10362.883188,-536.266849
2205.087549,-5625.565159,-7698.141797,-1762.019645
2205.087877,-6661.853478,-5033.400406,-3064.381992
2205.088204,-6661.853478,-6069.688724,-2604.724693
2205.088532,-4737.318029,-6587.832884,-1532.190996
2205.088859,-518.144159,-6143.709319,-766.095498
2205.089187,1628.453072,-8290.306550,689.485948
2205.089514,4293.194464,-11399.171507,2834.553343
2205.089841,4293.194464,-11547.212695,2911.162892
2205.090169,2960.823768,-11843.295072,2068.457845
2205.090496,1924.535449,-14211.954086,383.047749
2205.090824,148.041188,-14434.015869,-1762.019645
2205.091151,-2886.803174,-11621.233289,-995.924147
2205.091478,-4959.379811,-10288.862594,-1838.629195
2205.091806,-5107.421000,-8068.244768,-3447.429741
2205.092133,-5329.482782,-6439.791695,-3217.601092
2205.092461,-4737.318029,-6587.832884,-2221.676944
2205.092788,-1702.473667,-6587.832884,-919.314598
2205.093115,2368.659014,-7179.997637,-842.705048
2205.093443,4737.318029,-8956.491898,1455.581446
2205.093770,4663.297435,-10955.047942,1915.238745
2205.094098,4737.318029,-11695.253884,2528.115143
2205.094425,3404.947333,-12139.377449,1455.581446
2205.094753,2516.700203,-13767.830521,0.000000
2205.095080,370.102971,-14211.954086,-1378.971896
2205.095407,-1924.535449,-12213.398043,-1685.410096
2205.095735,-3923.091493,-9474.636058,-2374.896044
2205.096062,-4367.215058,-7105.977043,-2757.943793
2205.096390,-3997.112087,-5921.647536,-3294.210641
2205.096717,-2442.679609,-5625.565159,-1378.971896
2205.097044,1998.556043,-5329.482782,-306.438199
2205.097372,5329.482782,-6365.771101,1072.533697
2205.097699,7179.997637,-8808.450710,3600.648841
2205.098027,7402.059420,-10214.842000,4826.401637
2205.098354,6957.935855,-11695.253884,3524.039291
2205.098682,5107.421000,-11843.295072,1455.581446
2205.099009,2516.700203,-14063.912898,-1149.143247
2205.099336,740.205942,-14285.974681,-2221.676944
2205.099664,-1702.473667,-12213.398043,-2374.896044
2205.099991,-3478.967927,-9252.574275,-2298.286494
2205.100319,-3330.926739,-7476.080014,-2068.457845
2205.100646,-2664.741391,-6735.874072,-2145.067394
2205.100973,-1924.535449,-5921.647536,-919.314598
2205.101301,1406.391290,-4959.379811,-229.828649
2205.101628,4663.297435,-7179.997637,766.095498
2205.101956,5699.585753,-9844.739029,3294.210641
2205.102283,5625.565159,-10881.027347,4443.353888
2205.102611,4885.359217,-12583.501014,2221.676944
2205.102938,2738.761985,-13989.892304,1302.362347
2205.103265,296.082377,-14285.974681,-995.924147
2205.103593,-1332.370696,-13989.892304,-2145.067394
2205.103920,-3849.070898,-11695.253884,-2145.067394
2205.104248,-5255.462188,-8734.430116,-2068.457845
2205.104575,-6143.709319,-5773.606348,-2298.286494
2205.104902,-5255.462188,-6217.729913,-2834.553343
2205.105230,-4367.215058,-5033.400406,0.000000
2205.105557,-370.102971,-4589.276840,229.828649
2205.105885,1776.494261,-7105.977043,1685.410096
2205.106212,3552.988522,-10214.842000,2451.505594
2205.106540,3849.070898,-11399.171507,1225.752797
2205.106867,2368.659014,-13027.624579,842.705048
2205.107194,1998.556043,-15174.221811,-459.657299
2205.107522,0.000000,-14508.036463,-1455.581446
2205.107849,-2886.803174,-13101.645173,-1762.019645
2205.108177,-4737.318029,-11103.089130,-2528.115143
2205.108504,-5329.482782,-7624.121203,-2451.505594
2205.108831,-5699.585753,-5107.421000,-2145.067394
2205.109159,-5403.503377,-4737.318029,-995.924147
2205.109486,-1850.514855,-5995.668130,-383.047749
2205.109814,1702.473667,-6735.874072,-229.828649
2205.110141,3330.926739,-8956.491898,1838.629195
2205.110468,4219.173869,-11103.089130,2757.943793
2205.110796,4293.194464,-11547.212695,2374.896044
2205.111123,3404.947333,-13101.645173,842.705048
2205.111451,2072.576638,-14285.974681,-383.047749
2205.111778,518.144159,-14211.954086,-612.876398
2205.112106,-1184.329507,-12287.418637,-919.314598
2205.112433,-3330.926739,-10140.821405,-2221.676944
2205.112760,-4219.173869,-7402.059420,-3064.381992
2205.113088,-3552.988522,-5625.565159,-3294.210641
2205.113415,-2368.659014,-5625.565159,-1685.410096
2205.113743,814.226536,-5107.421000,76.609550
2205.114070,5329.482782,-6587.832884,995.924147
2205.114397,7105.977043,-9178.553681,2911.162892
2205.114725,7031.956449,-11621.233289,4213.525239
2205.115052,7105.977043,-12435.459826,3140.991542
2205.115380,5995.668130,-13693.809927,1455.581446
2205.115707,3923.091493,-14804.118840,383.047749
2205.116035,1258.350101,-13249.686362,-766.095498
2205.116362,-1702.473667,-11103.089130,-1149.143247
2205.116689,-4219.173869,-8216.285956,-2068.457845
2205.117017,-4515.256246,-6069.688724,-3140.991542
2205.117344,-3923.091493,-5921.647536,-2987.772442
2205.117672,-2738.761985,-6365.771101,-1608.800546
2205.117999,1184.329507,-5551.544565,-766.095498
2205.118326,4589.276840,-7254.018232,0.000000
2205.118654,4959.379811,-9770.718434,2987.772442
2205.118981,5625.565159,-10732.986159,3907.087040
2205.119309,5921.647536,-11991.336260,2451.505594
2205.119636,3627.009116,-14063.912898,1532.190996
2205.119964,2072.576638,-14582.057057,0.000000
2205.120291,-296.082377,-12731.542202,-1302.362347
2205.120618,-3404.947333,-10881.027347,-1302.362347
2205.120946,-5107.421000,-8956.491898,-2145.067394
2205.121273,-5699.585753,-5773.606348,-3064.381992
2205.121601,-5847.626942,-6365.771101,-2451.505594
2205.121928,-3775.050304,-6217.729913,-1455.581446
2205.122255,148.041188,-6365.771101,-995.924147
2205.122583,2516.700203,-8734.430116,1455.581446
2205.122910,3775.050304,-10955.047942,2528.115143
2205.123238,4663.297435,-11399.171507,2604.724693
2205.123565,2886.803174,-12509.480420,536.266849
2205.123892,2072.576638,-13767.830521,-459.657299
2205.124220,-296.082377,-13397.727550,-1225.752797
2205.124547,-2590.720797,-11843.295072,-1149.143247
2205.124875,-4737.318029,-10066.800811,-1685.410096
2205.125202,-5699.585753,-6883.915261,-2834.553343
2205.125530,-5551.544565,-6217.729913,-3370.820191
2205.125857,-4515.256246,-6439.791695,-2451.505594
2205.126184,-1628.453072,-6217.729913,-536.266849
2205.126512,1924.535449,-6883.915261,306.438199
2205.126839,3701.029710,-9696.697840,2374.896044
2205.127167,3775.050304,-11473.192101,3140.991542
2205.127494,3404.947333,-11695.253884,2298.286494
2205.127821,2442.679609,-12361.439231,1302.362347
2205.128149,1110.308913,-12805.562797,0.000000
2205.128476,-1110.308913,-13249.686362,-1455.581446
2205.128804,-1850.514855,-12065.356855,-2374.896044
2205.129131,-4145.153275,-9252.574275,-2145.067394
2205.129459,-4145.153275,-6957.935855,-2604.724693
2205.129786,-3627.009116,-5477.523971,-1302.362347
2205.130113,-2442.679609,-6069.688724,-1685.410096
2205.130441,1480.411884,-5625.565159,-612.876398
2205.130768,5551.544565,-7105.977043,919.314598
2205.131096,6143.709319,-9178.553681,3524.039291
2205.131423,7179.997637,-11843.295072,5056.230287
2205.131750,6661.853478,-12065.356855,3524.039291
2205.132078,4811.338623,-12435.459826,1685.410096
2205.132405,3330.926739,-14137.933492,76.609550
2205.132733,296.082377,-13545.768739,-1838.629195
2205.133060,-2294.638420,-11399.171507,-2068.457845
2205.133387,-3108.864956,-9030.512492,-2374.896044
2205.133715,-3034.844362,-7105.977043,-2681.334243
2205.134042,-2368.659014,-6143.709319,-2145.067394
2205.134369,-962.267725,-6069.688724,-1149.143247
2205.134697,2368.659014,-6291.750507,229.828649
2205.135024,4959.379811,-7105.977043,1072.533697
2205.135351,5403.503377,-9474.636058,2834.553343
2205.135679,5107.421000,-10881.027347,3140.991542
2205.136006,4071.132681,-12583.501014,1838.629195
2205.136334,3478.967927,-13989.892304,612.876398
2205.136661,1406.391290,-14285.974681,-919.314598
2205.136988,-962.267725,-12213.398043,-306.438199
2205.137316,-3108.864956,-9622.677246,-1455.581446
2205.137643,-4441.235652,-8068.244768,-2145.067394
2205.137970,-5773.606348,-6069.688724,-2604.724693
2205.138298,-4811.338623,-6365.771101,-1762.019645
2205.138625,-2812.782580,-5699.585753,-766.095498
2205.138952,370.102971,-5255.462188,0.000000
2205.139280,2368.659014,-8586.388927,1302.362347
2205.139607,2812.782580,-10140.821405,3447.429741
2205.139934,3849.070898,-10732.986159,1762.019645
2205.140262,3182.885551,-13841.851115,0.000000
2205.140589,814.226536,-14285.974681,-536.266849
2205.140917,148.041188,-13693.809927,-1378.971896
2205.141244,-2072.576638,-11473.192101,-1378.971896
2205.141571,-4441.235652,-9548.656652,-536.266849
2205.141899,-4441.235652,-7550.100608,-1302.362347
2205.142226,-4737.318029,-5329.482782,-1378.971896
2205.142553,-4737.318029,-5403.503377,-612.876398
2205.142881,-1258.350101,-5477.523971,-842.705048
2205.143208,1628.453072,-7476.080014,-766.095498
2205.143535,1554.432478,-9474.636058,2528.115143
2205.143863,3034.844362,-11473.192101,2221.676944
2205.144190,3034.844362,-12065.356855,1149.143247
2205.144517,2072.576638,-14285.974681,0.000000
2205.144845,1702.473667,-14508.036463,-995.924147
2205.145172,-370.102971,-14063.912898,-1072.533697
2205.145500,-2738.761985,-12509.480420,-842.705048
2205.145827,-3552.988522,-8068.244768,-1608.800546
2205.146154,-4219.173869,-5995.668130,-2834.553343
2205.146482,-4441.235652,-5921.647536,-2068.457845
2205.146809,-2220.617826,-5107.421000,-1072.533697
2205.147136,1554.432478,-4441.235652,-536.266849
2205.147464,4367.215058,-7328.038826,1302.362347
2205.147791,5921.647536,-9844.739029,2834.553343
2205.148118,6735.874072,-11621.233289,3140.991542
2205.148446,6291.750507,-12213.398043,2911.162892
2205.148773,4959.379811,-13397.727550,1302.362347
2205.149100,3775.050304,-14804.118840,76.609550
2205.149428,1110.308913,-13397.727550,-995.924147
2205.149755,-1702.473667,-10362.883188,-1072.533697
2205.150083,-2960.823768,-7994.224174,-1685.410096
2205.150410,-3775.050304,-6143.709319,-2451.505594
2205.150737,-3775.050304,-5995.668130,-2374.896044
2205.151065,-1776.494261,-5625.565159,-2987.772442
2205.151392,1406.391290,-5329.482782,-1302.362347
2205.151719,3997.112087,-8364.327145,689.485948
2205.152047,5477.523971,-10807.006753,2911.162892
2205.152374,5329.482782,-11177.109724,3677.258390
2205.152701,4737.318029,-13101.645173,2145.067394
2205.153029,4219.173869,-14359.995275,229.828649
2205.153356,2146.597232,-14211.954086,-842.705048
2205.153684,-962.267725,-12953.603985,-919.314598
2205.154011,-4071.132681,-10436.903782,-689.485948
2205.154338,-5403.503377,-8068.244768,-1991.848295
2205.154666,-6217.729913,-6365.771101,-2911.162892
2205.154993,-5699.585753,-6661.853478,-2528.115143
2205.155320,-2442.679609,-6143.709319,-2451.505594
2205.155648,518.144159,-6957.935855,-919.314598
2205.155975,2738.761985,-9622.677246,1838.629195
2205.156302,4515.256246,-11325.150913,2911.162892
2205.156630,4071.132681,-11325.150913,2528.115143
2205.156957,3404.947333,-13249.686362,1455.581446
2205.157284,2146.597232,-13693.809927,229.828649
2205.157612,444.123565,-12287.418637,-919.314598
2205.157939,-2146.597232,-10881.027347,-1378.971896
2205.158267,-5033.400406,-7994.224174,-1608.800546
2205.158594,-5329.482782,-7179.997637,-2528.115143
2205.158921,-5033.400406,-6661.853478,-2604.724693
2205.159249,-4515.256246,-6587.832884,-1149.143247
2205.159576,-1184.329507,-5995.668130,-689.485948
2205.159903,2368.659014,-7624.121203,-229.828649
2205.160231,2812.782580,-9622.677246,2681.334243
2205.160558,4071.132681,-11029.068536,3600.648841
2205.160885,3923.091493,-11917.315666,2221.676944
2205.161213,2960.823768,-13619.789333,842.705048
2205.161540,1628.453072,-13175.665768,-612.876398
2205.161867,-592.164754,-12953.603985,-1991.848295
2205.162195,-3552.988522,-11695.253884,-1685.410096
2205.162522,-4811.338623,-7624.121203,-2145.067394
2205.162850,-3478.967927,-6809.894666,-3677.258390
2205.163177,-3849.070898,-6217.729913,-2681.334243
2205.163504,-1036.288319,-6069.688724,-1455.581446
2205.163832,3330.926739,-6587.832884,-766.095498
2205.164159,4737.318029,-8216.285956,1302.362347
2205.164486,6365.771101,-9474.636058,4519.963438
2205.164814,6809.894666,-10510.924376,3753.867940
2205.165141,6069.688724,-11325.150913,2298.286494
2205.165468,4515.256246,-13545.768739,689.485948
2205.165796,3034.844362,-14952.160028,-1149.143247
2205.166123,148.041188,-13915.871710,-1762.019645
2205.166450,-2442.679609,-11103.089130,-2145.067394
2205.166778,-3997.112087,-8438.347739,-2681.334243
2205.167105,-3478.967927,-7105.977043,-3753.867940
2205.167433,-3108.864956,-6217.729913,-2145.067394
2205.167760,-1110.308913,-5625.565159,-919.314598
2205.168087,2516.700203,-6143.709319,229.828649
2205.168415,4737.318029,-7772.162391,2145.067394
2205.168742,4811.338623,-9622.677246,4060.306139
2205.169069,4663.297435,-11251.130318,3600.648841
2205.169397,3552.988522,-12139.377449,2145.067394
2205.169724,2516.700203,-13619.789333,0.000000
2205.170051,-148.041188,-13471.748144,-842.705048
2205.170379,-2368.659014,-12583.501014,-1378.971896
2205.170706,-3701.029710,-10214.842000,-1455.581446
2205.171033,-5033.400406,-7698.141797,-2068.457845
2205.171361,-5625.565159,-6883.915261,-1608.800546
2205.171688,-4589.276840,-5551.544565,-1302.362347
2205.172016,-2294.638420,-5033.400406,-1302.362347
2205.172343,814.226536,-6809.894666,0.000000
2205.172670,2664.741391,-8956.491898,1838.629195
2205.172998,3849.070898,-9992.780217,2757.943793
2205.173325,4071.132681,-11621.233289,2374.896044
2205.173652,2812.782580,-12953.603985,1149.143247
2205.173980,2072.576638,-14211.954086,-842.705048
2205.174307,444.123565,-14211.954086,-1915.238745
2205.174634,-2516.700203,-11917.315666,-1149.143247
2205.174962,-3701.029710,-9474.636058,-1685.410096
2205.175289,-4663.297435,-7031.956449,-1838.629195
2205.175616,-4885.359217,-6513.812290,-1455.581446
2205.175944,-3330.926739,-5699.585753,-383.047749
2205.176271,-666.185348,-5625.565159,-689.485948
2205.176599,814.226536,-6587.832884,383.047749
2205.176926,1998.556043,-9400.615463,1302.362347
2205.177253,2886.803174,-11103.089130,1685.410096
2205.177581,2368.659014,-12361.439231,1149.143247
2205.177908,2294.638420,-13915.871710,153.219100
2205.178235,1998.556043,-14211.954086,-995.924147
2205.178563,-296.082377,-13693.809927,-459.657299
2205.178890,-2368.659014,-11399.171507,-995.924147
2205.179217,-3478.967927,-8660.409521,-1608.800546
2205.179545,-3997.112087,-6513.812290,-2145.067394
2205.179872,-3108.864956,-5921.647536,-1915.238745
2205.180199,-962.267725,-5107.421000,-383.047749
2205.180527,2886.803174,-5329.482782,459.657299
2205.180854,5181.441594,-7402.059420,1838.629195
2205.181182,5699.585753,-9770.718434,3753.867940
2205.181509,5551.544565,-11473.192101,2987.772442
2205.181836,5477.523971,-12657.521608,1685.410096
2205.182164,4959.379811,-14063.912898,459.657299
2205.182491,2812.782580,-14730.098246,-383.047749
2205.182818,592.164754,-13101.645173,-306.438199
2205.183146,-1554.432478,-10140.821405,-1072.533697
2205.183473,-3849.070898,-7105.977043,-2298.286494
2205.183800,-4367.215058,-6291.750507,-2298.286494
2205.184128,-3701.029710,-5847.626942,-2604.724693
2205.184455,-1776.494261,-5625.565159,-1455.581446
2205.184782,1332.370696,-6143.709319,-306.438199
2205.185110,4293.194464,-8586.388927,1532.190996
2205.185437,4737.318029,-10362.883188,3753.867940
2205.185765,4737.318029,-11103.089130,3907.087040
2205.186092,3997.112087,-12805.562797,1991.848295
2205.186419,3108.864956,-14508.036463,383.047749
2205.186747,1184.329507,-14359.995275,-766.095498
2205.187074,-2146.597232,-12731.542202,-995.924147
2205.187401,-4441.235652,-9918.759623,-1225.752797
2205.187729,-5181.441594,-7179.997637,-3524.039291
2205.188056,-5921.647536,-5921.647536,-3830.477490
2205.188383,-4959.379811,-6069.688724,-2604.724693
2205.188711,-1480.411884,-6069.688724,-1838.629195
2205.189038,1554.432478,-6439.791695,383.047749
2205.189365,4145.153275,-9104.533087,2374.896044
2205.189693,5033.400406,-10214.842000,3140.991542
2205.190020,4737.318029,-11177.109724,2528.115143
2205.190348,3923.091493,-13027.624579,1225.752797
2205.190675,2590.720797,-14063.912898,306.438199
2205.191002,222.061783,-13175.665768,-459.657299
2205.191330,-2368.659014,-11251.130318,-1072.533697
2205.191657,-4737.318029,-9326.594869,-1378.971896
2205.191984,-6143.709319,-6661.853478,-1915.238745
2205.192312,-5995.668130,-6069.688724,-2451.505594
2205.192639,-3108.864956,-6365.771101,-2145.067394
2205.192966,-740.205942,-5477.523971,-1225.752797
2205.193294,2516.700203,-7179.997637,689.485948
2205.193621,3627.009116,-9400.615463,3830.477490
2205.193948,3701.029710,-10584.944971,3830.477490
2205.194276,4219.173869,-11695.253884,2987.772442
2205.194603,2368.659014,-13323.706956,612.876398
2205.194931,666.185348,-13471.748144,-1225.752797
2205.195258,-1480.411884,-13471.748144,-1915.238745
2205.195585,-3701.029710,-11695.253884,-2374.896044
2205.195913,-4885.359217,-8808.450710,-2987.772442
2205.196240,-4367.215058,-7105.977043,-3217.601092
2205.196567,-3478.967927,-6735.874072,-2221.676944
2205.196895,-666.185348,-6587.832884,-1225.752797
2205.197222,3552.988522,-6883.915261,0.000000
2205.197549,6069.688724,-8438.347739,1915.238745
2205.197877,6513.812290,-10214.842000,4366.744339
2205.198204,6587.832884,-11103.089130,3907.087040
2205.198531,5699.585753,-12139.377449,2451.505594
2205.198859,3404.947333,-13471.748144,612.876398
2205.199186,2072.576638,-14063.912898,-1302.362347
2205.199514,-1406.391290,-12731.542202,-1762.019645
2205.199841,-4293.194464,-9622.677246,-2451.505594
2205.200168,-4737.318029,-7402.059420,-3447.429741
2205.200496,-4737.318029,-6735.874072,-3677.258390
2205.200823,-3478.967927,-6957.935855,-2145.067394
2205.201150,444.123565,-6365.771101,-766.095498
2205.201478,3552.988522,-5551.544565,536.266849
2205.201805,5403.503377,-8216.285956,2987.772442
2205.202132,6069.688724,-9696.697840,4519.963438
2205.202460,5033.400406,-10584.944971,3370.820191
2205.202787,4145.153275,-12953.603985,1915.238745
2205.203114,2072.576638,-14063.912898,459.657299
2205.203442,148.041188,-13619.789333,-1762.019645
2205.203769,-2960.823768,-11991.336260,-1762.019645
2205.204097,-4811.338623,-9474.636058,-1532.190996
2205.204424,-5107.421000,-7402.059420,-2528.115143
2205.204751,-5329.482782,-6883.915261,-2604.724693
2205.205079,-4219.173869,-6217.729913,-1762.019645
2205.205406,-222.061783,-5329.482782,-1378.971896
2205.205733,2960.823768,-7105.977043,76.609550
2205.206061,4589.276840,-9844.739029,3294.210641
2205.206388,5255.462188,-9992.780217,2987.772442
2205.206715,4367.215058,-10362.883188,2374.896044
2205.207043,2812.782580,-14211.954086,383.047749
2205.207370,1702.473667,-14508.036463,-1455.581446
2205.207697,-370.102971,-13545.768739,-2145.067394
2205.208025,-3256.906145,-11843.295072,-1532.190996
2205.208352,-4737.318029,-8808.450710,-1762.019645
2205.208680,-4737.318029,-7031.956449,-2528.115143
2205.209007,-5255.462188,-5699.585753,-1915.238745
2205.209334,-3404.947333,-5921.647536,-459.657299
2205.209662,444.123565,-5551.544565,-383.047749
2205.209989,2294.638420,-7772.162391,995.924147
2205.210316,3330.926739,-10807.006753,2528.115143
2205.210644,3478.967927,-10584.944971,2757.943793
2205.210971,3330.926739,-12361.439231,1915.238745
2205.211298,1628.453072,-14137.933492,536.266849
2205.211626,222.061783,-14656.077652,-1378.971896
2205.211953,-1480.411884,-12953.603985,-1991.848295
2205.212280,-4219.173869,-10807.006753,-1915.238745
2205.212608,-4293.194464,-8512.368333,-1532.190996
2205.212935,-4145.153275,-5921.647536,-2528.115143
2205.213263,-3627.009116,-5699.585753,-1991.848295
2205.213590,-814.226536,-4959.379811,-306.438199
2205.213917,3034.844362,-5477.523971,383.047749
2205.214245,5477.523971,-7772.162391,2374.896044
2205.214572,6069.688724,-10362.883188,4136.915689
2205.214899,6143.709319,-11843.295072,3830.477490
2205.215227,5107.421000,-12657.521608,2681.334243
2205.215554,3552.988522,-14285.974681,-306.438199
2205.215881,1258.350101,-14285.974681,-1072.533697
2205.216209,-1184.329507,-13027.624579,-1685.410096
2205.216536,-3256.906145,-9918.759623,-2145.067394
2205.216863,-3849.070898,-7179.997637,-2681.334243
2205.217191,-3923.091493,-5625.565159,-2757.943793
2205.217518,-3701.029710,-5107.421000,-1838.629195
2205.217846,-148.041188,-5181.441594,-536.266849
2205.218173,3552.988522,-7105.977043,229.828649
2205.218500,5773.606348,-9474.636058,1455.581446
2205.218828,5921.647536,-10658.965565,3140.991542
2205.219155,5403.503377,-12287.418637,2528.115143
2205.219482,4959.379811,-13989.892304,1685.410096
2205.219810,3108.864956,-14878.139434,383.047749
2205.220137,0.000000,-12805.562797,-383.047749
2205.220464,-2146.597232,-11843.295072,-995.924147
2205.220792,-4515.256246,-8660.409521,-1838.629195
2205.221119,-5033.400406,-6217.729913,-2911.162892
2205.221446,-5403.503377,-5699.585753,-2911.162892
2205.221774,-4441.235652,-5625.565159,-1608.800546
2205.222101,-370.102971,-5699.585753,-995.924147
2205.222429,2442.679609,-7031.956449,-383.047749
2205.222756,4589.276840,-10362.883188,2068.457845
2205.223083,5181.441594,-10658.965565,3140.991542
2205.223411,4885.359217,-11991.336260,1991.848295
2205.223738,3404.947333,-14582.057057,1072.533697
2205.224065,1480.411884,-14211.954086,0.000000
2205.224393,0.000000,-12065.356855,-689.485948
2205.224720,-3552.988522,-10510.924376,-306.438199
2205.225047,-5255.462188,-8586.388927,-1762.019645
2205.225375,-5995.668130,-5921.647536,-2451.505594
2205.225702,-6439.791695,-5625.565159,-2221.676944
2205.226029,-3849.070898,-6291.750507,-1072.533697
2205.226357,-148.041188,-6365.771101,-1225.752797
2205.226684,2516.700203,-8956.491898,153.219100
2205.227012,2738.761985,-11177.109724,4136.915689
2205.227339,4441.235652,-12213.398043,2604.724693
2205.227666,2590.720797,-12657.521608,1532.190996
2205.227994,1110.308913,-14211.954086,536.266849
2205.228321,296.082377,-14285.974681,-1455.581446
2205.228648,-2516.700203,-13619.789333,-2068.457845
2205.228976,-3775.050304,-11029.068536,-2145.067394
2205.229303,-4589.276840,-7772.162391,-2374.896044
2205.229630,-4219.173869,-6587.832884,-3064.381992
2205.229958,-3627.009116,-6587.832884,-1072.533697
2205.230285,-222.061783,-5699.585753,-919.314598
2205.230612,3404.947333,-6439.791695,0.000000
2205.230940,5477.523971,-9252.574275,2757.943793
2205.231267,6735.874072,-10436.903782,5209.449386
2205.231595,7031.956449,-12213.398043,3217.601092
2205.231922,4959.379811,-12435.459826,2374.896044
2205.232249,3256.906145,-14285.974681,766.095498
2205.232577,1480.411884,-14063.912898,-1762.019645
2205.232904,-1776.494261,-12213.398043,-1991.848295
2205.233231,-3552.988522,-9252.574275,-2451.505594
2205.233559,-3330.926739,-7550.100608,-2911.162892
2205.233886,-3997.112087,-6217.729913,-2374.896044
2205.234214,-2368.659014,-5033.400406,-1608.800546
2205.234541,592.164754,-4663.297435,-306.438199
2205.234868,4071.132681,-7031.956449,766.095498
2205.235196,5477.523971,-9252.574275,2757.943793
2205.235523,5773.606348,-10140.821405,3983.696590
2205.235851,5403.503377,-11029.068536,2911.162892
2205.236178,4219.173869,-13397.727550,1762.019645
2205.236506,2146.597232,-14730.098246,-689.485948
2205.236833,-148.041188,-13471.748144,-1915.238745
2205.237161,-3182.885551,-11991.336260,-2068.457845
2205.237488,-4367.215058,-9400.615463,-2528.115143
2205.237816,-4589.276840,-7402.059420,-3677.258390
2205.238143,-4811.338623,-7031.956449,-2681.334243
2205.238471,-2960.823768,-6291.750507,-2221.676944
2205.238798,592.164754,-5921.647536,-1455.581446
2205.239126,2664.741391,-7846.182985,306.438199
2205.239453,3997.112087,-9696.697840,2374.896044
2205.239781,4367.215058,-10140.821405,2604.724693
2205.240108,3552.988522,-11991.336260,1685.410096
2205.240436,2516.700203,-14285.974681,383.047749
2205.240763,2368.659014,-14730.098246,-2604.724693
2205.241091,-1258.350101,-13027.624579,-1378.971896
2205.241418,-3330.926739,-11547.212695,-1378.971896
2205.241746,-3997.112087,-8956.491898,-1915.238745
2205.242073,-5329.482782,-6069.688724,-2068.457845
2205.242400,-5329.482782,-6217.729913,-1072.533697
2205.242728,-2368.659014,-6291.750507,-842.705048
2205.243055,-148.041188,-5255.462188,-689.485948
2205.243383,1554.432478,-7772.162391,1991.848295
2205.243710,2738.761985,-9770.718434,2834.553343
2205.244038,2516.700203,-11473.192101,2068.457845
2205.244365,2368.659014,-12583.501014,919.314598
2205.244693,1480.411884,-12879.583391,0.000000
2205.245020,296.082377,-13471.748144,-1225.752797
2205.245348,-1554.432478,-13249.686362,-1149.143247
2205.245675,-3775.050304,-8956.491898,-612.876398
2205.246003,-3330.926739,-6587.832884,-1532.190996
2205.246330,-4071.132681,-5699.585753,-1225.752797
2205.246658,-2886.803174,-5625.565159,-842.705048
2205.246985,296.082377,-5403.503377,-536.266849
2205.247313,3034.844362,-6439.791695,0.000000
2205.247640,5255.462188,-9326.594869,842.705048
2205.247968,5477.523971,-10658.965565,3447.429741
2205.248295,4737.318029,-12213.398043,2298.286494
2205.248623,4145.153275,-13841.851115,1378.971896
2205.248950,2886.803174,-14434.015869,-459.657299
2205.249278,1406.391290,-14508.036463,-1991.848295
2205.249605,-592.164754,-12805.562797,-1838.629195
2205.249932,-2442.679609,-9104.533087,-1762.019645
2205.250260,-3034.844362,-6513.812290,-2374.896044
2205.250587,-3256.906145,-6291.750507,-2451.505594
2205.250915,-1924.535449,-5847.626942,-1225.752797
2205.251242,962.267725,-5329.482782,-842.705048
2205.251570,3775.050304,-7328.038826,76.609550
2205.251897,4885.359217,-9474.636058,1915.238745
2205.252225,5107.421000,-10584.944971,2451.505594
2205.252552,5329.482782,-12657.521608,1838.629195
2205.252880,3404.947333,-14137.933492,1302.362347
2205.253207,3182.885551,-14359.995275,-536.266849
2205.253535,370.102971,-13767.830521,-1072.533697
2205.253862,-2442.679609,-11621.233289,-383.047749
2205.254190,-3330.926739,-7402.059420,-1302.362347
2205.254517,-5107.421000,-5625.565159,-2987.772442
2205.254845,-5181.441594,-6143.709319,-2451.505594
2205.255172,-3849.070898,-5107.421000,-1532.190996
2205.255500,0.000000,-6143.709319,-1149.143247
2205.255827,2516.700203,-7254.018232,995.924147
2205.256155,4219.173869,-9992.780217,2298.286494
2205.256482,4811.338623,-10881.027347,1838.629195
2205.256810,3330.926739,-12435.459826,2451.505594
2205.257137,2738.761985,-13693.809927,1072.533697
2205.257464,2072.576638,-13619.789333,-689.485948
2205.257792,-1184.329507,-12213.398043,-1225.752797
2205.258119,-3923.091493,-10732.986159,-1302.362347
2205.258447,-4885.359217,-8438.347739,-1915.238745
2205.258774,-6365.771101,-6217.729913,-2221.676944
2205.259102,-5773.606348,-5847.626942,-2145.067394
2205.259429,-3330.926739,-5847.626942,-1915.238745
2205.259757,0.000000,-6439.791695,-2068.457845
2205.260084,2368.659014,-9400.615463,459.657299
2205.260412,3552.988522,-11621.233289,2451.505594
2205.260739,3923.091493,-11769.274478,2528.115143
2205.261067,3552.988522,-12583.501014,1685.410096
2205.261394,2442.679609,-13693.809927,0.000000
2205.261722,592.164754,-13693.809927,-1149.143247
2205.262049,-1702.473667,-11621.233289,-1225.752797
2205.262377,-3701.029710,-9474.636058,-1378.971896
2205.262704,-4737.318029,-7772.162391,-2221.676944
2205.263032,-4737.318029,-6587.832884,-2604.724693
2205.263359,-3034.844362,-5847.626942,-1608.800546
2205.263687,-666.185348,-5625.565159,-459.657299
2205.264014,3330.926739,-6661.853478,459.657299
2205.264342,5107.421000,-8660.409521,2145.067394
2205.264669,5773.606348,-10288.862594,3294.210641
2205.264996,5699.585753,-11325.150913,3600.648841
2205.265324,4885.359217,-12805.562797,1991.848295
2205.265651,3552.988522,-13767.830521,0.000000
2205.265979,666.185348,-13101.645173,-1072.533697
2205.266306,-814.226536,-11103.089130,-2451.505594
2205.266634,-2738.761985,-8734.430116,-2451.505594
2205.266961,-4071.132681,-7698.141797,-2911.162892
2205.267289,-3627.009116,-7328.038826,-2298.286494
2205.267616,-1702.473667,-6217.729913,-1762.019645
2205.267944,1406.391290,-5551.544565,-919.314598
2205.268271,4663.297435,-7402.059420,536.266849
2205.268599,5329.482782,-9030.512492,3294.210641
2205.268926,5773.606348,-10584.944971,4519.963438
2205.269254,5181.441594,-11843.295072,3064.381992
2205.269581,3849.070898,-13989.892304,1149.143247
2205.269909,2072.576638,-14211.954086,-1072.533697
2205.270236,-592.164754,-13915.871710,-1608.800546
2205.270564,-3108.864956,-11917.315666,-1762.019645
2205.270891,-4589.276840,-8586.388927,-2757.943793
2205.271219,-5107.421000,-7105.977043,-3907.087040
2205.271546,-4589.276840,-6661.853478,-2451.505594
2205.271874,-2590.720797,-6217.729913,-1455.581446
2205.272201,962.267725,-6217.729913,-229.828649
2205.272528,3182.885551,-7920.203579,1915.238745
2205.272856,3701.029710,-8512.368333,3140.991542
2205.273183,4589.276840,-10066.800811,2834.553343
2205.273511,2960.823768,-11769.274478,1838.629195
2205.273838,2220.617826,-14285.974681,0.000000
2205.274166,666.185348,-14211.954086,-1302.362347
2205.274493,-1924.535449,-12879.583391,-1302.362347
2205.274821,-4293.194464,-11103.089130,-1455.581446
2205.275148,-5699.585753,-8216.285956,-2604.724693
2205.275476,-5773.606348,-6883.915261,-2681.334243
2205.275803,-4959.379811,-6513.812290,-1991.848295
2205.276131,-2664.741391,-4959.379811,-842.705048
2205.276458,370.102971,-5403.503377,-306.438199
2205.276786,2886.803174,-9474.636058,1685.410096
2205.277113,2886.803174,-9326.594869,3830.477490
2205.277441,4441.235652,-11251.130318,2374.896044
2205.277768,2368.659014,-13175.665768,612.876398
2205.278096,814.226536,-14137.933492,-612.876398
2205.278423,1258.350101,-14137.933492,-2451.505594
2205.278751,-1702.473667,-12213.398043,-1532.190996
2205.279078,-3478.967927,-11399.171507,-919.314598
2205.279405,-2738.761985,-8290.306550,-1838.629195
2205.279733,-3849.070898,-6883.915261,-1608.800546
2205.280060,-2368.659014,-6143.709319,-1149.143247
2205.280388,444.123565,-5847.626942,-306.438199
2205.280715,3108.864956,-6587.832884,0.000000
2205.281043,4515.256246,-9252.574275,2911.162892
2205.281370,5181.441594,-10881.027347,3907.087040
2205.281698,5773.606348,-12065.356855,2757.943793
2205.282025,4515.256246,-13619.789333,766.095498
2205.282353,2812.782580,-15100.201217,-995.924147
2205.282680,1184.329507,-14285.974681,-2221.676944
2205.283008,-962.267725,-11621.233289,-1608.800546
2205.283335,-2812.782580,-8586.388927,-1532.190996
2205.283663,-3182.885551,-6661.853478,-1915.238745
2205.283990,-2442.679609,-6365.771101,-995.924147
2205.284318,-1258.350101,-4737.318029,-612.876398
2205.284645,2072.576638,-4811.338623,0.000000
2205.284973,4589.276840,-6957.935855,766.095498
2205.285300,5107.421000,-9474.636058,2528.115143
2205.285628,4811.338623,-11251.130318,3447.429741
2205.285955,4589.276840,-12435.459826,2221.676944
2205.286283,4071.132681,-14285.974681,1532.190996
2205.286610,2294.638420,-14508.036463,0.000000
2205.286937,-296.082377,-13101.645173,-1455.581446
2205.287265,-2664.741391,-11029.068536,-995.924147
2205.287592,-4515.256246,-7550.100608,-2145.067394
2205.287920,-5847.626942,-5551.544565,-2451.505594
2205.288247,-5551.544565,-5773.606348,-2374.896044
2205.288575,-3182.885551,-5477.523971,-1302.362347
2205.288902,814.226536,-6069.688724,-536.266849
2205.289230,2664.741391,-8290.306550,1225.752797
2205.289557,3997.112087,-10584.944971,2528.115143
2205.289885,4367.215058,-11547.212695,2451.505594
2205.290212,3034.844362,-12731.542202,1225.752797
2205.290540,2294.638420,-15248.242405,0.000000
2205.290867,1184.329507,-15100.201217,-1378.971896
2205.291195,-1776.494261,-12287.418637,-1608.800546
2205.291522,-4589.276840,-9252.574275,-1302.362347
2205.291850,-6217.729913,-7179.997637,-2068.457845
2205.292177,-5995.668130,-6513.812290,-2757.943793
2205.292505,-5255.462188,-6291.750507,-2528.115143
2205.292832,-1850.514855,-6069.688724,-1991.848295
2205.293160,1406.391290,-6957.935855,-995.924147
2205.293487,3701.029710,-9178.553681,1608.800546
2205.293815,4145.153275,-11029.068536,2757.943793
2205.294142,4293.194464,-11843.295072,2145.067394
2205.294469,3478.967927,-12805.562797,1378.971896
2205.294797,2220.617826,-13915.871710,-229.828649
2205.295124,1184.329507,-13249.686362,-766.095498
2205.295452,-1702.473667,-11325.150913,-536.266849
2205.295779,-3552.988522,-8882.471304,-1455.581446
2205.296107,-4515.256246,-6735.874072,-2681.334243
2205.296434,-4737.318029,-5921.647536,-2145.067394
2205.296762,-3182.885551,-4737.318029,-1455.581446
2205.297089,444.123565,-5033.400406,-766.095498
2205.297417,4441.235652,-7328.038826,766.095498
2205.297744,5773.606348,-9252.574275,3140.991542
2205.298072,6587.832884,-10362.883188,4903.011187
2205.298399,5921.647536,-11917.315666,4443.353888
2205.298727,4737.318029,-13323.706956,1915.238745
2205.299054,2516.700203,-14211.954086,-689.485948
2205.299382,0.000000,-13175.665768,-2298.286494
2205.299709,-2220.617826,-11399.171507,-2834.553343
2205.300037,-3108.864956,-9178.553681,-2987.772442
2205.300364,-3923.091493,-6957.935855,-2451.505594
2205.300692,-4071.132681,-6217.729913,-1532.190996
2205.301019,-1554.432478,-5921.647536,-842.705048
2205.301347,2294.638420,-6291.750507,-1225.752797
2205.301674,5181.441594,-7920.203579,612.876398
2205.302001,6365.771101,-9844.739029,3217.601092
2205.302329,6143.709319,-11399.171507,3907.087040
2205.302656,4885.359217,-12509.480420,3907.087040
2205.302984,3775.050304,-14656.077652,842.705048
2205.303311,296.082377,-14804.118840,-1915.238745
2205.303639,-2960.823768,-13545.768739,-2068.457845
2205.303966,-3627.009116,-11325.150913,-3217.601092
2205.304294,-5329.482782,-8660.409521,-3064.381992
2205.304621,-6291.750507,-6217.729913,-2451.505594
2205.304949,-4885.359217,-5403.503377,-2221.676944
2205.305276,-2146.597232,-6217.729913,-689.485948
2205.305604,2294.638420,-6143.709319,0.000000
2205.305931,4589.276840,-7550.100608,2451.505594
2205.306259,4737.318029,-9770.718434,3753.867940
2205.306586,4367.215058,-10584.944971,3830.477490
2205.306914,4219.173869,-13397.727550,1915.238745
2205.307241,1628.453072,-13767.830521,-459.657299
2205.307569,-370.102971,-14508.036463,-842.705048
2205.307896,-1998.556043,-11843.295072,-1838.629195
2205.308224,-4811.338623,-9622.677246,-2681.334243
2205.308551,-6069.688724,-7846.182985,-2145.067394
2205.308879,-5477.523971,-5329.482782,-1991.848295
2205.309206,-4219.173869,-5329.482782,-1225.752797
2205.309533,-814.226536,-6143.709319,-153.219100
2205.309861,1998.556043,-5847.626942,0.000000
2205.310188,4367.215058,-8660.409521,1838.629195
2205.310516,4441.235652,-10584.944971,3370.820191
2205.310843,3997.112087,-11547.212695,2451.505594
2205.311171,3256.906145,-13693.809927,383.047749
2205.311498,1110.308913,-13915.871710,0.000000
2205.311826,0.000000,-14434.015869,-2374.896044
2205.312153,-2442.679609,-12287.418637,-2987.772442
2205.312481,-4441.235652,-9844.739029,-2451.505594
2205.312808,-4737.318029,-7624.121203,-2834.553343
2205.313136,-4515.256246,-5773.606348,-1991.848295
2205.313463,-2442.679609,-5403.503377,-995.924147
2205.313791,1110.308913,-5773.606348,153.219100
2205.314118,3552.988522,-7624.121203,1378.971896
2205.314446,5699.585753,-9548.656652,3294.210641
2205.314773,5181.441594,-10955.047942,3753.867940
2205.315101,5329.482782,-13249.686362,1762.019645
2205.315428,3849.070898,-15026.180623,766.095498
2205.315756,1776.494261,-15100.201217,-995.924147
2205.316083,370.102971,-14285.974681,-2068.457845
2205.316411,-1924.535449,-10436.903782,-1762.019645
2205.316738,-3330.926739,-7476.080014,-1762.019645
2205.317065,-3478.967927,-6661.853478,-2221.676944
2205.317393,-3627.009116,-5255.462188,-536.266849
2205.317720,-888.247130,-4737.318029,-306.438199
2205.318048,2294.638420,-4737.318029,536.266849
2205.318375,4663.297435,-7328.038826,1685.410096
2205.318703,5477.523971,-9770.718434,3064.381992
2205.319030,5255.462188,-10510.924376,3370.820191
2205.319358,4959.379811,-13249.686362,1991.848295
2205.319685,3330.926739,-15470.304188,536.266849
2205.320013,1480.411884,-14804.118840,-1149.143247
2205.320340,-1184.329507,-13101.645173,-1455.581446
2205.320668,-3404.947333,-10955.047942,-2374.896044
2205.320995,-4293.194464,-7624.121203,-2298.286494
2205.321323,-4959.379811,-6217.729913,-2374.896044
2205.321650,-4737.318029,-5033.400406,-766.095498
2205.321978,-1924.535449,-4737.318029,-1225.752797
2205.322305,1258.350101,-6291.750507,-383.047749
2205.322633,3552.988522,-9326.594869,1149.143247
2205.322960,5107.421000,-11399.171507,1991.848295
2205.323288,4737.318029,-12435.459826,2145.067394
2205.323615,3775.050304,-14285.974681,612.876398
2205.323943,2664.741391,-14952.160028,-766.095498
2205.324270,296.082377,-14434.015869,-1762.019645
2205.324597,-2368.659014,-12213.398043,-1685.410096
2205.324925,-4737.318029,-9696.697840,-1915.238745
2205.325252,-5477.523971,-7105.977043,-2987.772442
2205.325580,-6513.812290,-5107.421000,-3140.991542
2205.325907,-5329.482782,-5477.523971,-1762.019645
2205.326235,-1702.473667,-5847.626942,-842.705048
2205.326562,1036.288319,-6809.894666,689.485948
2205.326890,3182.885551,-9548.656652,2068.457845
2205.327217,4071.132681,-11251.130318,2528.115143
2205.327545,3997.112087,-11843.295072,1838.629195
2205.327872,3478.967927,-12953.603985,1532.190996
2205.328200,1850.514855,-13767.830521,689.485948
2205.328527,0.000000,-12435.459826,-842.705048
2205.328855,-2220.617826,-10510.924376,-1149.143247
2205.329182,-4367.215058,-7846.182985,-1302.362347
2205.329510,-5255.462188,-5847.626942,-2451.505594
2205.329837,-5255.462188,-6217.729913,-2068.457845
2205.330165,-3552.988522,-6069.688724,-1225.752797
2205.330492,370.102971,-4811.338623,-689.485948
2205.330820,3923.091493,-7550.100608,536.266849
2205.331147,5625.565159,-11473.192101,2911.162892
2205.331475,5551.544565,-10732.986159,4366.744339
2205.331802,5921.647536,-12213.398043,2451.505594
2205.332129,3997.112087,-14211.954086,1225.752797
2205.332457,1628.453072,-14508.036463,-306.438199
2205.332784,1850.514855,-12435.459826,-1608.800546
2205.333112,-2146.597232,-9918.759623,-1302.362347
2205.333439,-3997.112087,-7550.100608,-1838.629195
2205.333767,-3108.864956,-7179.997637,-2681.334243
2205.334094,-3775.050304,-6661.853478,-1991.848295
2205.334422,-2146.597232,-5921.647536,-1072.533697
2205.334749,2664.741391,-6513.812290,-1225.752797
2205.335077,4589.276840,-8364.327145,1149.143247
2205.335404,5625.565159,-11399.171507,2987.772442
2205.335732,5403.503377,-10362.883188,3907.087040
2205.336059,4367.215058,-12509.480420,1685.410096
2205.336387,3034.844362,-15544.324782,153.219100
2205.336714,1184.329507,-14359.995275,-995.924147
2205.337042,-1258.350101,-11029.068536,-2604.724693
2205.337369,-4219.173869,-10140.821405,-2221.676944
2205.337697,-5625.565159,-7254.018232,-3064.381992
2205.338024,-4959.379811,-5699.585753,-3064.381992
2205.338352,-4737.318029,-5921.647536,-1149.143247
2205.338679,-1036.288319,-5625.565159,0.000000
2205.339007,3034.844362,-6809.894666,536.266849
2205.339334,3775.050304,-8882.471304,2681.334243
2205.339662,4515.256246,-11399.171507,3140.991542
2205.339990,3997.112087,-11029.068536,2528.115143
2205.340317,3256.906145,-12953.603985,1378.971896
2205.340645,1702.473667,-14285.974681,0.000000
2205.340972,-444.123565,-13545.768739,-1532.190996
2205.341300,-2960.823768,-11473.192101,-2221.676944
2205.341627,-4515.256246,-8882.471304,-2528.115143
2205.341955,-5477.523971,-5921.647536,-2757.943793
2205.342282,-5329.482782,-5329.482782,-2145.067394
2205.342610,-3775.050304,-6365.771101,-1072.533697
2205.342937,-370.102971,-6143.709319,-459.657299
2205.343265,3404.947333,-7920.203579,0.000000
2205.343592,4071.132681,-10362.883188,2528.115143
2205.343920,4589.276840,-11547.212695,3217.601092
2205.344247,3701.029710,-11769.274478,2068.457845
2205.344575,2368.659014,-14582.057057,842.705048
2205.344902,1702.473667,-14952.160028,-1225.752797
2205.345230,-296.082377,-13619.789333,-2451.505594
2205.345557,-3256.906145,-11843.295072,-2145.067394
2205.345885,-4737.318029,-7994.224174,-1838.629195
2205.346212,-4219.173869,-6587.832884,-2451.505594
2205.346540,-4737.318029,-5625.565159,-1762.019645
2205.346867,-3182.885551,-5033.400406,-459.657299
2205.347195,1776.494261,-5255.462188,-689.485948
2205.347522,3849.070898,-8216.285956,842.705048
2205.347850,4737.318029,-10584.944971,3524.039291
2205.348177,5107.421000,-10584.944971,3370.820191
2205.348505,5181.441594,-12879.583391,1915.238745
2205.348833,2664.741391,-15100.201217,842.705048
2205.349160,2368.659014,-14434.015869,-1608.800546
2205.349488,518.144159,-12879.583391,-1685.410096
2205.349815,-1850.514855,-10436.903782,-1225.752797
2205.350143,-2812.782580,-7031.956449,-1378.971896
2205.350470,-3330.926739,-5921.647536,-1532.190996
2205.350798,-3108.864956,-5329.482782,-229.828649
2205.351125,-518.144159,-3849.070898,536.266849
2205.351453,3182.885551,-4737.318029,0.000000
2205.351780,4441.235652,-8956.491898,1455.581446
2205.352108,4219.173869,-10584.944971,3064.381992
2205.352435,4959.379811,-11843.295072,2068.457845
2205.352763,3478.967927,-14211.954086,1149.143247
2205.353090,2368.659014,-15174.221811,-459.657299
2205.353418,888.247130,-14063.912898,-1685.410096
2205.353745,-1850.514855,-13175.665768,-1608.800546
2205.354073,-3923.091493,-10881.027347,-2068.457845
2205.354400,-3701.029710,-6883.915261,-2451.505594
2205.354728,-4589.276840,-4959.379811,-2145.067394
2205.355055,-4071.132681,-5329.482782,-1072.533697
2205.355383,-888.247130,-4811.338623,-842.705048
2205.355710,1998.556043,-6513.812290,229.828649
2205.356038,4219.173869,-10658.965565,1838.629195
2205.356365,4811.338623,-11399.171507,2451.505594
2205.356693,4959.379811,-12435.459826,1838.629195
2205.357021,3330.926739,-14508.036463,689.485948
2205.357348,2368.659014,-15544.324782,-689.485948
2205.357676,814.226536,-14211.954086,-1762.019645
2205.358003,-2590.720797,-11621.233289,-2068.457845
2205.358331,-5107.421000,-8438.347739,-1302.362347
2205.358658,-5329.482782,-5921.647536,-2604.724693
2205.358986,-5477.523971,-5107.421000,-2451.505594
2205.359313,-4219.173869,-5255.462188,-995.924147
2205.359641,-1110.308913,-4737.318029,-229.828649
2205.359968,1998.556043,-7031.956449,995.924147
2205.360296,3182.885551,-10436.903782,1608.800546
2205.360623,3552.988522,-11399.171507,1915.238745
2205.360951,3404.947333,-11251.130318,1455.581446
2205.361278,2664.741391,-13915.871710,1455.581446
2205.361606,1554.432478,-14582.057057,383.047749
2205.361933,-444.123565,-12657.521608,-689.485948
2205.362261,-2960.823768,-10955.047942,-1302.362347
2205.362588,-4441.235652,-7624.121203,-1072.533697
2205.362916,-4885.359217,-5551.544565,-2451.505594
2205.363243,-5255.462188,-5181.441594,-1915.238745
2205.363571,-2738.761985,-6069.688724,-1532.190996
2205.363898,814.226536,-5477.523971,-1225.752797
2205.364226,3997.112087,-8734.430116,459.657299
2205.364553,5699.585753,-11769.274478,2681.334243
2205.364881,5551.544565,-12287.418637,2987.772442
2205.365208,5773.606348,-12805.562797,1838.629195
2205.365536,4219.173869,-14285.974681,153.219100
2205.365864,2294.638420,-14211.954086,-306.438199
2205.366191,666.185348,-12509.480420,-842.705048
2205.366519,-1850.514855,-10066.800811,-766.095498
2205.366846,-3108.864956,-7328.038826,-1685.410096
2205.367174,-3849.070898,-6661.853478,-2298.286494
2205.367501,-3182.885551,-5995.668130,-1991.848295
2205.367829,-1036.288319,-6143.709319,-1608.800546
2205.368156,2664.741391,-6439.791695,-229.828649
2205.368484,4663.297435,-8956.491898,1838.629195
2205.368811,5255.462188,-10955.047942,3677.258390
2205.369139,5625.565159,-11103.089130,2987.772442
2205.369466,5551.544565,-13027.624579,2221.676944
2205.369794,2368.659014,-13323.706956,1225.752797
2205.370121,666.185348,-13027.624579,-383.047749
2205.370449,-1776.494261,-11547.212695,-1608.800546
2205.370776,-4441.235652,-8660.409521,-2145.067394
2205.371104,-5477.523971,-6291.750507,-2834.553343
2205.371431,-4811.338623,-5255.462188,-2221.676944
2205.371759,-3478.967927,-5403.503377,-1378.971896
2205.372086,0.000000,-5477.523971,-689.485948
2205.372414,2664.741391,-6809.894666,919.314598
2205.372741,4589.276840,-9326.594869,2757.943793
2205.373069,5255.462188,-11399.171507,3217.601092
2205.373396,4737.318029,-12509.480420,2221.676944
2205.373724,3701.029710,-14063.912898,459.657299
2205.374051,2294.638420,-14656.077652,-306.438199
2205.374379,-814.226536,-13915.871710,-1302.362347
2205.374707,-2812.782580,-11991.336260,-2451.505594
2205.375034,-5107.421000,-9474.636058,-3217.601092
2205.375362,-6291.750507,-6587.832884,-3524.039291
2205.375689,-5477.523971,-6883.915261,-2757.943793
2205.376017,-3775.050304,-5995.668130,-1378.971896
2205.376344,-222.061783,-5699.585753,-766.095498
2205.376672,2442.679609,-7994.224174,1149.143247
2205.376999,3775.050304,-11029.068536,2298.286494
2205.377327,3849.070898,-11473.192101,2451.505594
2205.377654,2590.720797,-12287.418637,1378.971896
2205.377982,1406.391290,-14211.954086,-306.438199
2205.378309,370.102971,-15248.242405,-1532.190996
2205.378637,-962.267725,-14211.954086,-2604.724693
2205.378964,-3923.091493,-10362.883188,-1532.190996
2205.379292,-5329.482782,-7994.224174,-1991.848295
2205.379619,-4737.318029,-6883.915261,-2451.505594
2205.379947,-4367.215058,-5921.647536,-1915.238745
2205.380274,-2294.638420,-5107.421000,-536.266849
2205.380602,1850.514855,-4811.338623,229.828649
2205.380929,4885.359217,-8142.265362,1991.848295
2205.381257,5921.647536,-10066.800811,3830.477490
2205.381584,5773.606348,-11029.068536,3907.087040
2205.381912,4663.297435,-12583.501014,2374.896044
2205.382239,3701.029710,-14285.974681,229.828649
2205.382567,2368.659014,-14656.077652,-1915.238745
2205.382894,0.000000,-11843.295072,-1915.238745
2205.383222,-1628.453072,-9252.574275,-1149.143247
2205.383550,-2738.761985,-7328.038826,-459.657299
2205.383877,-3404.947333,-6365.771101,-1455.581446
2205.384205,-2664.741391,-5033.400406,-689.485948
2205.384532,0.000000,-5033.400406,-919.314598
2205.384860,3108.864956,-6365.771101,0.000000
2205.385187,4515.256246,-9474.636058,1685.410096
2205.385515,4959.379811,-10510.924376,3524.039291
2205.385842,4811.338623,-11843.295072,2145.067394
2205.386170,4145.153275,-14285.974681,612.876398
2205.386497,2368.659014,-15026.180623,-919.314598
2205.386825,592.164754,-14063.912898,-1991.848295
2205.387152,-1480.411884,-12361.439231,-1915.238745
2205.387480,-3034.844362,-9622.677246,-1991.848295
2205.387807,-3627.009116,-7328.038826,-2987.772442
2205.388135,-4441.235652,-5403.503377,-1915.238745
2205.388462,-3330.926739,-5255.462188,-1455.581446
2205.388790,0.000000,-5847.626942,-995.924147
2205.389117,2442.679609,-7254.018232,153.219100
2205.389445,4071.132681,-9844.739029,2145.067394
2205.389772,4737.318029,-11547.212695,2528.115143
2205.390100,3997.112087,-13249.686362,1455.581446
2205.390427,3256.906145,-14434.015869,76.609550
2205.390755,1924.535449,-14656.077652,-612.876398
2205.391082,-666.185348,-13545.768739,-1072.533697
2205.391410,-2442.679609,-11103.089130,-1455.581446
2205.391738,-4441.235652,-7994.224174,-1762.019645
2205.392065,-5403.503377,-5477.523971,-1838.629195
2205.392393,-5255.462188,-4737.318029,-1302.362347
2205.392720,-3256.906145,-5181.441594,-766.095498
2205.393048,-1110.308913,-4663.297435,0.000000
2205.393375,1258.350101,-7772.162391,536.266849
2205.393703,2664.741391,-10658.965565,1532.190996
2205.394030,2960.823768,-11917.315666,2145.067394
2205.394358,2664.741391,-12435.459826,2451.505594
2205.394685,1776.494261,-14137.933492,766.095498
2205.395013,222.061783,-14211.954086,-766.095498
2205.395340,-1924.535449,-13101.645173,-1991.848295
2205.395668,-4293.194464,-9770.718434,-1762.019645
2205.395995,-5625.565159,-7105.977043,-2298.286494
2205.396323,-5847.626942,-5033.400406,-2451.505594
2205.396650,-4293.194464,-4885.359217,-1762.019645
2205.396978,-1184.329507,-5625.565159,-995.924147
2205.397305,2738.761985,-6809.894666,-612.876398
2205.397633,6143.709319,-9918.759623,1225.752797
2205.397960,7105.977043,-12065.356855,3217.601092
2205.398288,7328.038826,-12731.542202,3140.991542
2205.398615,6143.709319,-13397.727550,1915.238745
2205.398943,4441.235652,-14359.995275,229.828649
2205.399270,2590.720797,-14063.912898,-1072.533697
2205.399598,-148.041188,-11843.295072,-1149.143247
2205.399925,-2368.659014,-8882.471304,-1685.410096
2205.400253,-4071.132681,-6883.915261,-2221.676944
2205.400581,-4071.132681,-6587.832884,-2528.115143
2205.400908,-3034.844362,-5773.606348,-1991.848295
2205.401236,-222.061783,-5033.400406,-1378.971896
2205.401563,3330.926739,-5995.668130,0.000000
2205.401891,5255.462188,-10288.862594,2298.286494
2205.402218,5773.606348,-10955.047942,3677.258390
2205.402546,5329.482782,-12139.377449,3140.991542
2205.402873,3997.112087,-14211.954086,1838.629195
2205.403201,2590.720797,-14582.057057,0.000000
2205.403528,888.247130,-12879.583391,-536.266849
2205.403856,-2812.782580,-10732.986159,-1915.238745
2205.404183,-4293.194464,-8364.327145,-2451.505594
2205.404511,-5107.421000,-5921.647536,-2451.505594
2205.404838,-5551.544565,-4737.318029,-1762.019645
2205.405166,-3330.926739,-6069.688724,-1072.533697
2205.405493,518.144159,-6217.729913,-612.876398
2205.405821,3775.050304,-7179.997637,1225.752797
2205.406148,4885.359217,-10140.821405,3217.601092
2205.406476,5551.544565,-11325.150913,3217.601092
2205.406803,5255.462188,-12805.562797,1608.800546
2205.407131,2590.720797,-14730.098246,459.657299
2205.407458,740.205942,-14656.077652,-995.924147
2205.407786,-2220.617826,-12879.583391,-2451.505594
2205.408113,-4811.338623,-11399.171507,-2911.162892
2205.408441,-6291.750507,-8808.450710,-3677.258390
2205.408768,-6735.874072,-5625.565159,-3907.087040
2205.409096,-5551.544565,-6069.688724,-2911.162892
2205.409424,-3108.864956,-6069.688724,-766.095498
2205.409751,1036.288319,-6291.750507,-229.828649
2205.410079,3552.988522,-8956.491898,1455.581446
2205.410406,3034.844362,-10140.821405,3447.429741
2205.410734,4589.276840,-10881.027347,2911.162892
2205.411061,3701.029710,-12953.603985,1762.019645
2205.411389,666.185348,-14508.036463,153.219100
2205.411716,-666.185348,-14137.933492,-1302.362347
2205.412044,-2738.761985,-12509.480420,-2528.115143
2205.412371,-5329.482782,-10214.842000,-2681.334243
2205.412699,-5551.544565,-7105.977043,-2528.115143
2205.413026,-4293.194464,-5477.523971,-2834.553343
2205.413354,-4293.194464,-5255.462188,-919.314598
2205.413681,-666.185348,-5033.400406,689.485948
2205.414009,4737.318029,-5551.544565,153.219100
2205.414336,5847.626942,-8808.450710,2681.334243
2205.414664,6735.874072,-11029.068536,4136.915689
2205.414991,7254.018232,-11991.336260,3217.601092
2205.415319,5477.523971,-14211.954086,2528.115143
2205.415646,3775.050304,-14359.995275,612.876398
2205.415974,2220.617826,-13767.830521,-1532.190996
2205.416301,-1036.288319,-12805.562797,-2528.115143
2205.416629,-3034.844362,-9622.677246,-2221.676944
2205.416956,-3330.926739,-7105.977043,-2298.286494
2205.417284,-3404.947333,-5773.606348,-1378.971896
2205.417611,-2294.638420,-4885.359217,0.000000
2205.417939,814.226536,-4219.173869,0.000000
2205.418267,3775.050304,-6809.894666,842.705048
2205.418594,5033.400406,-10658.965565,2528.115143
2205.418922,5403.503377,-10584.944971,3370.820191
2205.419249,5033.400406,-12731.542202,1455.581446
2205.419577,3849.070898,-15692.365970,842.705048
2205.419904,2220.617826,-15840.407159,-995.924147
2205.420232,1036.288319,-14285.974681,-2451.505594
2205.420559,-3256.906145,-11769.274478,-1302.362347
2205.420887,-4367.215058,-9326.594869,-2221.676944
2205.421214,-3923.091493,-6217.729913,-2834.553343
2205.421542,-4737.318029,-5107.421000,-1302.362347
2205.421869,-2886.803174,-4959.379811,689.485948
2205.422197,1258.350101,-4515.256246,383.047749
2205.422524,3478.967927,-7328.038826,1455.581446
2205.422852,3552.988522,-9918.759623,3217.601092
2205.423179,5255.462188,-11843.295072,2757.943793
2205.423507,3404.947333,-13101.645173,1685.410096
2205.423834,2072.576638,-15988.448347,-459.657299
2205.424162,888.247130,-15914.427753,-1455.581446
2205.424489,-2072.576638,-13175.665768,-1838.629195
2205.424817,-5033.400406,-9770.718434,-995.924147
2205.425144,-5921.647536,-7328.038826,-1762.019645
2205.425472,-5847.626942,-6217.729913,-2987.772442
2205.425799,-5329.482782,-4663.297435,-1838.629195
2205.426127,-3256.906145,-4663.297435,-612.876398
2205.426455,592.164754,-4589.276840,229.828649
2205.426782,2590.720797,-8882.471304,1915.238745
2205.427110,4071.132681,-11695.253884,1838.629195
2205.427437,3701.029710,-12139.377449,2068.457845
2205.427765,3552.988522,-13545.768739,229.828649
2205.428092,2590.720797,-14952.160028,-459.657299
2205.428420,592.164754,-15174.221811,-995.924147
2205.428747,-1480.411884,-12361.439231,-1532.190996
2205.429075,-3997.112087,-9474.636058,-1302.362347
2205.429402,-4737.318029,-6439.791695,-2068.457845
2205.429730,-4145.153275,-5329.482782,-2911.162892
2205.430057,-3552.988522,-5033.400406,-2374.896044
2205.430385,-592.164754,-5403.503377,-995.924147
2205.430712,3849.070898,-7476.080014,0.000000
2205.431040,6439.791695,-10732.986159,2298.286494
2205.431367,6365.771101,-12065.356855,4213.525239
2205.431695,7698.141797,-12805.562797,3140.991542
2205.432022,5403.503377,-14359.995275,919.314598
2205.432350,3552.988522,-15840.407159,0.000000
2205.432677,1554.432478,-13471.748144,-995.924147
2205.433005,-1702.473667,-10140.821405,-842.705048
2205.433332,-4515.256246,-7994.224174,-919.314598
2205.433660,-5255.462188,-5551.544565,-2221.676944
2205.433987,-5033.400406,-4885.359217,-1991.848295
2205.434315,-3627.009116,-5329.482782,-1915.238745
2205.434642,-296.082377,-4737.318029,-612.876398
2205.434970,2812.782580,-6439.791695,0.000000
2205.435298,5107.421000,-11103.089130,2374.896044
2205.435625,5625.565159,-11769.274478,3983.696590
2205.435953,5329.482782,-11991.336260,2528.115143
2205.436280,3923.091493,-14359.995275,1608.800546
2205.436608,2294.638420,-15322.262999,76.609550
2205.436935,370.102971,-12361.439231,-1302.362347
2205.437261,-2960.823768,-9844.739029,-1915.238745
2205.437589,-4663.297435,-8956.491898,-1991.848295
2205.437916,-4737.318029,-5921.647536,-2451.505594
2205.438243,-4663.297435,-5329.482782,-2987.772442
2205.438571,-2960.823768,-5329.482782,-689.485948
2205.438898,1036.288319,-6143.709319,-612.876398
2205.439226,3849.070898,-8068.244768,766.095498
2205.439553,4293.194464,-11325.150913,2987.772442
2205.439881,4885.359217,-12139.377449,2374.896044
2205.440208,4663.297435,-13323.706956,459.657299
2205.440535,2886.803174,-15470.304188,-306.438199
2205.440863,518.144159,-14285.974681,-1225.752797
2205.441190,-1554.432478,-12361.439231,-2068.457845
2205.441518,-5033.400406,-10140.821405,-2145.067394
2205.441845,-6735.874072,-7698.141797,-2757.943793
2205.442172,-5847.626942,-6587.832884,-3600.648841
2205.442500,-4737.318029,-6069.688724,-2145.067394
2205.442827,-2368.659014,-4515.256246,153.219100
2205.443155,2368.659014,-6365.771101,383.047749
2205.443482,3627.009116,-9696.697840,2451.505594
2205.443810,3478.967927,-11399.171507,3907.087040
2205.444137,4367.215058,-11547.212695,2757.943793
2205.444464,2886.803174,-13323.706956,1455.581446
2205.444792,1998.556043,-14804.118840,229.828649
2205.445119,444.123565,-13767.830521,-1378.971896
2205.445447,-2516.700203,-11029.068536,-1532.190996
2205.445774,-5477.523971,-8734.430116,-2221.676944
2205.446101,-4959.379811,-5921.647536,-2681.334243
2205.446429,-4367.215058,-4515.256246,-2451.505594
2205.446756,-3108.864956,-4811.338623,-1149.143247
2205.447084,888.247130,-4737.318029,0.000000
2205.447411,4589.276840,-6291.750507,919.314598
2205.447739,6291.750507,-9918.759623,3677.258390
2205.448066,6365.771101,-11769.274478,3294.210641
2205.448393,6217.729913,-12731.542202,2451.505594
2205.448721,4441.235652,-15174.221811,612.876398
2205.449048,3775.050304,-16284.530724,-1302.362347
2205.449376,888.247130,-15026.180623,-2068.457845
2205.449703,-2146.597232,-12139.377449,-1378.971896
2205.450030,-2886.803174,-8438.347739,-995.924147
2205.450358,-4145.153275,-7105.977043,-1991.848295
2205.450685,-4145.153275,-5995.668130,-2221.676944
2205.451013,-3108.864956,-5255.462188,-1838.629195
2205.451340,444.123565,-5625.565159,-1302.362347
2205.451668,3034.844362,-7179.997637,612.876398
2205.451995,4959.379811,-10881.027347,2911.162892
2205.452322,4737.318029,-10732.986159,3983.696590
2205.452650,4293.194464,-13619.789333,1762.019645
2205.452977,3108.864956,-15174.221811,-383.047749
2205.453305,1776.494261,-15322.262999,-1838.629195
2205.453632,74.020594,-13101.645173,-1455.581446
2205.453959,-2442.679609,-10436.903782,-766.095498
2205.454287,-3627.009116,-7920.203579,-229.828649
2205.454614,-4145.153275,-5921.647536,-536.266849
2205.454942,-4515.256246,-4959.379811,-842.705048
2205.455269,-2220.617826,-4959.379811,0.000000
2205.455597,740.205942,-4885.359217,153.219100
2205.455924,2738.761985,-7550.100608,1455.581446
2205.456251,3997.112087,-10436.903782,2757.943793
2205.456579,4441.235652,-11399.171507,2451.505594
2205.456906,3404.947333,-13767.830521,1685.410096
2205.457234,2886.803174,-15248.242405,766.095498
2205.457561,888.247130,-13619.789333,-1378.971896
2205.457888,-1480.411884,-11991.336260,-1991.848295
2205.458216,-3627.009116,-9918.759623,-1762.019645
2205.458543,-5107.421000,-5625.565159,-1302.362347
2205.458871,-4959.379811,-4959.379811,-1838.629195
2205.459198,-4145.153275,-5477.523971,-612.876398
2205.459526,-1480.411884,-5033.400406,-689.485948
2205.459853,1998.556043,-6069.688724,-766.095498
2205.460180,3256.906145,-10510.924376,919.314598
2205.460508,3330.926739,-12139.377449,2145.067394
2205.460835,4071.132681,-12657.521608,842.705048
2205.461163,2442.679609,-14211.954086,229.828649
2205.461490,1702.473667,-16284.530724,0.000000
2205.461817,1036.288319,-14359.995275,-1378.971896
2205.462145,-2516.700203,-11843.295072,-766.095498
2205.462472,-4663.297435,-8808.450710,-1608.800546
2205.462800,-4589.276840,-6217.729913,-2834.553343
2205.463127,-5181.441594,-5255.462188,-2604.724693
2205.463455,-4441.235652,-5033.400406,-766.095498
2205.463782,74.020594,-5181.441594,-1762.019645
2205.464109,3552.988522,-6883.915261,153.219100
2205.464437,4663.297435,-10881.027347,2298.286494
2205.464764,6291.750507,-12805.562797,2757.943793
2205.465092,5847.626942,-13101.645173,2451.505594
2205.465419,4663.297435,-14804.118840,1685.410096
2205.465746,3552.988522,-15026.180623,306.438199
2205.466074,1036.288319,-13397.727550,-919.314598
2205.466401,-2294.638420,-9474.636058,-536.266849
2205.466729,-3997.112087,-6883.915261,-612.876398
2205.467056,-4589.276840,-5773.606348,-1685.410096
2205.467384,-5033.400406,-4737.318029,-1225.752797
2205.467711,-3182.885551,-4219.173869,-1225.752797
2205.468038,370.102971,-5329.482782,-1838.629195
2205.468366,3108.864956,-8290.306550,-383.047749
2205.468693,4737.318029,-10510.924376,2221.676944
2205.469021,5699.585753,-11695.253884,3140.991542
2205.469348,5699.585753,-13027.624579,2068.457845
2205.469675,4441.235652,-13915.871710,1149.143247
2205.470003,2368.659014,-14137.933492,0.000000
2205.470330,666.185348,-12139.377449,-536.266849
2205.470658,-2812.782580,-9474.636058,-995.924147
2205.470985,-4737.318029,-7031.956449,-2374.896044
2205.471313,-4663.297435,-6069.688724,-2451.505594
2205.471640,-4293.194464,-5551.544565,-2145.067394
2205.471967,-2220.617826,-5033.400406,-1225.752797
2205.472295,518.144159,-6217.729913,-306.438199
2205.472622,4219.173869,-10140.821405,766.095498
2205.472950,4663.297435,-11029.068536,3983.696590
2205.473277,5033.400406,-12583.501014,2298.286494
2205.473604,5033.400406,-13989.892304,1378.971896
2205.473932,2812.782580,-15248.242405,153.219100
2205.474259,1628.453072,-13989.892304,-1072.533697
2205.474587,-2368.659014,-10955.047942,-1532.190996
2205.474914,-4663.297435,-9400.615463,-2298.286494
2205.475242,-4811.338623,-7031.956449,-2374.896044
2205.475569,-5329.482782,-5625.565159,-2528.115143
2205.475896,-4589.276840,-5107.421000,-1608.800546
2205.476224,-1406.391290,-5329.482782,-536.266849
2205.476551,1776.494261,-6439.791695,689.485948
2205.476879,3701.029710,-10288.862594,2374.896044
2205.477206,3552.988522,-10807.006753,3370.820191
2205.477533,4441.235652,-11769.274478,2298.286494
2205.477861,3034.844362,-13693.809927,1149.143247
2205.478188,2442.679609,-15692.365970,-459.657299
2205.478516,0.000000,-13767.830521,-689.485948
2205.478843,-3552.988522,-10288.862594,-919.314598
2205.479171,-4811.338623,-8956.491898,-2681.334243
2205.479498,-5255.462188,-6069.688724,-3524.039291
2205.479825,-4737.318029,-4737.318029,-3064.381992
2205.480153,-2590.720797,-5625.565159,-1302.362347
2205.480480,148.041188,-5107.421000,153.219100
2205.480808,4071.132681,-7105.977043,229.828649
2205.481135,5625.565159,-10658.965565,2528.115143
2205.481462,5255.462188,-11177.109724,3983.696590
2205.481790,5625.565159,-12657.521608,2987.772442
2205.482117,4663.297435,-14656.077652,842.705048
2205.482445,1776.494261,-15470.304188,-1225.752797
2205.482772,296.082377,-13619.789333,-2145.067394
2205.483100,-3034.844362,-11029.068536,-1762.019645
2205.483427,-4663.297435,-8734.430116,-1608.800546
2205.483754,-4293.194464,-6661.853478,-2221.676944
2205.484082,-5033.400406,-4885.359217,-2374.896044
2205.484409,-2368.659014,-5699.585753,-1455.581446
2205.484737,1036.288319,-5107.421000,0.000000
2205.485064,3849.070898,-7698.141797,1149.143247
2205.485391,3997.112087,-9548.656652,3907.087040
2205.485719,4663.297435,-11251.130318,2681.334243
2205.486046,5255.462188,-13101.645173,1149.143247
2205.486374,2886.803174,-14508.036463,459.657299
2205.486701,2220.617826,-13619.789333,-1302.362347
2205.487029,666.185348,-12361.439231,-1225.752797
2205.487356,-3108.864956,-9622.677246,-1225.752797
2205.487683,-4071.132681,-6883.915261,-1378.971896
2205.488011,-4219.173869,-5033.400406,-1608.800546
2205.488338,-3997.112087,-5107.421000,-689.485948
2205.488666,-1850.514855,-5551.544565,0.000000
2205.488993,1702.473667,-6365.771101,-1149.143247
2205.489320,3108.864956,-9252.574275,1302.362347
2205.489648,3552.988522,-10584.944971,3064.381992
2205.489975,4367.215058,-11399.171507,1991.848295
2205.490303,3034.844362,-13915.871710,689.485948
2205.490630,1998.556043,-15396.283594,-766.095498
2205.490958,814.226536,-14582.057057,-1991.848295
2205.491285,-1628.453072,-13027.624579,-1991.848295
2205.491612,-3775.050304,-9030.512492,-919.314598
2205.491940,-4737.318029,-5921.647536,-2298.286494
2205.492267,-4367.215058,-5773.606348,-2374.896044
2205.492595,-3923.091493,-5403.503377,-842.705048
2205.492922,0.000000,-5107.421000,-766.095498
2205.493249,2368.659014,-7105.977043,0.000000
2205.493577,2590.720797,-10510.924376,1991.848295
2205.493904,3849.070898,-11991.336260,2068.457845
2205.494232,3034.844362,-12065.356855,2068.457845
2205.494559,2294.638420,-14804.118840,612.876398
2205.494887,2590.720797,-15322.262999,-995.924147
2205.495214,0.000000,-13545.768739,-1225.752797
2205.495541,-3108.864956,-11769.274478,-536.266849
2205.495869,-3701.029710,-7994.224174,-689.485948
2205.496196,-4663.297435,-5551.544565,-3447.429741
2205.496524,-4959.379811,-5477.523971,-1608.800546
2205.496851,-3256.906145,-4663.297435,-766.095498
2205.497178,444.123565,-4367.215058,-842.705048
2205.497506,3404.947333,-7846.182985,306.438199
2205.497833,4441.235652,-9992.780217,2298.286494
2205.498161,5033.400406,-11917.315666,2298.286494
2205.498488,5403.503377,-13323.706956,2145.067394
2205.498816,4811.338623,-14952.160028,1455.581446
2205.499143,2960.823768,-14137.933492,0.000000
2205.499470,444.123565,-12583.501014,-612.876398
2205.499798,-2886.803174,-9696.697840,-612.876398
2205.500125,-4515.256246,-6069.688724,-1608.800546
2205.500453,-5625.565159,-4959.379811,-2681.334243
2205.500780,-4441.235652,-5255.462188,-1532.190996
2205.501107,-2294.638420,-4811.338623,-1302.362347
2205.501435,1998.556043,-6587.832884,-1608.800546
2205.501762,4145.153275,-9622.677246,612.876398
2205.502090,5255.462188,-11325.150913,2834.553343
2205.502417,6439.791695,-11917.315666,2374.896044
2205.502745,4959.379811,-13767.830521,1378.971896
2205.503072,3849.070898,-15174.221811,995.924147
2205.503399,3034.844362,-14508.036463,-689.485948
2205.503727,0.000000,-12805.562797,-842.705048
2205.504054,-3552.988522,-9030.512492,-842.705048
2205.504382,-3849.070898,-6735.874072,-2068.457845
2205.504709,-5255.462188,-5773.606348,-2451.505594
2205.505036,-4811.338623,-5625.565159,-2374.896044
2205.505364,-1776.494261,-4811.338623,-2068.457845
2205.505691,592.164754,-5847.626942,-689.485948
2205.506019,3256.906145,-10436.903782,1991.848295
2205.506346,4959.379811,-11843.295072,2911.162892
2205.506674,4663.297435,-12287.418637,2298.286494
2205.507001,3627.009116,-13619.789333,919.314598
2205.507328,2442.679609,-14285.974681,0.000000
2205.507656,148.041188,-13841.851115,-1455.581446
2205.507983,-3330.926739,-10955.047942,-1378.971896
2205.508311,-5033.400406,-7846.182985,-2221.676944
2205.508638,-4811.338623,-6735.874072,-2911.162892
2205.508965,-5773.606348,-5551.544565,-2298.286494
2205.509293,-3108.864956,-5033.400406,-995.924147
2205.509620,222.061783,-5403.503377,-536.266849
2205.509948,2738.761985,-7624.121203,612.876398
2205.510275,4441.235652,-10584.944971,2604.724693
2205.510603,4737.318029,-10955.047942,2681.334243
2205.510930,3404.947333,-12065.356855,2604.724693
2205.511257,3182.885551,-14211.954086,1685.410096
2205.511585,1924.535449,-14508.036463,-459.657299
2205.511912,-1628.453072,-12805.562797,-1302.362347
2205.512240,-3701.029710,-11547.212695,-2681.334243
2205.512567,-4737.318029,-7920.203579,-3294.210641
2205.512894,-5551.544565,-5921.647536,-3600.648841
2205.513222,-5033.400406,-5403.503377,-2451.505594
2205.513549,-1628.453072,-5477.523971,-1455.581446
2205.513877,2368.659014,-5995.668130,-689.485948
2205.514204,4737.318029,-8216.285956,1915.238745
2205.514532,6217.729913,-11325.150913,3447.429741
2205.514859,6513.812290,-11251.130318,4290.134789
2205.515186,5625.565159,-13323.706956,2298.286494
2205.515514,4293.194464,-15396.283594,76.609550
2205.515841,1998.556043,-15396.283594,-766.095498
2205.516169,0.000000,-12879.583391,-1532.190996
2205.516496,-4071.132681,-9844.739029,-1378.971896
2205.516823,-5033.400406,-7476.080014,-1838.629195
2205.517151,-4145.153275,-6439.791695,-2374.896044
2205.517478,-3997.112087,-5403.503377,-1915.238745
2205.517806,-1258.350101,-5551.544565,-766.095498
2205.518133,1850.514855,-5107.421000,153.219100
2205.518461,4589.276840,-8364.327145,1838.629195
2205.518788,5625.565159,-10584.944971,3370.820191
2205.519115,5033.400406,-11621.233289,3447.429741
2205.519443,4293.194464,-12731.542202,1608.800546
2205.519770,2812.782580,-15396.283594,-459.657299
2205.520098,1110.308913,-14656.077652,-1608.800546
2205.520425,-962.267725,-13027.624579,-1915.238745
2205.520752,-3997.112087,-9474.636058,-995.924147
2205.521080,-4071.132681,-7105.977043,-2068.457845
2205.521407,-4293.194464,-4959.379811,-2068.457845
2205.521735,-4367.215058,-3923.091493,0.000000
2205.522062,-1628.453072,-4589.276840,76.609550
2205.522390,2146.597232,-6513.812290,306.438199
2205.522717,3330.926739,-9474.636058,1685.410096
2205.523044,4663.297435,-11547.212695,2145.067394
2205.523372,4293.194464,-12509.480420,2145.067394
2205.523699,3330.926739,-15322.262999,612.876398
2205.524027,1776.494261,-15766.386565,-1302.362347
2205.524354,-370.102971,-14508.036463,-2298.286494
2205.524681,-2590.720797,-13027.624579,-2451.505594
2205.525009,-4959.379811,-8882.471304,-2221.676944
2205.525336,-4589.276840,-7031.956449,-2528.115143
2205.525664,-3849.070898,-5033.400406,-1991.848295
2205.525991,-2886.803174,-5329.482782,0.000000
2205.526319,222.061783,-4885.359217,0.000000
2205.526646,1702.473667,-6365.771101,1378.971896
2205.526973,3849.070898,-10288.862594,1991.848295
2205.527301,3478.967927,-10955.047942,3217.601092
2205.527628,3182.885551,-13397.727550,1532.190996
2205.527956,2664.741391,-15174.221811,0.000000
2205.528283,1850.514855,-15322.262999,-1532.190996
2205.528610,-962.267725,-12065.356855,-1838.629195
2205.528938,-3997.112087,-10214.842000,-1302.362347
2205.529265,-4293.194464,-7994.224174,-2374.896044
2205.529593,-4959.379811,-4885.359217,-2681.334243
2205.529920,-4515.256246,-4515.256246,-1838.629195
2205.530248,-1924.535449,-4367.215058,-536.266849
2205.530575,1702.473667,-5107.421000,383.047749
2205.530902,3997.112087,-7772.162391,2221.676944
2205.531230,5329.482782,-11843.295072,2374.896044
2205.531557,5699.585753,-11843.295072,3064.381992
2205.531885,5995.668130,-13471.748144,1838.629195
2205.532212,5107.421000,-15470.304188,383.047749
2205.532539,2146.597232,-15544.324782,229.828649
2205.532867,296.082377,-12139.377449,-842.705048
2205.533194,-2812.782580,-8660.409521,-919.314598
2205.533522,-4071.132681,-7105.977043,-1455.581446
2205.533849,-3478.967927,-4589.276840,-2221.676944
2205.534177,-3923.091493,-4145.153275,-2068.457845
2205.534504,-740.205942,-6143.709319,-1378.971896
2205.534831,3034.844362,-7402.059420,-1608.800546
2205.535159,5107.421000,-9474.636058,995.924147
2205.535486,5625.565159,-11991.336260,2987.772442
2205.535814,6069.688724,-13323.706956,2221.676944
2205.536141,5033.400406,-14063.912898,1072.533697
2205.536468,3108.864956,-14359.995275,0.000000
2205.536796,740.205942,-13397.727550,-766.095498
2205.537123,-1406.391290,-11695.253884,-1838.629195
2205.537451,-3997.112087,-9474.636058,-1608.800546
2205.537778,-5551.544565,-6587.832884,-2068.457845
2205.538105,-5403.503377,-4885.359217,-2528.115143
2205.538433,-5033.400406,-4885.359217,-1608.800546
2205.538760,-2960.823768,-5551.544565,-689.485948
2205.539087,888.247130,-6587.832884,-229.828649
2205.539415,1776.494261,-8660.409521,1532.190996
2205.539742,3849.070898,-11399.171507,2528.115143
2205.540070,4515.256246,-12805.562797,2221.676944
2205.540397,3034.844362,-14804.118840,1072.533697
2205.540724,2294.638420,-14952.160028,0.000000
2205.541052,296.082377,-12657.521608,-1225.752797
2205.541379,-3108.864956,-9770.718434,-1378.971896
2205.541707,-4959.379811,-7105.977043,-1762.019645
2205.542034,-4885.359217,-5033.400406,-1991.848295
2205.542361,-5329.482782,-4071.132681,-1455.581446
2205.542689,-3330.926739,-4959.379811,0.000000
2205.543016,222.061783,-6809.894666,-536.266849
2205.543344,2368.659014,-8364.327145,536.266849
2205.543671,3404.947333,-11621.233289,2374.896044
2205.543998,4071.132681,-12287.418637,2757.943793
2205.544326,3108.864956,-11843.295072,1455.581446
2205.544653,2812.782580,-13915.871710,842.705048
2205.544981,740.205942,-13915.871710,-1072.533697
2205.545308,-1480.411884,-12139.377449,-1225.752797
2205.545635,-3330.926739,-10807.006753,-2068.457845
2205.545963,-5033.400406,-7994.224174,-2528.115143
2205.546290,-4959.379811,-5255.462188,-2987.772442
2205.546618,-4219.173869,-5181.441594,-2298.286494
2205.546945,-2146.597232,-5181.441594,-383.047749
2205.547272,2220.617826,-6365.771101,0.000000
2205.547600,5329.482782,-9178.553681,1532.190996
2205.547927,5847.626942,-10881.027347,3677.258390
2205.548255,6291.750507,-12657.521608,2987.772442
2205.548582,6217.729913,-13915.871710,1762.019645
2205.548909,3997.112087,-13989.892304,842.705048
2205.549237,1850.514855,-13989.892304,-229.828649
2205.549564,-444.123565,-12805.562797,-1685.410096
2205.549892,-3108.864956,-9030.512492,-1685.410096
2205.550219,-4441.235652,-6291.750507,-2221.676944
2205.550546,-3330.926739,-6513.812290,-2374.896044
2205.550874,-2516.700203,-6069.688724,-1762.019645
2205.551201,296.082377,-4515.256246,-229.828649
2205.551528,4219.173869,-7550.100608,842.705048
2205.551856,4811.338623,-9178.553681,2528.115143
2205.552183,5255.462188,-10510.924376,3140.991542
2205.552511,4885.359217,-11843.295072,2145.067394
2205.552838,3701.029710,-13545.768739,1455.581446
2205.553165,3330.926739,-15026.180623,-689.485948
2205.553493,962.267725,-14063.912898,-1685.410096
2205.553820,-2220.617826,-12139.377449,-1225.752797
2205.554148,-2664.741391,-8956.491898,-1685.410096
2205.554475,-4663.297435,-6587.832884,-2068.457845
2205.554802,-4885.359217,-5995.668130,-1915.238745
2205.555130,-3627.009116,-5625.565159,-1149.143247
2205.555457,-518.144159,-5477.523971,-1532.190996
2205.555785,740.205942,-7254.018232,459.657299
2205.556112,1998.556043,-10510.924376,2681.334243
2205.556439,4145.153275,-10732.986159,2298.286494
2205.556767,3330.926739,-12583.501014,1455.581446
2205.557094,1776.494261,-14508.036463,0.000000
2205.557422,1998.556043,-15396.283594,-2145.067394
2205.557749,74.020594,-13545.768739,-1762.019645
2205.558076,-3552.988522,-10658.965565,-612.876398
2205.558404,-3108.864956,-8290.306550,-1532.190996
2205.558731,-4219.173869,-6513.812290,-1072.533697
2205.559059,-4663.297435,-4737.318029,-919.314598
2205.559386,-2072.576638,-4885.359217,-383.047749
2205.559713,592.164754,-6291.750507,76.609550
2205.560041,1850.514855,-7476.080014,1685.410096
2205.560368,2664.741391,-10362.883188,2068.457845
2205.560696,2738.761985,-11843.295072,1915.238745
2205.561023,888.247130,-12805.562797,536.266849
2205.561350,2294.638420,-14137.933492,-229.828649
2205.561678,370.102971,-14508.036463,-1378.971896
2205.562005,-1554.432478,-13101.645173,-1302.362347
2205.562332,-2664.741391,-10066.800811,-1149.143247
2205.562660,-4367.215058,-6143.709319,-1072.533697
2205.562987,-3701.029710,-5625.565159,-919.314598
2205.563315,-2812.782580,-4737.318029,-842.705048
2205.563642,-592.164754,-4219.173869,0.000000
2205.563969,2368.659014,-6365.771101,0.000000
2205.564297,5033.400406,-9474.636058,1302.362347
2205.564624,5551.544565,-11029.068536,2451.505594
2205.564952,5551.544565,-13175.665768,2068.457845
2205.565279,5033.400406,-14063.912898,1915.238745
2205.565606,4145.153275,-14730.098246,229.828649
2205.565934,2368.659014,-15100.201217,-842.705048
2205.566261,-592.164754,-12213.398043,-842.705048
2205.566589,-2812.782580,-8808.450710,-1378.971896
2205.566916,-3404.947333,-6809.894666,-2068.457845
2205.567243,-3627.009116,-5699.585753,-2451.505594
2205.567571,-3330.926739,-5403.503377,-1915.238745
2205.567898,-666.185348,-5255.462188,-153.219100
2205.568226,2368.659014,-6883.915261,-306.438199
2205.568553,3849.070898,-9770.718434,842.705048
2205.568880,4071.132681,-11399.171507,2221.676944
2205.569208,4515.256246,-12657.521608,1762.019645
2205.569535,4737.318029,-15026.180623,612.876398
2205.569863,3478.967927,-15100.201217,306.438199
2205.570190,1110.308913,-13693.809927,-306.438199
2205.570517,-1850.514855,-10658.965565,-306.438199
2205.570845,-4589.276840,-7920.203579,-995.924147
2205.571172,-5847.626942,-5625.565159,-2145.067394
2205.571500,-5995.668130,-4811.338623,-2374.896044
2205.571827,-4589.276840,-5181.441594,-1225.752797
2205.572154,-1332.370696,-5699.585753,-306.438199
2205.572482,1554.432478,-7550.100608,76.609550
2205.572809,3256.906145,-10881.027347,1455.581446
2205.573137,3997.112087,-11769.274478,1991.848295
2205.573464,3849.070898,-12435.459826,1378.971896
2205.573791,3034.844362,-14211.954086,842.705048
2205.574119,2590.720797,-14656.077652,-689.485948
2205.574446,296.082377,-12065.356855,-383.047749
2205.574773,-3256.906145,-9770.718434,76.609550
2205.575101,-4441.235652,-7846.182985,-1225.752797
2205.575428,-4737.318029,-6291.750507,-1685.410096
2205.575756,-4811.338623,-4885.359217,-1532.190996
2205.576083,-2516.700203,-6069.688724,-1762.019645
2205.576410,1332.370696,-7476.080014,-1532.190996
2205.576738,2368.659014,-9696.697840,689.485948
2205.577065,2590.720797,-11177.109724,2834.553343
2205.577393,3923.091493,-11991.336260,2528.115143
2205.577720,2738.761985,-13027.624579,1762.019645
2205.578047,2886.803174,-13915.871710,306.438199
2205.578375,962.267725,-13989.892304,-1149.143247
2205.578702,-1702.473667,-12065.356855,-1302.362347
2205.579030,-2812.782580,-9770.718434,-2911.162892
2205.579357,-4219.173869,-6291.750507,-2528.115143
2205.579684,-4515.256246,-4589.276840,-2221.676944
2205.580012,-3256.906145,-5625.565159,-1455.581446
2205.580339,0.000000,-5921.647536,-383.047749
2205.580667,3552.988522,-7476.080014,-383.047749
2205.580994,5699.585753,-10214.842000,2068.457845
2205.581321,5921.647536,-10881.027347,3677.258390
2205.581649,6365.771101,-11621.233289,3600.648841
2205.581976,5255.462188,-13471.748144,1455.581446
2205.582304,3775.050304,-14730.098246,153.219100
2205.582631,962.267725,-13101.645173,-383.047749
2205.582958,-1480.411884,-10436.903782,-1685.410096
2205.583286,-3849.070898,-9326.594869,-1991.848295
2205.583613,-4811.338623,-6587.832884,-2681.334243
2205.583941,-3404.947333,-5403.503377,-3217.601092
2205.584268,-3330.926739,-5625.565159,-1378.971896
2205.584595,0.000000,-5773.606348,-306.438199
2205.584923,4367.215058,-7698.141797,0.000000
2205.585250,4441.235652,-10436.903782,2221.676944
2205.585578,4663.297435,-10881.027347,3294.210641
2205.585905,4811.338623,-12139.377449,1455.581446
2205.586232,3404.947333,-14878.139434,919.314598
2205.586560,2220.617826,-15174.221811,-459.657299
2205.586887,-222.061783,-13101.645173,-1532.190996
2205.587214,-3256.906145,-11695.253884,-1608.800546
2205.587542,-4885.359217,-9030.512492,-1762.019645
2205.587869,-5033.400406,-6439.791695,-3294.210641
2205.588197,-4737.318029,-5699.585753,-2221.676944
2205.588524,-3404.947333,-5847.626942,-306.438199
2205.588851,888.247130,-5625.565159,-1225.752797
2205.589179,2294.638420,-8068.244768,689.485948
2205.589506,2812.782580,-10066.800811,2834.553343
2205.589834,4293.194464,-10140.821405,2528.115143
2205.590161,3775.050304,-12361.439231,766.095498
2205.590488,2146.597232,-15618.345376,-459.657299
2205.590816,2146.597232,-14878.139434,-1532.190996
2205.591143,-666.185348,-12805.562797,-1608.800546
2205.591471,-3701.029710,-10955.047942,-995.924147
2205.591798,-3849.070898,-8586.388927,-1149.143247
2205.592125,-3923.091493,-6217.729913,-1762.019645
2205.592453,-3849.070898,-5403.503377,-229.828649
2205.592780,-1924.535449,-3849.070898,536.266849
2205.593108,1480.411884,-5551.544565,0.000000
2205.593435,2738.761985,-9178.553681,1532.190996
2205.593762,1850.514855,-10066.800811,3217.601092
2205.594090,3256.906145,-11399.171507,2068.457845
2205.594417,1480.411884,-12953.603985,766.095498
2205.594745,1332.370696,-14656.077652,-919.314598
2205.595072,666.185348,-13693.809927,-1838.629195
2205.595399,-1998.556043,-12731.542202,-1225.752797
2205.595727,-2738.761985,-11029.068536,-1532.190996
2205.596054,-3182.885551,-7254.018232,-2068.457845
2205.596382,-3627.009116,-5403.503377,-1991.848295
2205.596709,-1998.556043,-4811.338623,-536.266849
2205.597036,148.041188,-4515.256246,1149.143247
2205.597364,3627.009116,-6809.894666,766.095498
2205.597691,5181.441594,-9918.759623,2451.505594
2205.598018,5625.565159,-11473.192101,2451.505594
2205.598346,6217.729913,-12731.542202,1608.800546
2205.598673,4293.194464,-14137.933492,919.314598
2205.599001,3182.885551,-15988.448347,-612.876398
2205.599328,2220.617826,-14952.160028,-1225.752797
2205.599655,-2294.638420,-11029.068536,-459.657299
2205.599983,-3404.947333,-8438.347739,-995.924147
2205.600310,-3627.009116,-6661.853478,-2374.896044
2205.600638,-3923.091493,-5477.523971,-2604.724693
2205.600965,-3182.885551,-5033.400406,-1378.971896
2205.601292,-296.082377,-5329.482782,-536.266849
2205.601620,2812.782580,-6661.853478,689.485948
2205.601947,4071.132681,-10066.800811,1762.019645
2205.602275,4589.276840,-11399.171507,2374.896044
2205.602602,4515.256246,-12731.542202,1149.143247
2205.602929,3849.070898,-14582.057057,306.438199
2205.603257,2886.803174,-15322.262999,-383.047749
2205.603584,962.267725,-12805.562797,0.000000
2205.603912,-2368.659014,-9474.636058,306.438199
2205.604239,-4145.153275,-7402.059420,-1302.362347
2205.604566,-5329.482782,-5699.585753,-1991.848295
2205.604894,-5921.647536,-4219.173869,-2221.676944
2205.605221,-3330.926739,-4515.256246,-1455.581446
2205.605549,-1036.288319,-5033.400406,-612.876398
2205.605876,2368.659014,-8364.327145,459.657299
2205.606203,4071.132681,-9992.780217,2987.772442
2205.606531,5107.421000,-11917.315666,1991.848295
2205.606858,4885.359217,-13323.706956,842.705048
2205.607186,3627.009116,-14952.160028,-459.657299
2205.607513,2146.597232,-14359.995275,-1378.971896
2205.607840,-296.082377,-12435.459826,-1455.581446
2205.608168,-2886.803174,-9696.697840,-1455.581446
2205.608495,-4663.297435,-7179.997637,-1762.019645
2205.608823,-4811.338623,-5329.482782,-1685.410096
2205.609150,-3997.112087,-5255.462188,-842.705048
2205.609477,-2368.659014,-5255.462188,-1302.362347
2205.609805,1480.411884,-7328.038826,-689.485948
2205.610132,2590.720797,-9992.780217,995.924147
2205.610459,2960.823768,-11325.150913,2757.943793
2205.610787,4293.194464,-12657.521608,2068.457845
2205.611114,2664.741391,-13989.892304,689.485948
2205.611442,1628.453072,-14137.933492,-1072.533697
2205.611769,370.102971,-13175.665768,-1302.362347
2205.612096,-3182.885551,-11473.192101,-1225.752797
2205.612424,-4145.153275,-9030.512492,-1915.238745
2205.612751,-4589.276840,-6883.915261,-2451.505594
2205.613079,-4959.379811,-4737.318029,-2374.896044
2205.613406,-2442.679609,-5033.400406,-1302.362347
2205.613733,1406.391290,-6439.791695,-612.876398
2205.614061,3849.070898,-6661.853478,1302.362347
2205.614388,5995.668130,-10214.842000,3294.210641
2205.614716,7105.977043,-11695.253884,4366.744339
2205.615043,6069.688724,-12805.562797,3370.820191
2205.615370,5255.462188,-13915.871710,1991.848295
2205.615698,3849.070898,-14211.954086,536.266849
2205.616025,444.123565,-12879.583391,-1072.533697
2205.616353,-2886.803174,-10510.924376,-1915.238745
2205.616680,-4663.297435,-7624.121203,-2757.943793
2205.617007,-4737.318029,-6809.894666,-2681.334243
2205.617335,-4959.379811,-5329.482782,-2451.505594
2205.617662,-2886.803174,-4959.379811,-1915.238745
2205.617990,444.123565,-5921.647536,-1072.533697
2205.618317,2960.823768,-7698.141797,536.266849
2205.618644,5551.544565,-10362.883188,2681.334243
2205.618972,4959.379811,-10658.965565,3983.696590
2205.619299,4293.194464,-12435.459826,2374.896044
2205.619627,4219.173869,-15026.180623,229.828649
2205.619954,2072.576638,-14582.057057,-1149.143247
2205.620281,-370.102971,-13175.665768,-1685.410096
2205.620609,-3478.967927,-9992.780217,-1532.190996
2205.620936,-5181.441594,-8142.265362,-2221.676944
2205.621263,-4737.318029,-7105.977043,-2757.943793
2205.621591,-4885.359217,-5403.503377,-2145.067394
2205.621918,-2294.638420,-4811.338623,-995.924147
2205.622246,1406.391290,-6587.832884,-689.485948
2205.622573,3627.009116,-9548.656652,1149.143247
2205.622900,3849.070898,-10362.883188,2451.505594
2205.623228,4737.318029,-11251.130318,2221.676944
2205.623555,3034.844362,-12731.542202,1149.143247
2205.623883,2146.597232,-14582.057057,-689.485948
2205.624210,888.247130,-14211.954086,-1608.800546
2205.624537,-1406.391290,-12361.439231,-2451.505594
2205.624865,-3108.864956,-9918.759623,-1838.629195
2205.625192,-4071.132681,-7105.977043,-1838.629195
2205.625520,-4589.276840,-6069.688724,-1685.410096
2205.625847,-3701.029710,-5181.441594,-229.828649
2205.626174,-1110.308913,-4515.256246,229.828649
2205.626502,1036.288319,-6587.832884,0.000000
2205.626829,2220.617826,-9178.553681,2528.115143
2205.627157,3478.967927,-11029.068536,2221.676944
2205.627484,3330.926739,-11917.315666,1762.019645
2205.627811,2442.679609,-13693.809927,229.828649
2205.628139,1850.514855,-14508.036463,-1608.800546
2205.628466,-444.123565,-14508.036463,-2298.286494
2205.628794,-2960.823768,-11917.315666,-2145.067394
2205.629121,-3256.906145,-9030.512492,-1915.238745
2205.629448,-3478.967927,-6661.853478,-1302.362347
2205.629776,-3478.967927,-4885.359217,-1072.533697
2205.630103,-2072.576638,-4367.215058,0.000000
2205.630431,1110.308913,-4959.379811,383.047749
2205.630758,4441.235652,-7105.977043,1225.752797
2205.631085,5921.647536,-9844.739029,2757.943793
2205.631413,5773.606348,-11769.274478,2451.505594
2205.631740,5107.421000,-13249.686362,1685.410096
2205.632068,3997.112087,-14508.036463,153.219100
2205.632395,1850.514855,-14878.139434,-459.657299
2205.632722,0.000000,-14063.912898,-1072.533697
2205.633050,-2368.659014,-10510.924376,-995.924147
2205.633377,-4071.132681,-7624.121203,-1685.410096
2205.633704,-3849.070898,-6217.729913,-2451.505594
2205.634032,-3256.906145,-6069.688724,-1915.238745
2205.634359,-2368.659014,-4293.194464,-383.047749
2205.634687,962.267725,-4885.359217,-536.266849
2205.635014,2738.761985,-7846.182985,842.705048
2205.635341,4071.132681,-10510.924376,2298.286494
2205.635669,4737.318029,-11621.233289,2221.676944
2205.635996,4293.194464,-13841.851115,1685.410096
2205.636324,3552.988522,-15544.324782,76.609550
2205.636651,2220.617826,-14359.995275,0.000000
2205.636978,-296.082377,-12657.521608,-1149.143247
2205.637306,-2664.741391,-10584.944971,-1302.362347
2205.637633,-3701.029710,-7846.182985,-1532.190996
2205.637961,-4219.173869,-5181.441594,-1762.019645
2205.638288,-4515.256246,-4145.153275,-1149.143247
2205.638615,-1776.494261,-5107.421000,-766.095498
2205.638943,592.164754,-6439.791695,-612.876398
2205.639270,2812.782580,-9474.636058,306.438199
2205.639598,3627.009116,-11769.274478,1838.629195
2205.639925,4737.318029,-12879.583391,919.314598
2205.640252,4589.276840,-14285.974681,306.438199
2205.640580,3034.844362,-15174.221811,-536.266849
2205.640907,1480.411884,-14211.954086,-919.314598
2205.641235,-1258.350101,-11917.315666,-1225.752797
2205.641562,-4515.256246,-8216.285956,-766.095498
2205.641890,-5773.606348,-6291.750507,-1532.190996
2205.642217,-6069.688724,-4663.297435,-1915.238745
2205.642545,-5033.400406,-4293.194464,-1455.581446
2205.642873,-2368.659014,-5329.482782,-689.485948
2205.643200,666.185348,-7179.997637,536.266849
2205.643528,2812.782580,-9992.780217,919.314598
2205.643855,3701.029710,-11251.130318,1838.629195
2205.644183,3627.009116,-13027.624579,2068.457845
2205.644510,3330.926739,-14656.077652,536.266849
2205.644838,2146.597232,-14656.077652,-153.219100
2205.645165,148.041188,-13323.706956,-842.705048
2205.645493,-1702.473667,-10807.006753,-842.705048
2205.645820,-3478.967927,-7328.038826,-1302.362347
2205.646148,-3849.070898,-6069.688724,-1532.190996
2205.646475,-4219.173869,-4663.297435,-1762.019645
2205.646803,-3034.844362,-3997.112087,-1072.533697
2205.647130,1110.308913,-5995.668130,-383.047749
2205.647458,3775.050304,-8438.347739,689.485948
2205.647785,5625.565159,-10510.924376,2528.115143
2205.648113,5995.668130,-11991.336260,4213.525239
2205.648440,5995.668130,-13619.789333,2681.334243
2205.648768,4663.297435,-14878.139434,1149.143247
2205.649095,2738.761985,-15026.180623,-536.266849
2205.649423,148.041188,-12805.562797,-1608.800546
2205.649750,-2442.679609,-11177.109724,-1915.238745
2205.650078,-4145.153275,-7994.224174,-2757.943793
2205.650405,-5773.606348,-5921.647536,-2374.896044
2205.650733,-3478.967927,-5107.421000,-1915.238745
2205.651060,-1776.494261,-5329.482782,-1302.362347
2205.651388,1702.473667,-6661.853478,-612.876398
2205.651715,3849.070898,-8142.265362,1225.752797
2205.652043,4515.256246,-10140.821405,2681.334243
2205.652370,4737.318029,-11473.192101,3217.601092
2205.652698,5033.400406,-13101.645173,2374.896044
2205.653025,2886.803174,-13693.809927,1225.752797
2205.653353,1554.432478,-13693.809927,-383.047749
2205.653680,-518.144159,-12731.542202,-1149.143247
2205.654008,-2886.803174,-10362.883188,-1608.800546
2205.654335,-4885.359217,-7328.038826,-2145.067394
2205.654663,-5107.421000,-5255.462188,-2911.162892
2205.654990,-4663.297435,-5921.647536,-1455.581446
2205.655318,-2220.617826,-5255.462188,-766.095498
2205.655645,1628.453072,-6439.791695,0.000000
2205.655973,3034.844362,-8660.409521,2374.896044
2205.656300,4515.256246,-9770.718434,2757.943793
2205.656628,4737.318029,-11843.295072,1455.581446
2205.656955,2960.823768,-13323.706956,1302.362347
2205.657283,2442.679609,-14063.912898,-306.438199
2205.657610,1184.329507,-13693.809927,-1915.238745
2205.657938,-2664.741391,-11695.253884,-1532.190996
2205.658265,-3627.009116,-9252.574275,-1991.848295
2205.658593,-4441.235652,-6661.853478,-2145.067394
2205.658920,-5329.482782,-5551.544565,-1532.190996
2205.659248,-3849.070898,-5551.544565,-1378.971896
2205.659575,-1332.370696,-5477.523971,-1378.971896
2205.659903,1036.288319,-7179.997637,-383.047749
2205.660230,2072.576638,-10436.903782,1608.800546
2205.660558,2738.761985,-10955.047942,2068.457845
2205.660885,3034.844362,-12879.583391,1532.190996
2205.661213,1998.556043,-13101.645173,229.828649
2205.661540,1480.411884,-13693.809927,-1762.019645
2205.661868,296.082377,-14063.912898,-1378.971896
2205.662195,-1924.535449,-11251.130318,-689.485948
2205.662523,-2516.700203,-7698.141797,-1225.752797
2205.662850,-2960.823768,-6661.853478,-1378.971896
2205.663178,-3256.906145,-4885.359217,-995.924147
2205.663505,-740.205942,-4737.318029,-306.438199
2205.663833,1406.391290,-5625.565159,76.609550
2205.664160,3627.009116,-7698.141797,1608.800546
2205.664488,5033.400406,-10140.821405,2528.115143
2205.664815,4737.318029,-11251.130318,2757.943793
2205.665143,4071.132681,-12953.603985,1685.410096
2205.665470,3108.864956,-14211.954086,153.219100
2205.665798,2220.617826,-13989.892304,-995.924147
2205.666125,444.123565,-12435.459826,0.000000
2205.666453,-1850.514855,-8438.347739,0.000000
2205.666780,-2442.679609,-7402.059420,-1225.752797
2205.667108,-3108.864956,-6439.791695,-995.924147
2205.667435,-3108.864956,-5329.482782,-842.705048
2205.667763,-1110.308913,-4663.297435,-766.095498
2205.668090,1332.370696,-5477.523971,-153.219100
2205.668418,3404.947333,-8808.450710,536.266849
2205.668745,4515.256246,-11103.089130,2298.286494
2205.669073,4071.132681,-12509.480420,1915.238745
2205.669400,3923.091493,-14285.974681,995.924147
2205.669728,3923.091493,-15988.448347,-459.657299
2205.670055,1554.432478,-14359.995275,-1302.362347
2205.670383,-1406.391290,-12435.459826,-1302.362347
2205.670710,-2812.782580,-9474.636058,-1532.190996
2205.671038,-4219.173869,-6365.771101,-1762.019645
2205.671365,-5329.482782,-4885.359217,-1455.581446
2205.671693,-4145.153275,-5477.523971,-2145.067394
2205.672020,-1924.535449,-5921.647536,-1608.800546
2205.672348,148.041188,-7550.100608,-612.876398
2205.672675,2294.638420,-9992.780217,459.657299
2205.673003,2812.782580,-11251.130318,919.314598
2205.673330,3108.864956,-13101.645173,689.485948
2205.673658,3108.864956,-14508.036463,612.876398
2205.673985,2812.782580,-15100.201217,-689.485948
2205.674313,1036.288319,-13545.768739,-536.266849
2205.674640,-1998.556043,-10510.924376,-153.219100
2205.674968,-3627.009116,-8660.409521,-766.095498
2205.675295,-4811.338623,-6291.750507,-1608.800546
2205.675623,-4589.276840,-5403.503377,-1915.238745
2205.675950,-4071.132681,-4589.276840,-306.438199
2205.676278,-1258.350101,-5551.544565,-842.705048
2205.676605,740.205942,-7476.080014,0.000000
2205.676933,2368.659014,-10140.821405,1302.362347
2205.677260,3034.844362,-10436.903782,2068.457845
2205.677588,2442.679609,-12361.439231,1378.971896
2205.677915,2960.823768,-14211.954086,306.438199
2205.678243,2368.659014,-13175.665768,306.438199
2205.678570,888.247130,-12361.439231,-842.705048
2205.678898,-1998.556043,-10288.862594,-536.266849
2205.679225,-3034.844362,-8216.285956,-1072.533697
2205.679553,-3627.009116,-6217.729913,-1378.971896
2205.679880,-3997.112087,-5551.544565,-842.705048
2205.680208,-1184.329507,-4219.173869,-842.705048
2205.680535,2368.659014,-6809.894666,-383.047749
2205.680863,4811.338623,-10362.883188,459.657299
2205.681190,5995.668130,-11621.233289,2145.067394
2205.681518,5847.626942,-11843.295072,3140.991542
2205.681845,5181.441594,-12805.562797,2374.896044
2205.682173,4071.132681,-14359.995275,229.828649
2205.682500,2072.576638,-14582.057057,-383.047749
2205.682828,-370.102971,-11843.295072,-1225.752797
2205.683155,-2516.700203,-9474.636058,-1455.581446
2205.683483,-3404.947333,-7476.080014,-2145.067394
2205.683810,-4071.132681,-6365.771101,-2221.676944
2205.684138,-3775.050304,-5699.585753,-2145.067394
2205.684465,-1184.329507,-5477.523971,-1225.752797
2205.684793,2368.659014,-5773.606348,-766.095498
2205.685120,4515.256246,-9548.656652,1532.190996
2205.685448,4663.297435,-10288.862594,3753.867940
2205.685775,5033.400406,-11473.192101,2911.162892
2205.686103,4737.318029,-14137.933492,1608.800546
2205.686430,2886.803174,-14952.160028,459.657299
2205.686758,1628.453072,-13693.809927,-459.657299
2205.687085,-2368.659014,-11325.150913,-995.924147
2205.687413,-4663.297435,-9918.759623,-1762.019645
2205.687740,-4145.153275,-7550.100608,-2987.772442
2205.688068,-6143.709319,-5625.565159,-1838.629195
2205.688395,-4737.318029,-5033.400406,-766.095498
2205.688723,-1924.535449,-5033.400406,-536.266849
2205.689050,1184.329507,-8068.244768,-153.219100
2205.689378,2368.659014,-9770.718434,2068.457845
2205.689705,3701.029710,-9992.780217,1915.238745
2205.690033,3182.885551,-10658.965565,1915.238745
2205.690360,2442.679609,-14730.098246,766.095498
2205.690688,1998.556043,-15470.304188,-1072.533697
2205.691015,-296.082377,-13249.686362,-1608.800546
2205.691343,-3256.906145,-11695.253884,-1838.629195
2205.691670,-3478.967927,-9474.636058,-1685.410096
2205.691998,-4589.276840,-7846.182985,-2757.943793
2205.692325,-4589.276840,-6661.853478,-1838.629195
2205.692653,-3256.906145,-5403.503377,-153.219100
2205.692980,0.000000,-5551.544565,-612.876398
2205.693308,1776.494261,-8364.327145,612.876398
2205.693635,2368.659014,-9918.759623,2298.286494
2205.693963,3627.009116,-10955.047942,1838.629195
2205.694290,2368.659014,-12509.480420,1149.143247
2205.694618,2072.576638,-14804.118840,-153.219100
2205.694945,1332.370696,-14137.933492,-1532.190996
2205.695273,-592.164754,-12509.480420,-1455.581446
2205.695600,-2368.659014,-11621.233289,-1455.581446
2205.695928,-2738.761985,-8586.388927,-2068.457845
2205.696255,-2516.700203,-6513.812290,-2834.553343
2205.696583,-2220.617826,-5551.544565,-1991.848295
2205.696910,-444.123565,-5181.441594,306.438199
2205.697238,2664.741391,-5403.503377,766.095498
2205.697565,4663.297435,-8734.430116,1762.019645
2205.697893,3997.112087,-9770.718434,4060.306139
2205.698220,5181.441594,-11103.089130,3294.210641
2205.698548,3923.091493,-12509.480420,1149.143247
2205.698875,2738.761985,-15248.242405,229.828649
2205.699203,1998.556043,-14359.995275,-842.705048
2205.699530,-296.082377,-12731.542202,-1149.143247
2205.699858,-2516.700203,-9622.677246,-536.266849
2205.700185,-2812.782580,-7105.977043,-1608.800546
2205.700513,-2368.659014,-6217.729913,-1991.848295
2205.700840,-3108.864956,-5625.565159,-766.095498
2205.701168,148.041188,-4737.318029,-383.047749
2205.701495,2960.823768,-5995.668130,-612.876398
2205.701823,3923.091493,-9622.677246,1302.362347
2205.702150,4441.235652,-11251.130318,2911.162892
2205.702478,4663.297435,-12435.459826,1991.848295
2205.702805,3552.988522,-13841.851115,766.095498
2205.703133,2368.659014,-15766.386565,-689.485948
2205.703460,666.185348,-14285.974681,-1378.971896
2205.703788,-2294.638420,-12509.480420,-919.314598
2205.704115,-3923.091493,-9474.636058,-919.314598
2205.704443,-4145.153275,-6809.894666,-2145.067394
2205.704770,-4885.359217,-5403.503377,-2145.067394
2205.705098,-3923.091493,-5255.462188,-1302.362347
2205.705425,-814.226536,-4959.379811,-919.314598
2205.705753,1258.350101,-7698.141797,-689.485948
2205.706080,2664.741391,-10510.924376,1225.752797
2205.706408,3330.926739,-10658.965565,1072.533697
2205.706735,2812.782580,-12361.439231,306.438199
2205.707063,3182.885551,-14434.015869,-153.219100
2205.707390,1998.556043,-14878.139434,-842.705048
2205.707718,0.000000,-13619.789333,-536.266849
2205.708045,-1850.514855,-10881.027347,-383.047749
2205.708373,-3330.926739,-7846.182985,-459.657299
2205.708700,-4959.379811,-5181.441594,-1072.533697
2205.709028,-4959.379811,-5033.400406,-1072.533697
2205.709355,-2960.823768,-5107.421000,-536.266849
2205.709683,-222.061783,-5033.400406,-766.095498
2205.710010,1628.453072,-7476.080014,919.314598
2205.710338,3182.885551,-11399.171507,1685.410096
2205.710665,3330.926739,-11917.315666,2374.896044
2205.710993,3701.029710,-13767.830521,1302.362347
2205.711320,2664.741391,-14211.954086,153.219100
2205.711648,1258.350101,-13989.892304,-766.095498
2205.711975,-518.144159,-12065.356855,-612.876398
2205.712303,-2294.638420,-10066.800811,459.657299
2205.712630,-4441.235652,-7402.059420,-1302.362347
2205.712958,-3552.988522,-6291.750507,-1685.410096
2205.713285,-3701.029710,-4885.359217,-1072.533697
2205.713613,-1702.473667,-4737.318029,-689.485948
2205.713940,2738.761985,-7328.038826,-536.266849
2205.714268,4737.318029,-9918.759623,1685.410096
2205.714595,5773.606348,-11399.171507,3524.039291
2205.714923,5921.647536,-12287.418637,2604.724693
2205.715250,4589.276840,-14137.933492,1685.410096
2205.715578,3997.112087,-14952.160028,76.609550
2205.715905,2072.576638,-14285.974681,-612.876398
2205.716233,-962.267725,-11917.315666,-766.095498
2205.716560,-3330.926739,-8438.347739,-1608.800546
2205.716888,-3849.070898,-6809.894666,-2528.115143
2205.717215,-4071.132681,-6439.791695,-2298.286494
2205.717543,-3182.885551,-5033.400406,-1149.143247
2205.717870,444.123565,-4885.359217,-919.314598
2205.718198,2886.803174,-6661.853478,306.438199
2205.718525,4663.297435,-9252.574275,2451.505594
2205.718853,6217.729913,-11029.068536,2987.772442
2205.719180,5551.544565,-11843.295072,2604.724693
2205.719508,4367.215058,-14211.954086,1685.410096
2205.719835,2812.782580,-15026.180623,-383.047749
2205.720163,74.020594,-13471.748144,-842.705048
2205.720490,-3552.988522,-10881.027347,-689.485948
2205.720818,-5107.421000,-8586.388927,-2145.067394
2205.721145,-5773.606348,-7698.141797,-2987.772442
2205.721473,-5847.626942,-5921.647536,-2834.553343
2205.721800,-4293.194464,-5033.400406,-1762.019645
2205.722128,-1184.329507,-5847.626942,-842.705048
2205.722455,2146.597232,-7698.141797,842.705048
2205.722783,3627.009116,-10066.800811,2374.896044
2205.723110,4737.318029,-10955.047942,2451.505594
2205.723438,4663.297435,-11843.295072,2068.457845
2205.723765,3404.947333,-13989.892304,229.828649
2205.724093,1850.514855,-15396.283594,-995.924147
2205.724420,-888.247130,-13101.645173,-1455.581446
2205.724748,-3627.009116,-10658.965565,-1685.410096
2205.725075,-5255.462188,-8956.491898,-2451.505594
2205.725403,-5403.503377,-7031.956449,-2834.553343
2205.725730,-4885.359217,-5033.400406,-2068.457845
2205.726058,-3330.926739,-4737.318029,-842.705048
2205.726385,666.185348,-6661.853478,229.828649
2205.726713,2812.782580,-8586.388927,1072.533697
2205.727040,3552.988522,-10510.924376,2604.724693
2205.727368,3997.112087,-11029.068536,2681.334243
2205.727695,3849.070898,-13101.645173,1302.362347
2205.728023,3256.906145,-14878.139434,-689.485948
2205.728350,1258.350101,-14508.036463,-1378.971896
2205.728678,-814.226536,-12065.356855,-536.266849
2205.729006,-3182.885551,-9770.718434,-1608.800546
2205.729333,-4367.215058,-8808.450710,-2145.067394
2205.729661,-3404.947333,-6661.853478,-2145.067394
2205.729988,-3182.885551,-4737.318029,-919.314598
2205.730316,-740.205942,-4515.256246,612.876398
2205.730643,2738.761985,-5625.565159,1149.143247
2205.730971,5477.523971,-8586.388927,1915.238745
2205.731298,5551.544565,-9696.697840,3983.696590
2205.731626,5107.421000,-11103.089130,3064.381992
2205.731953,4737.318029,-13101.645173,1225.752797
2205.732281,2886.803174,-15766.386565,-612.876398
2205.732608,1702.473667,-14804.118840,-1455.581446
2205.732936,-1184.329507,-11917.315666,-1762.019645
2205.733263,-3034.844362,-9474.636058,-1302.362347
2205.733591,-3182.885551,-7550.100608,-2145.067394
2205.733918,-3330.926739,-6291.750507,-1915.238745
2205.734246,-2886.803174,-5255.462188,-536.266849
2205.734573,-370.102971,-4737.318029,0.000000
2205.734901,3627.009116,-7031.956449,536.266849
2205.735228,4589.276840,-9770.718434,2987.772442
2205.735556,5033.400406,-11547.212695,3217.601092
2205.735883,4515.256246,-11695.253884,2145.067394
2205.736211,3552.988522,-15396.283594,-306.438199
2205.736538,2072.576638,-16654.633695,-1072.533697
2205.736866,0.000000,-13471.748144,-1608.800546
2205.737193,-3256.906145,-11695.253884,-1762.019645
2205.737521,-4737.318029,-9474.636058,-1762.019645
2205.737848,-4367.215058,-6291.750507,-1838.629195
2205.738176,-4959.379811,-4367.215058,-2221.676944
2205.738503,-4515.256246,-4737.318029,-229.828649
2205.738830,-740.205942,-4811.338623,-459.657299
2205.739158,1702.473667,-6661.853478,306.438199
2205.739485,2368.659014,-10066.800811,1685.410096
2205.739813,3627.009116,-10881.027347,1915.238745
2205.740140,3775.050304,-12361.439231,1149.143247
2205.740468,3849.070898,-15396.283594,306.438199
2205.740795,2220.617826,-15322.262999,-459.657299
2205.741123,222.061783,-12583.501014,-1225.752797
2205.741450,-2812.782580,-9992.780217,-919.314598
2205.741778,-3997.112087,-7846.182985,-1608.800546
2205.742105,-4219.173869,-5847.626942,-1532.190996
2205.742433,-4367.215058,-4293.194464,-1378.971896
2205.742760,-2220.617826,-4737.318029,0.000000
2205.743088,592.164754,-5773.606348,-1072.533697
2205.743415,2368.659014,-9104.533087,229.828649
2205.743743,2664.741391,-10732.986159,1991.848295
2205.744070,3182.885551,-11547.212695,1149.143247
2205.744398,3552.988522,-14211.954086,0.000000
2205.744725,3182.885551,-14285.974681,-306.438199
2205.745052,2368.659014,-13989.892304,-612.876398
2205.745380,444.123565,-13101.645173,-995.924147
2205.745707,-2516.700203,-9918.759623,-153.219100
2205.746035,-3256.906145,-6883.915261,-1225.752797
2205.746362,-3849.070898,-5551.544565,-1991.848295
2205.746690,-4145.153275,-5329.482782,-1608.800546
2205.747017,-1184.329507,-6217.729913,-1608.800546
2205.747345,2368.659014,-7698.141797,-536.266849
2205.747672,4811.338623,-11251.130318,1762.019645
2205.748000,5477.523971,-11769.274478,3830.477490
2205.748327,5921.647536,-12805.562797,2528.115143
2205.748655,4367.215058,-14211.954086,1302.362347
2205.748982,2516.700203,-14508.036463,76.609550
2205.749310,1406.391290,-13323.706956,-766.095498
2205.749637,-1406.391290,-10436.903782,306.438199
2205.749965,-3923.091493,-7550.100608,0.000000
2205.750292,-4145.153275,-6069.688724,-1455.581446
2205.750619,-4293.194464,-6143.709319,-1608.800546
2205.750947,-3775.050304,-5477.523971,-766.095498
2205.751274,0.000000,-4737.318029,-766.095498
2205.751602,2442.679609,-7179.997637,0.000000
2205.751929,4219.173869,-10658.965565,1838.629195
2205.752257,4441.235652,-10584.944971,3370.820191
2205.752584,4219.173869,-12361.439231,2604.724693
2205.752912,3923.091493,-14730.098246,1685.410096
2205.753239,2072.576638,-14211.954086,0.000000
2205.753567,148.041188,-12657.521608,-1072.533697
2205.753894,-4071.132681,-10510.924376,-919.314598
2205.754222,-4441.235652,-8734.430116,-1991.848295
2205.754549,-4811.338623,-6217.729913,-3600.648841
2205.754877,-5477.523971,-6735.874072,-2681.334243
